time,Gyr_X,Gyr_Y,Gyr_Z
0.0,0.001293,0.00195,-0.000332
0.0024999999999977,-0.00104,0.000926,-0.000633
0.0050000000000096,-0.00097,0.000284,-0.000902
0.0075000000000073,-0.000811,0.002257,-0.000489
0.0100000000000051,-0.001173,0.003459,0.000264
0.0125000000000028,-0.000599,0.002175,0.001208
0.0150000000000005,0.001971,-0.003348,0.000788
0.0174999999999982,0.003722,0.00151,-0.00286
0.0200000000000102,0.002588,-0.001709,-0.000711
0.0225000000000079,-0.004466,-0.000338,0.002018
0.0250000000000056,0.004793,-0.000134,0.001866
0.0275000000000034,-0.002451,0.001969,0.002646
0.0300000000000011,0.004829,0.006472,0.000947
0.0324999999999988,-0.003806,0.000937,0.000698
0.0349999999999965,-0.002587,0.002409,0.000445
0.0375000000000085,0.002726,0.001108,0.003152
0.0400000000000062,0.000303,-0.002459,0.001282
0.0425000000000039,0.000928,-0.000405,0.00075
0.0450000000000017,0.003073,-0.001046,0.000783
0.0474999999999994,0.002468,0.00217,-0.000714
0.0499999999999971,-0.00113,-0.003015,-0.000681
0.052500000000009,0.000376,0.000257,-0.000589
0.0550000000000068,0.001846,-0.001483,0.001725
0.0575000000000045,-0.002144,0.002215,-0.001357
0.0600000000000022,-0.000861,0.000908,-0.001839
0.0625,-0.002909,0.002595,-0.000198
0.0649999999999977,0.000582,0.003647,0.000694
0.0675000000000096,0.001586,0.003054,-0.000566
0.0700000000000073,0.001302,-0.004856,0.001191
0.0725000000000051,0.000419,0.003292,0.001984
0.0750000000000028,-0.001058,0.000619,-0.002038
0.0775000000000005,-0.002962,0.002076,-0.001289
0.0799999999999983,-0.000612,0.00061,0.00096
0.0825000000000102,-5.4e-05,8.3e-05,-0.000887
0.0850000000000079,0.003507,0.000461,0.003079
0.0875000000000056,0.002704,0.000492,0.001971
0.0900000000000034,-0.00332,0.001008,-0.00255
0.0925000000000011,0.000101,-0.002505,0.001433
0.0949999999999988,-0.001457,-0.000565,0.000148
0.0974999999999965,0.000676,-0.000536,2.8e-05
0.1000000000000085,-0.001983,-0.000337,0.000163
0.1025000000000062,0.000583,0.001203,0.001173
0.1050000000000039,-0.000143,1e-05,0.00148
0.1075000000000017,3.9e-05,0.003356,-0.002149
0.1099999999999994,-0.002089,0.000542,-1.3e-05
0.1124999999999971,0.003115,-0.00011,0.002097
0.1150000000000091,0.002394,-0.001143,-8.2e-05
0.1175000000000068,0.000937,-0.001611,0.001241
0.1200000000000045,0.000872,0.004063,-7.9e-05
0.1225000000000022,-0.000176,-3e-06,0.000653
0.125,0.001141,-0.000744,0.000467
0.1274999999999977,0.000144,0.001883,-0.00165
0.1300000000000096,-0.001323,0.000825,0.00184
0.1325000000000074,0.000419,0.000773,0.000323
0.1350000000000051,0.00319,-0.003007,0.000713
0.1375000000000028,0.001647,0.000548,7.5e-05
0.1400000000000005,0.000896,-0.003183,-0.000496
0.1424999999999983,-0.000361,-0.002301,0.001843
0.1450000000000102,0.002571,0.000346,0.000464
0.1475000000000079,0.000437,0.000199,-0.00139
0.1500000000000056,-0.002077,-0.000253,0.00445
0.1525000000000034,0.00205,0.000132,-0.000334
0.1550000000000011,0.001606,-0.001839,-0.000781
0.1574999999999988,0.001448,0.00029,0.005304
0.1599999999999966,-0.000486,0.000567,-0.001238
0.1625000000000085,0.000351,0.001971,0.001488
0.1650000000000062,-0.000921,0.000697,-0.000729
0.1675000000000039,0.002078,-0.000933,-0.001197
0.1700000000000017,0.000133,0.000136,0.00341
0.1724999999999994,0.000919,-0.002494,0.000147
0.1749999999999971,0.001267,-0.000972,0.001685
0.1775000000000091,-0.001307,-0.004055,-0.003341
0.1800000000000068,0.001764,0.000929,-0.00098
0.1825000000000045,0.001714,-0.001591,-0.000443
0.1850000000000022,-0.002404,-3.1e-05,0.002933
0.1875,-0.001283,-0.000779,0.000723
0.1899999999999977,0.00177,-0.002594,0.003379
0.1925000000000096,-0.000657,0.001902,0.00058
0.1950000000000074,-0.000204,0.002911,0.000899
0.1975000000000051,-0.004299,-0.000301,-0.003265
0.2000000000000028,-0.001836,0.000291,-0.000702
0.2025000000000005,0.002231,-0.002705,0.000391
0.2049999999999983,-0.000153,0.000403,-0.003164
0.2075000000000102,-0.002024,0.002246,-0.001203
0.2100000000000079,0.001628,-0.004472,0.002851
0.2125000000000056,-3e-06,-0.0025,0.00063
0.2150000000000034,0.002501,-0.001638,4.5e-05
0.2175000000000011,7.5e-05,-0.001355,-0.000551
0.2199999999999988,0.000755,-0.00322,0.002151
0.2224999999999966,0.000186,0.003589,0.001971
0.2250000000000085,-0.002831,0.007091,0.000197
0.2275000000000062,-0.002907,0.001945,-0.001051
0.2300000000000039,-0.001399,-0.000319,0.000226
0.2325000000000017,0.002021,0.003456,0.001822
0.2349999999999994,-0.002047,-0.004385,0.000163
0.2374999999999971,-0.001322,-0.000948,-0.000966
0.2400000000000091,0.001334,-0.001591,0.001731
0.2425000000000068,0.003015,-0.001742,0.002996
0.2450000000000045,0.005617,-0.000957,-0.000471
0.2475000000000022,-0.000693,0.004608,0.001029
0.25,0.00034,-0.001404,0.000601
0.2524999999999977,0.002223,-0.000438,-0.000267
0.2550000000000096,-0.000542,0.000311,0.00209
0.2575000000000074,-0.001369,0.000993,-0.000186
0.2600000000000051,-0.000118,-0.000277,0.000849
0.2625000000000028,-0.003307,-0.001983,-0.001137
0.2650000000000005,0.00175,0.001433,0.000291
0.2674999999999983,0.001179,0.002234,-0.001596
0.2700000000000102,-1.5e-05,0.000107,0.000349
0.2725000000000079,0.003421,0.001698,0.002133
0.2750000000000057,0.001759,-0.001472,-0.002052
0.2775000000000034,0.002479,-0.000939,0.000375
0.2800000000000011,0.00178,-0.001816,-0.001873
0.2824999999999988,-0.001255,-0.004221,0.001086
0.2849999999999966,-0.000422,0.002583,0.000425
0.2875000000000085,-0.000823,0.000335,0.001044
0.2900000000000062,0.000172,-0.002354,-0.000574
0.292500000000004,-0.001737,-0.001116,6.3e-05
0.2950000000000017,0.000238,-0.000367,0.002254
0.2974999999999994,0.003149,0.000989,0.000956
0.2999999999999971,0.001513,0.000802,0.002972
0.3025000000000091,0.001182,0.000163,0.003386
0.3050000000000068,-0.000678,0.002012,0.00186
0.3075000000000045,0.000777,-0.002486,0.001422
0.3100000000000023,-8e-05,0.002319,0.000688
0.3125,0.000567,0.003325,0.000653
0.3149999999999977,-0.002742,0.00043,0.000954
0.3175000000000096,-0.00245,0.000835,0.0014
0.3200000000000074,0.001644,0.004628,0.003316
0.3225000000000051,-0.000478,0.000634,7.2e-05
0.3250000000000028,-0.002369,0.002532,-0.002195
0.3275000000000005,-0.001064,0.001097,-0.001048
0.3299999999999983,-0.002025,0.001512,0.001205
0.3325000000000102,-0.000541,0.001176,-0.003187
0.3350000000000079,-0.000185,0.000786,0.000791
0.3375000000000057,-0.000729,-0.001764,9.2e-05
0.3400000000000034,-0.001583,7.5e-05,0.000372
0.3425000000000011,0.000402,0.001014,0.001047
0.3449999999999988,0.000422,0.000564,-0.0011
0.3474999999999966,-0.000736,0.002242,0.000408
0.3500000000000085,-0.000477,-0.005063,0.000314
0.3525000000000062,-0.001733,0.001695,0.001482
0.355000000000004,-0.004315,-0.006738,-0.001384
0.3575000000000017,0.001072,-0.000532,5.6e-05
0.3599999999999994,-0.000887,-0.00294,-0.001499
0.3624999999999971,0.001887,3.5e-05,0.003914
0.3650000000000091,0.000543,-0.002863,-0.001737
0.3675000000000068,0.002009,0.001415,1e-06
0.3700000000000045,0.002842,0.000862,-0.000826
0.3725000000000023,-0.001262,-0.000316,0.000394
0.375,-0.002721,0.002941,-0.002177
0.3774999999999977,-0.000231,0.001391,-0.001398
0.3800000000000096,0.001127,-0.00177,0.000713
0.3825000000000074,-9.8e-05,-0.002772,-0.001186
0.3850000000000051,0.000832,-0.00225,-0.00204
0.3875000000000028,0.00018,-0.001653,0.00139
0.3900000000000005,0.002591,-0.001898,0.000169
0.3924999999999983,-0.000706,-0.001463,-0.001653
0.3950000000000102,0.002063,0.002659,0.0026
0.3975000000000079,0.000861,0.00098,0.001057
0.4000000000000057,0.000832,0.00307,-0.000428
0.4025000000000034,0.000838,2.9e-05,-0.000562
0.4050000000000011,0.002017,1.4e-05,-0.001593
0.4074999999999988,0.001282,-0.000413,0.00186
0.4099999999999966,-0.003202,0.00541,-0.000979
0.4125000000000085,-0.002614,0.000673,-0.002886
0.4150000000000062,-0.000939,-0.002091,0.001676
0.417500000000004,-0.002021,0.00113,0.00157
0.4200000000000017,0.001181,0.000659,0.001062
0.4224999999999994,-0.001036,0.000615,0.003932
0.4249999999999971,-0.004084,0.000114,0.000592
0.4275000000000091,-3.3e-05,-0.002731,0.001547
0.4300000000000068,0.000996,-0.002493,0.000908
0.4325000000000045,-0.003061,-0.000134,0.001515
0.4350000000000023,0.000738,-0.000139,0.001382
0.4375,0.002334,0.000837,0.001521
0.4399999999999977,-0.000651,0.001688,0.001682
0.4425000000000096,-0.002211,0.00494,-0.000355
0.4450000000000074,0.000437,-0.000778,-0.000431
0.4475000000000051,0.001482,0.002117,0.001838
0.4500000000000028,0.002594,0.002567,0.001875
0.4525000000000005,-0.000808,-0.000516,-0.000565
0.4549999999999983,-0.000805,-0.001211,-0.000478
0.4575000000000102,-0.00305,-0.003205,-0.00113
0.4600000000000079,-0.00442,0.001404,0.000449
0.4625000000000057,-0.002773,0.002316,0.002065
0.4650000000000034,-0.000297,0.003383,-0.00242
0.4675000000000011,0.002017,0.002535,0.001273
0.4699999999999988,-0.002044,0.002461,0.001407
0.4724999999999966,0.001178,0.003944,0.000726
0.4750000000000085,-0.001849,0.003318,0.003625
0.4775000000000062,-0.001703,0.000607,0.00172
0.480000000000004,0.001057,0.000844,0.000241
0.4825000000000017,-0.001802,0.000537,5.1e-05
0.4849999999999994,-0.001653,-0.002633,0.000391
0.4874999999999971,-0.000735,0.002941,0.004684
0.4900000000000091,-0.000185,0.002826,-0.000839
0.4925000000000068,-0.001502,0.001179,0.001808
0.4950000000000045,0.001065,0.001749,-0.003178
0.4975000000000023,0.000309,0.002056,-0.00093
0.5,0.001023,0.00172,-5.7e-05
0.5024999999999977,-0.000978,0.001308,-0.000751
0.5050000000000097,0.002823,-0.001153,-0.001197
0.5075000000000074,0.001145,0.000804,-0.00148
0.5100000000000051,-0.002086,0.000734,-0.002557
0.5125000000000028,-0.00076,0.000808,-0.000791
0.5150000000000006,-0.000887,-0.003655,0.003505
0.5174999999999983,-0.00194,-0.001088,-0.000323
0.5200000000000102,0.000993,0.001157,0.000771
0.522500000000008,-0.003019,0.001339,-0.001003
0.5250000000000057,0.001111,0.001767,0.001418
0.5275000000000034,0.003494,-0.001138,-0.001721
0.5300000000000011,0.002252,0.0022,-0.000647
0.5324999999999989,0.000852,-0.002533,-0.00094
0.5349999999999966,0.001075,0.0024,0.002486
0.5375000000000085,-0.000176,-0.000636,-0.000416
0.5400000000000063,3.2e-05,2.6e-05,-0.000817
0.542500000000004,-0.000913,0.004006,0.001156
0.5450000000000017,-0.00146,0.002358,8.4e-05
0.5474999999999994,-1.6e-05,0.000764,-0.000776
0.5499999999999972,0.001662,0.00198,-0.001134
0.5525000000000091,0.000756,0.003652,0.000254
0.5550000000000068,-0.002435,0.005274,-0.003661
0.5575000000000045,-0.003397,0.004465,0.000613
0.5600000000000023,-0.002347,0.006359,-0.00086
0.5625,-0.002389,0.004085,-0.001921
0.5649999999999977,-0.001968,0.004042,-0.001077
0.5675000000000097,-0.00277,0.004018,-0.000681
0.5700000000000074,-0.003313,0.002179,0.001759
0.5725000000000051,-0.002934,0.002816,0.001217
0.5750000000000028,-0.003748,0.008481,0.001024
0.5775000000000006,-0.005202,0.006232,-0.002588
0.5799999999999983,-0.003666,0.010007,-0.000687
0.5825000000000102,-0.003766,0.006541,-0.000964
0.585000000000008,-0.002556,0.006735,-0.001705
0.5875000000000057,-0.00113,0.01178,-0.003406
0.5900000000000034,0.001056,0.007408,0.000305
0.5925000000000011,0.002863,0.011554,0.000513
0.5949999999999989,0.000998,0.013494,0.001781
0.5974999999999966,0.002,0.015675,0.004181
0.6000000000000085,0.004732,0.012096,0.000226
0.6025000000000063,0.001457,0.012932,-0.001048
0.605000000000004,0.003659,0.013887,0.001828
0.6075000000000017,0.005061,0.013653,4.5e-05
0.6099999999999994,0.00793,0.017645,0.001944
0.6124999999999972,0.00753,0.016419,0.002386
0.6150000000000091,0.009265,0.020293,0.002556
0.6175000000000068,0.009342,0.022357,-0.00136
0.6200000000000045,0.011595,0.019746,0.000558
0.6225000000000023,0.010457,0.025959,0.001384
0.625,0.011802,0.025951,0.000704
0.6274999999999977,0.016131,0.025708,-0.000343
0.6300000000000097,0.01541,0.026866,-0.003177
0.6325000000000074,0.02098,0.033537,-0.002323
0.6350000000000051,0.02226,0.034488,-0.004864
0.6375000000000028,0.019772,0.036272,-0.007258
0.6400000000000006,0.022697,0.03841,-0.007507
0.6424999999999983,0.024102,0.03866,-0.009337
0.6450000000000102,0.025737,0.045472,-0.007385
0.647500000000008,0.025479,0.044616,-0.01177
0.6500000000000057,0.03242,0.051471,-0.016743
0.6525000000000034,0.032923,0.051875,-0.019324
0.6550000000000011,0.034294,0.062855,-0.019242
0.6574999999999989,0.034732,0.068488,-0.021704
0.6599999999999966,0.040121,0.06794,-0.025801
0.6625000000000085,0.040666,0.077949,-0.028811
0.6650000000000063,0.038693,0.090712,-0.029568
0.667500000000004,0.043362,0.091258,-0.037682
0.6700000000000017,0.048446,0.099448,-0.039724
0.6724999999999994,0.051466,0.110889,-0.042792
0.6749999999999972,0.052009,0.115553,-0.051075
0.6775000000000091,0.058343,0.124431,-0.054616
0.6800000000000068,0.060902,0.13127,-0.059827
0.6825000000000045,0.068858,0.139373,-0.064722
0.6850000000000023,0.075539,0.139906,-0.074966
0.6875,0.082258,0.146089,-0.079687
0.6899999999999977,0.090247,0.153165,-0.085248
0.6925000000000097,0.095164,0.158837,-0.089894
0.6950000000000074,0.102774,0.15832,-0.098421
0.6975000000000051,0.108583,0.160719,-0.103275
0.7000000000000028,0.115813,0.164432,-0.108524
0.7025000000000006,0.122841,0.17077,-0.112964
0.7049999999999983,0.125548,0.169116,-0.119226
0.7075000000000102,0.135367,0.169457,-0.123394
0.710000000000008,0.140942,0.173082,-0.131093
0.7125000000000057,0.148187,0.175313,-0.134268
0.7150000000000034,0.153809,0.175702,-0.14168
0.7175000000000011,0.157151,0.177825,-0.151655
0.7199999999999989,0.162118,0.18178,-0.15469
0.7224999999999966,0.169481,0.182981,-0.159565
0.7250000000000085,0.17297,0.186173,-0.165771
0.7275000000000063,0.174146,0.192418,-0.176169
0.730000000000004,0.182127,0.190688,-0.182121
0.7325000000000017,0.186554,0.194762,-0.188394
0.7349999999999994,0.191893,0.1952,-0.189492
0.7374999999999972,0.194817,0.197449,-0.201891
0.7400000000000091,0.200265,0.199211,-0.214161
0.7425000000000068,0.205424,0.199177,-0.216366
0.7450000000000045,0.211718,0.200655,-0.219138
0.7475000000000023,0.212022,0.203202,-0.227164
0.75,0.213509,0.197531,-0.227857
0.7524999999999977,0.218531,0.193154,-0.233683
0.7550000000000097,0.22201,0.195263,-0.236788
0.7575000000000074,0.220614,0.194506,-0.240074
0.7600000000000051,0.222784,0.194132,-0.246084
0.7625000000000028,0.219744,0.194819,-0.248642
0.7650000000000006,0.22062,0.185525,-0.252895
0.7674999999999983,0.216455,0.189459,-0.256576
0.7700000000000102,0.21405,0.185647,-0.25831
0.772500000000008,0.209085,0.181247,-0.263242
0.7750000000000057,0.208289,0.180099,-0.263885
0.7775000000000034,0.201913,0.171169,-0.26504
0.7800000000000011,0.19647,0.174033,-0.268549
0.7824999999999989,0.188353,0.16707,-0.271443
0.7849999999999966,0.186738,0.166819,-0.271483
0.7875000000000085,0.179512,0.161683,-0.271861
0.7900000000000063,0.172328,0.153885,-0.272371
0.792500000000004,0.163307,0.149279,-0.276586
0.7950000000000017,0.15767,0.141845,-0.27905
0.7974999999999994,0.148685,0.137318,-0.279027
0.7999999999999972,0.141422,0.129918,-0.278479
0.8025000000000091,0.132119,0.12766,-0.280532
0.8050000000000068,0.123701,0.119697,-0.278558
0.8075000000000045,0.115774,0.112986,-0.279439
0.8100000000000023,0.108028,0.102901,-0.278682
0.8125,0.100624,0.103856,-0.275759
0.8149999999999977,0.08916,0.098354,-0.276966
0.8175000000000097,0.08169,0.092115,-0.272572
0.8200000000000074,0.073686,0.082744,-0.270562
0.8225000000000051,0.061379,0.080752,-0.271083
0.8250000000000028,0.05457,0.069167,-0.26667
0.8275000000000006,0.045196,0.070434,-0.266984
0.8299999999999983,0.038256,0.058647,-0.265366
0.8325000000000102,0.031412,0.051575,-0.259136
0.835000000000008,0.022703,0.049419,-0.256427
0.8375000000000057,0.016332,0.04706,-0.253142
0.8400000000000034,0.006887,0.033958,-0.251146
0.8425000000000011,0.003719,0.032223,-0.245304
0.8449999999999989,-0.00442,0.023129,-0.243337
0.8474999999999966,-0.01241,0.021627,-0.238952
0.8500000000000085,-0.015759,0.018636,-0.238481
0.8525000000000063,-0.024961,0.013009,-0.228179
0.855000000000004,-0.029407,0.005057,-0.225069
0.8575000000000017,-0.033101,0.006706,-0.218841
0.8599999999999994,-0.035971,-0.004113,-0.209552
0.8624999999999972,-0.037065,-0.001918,-0.204454
0.8650000000000091,-0.046533,-0.006488,-0.200817
0.8675000000000068,-0.044705,-0.013559,-0.192137
0.8700000000000045,-0.047027,-0.018479,-0.184745
0.8725000000000023,-0.050896,-0.020461,-0.181746
0.875,-0.052385,-0.02051,-0.175099
0.8774999999999977,-0.051498,-0.028455,-0.169231
0.8800000000000097,-0.053279,-0.024822,-0.162369
0.8825000000000074,-0.051247,-0.033012,-0.159378
0.8850000000000051,-0.051008,-0.037345,-0.151439
0.8875000000000028,-0.050172,-0.040422,-0.147082
0.8900000000000006,-0.052086,-0.036901,-0.140214
0.8924999999999983,-0.045452,-0.044827,-0.133021
0.8950000000000102,-0.045344,-0.042816,-0.128777
0.897500000000008,-0.038484,-0.043325,-0.121886
0.9000000000000057,-0.034329,-0.043797,-0.119425
0.9025000000000034,-0.036393,-0.040266,-0.115609
0.9050000000000012,-0.035186,-0.044884,-0.11024
0.9074999999999988,-0.029486,-0.046572,-0.104696
0.9099999999999966,-0.026287,-0.050698,-0.098251
0.9125000000000084,-0.021094,-0.045802,-0.091743
0.9150000000000064,-0.017034,-0.048807,-0.089714
0.917500000000004,-0.01289,-0.052492,-0.081645
0.9200000000000016,-0.014597,-0.049242,-0.073183
0.9224999999999994,-0.007014,-0.051309,-0.071189
0.9249999999999972,-0.005823,-0.048056,-0.063451
0.9275000000000092,-0.001016,-0.05272,-0.058658
0.9300000000000068,0.003847,-0.050364,-0.053276
0.9325000000000044,0.00575,-0.049342,-0.046466
0.9350000000000024,0.006881,-0.048761,-0.044449
0.9375,0.011244,-0.04653,-0.038356
0.9399999999999976,0.013105,-0.048788,-0.035842
0.9425000000000096,0.015491,-0.048074,-0.028785
0.9450000000000074,0.014123,-0.043829,-0.026156
0.9475000000000052,0.018122,-0.042032,-0.020976
0.9500000000000028,0.020526,-0.038366,-0.014576
0.9525000000000006,0.021514,-0.041416,-0.012198
0.9549999999999984,0.027139,-0.032477,-0.006066
0.9575000000000102,0.027304,-0.032245,-0.001167
0.960000000000008,0.027166,-0.033027,0.001229
0.9625000000000056,0.02801,-0.032032,0.007818
0.9650000000000034,0.030618,-0.03356,0.011312
0.9675000000000012,0.027894,-0.032905,0.014644
0.9699999999999988,0.032043,-0.027256,0.015964
0.9724999999999966,0.028747,-0.025287,0.019529
0.9750000000000084,0.033166,-0.0257,0.026488
0.9775000000000064,0.031827,-0.02542,0.030387
0.980000000000004,0.031491,-0.019152,0.031786
0.9825000000000016,0.02911,-0.022137,0.03958
0.9849999999999994,0.032604,-0.018275,0.043259
0.9874999999999972,0.033895,-0.022955,0.046594
0.9900000000000092,0.033876,-0.021857,0.051058
0.9925000000000068,0.03433,-0.018838,0.054257
0.9950000000000044,0.034126,-0.019662,0.057466
0.9975000000000024,0.035908,-0.01623,0.065402
1.0,0.03773,-0.013083,0.067169
1.0024999999999975,0.030054,-0.013466,0.069891
1.0050000000000097,0.031901,-0.014918,0.075956
1.0075000000000074,0.033534,-0.012542,0.076724
1.0100000000000051,0.036917,-0.008719,0.085466
1.0125000000000028,0.036948,-0.012928,0.08887
1.0150000000000006,0.033189,-0.006869,0.096489
1.0174999999999983,0.036249,-0.006206,0.09821
1.0200000000000102,0.033023,-0.004384,0.101743
1.022500000000008,0.030126,-0.00169,0.103871
1.0250000000000057,0.028103,-0.001173,0.11109
1.0275000000000034,0.027724,0.006088,0.111812
1.0300000000000011,0.02466,0.00215,0.111791
1.0324999999999989,0.025126,0.005638,0.119332
1.0349999999999966,0.022676,0.007647,0.120217
1.0375000000000083,0.020548,0.007004,0.119389
1.0400000000000065,0.014059,0.01026,0.121855
1.042500000000004,0.011558,0.011113,0.122573
1.0450000000000017,0.01149,0.006814,0.121637
1.0474999999999994,0.008164,0.009037,0.124037
1.0499999999999972,0.004106,0.009657,0.121773
1.052500000000009,-0.001802,0.011756,0.122317
1.0550000000000068,0.002151,0.009812,0.125185
1.0575000000000043,-0.002959,0.005262,0.125117
1.0600000000000025,-0.00378,0.010312,0.126592
1.0625,-0.00471,0.00589,0.118
1.0649999999999975,-0.010847,0.007718,0.120344
1.0675000000000097,-0.013465,0.01084,0.119928
1.0700000000000074,-0.015821,0.014404,0.116777
1.0725000000000051,-0.016163,0.010944,0.116544
1.0750000000000028,-0.016847,0.008941,0.109077
1.0775000000000006,-0.019361,0.011051,0.111138
1.0799999999999983,-0.020619,0.015631,0.105544
1.0825000000000102,-0.023335,0.016553,0.103461
1.085000000000008,-0.023627,0.011038,0.102728
1.0875000000000057,-0.023597,0.015122,0.097487
1.0900000000000034,-0.023572,0.018171,0.093762
1.0925000000000011,-0.026122,0.020481,0.095346
1.0949999999999989,-0.029515,0.020099,0.093804
1.0974999999999966,-0.032182,0.022285,0.091992
1.1000000000000083,-0.035018,0.023877,0.087998
1.1025000000000065,-0.032084,0.023931,0.087873
1.105000000000004,-0.034001,0.027771,0.087119
1.1075000000000017,-0.034846,0.024956,0.086793
1.1099999999999994,-0.03394,0.029928,0.084112
1.1124999999999972,-0.033814,0.028988,0.084823
1.115000000000009,-0.035997,0.030262,0.082579
1.1175000000000068,-0.036508,0.029843,0.081051
1.1200000000000043,-0.031409,0.025877,0.079026
1.1225000000000025,-0.028068,0.029873,0.078496
1.125,-0.028987,0.030342,0.075866
1.1274999999999975,-0.029889,0.030755,0.073474
1.1300000000000097,-0.026147,0.028033,0.070599
1.1325000000000074,-0.02268,0.031804,0.068209
1.1350000000000051,-0.02396,0.034145,0.066786
1.1375000000000028,-0.022498,0.0329,0.062452
1.1400000000000006,-0.01498,0.032599,0.058571
1.1424999999999983,-0.013125,0.03924,0.057163
1.1450000000000102,-0.010091,0.039013,0.052062
1.147500000000008,-0.006919,0.04366,0.050666
1.1500000000000057,-0.001931,0.040359,0.046083
1.1525000000000034,0.000135,0.040197,0.04214
1.1550000000000011,0.005809,0.043751,0.043488
1.1574999999999989,0.01011,0.049784,0.036242
1.1599999999999966,0.015607,0.051933,0.033144
1.1625000000000083,0.021554,0.049447,0.028881
1.1650000000000065,0.02929,0.051897,0.023057
1.167500000000004,0.03591,0.053415,0.016739
1.1700000000000017,0.039484,0.052182,0.008389
1.1724999999999994,0.048015,0.054305,0.005341
1.1749999999999972,0.055238,0.056557,0.00227
1.177500000000009,0.06231,0.058288,-0.002864
1.1800000000000068,0.066374,0.059404,-0.003971
1.1825000000000043,0.07386,0.061689,-0.008355
1.1850000000000025,0.08086,0.065569,-0.014085
1.1875,0.087085,0.06639,-0.013013
1.1899999999999975,0.09563,0.075988,-0.020272
1.1925000000000097,0.10015,0.081999,-0.020309
1.1950000000000074,0.107109,0.077152,-0.020167
1.1975000000000051,0.11153,0.083853,-0.02747
1.2000000000000028,0.117881,0.083128,-0.027397
1.2025000000000006,0.125822,0.090367,-0.030652
1.2049999999999983,0.132769,0.093194,-0.028966
1.2075000000000102,0.136965,0.096431,-0.036286
1.210000000000008,0.142733,0.099764,-0.036485
1.2125000000000057,0.150947,0.099786,-0.037996
1.2150000000000034,0.160725,0.101159,-0.044216
1.2175000000000011,0.164839,0.102445,-0.049327
1.2199999999999989,0.173559,0.105198,-0.050122
1.2224999999999966,0.179543,0.104979,-0.058718
1.2250000000000083,0.187574,0.107976,-0.060095
1.2275000000000065,0.193619,0.109112,-0.065033
1.230000000000004,0.200634,0.113597,-0.070773
1.2325000000000017,0.210949,0.110304,-0.074683
1.2349999999999994,0.21893,0.118592,-0.077285
1.2374999999999972,0.227805,0.122688,-0.07937
1.240000000000009,0.239187,0.125974,-0.083703
1.2425000000000068,0.246874,0.127851,-0.090702
1.2450000000000043,0.256272,0.133615,-0.092939
1.2475000000000025,0.265247,0.134686,-0.09874
1.25,0.273142,0.138424,-0.100234
1.2524999999999975,0.279758,0.141848,-0.100312
1.2550000000000097,0.288454,0.153444,-0.103539
1.2575000000000074,0.299428,0.156713,-0.106023
1.2600000000000051,0.306215,0.162991,-0.108899
1.2625000000000028,0.315224,0.168558,-0.110461
1.2650000000000006,0.318771,0.176231,-0.11148
1.2674999999999983,0.328376,0.181859,-0.115363
1.2700000000000102,0.338977,0.183827,-0.119023
1.272500000000008,0.345803,0.186188,-0.11965
1.2750000000000057,0.354581,0.190634,-0.120898
1.2775000000000034,0.361971,0.18509,-0.122924
1.2800000000000011,0.365586,0.185557,-0.130223
1.2824999999999989,0.372759,0.19493,-0.129239
1.2849999999999966,0.382585,0.19323,-0.130604
1.2875000000000083,0.38707,0.19928,-0.132588
1.2900000000000065,0.390635,0.196957,-0.134559
1.292500000000004,0.398996,0.196975,-0.13482
1.2950000000000017,0.403226,0.197849,-0.138704
1.2974999999999994,0.406199,0.199879,-0.138654
1.2999999999999972,0.413885,0.201108,-0.140564
1.302500000000009,0.418516,0.205211,-0.141943
1.3050000000000068,0.422177,0.202443,-0.146571
1.3075000000000043,0.426541,0.204193,-0.146149
1.3100000000000025,0.432096,0.202595,-0.145131
1.3125,0.433686,0.205549,-0.147335
1.3149999999999975,0.44015,0.202604,-0.147398
1.3175000000000097,0.441767,0.203686,-0.147067
1.3200000000000074,0.445499,0.201253,-0.150833
1.3225000000000051,0.446441,0.202825,-0.151618
1.3250000000000028,0.453343,0.204089,-0.153856
1.3275000000000006,0.451734,0.20029,-0.154947
1.3299999999999983,0.450892,0.200158,-0.157565
1.3325000000000102,0.452466,0.203071,-0.159228
1.335000000000008,0.454085,0.197505,-0.153989
1.3375000000000057,0.45274,0.196108,-0.157678
1.3400000000000034,0.454753,0.196505,-0.158763
1.3425000000000011,0.452166,0.191251,-0.157216
1.3449999999999989,0.448652,0.190682,-0.158143
1.3474999999999966,0.447593,0.192625,-0.157161
1.3500000000000083,0.442582,0.192099,-0.158824
1.3525000000000065,0.445577,0.187667,-0.154358
1.355000000000004,0.441393,0.185703,-0.15284
1.3575000000000017,0.436359,0.185972,-0.152153
1.3599999999999994,0.435843,0.184653,-0.153977
1.3624999999999972,0.430665,0.182695,-0.155348
1.365000000000009,0.430173,0.181895,-0.152202
1.3675000000000068,0.425781,0.179511,-0.157174
1.3700000000000043,0.420653,0.17459,-0.150052
1.3725000000000025,0.416017,0.169934,-0.151186
1.375,0.412466,0.170354,-0.150402
1.3774999999999975,0.409744,0.168476,-0.148174
1.3800000000000097,0.404105,0.165487,-0.148007
1.3825000000000074,0.398909,0.161377,-0.145708
1.3850000000000051,0.394195,0.157627,-0.141504
1.3875000000000028,0.388668,0.158351,-0.144738
1.3900000000000006,0.382539,0.152697,-0.139177
1.3924999999999983,0.37756,0.147382,-0.135176
1.3950000000000102,0.373148,0.146835,-0.134417
1.397500000000008,0.363501,0.145599,-0.131494
1.4000000000000057,0.358402,0.143134,-0.126167
1.4025000000000034,0.353701,0.1394,-0.123906
1.4050000000000011,0.349508,0.133526,-0.118265
1.4074999999999989,0.339849,0.129894,-0.118212
1.4099999999999966,0.330324,0.12564,-0.11137
1.4125000000000083,0.320134,0.118791,-0.110139
1.4150000000000065,0.319382,0.118219,-0.10875
1.417500000000004,0.31025,0.116008,-0.105137
1.4200000000000017,0.304139,0.11558,-0.103985
1.4224999999999994,0.298508,0.112664,-0.102542
1.4249999999999972,0.287703,0.110779,-0.099564
1.427500000000009,0.281557,0.109749,-0.099027
1.4300000000000068,0.271853,0.109089,-0.096752
1.4325000000000043,0.265446,0.105008,-0.096573
1.4350000000000025,0.255551,0.105787,-0.093108
1.4375,0.248339,0.101986,-0.09158
1.4399999999999975,0.241072,0.100484,-0.095055
1.4425000000000097,0.232845,0.095398,-0.092965
1.4450000000000074,0.22094,0.096606,-0.087531
1.4475000000000051,0.213089,0.090048,-0.085302
1.4500000000000028,0.205467,0.089658,-0.084285
1.4525000000000006,0.195403,0.091591,-0.080577
1.4549999999999983,0.186335,0.082742,-0.082582
1.4575000000000102,0.179658,0.08196,-0.077312
1.460000000000008,0.172739,0.081246,-0.072333
1.4625000000000057,0.161438,0.075435,-0.06918
1.4650000000000034,0.155251,0.07432,-0.068177
1.4675000000000011,0.143602,0.074119,-0.061949
1.4699999999999989,0.132417,0.07297,-0.059964
1.4724999999999966,0.125691,0.070766,-0.057606
1.4750000000000083,0.117122,0.070051,-0.057651
1.4775000000000065,0.108575,0.069263,-0.053327
1.480000000000004,0.099439,0.061915,-0.057299
1.4825000000000017,0.093058,0.060829,-0.056604
1.4849999999999994,0.084718,0.065636,-0.056525
1.4874999999999972,0.075761,0.062528,-0.054181
1.490000000000009,0.06892,0.062899,-0.054228
1.4925000000000068,0.05371,0.064813,-0.052865
1.4950000000000043,0.045342,0.061809,-0.053501
1.4975000000000025,0.03645,0.061325,-0.055586
1.5,0.035373,0.060492,-0.056238
1.5024999999999975,0.027067,0.061677,-0.058967
1.5050000000000097,0.016627,0.064281,-0.060269
1.5075000000000074,0.007676,0.066865,-0.059393
1.5100000000000051,0.000995,0.065181,-0.061262
1.5125000000000028,-0.008714,0.067095,-0.063868
1.5150000000000006,-0.013761,0.068947,-0.065547
1.5174999999999983,-0.025716,0.072283,-0.069013
1.5200000000000102,-0.031464,0.077998,-0.064442
1.522500000000008,-0.042729,0.083777,-0.069083
1.5250000000000057,-0.045396,0.084411,-0.072306
1.5275000000000034,-0.053263,0.088526,-0.073016
1.5300000000000011,-0.055097,0.096088,-0.07377
1.5324999999999989,-0.066093,0.096808,-0.075012
1.5349999999999966,-0.071637,0.103144,-0.071967
1.5375000000000083,-0.080116,0.108819,-0.075383
1.5400000000000065,-0.085321,0.10925,-0.073572
1.542500000000004,-0.091442,0.117033,-0.077547
1.5450000000000017,-0.093992,0.124805,-0.077109
1.5474999999999994,-0.097674,0.129544,-0.072777
1.5499999999999972,-0.104556,0.133906,-0.07565
1.552500000000009,-0.107139,0.141785,-0.079648
1.5550000000000068,-0.112097,0.146402,-0.07799
1.5575000000000043,-0.114673,0.154925,-0.080498
1.5600000000000025,-0.117816,0.158965,-0.076889
1.5625,-0.119165,0.165264,-0.081687
1.5649999999999975,-0.121479,0.174015,-0.084193
1.5675000000000097,-0.123522,0.173891,-0.08741
1.5700000000000074,-0.124307,0.181393,-0.089465
1.5725000000000051,-0.130478,0.183929,-0.090702
1.5750000000000028,-0.133742,0.191838,-0.091243
1.5775000000000006,-0.136912,0.194723,-0.097895
1.5799999999999983,-0.137272,0.197757,-0.097086
1.5825000000000102,-0.1426,0.199691,-0.100695
1.585000000000008,-0.146034,0.202964,-0.101547
1.5875000000000057,-0.143753,0.207413,-0.10594
1.5900000000000034,-0.147176,0.208337,-0.110024
1.5925000000000011,-0.145085,0.214414,-0.114655
1.5949999999999989,-0.145952,0.214378,-0.115067
1.5974999999999966,-0.147408,0.220234,-0.121355
1.6000000000000083,-0.148572,0.220079,-0.127696
1.6025000000000065,-0.149065,0.222743,-0.132839
1.605000000000004,-0.14638,0.22584,-0.133748
1.6075000000000017,-0.146149,0.232262,-0.135116
1.6099999999999994,-0.146824,0.236551,-0.138965
1.6124999999999972,-0.141619,0.242055,-0.143453
1.615000000000009,-0.142141,0.246484,-0.146495
1.6175000000000068,-0.141081,0.247619,-0.152506
1.6200000000000043,-0.138874,0.254362,-0.154766
1.6225000000000025,-0.137459,0.259913,-0.159407
1.625,-0.13147,0.259268,-0.157602
1.6274999999999975,-0.128865,0.256986,-0.158626
1.6300000000000097,-0.120981,0.261862,-0.160252
1.6325000000000074,-0.119793,0.265776,-0.160103
1.6350000000000051,-0.110961,0.262455,-0.160424
1.6375000000000028,-0.105706,0.269621,-0.156568
1.6400000000000006,-0.100982,0.269825,-0.154924
1.6424999999999983,-0.095771,0.266989,-0.153527
1.6450000000000102,-0.088826,0.268523,-0.149632
1.647500000000008,-0.08119,0.268508,-0.142814
1.6500000000000057,-0.071271,0.271931,-0.141644
1.6525000000000034,-0.064674,0.26804,-0.132242
1.6550000000000011,-0.05499,0.268429,-0.126639
1.6574999999999989,-0.043669,0.265304,-0.121707
1.6599999999999966,-0.039449,0.261236,-0.113511
1.6625000000000083,-0.029594,0.260157,-0.108187
1.6650000000000065,-0.020534,0.255991,-0.096755
1.667500000000004,-0.014254,0.25255,-0.090197
1.6700000000000017,-0.002354,0.249522,-0.086704
1.6724999999999994,0.000789,0.247102,-0.077672
1.6749999999999972,0.009822,0.241899,-0.071172
1.677500000000009,0.018822,0.235944,-0.067209
1.6800000000000068,0.020009,0.230322,-0.064552
1.6825000000000043,0.03124,0.227498,-0.056252
1.6850000000000025,0.038787,0.225659,-0.049172
1.6875,0.039086,0.224411,-0.046067
1.6899999999999975,0.048164,0.213311,-0.039974
1.6925000000000097,0.050195,0.215236,-0.036485
1.6950000000000074,0.055111,0.20924,-0.030755
1.6975000000000051,0.061963,0.203875,-0.02299
1.7000000000000028,0.065345,0.204287,-0.020167
1.7025000000000006,0.070668,0.197748,-0.009528
1.7049999999999983,0.075617,0.191175,-0.001477
1.7075000000000102,0.074539,0.188196,0.002403
1.710000000000008,0.082221,0.177699,0.008938
1.7125000000000057,0.088689,0.173018,0.014596
1.7150000000000034,0.086576,0.169968,0.024565
1.7175000000000011,0.089442,0.163925,0.02948
1.7199999999999989,0.095052,0.154752,0.035677
1.7224999999999966,0.096785,0.148872,0.046175
1.7250000000000083,0.10286,0.136703,0.045448
1.7275000000000065,0.104313,0.133596,0.05308
1.730000000000004,0.109188,0.122144,0.05573
1.7325000000000017,0.114705,0.115495,0.059087
1.7349999999999994,0.115221,0.107338,0.060957
1.7374999999999972,0.121968,0.096463,0.06118
1.740000000000009,0.125946,0.08803,0.061402
1.7425000000000068,0.129905,0.078709,0.062784
1.7450000000000043,0.132485,0.07,0.063678
1.7475000000000025,0.13526,0.05813,0.060008
1.75,0.139051,0.04958,0.059903
1.7524999999999975,0.143316,0.036425,0.057004
1.7550000000000097,0.152592,0.026833,0.052642
1.7575000000000074,0.153715,0.015741,0.054879
1.7600000000000051,0.148769,0.004293,0.052132
1.7625000000000028,0.159209,-0.007114,0.050639
1.7650000000000006,0.154401,-0.018287,0.050566
1.7674999999999983,0.157835,-0.022377,0.05373
1.7700000000000102,0.157281,-0.037619,0.052609
1.772500000000008,0.163219,-0.045113,0.055177
1.7750000000000057,0.157344,-0.050858,0.0562
1.7775000000000034,0.161756,-0.060424,0.057655
1.7800000000000011,0.155423,-0.065583,0.0641
1.7824999999999989,0.157508,-0.072317,0.070009
1.7849999999999966,0.155971,-0.079557,0.070826
1.7875000000000083,0.150896,-0.091414,0.074605
1.7900000000000065,0.14836,-0.094578,0.07774
1.792500000000004,0.146129,-0.105576,0.082212
1.7950000000000017,0.141007,-0.11193,0.081139
1.7974999999999994,0.138596,-0.112867,0.086149
1.7999999999999972,0.137522,-0.123554,0.085894
1.802500000000009,0.133408,-0.12968,0.08749
1.8050000000000068,0.130294,-0.137268,0.089253
1.8075000000000043,0.128321,-0.144717,0.085542
1.8100000000000025,0.126422,-0.156263,0.086773
1.8125,0.121831,-0.161426,0.087748
1.8149999999999975,0.119176,-0.167115,0.083708
1.8175000000000097,0.117175,-0.1747,0.08645
1.8200000000000076,0.114215,-0.189267,0.083881
1.822500000000005,0.107447,-0.19659,0.087874
1.8250000000000028,0.105598,-0.202593,0.088044
1.8275000000000008,0.100537,-0.212218,0.09007
1.8299999999999983,0.095639,-0.223418,0.092904
1.8325000000000105,0.090718,-0.231481,0.098229
1.835000000000008,0.090567,-0.24275,0.1018
1.8375000000000057,0.083318,-0.252295,0.105581
1.8400000000000036,0.077545,-0.262599,0.115075
1.8425000000000007,0.073474,-0.268424,0.12548
1.8449999999999989,0.065238,-0.276929,0.131676
1.8474999999999968,0.060176,-0.284137,0.140356
1.8500000000000083,0.058172,-0.29341,0.15099
1.8525000000000065,0.052132,-0.306316,0.157406
1.855000000000004,0.044807,-0.319576,0.170278
1.8575000000000017,0.040253,-0.327615,0.180484
1.8599999999999997,0.038325,-0.335006,0.193953
1.8624999999999967,0.031506,-0.343987,0.20274
1.865000000000009,0.024433,-0.357792,0.218298
1.8675000000000068,0.021981,-0.37249,0.228385
1.8700000000000043,0.014395,-0.37894,0.243234
1.8725000000000025,0.010135,-0.388715,0.254972
1.875,0.005705,-0.398757,0.27299
1.8774999999999975,0.000454,-0.406742,0.28339
1.8800000000000097,-0.005977,-0.419304,0.300913
1.8825000000000076,-0.007455,-0.428371,0.316026
1.885000000000005,-0.011569,-0.436249,0.330374
1.8875000000000028,-0.017367,-0.442222,0.347892
1.8900000000000008,-0.017318,-0.453048,0.363962
1.8924999999999983,-0.022331,-0.465329,0.382669
1.8950000000000105,-0.029545,-0.470872,0.399192
1.897500000000008,-0.030576,-0.476205,0.41345
1.9000000000000057,-0.036697,-0.485063,0.435502
1.9025000000000036,-0.04195,-0.491172,0.453446
1.9050000000000007,-0.048205,-0.503081,0.470223
1.9074999999999989,-0.049472,-0.509468,0.490288
1.9099999999999968,-0.053597,-0.517798,0.508902
1.9125000000000083,-0.054829,-0.522463,0.526659
1.9150000000000065,-0.056855,-0.528224,0.54106
1.917500000000004,-0.062424,-0.536817,0.554069
1.9200000000000017,-0.064829,-0.543569,0.570002
1.9224999999999997,-0.066727,-0.553821,0.580787
1.9249999999999967,-0.071678,-0.558511,0.596995
1.927500000000009,-0.073281,-0.56328,0.608678
1.9300000000000068,-0.075372,-0.569634,0.617912
1.9325000000000043,-0.076443,-0.579052,0.629202
1.9350000000000025,-0.078298,-0.585319,0.640055
1.9375,-0.082864,-0.5923,0.648985
1.9399999999999975,-0.081944,-0.597316,0.657296
1.9425000000000097,-0.088939,-0.602375,0.667005
1.9450000000000076,-0.088233,-0.613101,0.675977
1.947500000000005,-0.088656,-0.615856,0.683917
1.9500000000000028,-0.089058,-0.618564,0.68674
1.9525000000000008,-0.089607,-0.626576,0.692986
1.9549999999999983,-0.093231,-0.622702,0.699726
1.9575000000000105,-0.091991,-0.624576,0.701889
1.960000000000008,-0.09297,-0.623673,0.704345
1.9625000000000057,-0.091565,-0.620884,0.70295
1.9650000000000036,-0.093913,-0.61805,0.701278
1.9675000000000007,-0.084317,-0.61663,0.698105
1.9699999999999989,-0.089534,-0.610511,0.690255
1.9724999999999968,-0.083351,-0.607951,0.688691
1.9750000000000083,-0.084904,-0.598367,0.679705
1.9775000000000065,-0.081366,-0.589743,0.671172
1.980000000000004,-0.081086,-0.579907,0.659985
1.9825000000000017,-0.07809,-0.569672,0.644659
1.9849999999999997,-0.077301,-0.558432,0.628043
1.9874999999999967,-0.075762,-0.539681,0.607678
1.990000000000009,-0.07105,-0.5283,0.58758
1.9925000000000068,-0.071712,-0.514083,0.564747
1.9950000000000043,-0.065178,-0.497122,0.539929
1.9975000000000025,-0.063546,-0.474535,0.511821
2.0,-0.059076,-0.460413,0.480188
2.0024999999999977,-0.054389,-0.433755,0.448828
2.0050000000000097,-0.047491,-0.414155,0.415189
2.0075000000000074,-0.044923,-0.384291,0.377648
2.010000000000005,-0.037125,-0.364548,0.344161
2.012500000000003,-0.034399,-0.340669,0.304019
2.015000000000001,-0.028312,-0.311527,0.265897
2.0174999999999983,-0.021002,-0.282685,0.227467
2.0200000000000102,-0.016496,-0.256377,0.184248
2.022500000000008,-0.008653,-0.228278,0.143714
2.0250000000000057,3.1e-05,-0.199482,0.10361
2.0275000000000034,0.007264,-0.170203,0.061289
2.030000000000001,0.01329,-0.142017,0.022536
2.032499999999999,0.021661,-0.117134,-0.015073
2.0349999999999966,0.028381,-0.089452,-0.053887
2.0375000000000085,0.035892,-0.062782,-0.084542
2.0400000000000063,0.040818,-0.039378,-0.123878
2.042500000000004,0.042916,-0.008772,-0.15433
2.0450000000000017,0.048365,0.018101,-0.185344
2.0474999999999994,0.052866,0.048723,-0.217831
2.049999999999997,0.058194,0.071529,-0.243473
2.052500000000009,0.061061,0.089978,-0.27252
2.055000000000007,0.064107,0.114658,-0.298673
2.0575000000000045,0.064334,0.132761,-0.323802
2.0600000000000023,0.06556,0.158443,-0.34401
2.0625,0.070366,0.177789,-0.369163
2.0649999999999977,0.071257,0.195321,-0.390305
2.0675000000000097,0.066958,0.214272,-0.409757
2.0700000000000074,0.071443,0.234192,-0.430481
2.072500000000005,0.070753,0.247648,-0.447762
2.075000000000003,0.070874,0.268994,-0.462787
2.077500000000001,0.071905,0.28046,-0.481308
2.0799999999999983,0.070665,0.294182,-0.494632
2.0825000000000102,0.068959,0.305768,-0.514188
2.085000000000008,0.070573,0.318166,-0.520068
2.0875000000000057,0.066803,0.326192,-0.530562
2.0900000000000034,0.066448,0.335211,-0.537694
2.092500000000001,0.066183,0.342197,-0.548229
2.094999999999999,0.060146,0.348295,-0.552784
2.0974999999999966,0.06598,0.347934,-0.556119
2.1000000000000085,0.057998,0.3493,-0.559841
2.1025000000000063,0.057536,0.348087,-0.565548
2.105000000000004,0.052641,0.345079,-0.563823
2.1075000000000017,0.054087,0.339424,-0.563893
2.1099999999999994,0.043686,0.334136,-0.564896
2.112499999999997,0.046089,0.327087,-0.559717
2.115000000000009,0.040754,0.31979,-0.554337
2.117500000000007,0.033262,0.316048,-0.548396
2.1200000000000045,0.026713,0.303289,-0.540845
2.1225000000000023,0.023038,0.295321,-0.5372
2.125,0.014905,0.286392,-0.529465
2.1274999999999977,0.009824,0.268415,-0.515862
2.1300000000000097,0.00178,0.256748,-0.506446
2.1325000000000074,-0.006306,0.245432,-0.495157
2.135000000000005,-0.012827,0.228711,-0.478007
2.137500000000003,-0.017898,0.215038,-0.466746
2.140000000000001,-0.030905,0.197039,-0.449973
2.1424999999999983,-0.035897,0.181069,-0.435679
2.1450000000000102,-0.045061,0.164372,-0.424631
2.147500000000008,-0.051159,0.146388,-0.410323
2.1500000000000057,-0.059401,0.134037,-0.394565
2.1525000000000034,-0.064106,0.110643,-0.378245
2.155000000000001,-0.072497,0.095616,-0.362305
2.157499999999999,-0.079799,0.078375,-0.346853
2.1599999999999966,-0.086266,0.059915,-0.332536
2.1625000000000085,-0.090057,0.046509,-0.316192
2.1650000000000063,-0.098735,0.031436,-0.293051
2.167500000000004,-0.105006,0.018279,-0.276527
2.1700000000000017,-0.108838,-0.00152,-0.261506
2.1724999999999994,-0.114836,-0.011267,-0.246154
2.174999999999997,-0.125961,-0.028113,-0.226773
2.177500000000009,-0.1302,-0.040981,-0.210683
2.180000000000007,-0.131992,-0.056343,-0.191267
2.1825000000000045,-0.138222,-0.070488,-0.178744
2.1850000000000023,-0.140494,-0.081001,-0.158533
2.1875,-0.147212,-0.098713,-0.14001
2.1899999999999977,-0.150916,-0.112581,-0.124232
2.1925000000000097,-0.151294,-0.122371,-0.103699
2.1950000000000074,-0.156985,-0.134555,-0.091462
2.197500000000005,-0.158897,-0.1431,-0.076853
2.200000000000003,-0.159472,-0.163035,-0.060058
2.202500000000001,-0.164878,-0.167094,-0.039156
2.2049999999999983,-0.168137,-0.175245,-0.024548
2.2075000000000102,-0.172757,-0.185676,-0.009826
2.210000000000008,-0.171906,-0.198929,0.004623
2.2125000000000057,-0.17345,-0.205319,0.02095
2.2150000000000034,-0.177874,-0.207934,0.037543
2.217500000000001,-0.177535,-0.215293,0.052168
2.219999999999999,-0.179933,-0.22236,0.062592
2.2224999999999966,-0.180575,-0.222605,0.079138
2.2250000000000085,-0.180721,-0.226314,0.097343
2.2275000000000063,-0.182532,-0.23196,0.11174
2.230000000000004,-0.179972,-0.229733,0.121278
2.2325000000000017,-0.18488,-0.233948,0.136048
2.2349999999999994,-0.180994,-0.231597,0.148051
2.237499999999997,-0.18122,-0.227381,0.157551
2.240000000000009,-0.179696,-0.226732,0.170004
2.242500000000007,-0.181037,-0.222696,0.183284
2.2450000000000045,-0.181116,-0.22022,0.192379
2.2475000000000023,-0.1774,-0.216803,0.201685
2.25,-0.176622,-0.214602,0.20868
2.2524999999999977,-0.175385,-0.207642,0.216328
2.2550000000000097,-0.173086,-0.205135,0.223739
2.2575000000000074,-0.171524,-0.193052,0.235096
2.260000000000005,-0.16693,-0.188363,0.242314
2.262500000000003,-0.161663,-0.186123,0.24877
2.265000000000001,-0.161241,-0.18425,0.253645
2.2674999999999983,-0.156191,-0.176245,0.258418
2.2700000000000102,-0.152442,-0.17515,0.269005
2.272500000000008,-0.150642,-0.165021,0.270004
2.2750000000000057,-0.147076,-0.160387,0.274275
2.2775000000000034,-0.143038,-0.151248,0.277739
2.280000000000001,-0.13248,-0.147189,0.283834
2.282499999999999,-0.129476,-0.138807,0.286841
2.2849999999999966,-0.126374,-0.135528,0.291932
2.2875000000000085,-0.121433,-0.128493,0.292794
2.2900000000000063,-0.114439,-0.115895,0.294939
2.292500000000004,-0.10846,-0.112994,0.296009
2.2950000000000017,-0.105737,-0.107875,0.296842
2.2974999999999994,-0.098138,-0.097184,0.300222
2.299999999999997,-0.093026,-0.091496,0.298283
2.302500000000009,-0.086266,-0.083253,0.300788
2.305000000000007,-0.082754,-0.074862,0.298979
2.3075000000000045,-0.074726,-0.068021,0.29617
2.3100000000000023,-0.064975,-0.060725,0.296596
2.3125,-0.057736,-0.052963,0.291985
2.3149999999999977,-0.051421,-0.046101,0.289785
2.3175000000000097,-0.045864,-0.040331,0.288036
2.3200000000000074,-0.036938,-0.034568,0.285567
2.322500000000005,-0.035578,-0.032933,0.281144
2.325000000000003,-0.030553,-0.023627,0.276412
2.327500000000001,-0.020842,-0.023276,0.271983
2.3299999999999983,-0.012283,-0.014867,0.266429
2.3325000000000102,-0.007167,-0.013021,0.263331
2.335000000000008,-0.002205,-0.008045,0.258898
2.3375000000000057,0.006893,-0.004005,0.249734
2.3400000000000034,0.011518,0.001233,0.244432
2.342500000000001,0.020628,0.00462,0.240461
2.344999999999999,0.025225,0.005608,0.236463
2.3474999999999966,0.030192,0.010266,0.227379
2.3500000000000085,0.03547,0.010274,0.222453
2.3525000000000063,0.042262,0.015142,0.218257
2.355000000000004,0.049035,0.013413,0.211614
2.3575000000000017,0.057245,0.011583,0.207525
2.3599999999999994,0.059251,0.014687,0.200451
2.362499999999997,0.062779,0.014003,0.192712
2.365000000000009,0.069007,0.016586,0.186478
2.367500000000007,0.075173,0.017219,0.179855
2.3700000000000045,0.079551,0.01459,0.173303
2.3725000000000023,0.081421,0.018164,0.167508
2.375,0.084797,0.012629,0.160866
2.3774999999999977,0.089122,0.01219,0.156675
2.3800000000000097,0.095216,0.010654,0.148604
2.3825000000000074,0.094833,0.006314,0.14927
2.385000000000005,0.098989,0.009912,0.135129
2.387500000000003,0.099253,0.002816,0.130642
2.390000000000001,0.101394,0.001758,0.126819
2.3924999999999983,0.102406,-0.004712,0.120724
2.3950000000000102,0.108873,-0.010888,0.112545
2.397500000000008,0.107639,-0.012802,0.105873
2.4000000000000057,0.107541,-0.019906,0.098466
2.4025000000000034,0.110007,-0.023337,0.095866
2.405000000000001,0.107185,-0.030768,0.087994
2.407499999999999,0.10828,-0.032999,0.081607
2.4099999999999966,0.109539,-0.044446,0.076734
2.4125000000000085,0.106218,-0.047843,0.07154
2.4150000000000063,0.105197,-0.056899,0.064612
2.417500000000004,0.101044,-0.060336,0.059839
2.4200000000000017,0.102098,-0.072519,0.058509
2.4224999999999994,0.099932,-0.078458,0.055104
2.424999999999997,0.099095,-0.08599,0.047902
2.427500000000009,0.096414,-0.090754,0.046132
2.430000000000007,0.094657,-0.099638,0.04105
2.4325000000000045,0.093194,-0.103284,0.037477
2.4350000000000023,0.087699,-0.111954,0.034162
2.4375,0.08821,-0.119491,0.032488
2.4399999999999977,0.085055,-0.128151,0.031324
2.4425000000000097,0.079726,-0.136232,0.026176
2.4450000000000074,0.076277,-0.147682,0.023817
2.447500000000005,0.071945,-0.154597,0.0214
2.450000000000003,0.069808,-0.163646,0.017837
2.452500000000001,0.068332,-0.170653,0.020497
2.4549999999999983,0.063255,-0.185677,0.016474
2.4575000000000102,0.05359,-0.19155,0.012683
2.460000000000008,0.053696,-0.198022,0.013347
2.4625000000000057,0.04636,-0.207195,0.006983
2.4650000000000034,0.041407,-0.217485,0.006836
2.467500000000001,0.035951,-0.226249,0.007569
2.469999999999999,0.027663,-0.240138,0.007076
2.4724999999999966,0.027613,-0.24918,0.00698
2.4750000000000085,0.019307,-0.257236,-0.000596
2.4775000000000063,0.014035,-0.263475,0.000153
2.480000000000004,0.009642,-0.277729,0.001178
2.4825000000000017,0.004076,-0.289002,0.000111
2.4849999999999994,-0.00264,-0.299013,0.002492
2.487499999999997,-0.007039,-0.311923,0.001445
2.490000000000009,-0.014265,-0.322381,0.002395
2.492500000000007,-0.019243,-0.337176,0.003568
2.4950000000000045,-0.024101,-0.348796,0.00409
2.4975000000000023,-0.02809,-0.358379,0.004134
2.5,-0.037467,-0.367837,0.00653
2.5024999999999977,-0.03629,-0.385089,0.006445
2.5050000000000097,-0.042285,-0.394659,0.00523
2.5075000000000074,-0.043601,-0.410721,0.010232
2.510000000000005,-0.051653,-0.422143,0.012042
2.512500000000003,-0.053276,-0.434786,0.01293
2.515000000000001,-0.057405,-0.448658,0.013981
2.5174999999999983,-0.060201,-0.461744,0.017489
2.5200000000000102,-0.059795,-0.477324,0.022437
2.522500000000008,-0.063504,-0.494021,0.024869
2.5250000000000057,-0.069644,-0.506038,0.030761
2.5275000000000034,-0.070053,-0.522688,0.032295
2.530000000000001,-0.075081,-0.535815,0.03322
2.532499999999999,-0.077538,-0.556019,0.038948
2.5349999999999966,-0.079621,-0.57137,0.040618
2.5375000000000085,-0.081734,-0.589722,0.046226
2.5400000000000063,-0.083567,-0.616515,0.047778
2.542500000000004,-0.087117,-0.626506,0.053594
2.5450000000000017,-0.087552,-0.648794,0.058245
2.5474999999999994,-0.09255,-0.667594,0.060194
2.549999999999997,-0.089964,-0.690936,0.068428
2.552500000000009,-0.092252,-0.708309,0.073644
2.555000000000007,-0.093578,-0.725588,0.08001
2.5575000000000045,-0.098185,-0.746459,0.088216
2.5600000000000023,-0.095364,-0.764191,0.092614
2.5625,-0.101383,-0.780845,0.097168
2.5649999999999977,-0.101753,-0.800824,0.103649
2.5675000000000097,-0.098752,-0.816931,0.11195
2.5700000000000074,-0.100176,-0.838892,0.119346
2.572500000000005,-0.099456,-0.851716,0.124606
2.575000000000003,-0.099997,-0.871416,0.132058
2.577500000000001,-0.100751,-0.890511,0.138114
2.5799999999999983,-0.096031,-0.905478,0.144552
2.5825000000000102,-0.097977,-0.917578,0.147549
2.585000000000008,-0.095919,-0.93861,0.157312
2.5875000000000057,-0.096974,-0.952131,0.163431
2.5900000000000034,-0.093535,-0.971155,0.168679
2.592500000000001,-0.09221,-0.981711,0.173413
2.594999999999999,-0.089325,-0.99511,0.174844
2.5974999999999966,-0.089896,-1.008512,0.186984
2.6000000000000085,-0.092092,-1.022521,0.1905
2.6025000000000063,-0.090624,-1.037713,0.194649
2.605000000000004,-0.089219,-1.043418,0.202125
2.6075000000000017,-0.093465,-1.056636,0.202692
2.6099999999999994,-0.087494,-1.071892,0.207562
2.612499999999997,-0.086908,-1.082291,0.209381
2.615000000000009,-0.091863,-1.088742,0.211514
2.617500000000007,-0.086762,-1.102631,0.21809
2.6200000000000045,-0.08755,-1.110648,0.219316
2.6225000000000023,-0.089698,-1.116129,0.221313
2.625,-0.089057,-1.128312,0.220817
2.6274999999999977,-0.089635,-1.133901,0.21961
2.6300000000000097,-0.090671,-1.142444,0.222996
2.6325000000000074,-0.090502,-1.140993,0.222349
2.635000000000005,-0.089936,-1.147585,0.222512
2.637500000000003,-0.093134,-1.152544,0.219657
2.640000000000001,-0.093539,-1.15625,0.221071
2.6424999999999983,-0.093196,-1.155085,0.220279
2.6450000000000102,-0.096706,-1.153264,0.218173
2.647500000000008,-0.099175,-1.160422,0.214971
2.6500000000000057,-0.100473,-1.154405,0.213235
2.6525000000000034,-0.099936,-1.154526,0.211287
2.655000000000001,-0.1023,-1.152322,0.206668
2.657499999999999,-0.104798,-1.155586,0.202229
2.6599999999999966,-0.102055,-1.146919,0.200488
2.6625000000000085,-0.106695,-1.146743,0.19786
2.6650000000000063,-0.106777,-1.14103,0.194184
2.667500000000004,-0.106542,-1.140489,0.189532
2.6700000000000017,-0.109172,-1.132521,0.18763
2.6724999999999994,-0.111973,-1.129956,0.18361
2.674999999999997,-0.117253,-1.123019,0.180955
2.677500000000009,-0.118668,-1.116237,0.180309
2.680000000000007,-0.119487,-1.113095,0.176755
2.6825000000000045,-0.120057,-1.106169,0.168767
2.6850000000000023,-0.130226,-1.09443,0.167822
2.6875,-0.126381,-1.088056,0.163097
2.6899999999999977,-0.132521,-1.079838,0.161661
2.6925000000000097,-0.133146,-1.069653,0.154609
2.6950000000000074,-0.14029,-1.062437,0.149583
2.697500000000005,-0.141221,-1.054691,0.143636
2.700000000000003,-0.149855,-1.039081,0.141581
2.702500000000001,-0.152245,-1.033017,0.135199
2.7049999999999983,-0.159869,-1.026392,0.13478
2.7075000000000102,-0.161175,-1.018043,0.130021
2.710000000000008,-0.16233,-1.002016,0.12533
2.7125000000000057,-0.166461,-0.989901,0.116242
2.7150000000000034,-0.173029,-0.982237,0.115227
2.717500000000001,-0.177746,-0.96943,0.113403
2.719999999999999,-0.183733,-0.959839,0.107058
2.7224999999999966,-0.187364,-0.947,0.102503
2.7250000000000085,-0.189707,-0.935179,0.098384
2.7275000000000063,-0.195459,-0.922753,0.092683
2.730000000000004,-0.197926,-0.911731,0.087496
2.7325000000000017,-0.200021,-0.897745,0.080643
2.7349999999999994,-0.208028,-0.886227,0.076551
2.737499999999997,-0.210851,-0.869626,0.073319
2.740000000000009,-0.211714,-0.863765,0.068461
2.742500000000007,-0.216089,-0.855211,0.060078
2.7450000000000045,-0.214939,-0.841448,0.057892
2.7475000000000023,-0.220254,-0.827173,0.055505
2.75,-0.217578,-0.813812,0.051007
2.7524999999999977,-0.218153,-0.801212,0.044314
2.7550000000000097,-0.224847,-0.789662,0.041618
2.7575000000000074,-0.225665,-0.775321,0.035865
2.760000000000005,-0.222124,-0.759942,0.031244
2.762500000000003,-0.224057,-0.750692,0.028075
2.765000000000001,-0.223024,-0.738621,0.021572
2.7674999999999983,-0.222972,-0.728239,0.018441
2.7700000000000102,-0.222759,-0.720348,0.01393
2.772500000000008,-0.218339,-0.704192,0.008688
2.7750000000000057,-0.219086,-0.690734,0.006316
2.7775000000000034,-0.215879,-0.688636,0.002626
2.780000000000001,-0.211313,-0.674325,0.001705
2.782499999999999,-0.21161,-0.664036,-0.00352
2.7849999999999966,-0.200002,-0.654581,-0.003737
2.7875000000000085,-0.198127,-0.643644,-0.013371
2.7900000000000063,-0.198256,-0.640866,-0.014891
2.792500000000004,-0.189984,-0.637156,-0.011098
2.7950000000000017,-0.181028,-0.630213,-0.016043
2.7974999999999994,-0.179839,-0.622836,-0.016406
2.799999999999997,-0.173889,-0.616676,-0.01546
2.802500000000009,-0.168309,-0.616931,-0.017533
2.805000000000007,-0.159343,-0.610405,-0.017165
2.8075000000000045,-0.15116,-0.60917,-0.022389
2.8100000000000023,-0.142899,-0.605524,-0.02299
2.8125,-0.137308,-0.60384,-0.024121
2.8149999999999977,-0.126764,-0.599967,-0.024991
2.8175000000000097,-0.12251,-0.59612,-0.029203
2.8200000000000074,-0.1141,-0.594875,-0.028439
2.822500000000005,-0.106068,-0.589952,-0.02753
2.825000000000003,-0.098011,-0.588372,-0.02497
2.827500000000001,-0.091222,-0.589261,-0.024891
2.8299999999999983,-0.085068,-0.58714,-0.021605
2.8325000000000102,-0.072569,-0.584625,-0.021809
2.835000000000008,-0.063637,-0.581619,-0.019431
2.8375000000000057,-0.055271,-0.579569,-0.015755
2.8400000000000034,-0.046843,-0.581311,-0.01556
2.842500000000001,-0.038129,-0.577655,-0.01175
2.844999999999999,-0.030054,-0.574622,-0.011539
2.8474999999999966,-0.020045,-0.578532,-0.010057
2.8500000000000085,-0.010759,-0.577763,-0.006072
2.8525000000000063,-0.002851,-0.569108,-0.003856
2.855000000000004,0.002632,-0.564219,-0.001815
2.8575000000000017,0.010452,-0.5604,0.001863
2.8599999999999994,0.014449,-0.555243,0.004487
2.862499999999997,0.026413,-0.548874,0.009923
2.865000000000009,0.035874,-0.541397,0.011595
2.867500000000007,0.043008,-0.536871,0.013756
2.8700000000000045,0.048227,-0.528143,0.018933
2.8725000000000023,0.052422,-0.524363,0.019891
2.875,0.060823,-0.512973,0.025664
2.8774999999999977,0.065907,-0.507256,0.027391
2.8800000000000097,0.070416,-0.493483,0.028539
2.8825000000000074,0.076005,-0.48971,0.03472
2.885000000000005,0.081236,-0.475884,0.032579
2.887500000000003,0.087438,-0.463526,0.039224
2.890000000000001,0.094498,-0.453012,0.039957
2.8924999999999983,0.098511,-0.438224,0.042606
2.8950000000000102,0.101129,-0.427243,0.043116
2.897500000000008,0.106113,-0.4106,0.043092
2.9000000000000057,0.111537,-0.394905,0.042506
2.9025000000000034,0.112055,-0.380337,0.045498
2.905000000000001,0.119514,-0.364392,0.050122
2.907499999999999,0.120368,-0.346397,0.046027
2.9099999999999966,0.123414,-0.331724,0.044463
2.9125000000000085,0.126842,-0.308684,0.046628
2.9150000000000063,0.134002,-0.293879,0.045391
2.917500000000004,0.133183,-0.271809,0.045035
2.9200000000000017,0.137053,-0.248814,0.045168
2.9224999999999994,0.134952,-0.231028,0.040019
2.924999999999997,0.139277,-0.208892,0.041
2.927500000000009,0.140289,-0.184201,0.040602
2.930000000000007,0.146217,-0.162788,0.036664
2.9325000000000045,0.147698,-0.138082,0.036206
2.9350000000000023,0.152091,-0.110307,0.03624
2.9375,0.151934,-0.08748,0.032104
2.9399999999999977,0.153909,-0.060596,0.02908
2.9425000000000097,0.152975,-0.029029,0.02609
2.9450000000000074,0.158726,-0.003156,0.026246
2.947500000000005,0.155992,0.026415,0.027325
2.950000000000003,0.160342,0.053477,0.02116
2.952500000000001,0.158552,0.084388,0.016328
2.9549999999999983,0.159632,0.115358,0.01406
2.9575000000000102,0.15917,0.143959,0.009767
2.960000000000008,0.160272,0.181279,0.010926
2.9625000000000057,0.160827,0.213885,0.006481
2.9650000000000034,0.162322,0.245055,0.006595
2.967500000000001,0.163168,0.281058,-0.001499
2.969999999999999,0.164235,0.31187,-0.001654
2.9724999999999966,0.162377,0.346053,-0.009482
2.9750000000000085,0.162811,0.378104,-0.014333
2.9775000000000063,0.162748,0.413238,-0.018495
2.980000000000004,0.161523,0.446209,-0.020191
2.9825000000000017,0.161987,0.47789,-0.027978
2.9849999999999994,0.16116,0.51344,-0.033031
2.987499999999997,0.163484,0.540503,-0.039221
2.990000000000009,0.15939,0.571214,-0.051329
2.992500000000007,0.158557,0.599194,-0.054406
2.9950000000000045,0.157221,0.631153,-0.062281
2.9975000000000023,0.155211,0.650015,-0.07133
3.0,0.152498,0.681091,-0.076026
3.0024999999999977,0.154678,0.705876,-0.087476
3.0050000000000097,0.14739,0.727327,-0.095911
3.0075000000000074,0.146373,0.750519,-0.106116
3.010000000000005,0.142861,0.772878,-0.111125
3.012500000000003,0.139978,0.792671,-0.119117
3.015000000000001,0.133007,0.811812,-0.12728
3.0174999999999983,0.132857,0.830993,-0.136645
3.0200000000000102,0.124473,0.847955,-0.14458
3.022500000000008,0.121818,0.864167,-0.153478
3.0250000000000057,0.119675,0.883243,-0.158615
3.0275000000000034,0.117985,0.892117,-0.168698
3.030000000000001,0.115512,0.901719,-0.173356
3.032499999999999,0.111399,0.914776,-0.182037
3.0349999999999966,0.10654,0.9237,-0.186792
3.0375000000000085,0.101078,0.930549,-0.192153
3.0400000000000063,0.099903,0.93847,-0.195652
3.042500000000004,0.099746,0.948908,-0.201762
3.0450000000000017,0.092278,0.955753,-0.204824
3.0474999999999994,0.095058,0.953567,-0.209417
3.049999999999997,0.087894,0.962862,-0.209019
3.052500000000009,0.087165,0.965304,-0.212225
3.055000000000007,0.079732,0.965212,-0.21358
3.0575000000000045,0.077138,0.968338,-0.210874
3.0600000000000023,0.078812,0.971859,-0.211488
3.0625,0.074511,0.975029,-0.214261
3.0649999999999977,0.071201,0.974126,-0.213118
3.0675000000000097,0.062702,0.97676,-0.21279
3.0700000000000074,0.060023,0.977419,-0.212303
3.072500000000005,0.052278,0.976085,-0.206494
3.075000000000003,0.043289,0.977984,-0.200155
3.077500000000001,0.042992,0.980283,-0.196898
3.0799999999999983,0.037272,0.981453,-0.197657
3.0825000000000102,0.033628,0.977853,-0.193515
3.085000000000008,0.028842,0.979492,-0.189439
3.0875000000000057,0.024215,0.976091,-0.184155
3.0900000000000034,0.023431,0.975891,-0.182667
3.092500000000001,0.010756,0.974834,-0.176415
3.094999999999999,0.010116,0.974906,-0.170836
3.0974999999999966,0.006124,0.97586,-0.163396
3.1000000000000085,0.003206,0.97173,-0.157562
3.1025000000000063,-0.00537,0.975656,-0.150582
3.105000000000004,-0.011002,0.977776,-0.146402
3.1075000000000017,-0.013743,0.979673,-0.140788
3.1099999999999994,-0.017141,0.980663,-0.132142
3.112499999999997,-0.023267,0.982132,-0.128514
3.115000000000009,-0.027733,0.982819,-0.122322
3.117500000000007,-0.030741,0.983239,-0.11113
3.1200000000000045,-0.036612,0.988008,-0.107095
3.1225000000000023,-0.038297,0.988741,-0.100669
3.125,-0.046432,0.995938,-0.097582
3.1274999999999977,-0.051759,0.998047,-0.093226
3.1300000000000097,-0.060329,1.002928,-0.088008
3.1325000000000074,-0.057724,1.005312,-0.084722
3.135000000000005,-0.068045,1.004484,-0.079907
3.137500000000003,-0.070956,1.006628,-0.074126
3.140000000000001,-0.073199,1.017107,-0.069147
3.1424999999999983,-0.080946,1.014696,-0.066434
3.1450000000000102,-0.082934,1.019743,-0.064692
3.147500000000008,-0.089397,1.023873,-0.061199
3.1500000000000057,-0.093976,1.028005,-0.058562
3.1525000000000034,-0.101136,1.033315,-0.058277
3.155000000000001,-0.103787,1.038742,-0.051825
3.157499999999999,-0.111729,1.047644,-0.04933
3.1599999999999966,-0.115603,1.053218,-0.051615
3.1625000000000085,-0.119272,1.060067,-0.047927
3.1650000000000063,-0.126571,1.066288,-0.044957
3.167500000000004,-0.129378,1.078704,-0.039002
3.1700000000000017,-0.136522,1.084542,-0.038652
3.1724999999999994,-0.14376,1.091896,-0.034405
3.174999999999997,-0.149447,1.097867,-0.034538
3.177500000000009,-0.152592,1.102474,-0.032653
3.180000000000007,-0.159302,1.11287,-0.033996
3.1825000000000045,-0.162683,1.116144,-0.034867
3.1850000000000023,-0.168446,1.121263,-0.035164
3.1875,-0.174278,1.128305,-0.03171
3.1899999999999977,-0.178401,1.13324,-0.035061
3.1925000000000097,-0.179404,1.138529,-0.035959
3.1950000000000074,-0.184888,1.15024,-0.034463
3.197500000000005,-0.189528,1.156299,-0.038002
3.200000000000003,-0.194524,1.160067,-0.038236
3.202500000000001,-0.194602,1.16826,-0.037783
3.2049999999999983,-0.197001,1.179099,-0.04186
3.2075000000000102,-0.201051,1.187439,-0.039007
3.210000000000008,-0.203282,1.194176,-0.038245
3.2125000000000057,-0.204028,1.203035,-0.043696
3.2150000000000034,-0.208055,1.213391,-0.044251
3.217500000000001,-0.206131,1.219535,-0.048292
3.219999999999999,-0.208309,1.231231,-0.047833
3.2224999999999966,-0.209695,1.238654,-0.051549
3.2250000000000085,-0.211045,1.250943,-0.049582
3.2275000000000063,-0.210689,1.256655,-0.050628
3.230000000000004,-0.209515,1.267564,-0.055261
3.2325000000000017,-0.208132,1.276631,-0.057879
3.2349999999999994,-0.206429,1.283565,-0.059305
3.237499999999997,-0.20812,1.294122,-0.065696
3.240000000000009,-0.205614,1.298705,-0.063001
3.242500000000007,-0.202301,1.310177,-0.063343
3.2450000000000045,-0.199789,1.31742,-0.066914
3.2475000000000023,-0.202671,1.322113,-0.074141
3.25,-0.197317,1.3313,-0.07361
3.2524999999999977,-0.198606,1.34038,-0.075933
3.2550000000000097,-0.194459,1.347797,-0.079006
3.2575000000000074,-0.191277,1.355521,-0.081401
3.260000000000005,-0.190766,1.361059,-0.082505
3.262500000000003,-0.188995,1.373993,-0.08298
3.265000000000001,-0.18473,1.376574,-0.089105
3.2674999999999983,-0.18439,1.390885,-0.092153
3.2700000000000102,-0.179729,1.393311,-0.092056
3.272500000000008,-0.180265,1.400492,-0.09542
3.2750000000000057,-0.1736,1.403205,-0.098757
3.2775000000000034,-0.171816,1.405382,-0.102995
3.280000000000001,-0.166531,1.412502,-0.108472
3.282499999999999,-0.160323,1.409127,-0.112002
3.2849999999999966,-0.154461,1.408778,-0.113547
3.2875000000000085,-0.149055,1.405338,-0.111188
3.2900000000000063,-0.142518,1.400349,-0.114355
3.292500000000004,-0.138551,1.395471,-0.115593
3.2950000000000017,-0.132507,1.391584,-0.116476
3.2974999999999994,-0.120449,1.382461,-0.117131
3.299999999999997,-0.11491,1.377162,-0.121041
3.302500000000009,-0.101848,1.370634,-0.118323
3.305000000000007,-0.091979,1.358321,-0.120674
3.3075000000000045,-0.084946,1.349096,-0.121348
3.3100000000000023,-0.076774,1.345573,-0.118102
3.3125,-0.061812,1.337191,-0.12272
3.3149999999999977,-0.053267,1.329237,-0.117226
3.3175000000000097,-0.040242,1.317851,-0.117852
3.3200000000000074,-0.029953,1.309943,-0.117619
3.322500000000005,-0.01802,1.298943,-0.114492
3.325000000000003,-0.009848,1.287782,-0.114124
3.327500000000001,0.004565,1.279141,-0.112391
3.3299999999999983,0.010388,1.266657,-0.111646
3.3325000000000102,0.02157,1.253147,-0.110319
3.335000000000008,0.030714,1.245171,-0.102976
3.3375000000000057,0.038538,1.233813,-0.101702
3.3400000000000034,0.047309,1.22585,-0.099504
3.342500000000001,0.060239,1.216483,-0.092766
3.344999999999999,0.066098,1.209114,-0.091375
3.3474999999999966,0.075458,1.194203,-0.083159
3.3500000000000085,0.084148,1.186438,-0.081597
3.3525000000000063,0.092136,1.178169,-0.071594
3.355000000000004,0.095271,1.166481,-0.070277
3.3575000000000017,0.103199,1.149435,-0.067584
3.3599999999999994,0.110024,1.137569,-0.060701
3.362499999999997,0.119335,1.117928,-0.057763
3.365000000000009,0.119373,1.101108,-0.050785
3.367500000000007,0.129371,1.086592,-0.050311
3.3700000000000045,0.13276,1.076902,-0.047226
3.3725000000000023,0.138863,1.055972,-0.04238
3.375,0.14222,1.03687,-0.042151
3.3774999999999977,0.144733,1.018016,-0.031586
3.3800000000000097,0.147756,1.004761,-0.029954
3.3825000000000074,0.152931,0.984552,-0.026308
3.385000000000005,0.153414,0.969038,-0.025803
3.387500000000003,0.155016,0.951716,-0.019114
3.390000000000001,0.159396,0.934727,-0.015917
3.3924999999999983,0.159016,0.917863,-0.016384
3.3950000000000102,0.160515,0.899881,-0.011696
3.397500000000008,0.161346,0.874812,-0.008608
3.4000000000000057,0.168104,0.863096,-0.003441
3.4025000000000034,0.169271,0.847463,-0.004743
3.405000000000001,0.169083,0.82897,0.000327
3.407499999999999,0.175089,0.807537,0.002664
3.4099999999999966,0.170373,0.796216,0.002008
3.4125000000000085,0.169496,0.780483,0.005993
3.4150000000000063,0.171337,0.764249,0.00274
3.417500000000004,0.168117,0.747799,0.003282
3.4200000000000017,0.168181,0.730147,0.007258
3.4224999999999994,0.166775,0.719198,0.007003
3.424999999999997,0.162035,0.702334,0.011031
3.427500000000009,0.158177,0.682584,0.012391
3.430000000000007,0.155722,0.66616,0.01417
3.4325000000000045,0.150306,0.653342,0.01398
3.4350000000000023,0.146208,0.637882,0.015985
3.4375,0.140489,0.620835,0.016672
3.4399999999999977,0.136104,0.606281,0.017958
3.4425000000000097,0.132854,0.595316,0.017183
3.4450000000000074,0.12544,0.580699,0.019699
3.447500000000005,0.120951,0.5689,0.020985
3.450000000000003,0.115126,0.554667,0.017846
3.452500000000001,0.10917,0.540856,0.019061
3.4549999999999983,0.102634,0.530022,0.018411
3.4575000000000102,0.094452,0.518789,0.017037
3.460000000000008,0.088344,0.505742,0.015973
3.4625000000000057,0.081158,0.50045,0.015325
3.4650000000000034,0.072405,0.48986,0.01234
3.467500000000001,0.066198,0.478206,0.01416
3.469999999999999,0.058561,0.464838,0.014097
3.4724999999999966,0.052037,0.461716,0.014076
3.4750000000000085,0.048722,0.449874,0.01412
3.4775000000000063,0.039084,0.447138,0.014285
3.480000000000004,0.036167,0.444602,0.009852
3.4825000000000017,0.029749,0.432537,0.005894
3.4849999999999994,0.021335,0.427116,0.006876
3.487499999999997,0.013971,0.418436,0.006718
3.490000000000009,0.008457,0.417198,0.005864
3.492500000000007,0.007147,0.412639,0.003133
3.4950000000000045,0.00172,0.406986,-0.00065
3.4975000000000023,-0.003988,0.400407,-0.004181
3.5,-0.005202,0.393821,-0.003664
3.5024999999999977,-0.010414,0.39302,-0.006744
3.5050000000000097,-0.012249,0.389107,-0.006683
3.5075000000000074,-0.015783,0.390155,-0.010996
3.510000000000005,-0.019696,0.382184,-0.014684
3.512500000000003,-0.025007,0.381928,-0.017434
3.515000000000001,-0.028773,0.375002,-0.020668
3.5174999999999983,-0.030139,0.372665,-0.023019
3.5200000000000102,-0.034286,0.367991,-0.026639
3.522500000000008,-0.036028,0.364805,-0.028078
3.5250000000000057,-0.03953,0.364084,-0.025648
3.5275000000000034,-0.041641,0.360126,-0.027405
3.530000000000001,-0.045492,0.361723,-0.029506
3.532499999999999,-0.043903,0.357159,-0.03164
3.5349999999999966,-0.04472,0.357064,-0.030331
3.5375000000000085,-0.052194,0.356648,-0.034034
3.5400000000000063,-0.05275,0.354055,-0.035992
3.542500000000004,-0.052978,0.357776,-0.037543
3.5450000000000017,-0.056188,0.355066,-0.038217
3.5474999999999994,-0.058968,0.359926,-0.040649
3.549999999999997,-0.054924,0.352404,-0.038651
3.552500000000009,-0.060774,0.35638,-0.041336
3.555000000000007,-0.060065,0.352427,-0.043683
3.5575000000000045,-0.056206,0.351241,-0.045106
3.5600000000000023,-0.055704,0.349038,-0.044794
3.5625,-0.05883,0.348242,-0.048067
3.5649999999999977,-0.056481,0.347491,-0.050247
3.5675000000000097,-0.055462,0.344781,-0.05295
3.5700000000000074,-0.054331,0.340336,-0.052059
3.572500000000005,-0.052114,0.3449,-0.054699
3.575000000000003,-0.04459,0.341815,-0.054981
3.577500000000001,-0.051147,0.336448,-0.051737
3.5799999999999983,-0.047316,0.331394,-0.053449
3.5825000000000102,-0.046797,0.334106,-0.056076
3.585000000000008,-0.045958,0.324861,-0.055762
3.5875000000000057,-0.041543,0.321493,-0.052488
3.5900000000000034,-0.040862,0.313108,-0.052264
3.592500000000001,-0.035204,0.305922,-0.051354
3.594999999999999,-0.035189,0.298313,-0.052203
3.5974999999999966,-0.034346,0.295057,-0.053044
3.6000000000000085,-0.032088,0.282804,-0.051898
3.6025000000000063,-0.026762,0.275783,-0.050271
3.605000000000004,-0.024921,0.266954,-0.050002
3.6075000000000017,-0.017241,0.254207,-0.050244
3.61,-0.016448,0.244724,-0.050184
3.612499999999997,-0.017627,0.229033,-0.049599
3.615000000000009,-0.010377,0.21582,-0.051525
3.617500000000007,-0.002334,0.203506,-0.052509
3.620000000000005,-0.001493,0.191454,-0.050373
3.6225000000000014,-0.000565,0.176753,-0.052787
3.625,0.005423,0.162659,-0.051849
3.6274999999999977,0.004784,0.150376,-0.048701
3.6300000000000097,0.010716,0.12695,-0.050285
3.632500000000008,0.010584,0.11167,-0.051612
3.635000000000005,0.014894,0.093304,-0.052267
3.637500000000003,0.017098,0.076333,-0.047022
3.640000000000001,0.015599,0.053296,-0.049461
3.6424999999999983,0.018688,0.038037,-0.043663
3.64500000000001,0.02092,0.01704,-0.042468
3.647500000000008,0.022621,-0.002623,-0.041258
3.6500000000000057,0.022618,-0.020602,-0.038342
3.6525000000000034,0.025357,-0.039807,-0.036547
3.655000000000001,0.025057,-0.062285,-0.031908
3.657499999999999,0.02755,-0.089335,-0.029734
3.6599999999999966,0.025406,-0.106899,-0.027992
3.662500000000009,0.031004,-0.130297,-0.022681
3.6650000000000063,0.025434,-0.154684,-0.021498
3.667500000000004,0.023361,-0.176285,-0.018315
3.6700000000000017,0.024847,-0.19854,-0.013523
3.6725,0.024918,-0.221473,-0.009651
3.674999999999997,0.018195,-0.242576,-0.005998
3.677500000000009,0.018959,-0.267297,-0.005005
3.680000000000007,0.015027,-0.290863,0.000177
3.682500000000005,0.010382,-0.319071,0.00065
3.6850000000000014,0.008322,-0.342189,0.010432
3.6875,0.005855,-0.365733,0.010327
3.6899999999999977,-0.000425,-0.388347,0.014358
3.6925000000000097,5.9e-05,-0.412433,0.020928
3.695000000000008,-0.006579,-0.429197,0.020187
3.697500000000005,-0.007759,-0.456378,0.028326
3.700000000000003,-0.011474,-0.478905,0.0319
3.702500000000001,-0.019479,-0.49772,0.033026
3.7049999999999983,-0.018819,-0.521362,0.03434
3.70750000000001,-0.028163,-0.541221,0.041229
3.710000000000008,-0.028229,-0.561553,0.041185
3.7125000000000057,-0.033517,-0.584389,0.044962
3.7150000000000034,-0.036623,-0.604411,0.04713
3.717500000000001,-0.04154,-0.624389,0.05086
3.719999999999999,-0.046663,-0.64206,0.05426
3.7224999999999966,-0.049478,-0.662173,0.050939
3.725000000000009,-0.048763,-0.682242,0.056461
3.7275000000000063,-0.053445,-0.695263,0.061081
3.730000000000004,-0.054693,-0.716421,0.061855
3.7325000000000017,-0.060494,-0.730984,0.063746
3.735,-0.064029,-0.744781,0.064579
3.737499999999997,-0.066149,-0.766224,0.065003
3.740000000000009,-0.068384,-0.781264,0.064979
3.742500000000007,-0.070284,-0.793,0.067861
3.745000000000005,-0.073284,-0.809349,0.065923
3.7475000000000014,-0.076634,-0.821507,0.064885
3.75,-0.073199,-0.838965,0.072061
3.7524999999999977,-0.076947,-0.846696,0.066987
3.7550000000000097,-0.078918,-0.863681,0.070374
3.757500000000008,-0.081125,-0.879081,0.070534
3.760000000000005,-0.082004,-0.889971,0.071431
3.762500000000003,-0.08051,-0.901693,0.070485
3.765000000000001,-0.082992,-0.913508,0.072383
3.7674999999999983,-0.082129,-0.926496,0.070069
3.77000000000001,-0.083731,-0.939085,0.073519
3.772500000000008,-0.084437,-0.944653,0.067196
3.7750000000000057,-0.08491,-0.956592,0.071972
3.7775000000000034,-0.082292,-0.973527,0.070904
3.780000000000001,-0.08318,-0.979723,0.07096
3.782499999999999,-0.08162,-0.986641,0.072857
3.7849999999999966,-0.080901,-0.999996,0.073468
3.787500000000009,-0.078575,-1.00441,0.074587
3.7900000000000063,-0.080475,-1.013497,0.076
3.792500000000004,-0.079463,-1.024653,0.075073
3.7950000000000017,-0.077488,-1.029471,0.073937
3.7975,-0.073463,-1.039802,0.075676
3.799999999999997,-0.075933,-1.046244,0.075961
3.802500000000009,-0.070238,-1.056843,0.080692
3.805000000000007,-0.06533,-1.061951,0.082249
3.807500000000005,-0.06582,-1.067043,0.079899
3.8100000000000014,-0.065076,-1.078357,0.080713
3.8125,-0.061971,-1.082066,0.081455
3.8149999999999977,-0.061558,-1.089868,0.080434
3.8175000000000097,-0.058419,-1.101442,0.085387
3.820000000000008,-0.05687,-1.11066,0.086951
3.822500000000005,-0.050986,-1.117617,0.085882
3.825000000000003,-0.048816,-1.12017,0.090905
3.827500000000001,-0.046669,-1.125098,0.092597
3.8299999999999983,-0.04501,-1.131858,0.092083
3.83250000000001,-0.045958,-1.145399,0.093465
3.835000000000008,-0.044251,-1.145734,0.095031
3.8375000000000057,-0.039391,-1.148115,0.100124
3.8400000000000034,-0.03922,-1.157126,0.102035
3.842500000000001,-0.038162,-1.1603,0.104239
3.844999999999999,-0.0387,-1.168761,0.108034
3.8474999999999966,-0.036439,-1.169441,0.108545
3.850000000000009,-0.037602,-1.176186,0.112166
3.8525000000000063,-0.034164,-1.182318,0.117197
3.855000000000004,-0.032826,-1.188215,0.118945
3.8575000000000017,-0.034644,-1.191557,0.127419
3.86,-0.031002,-1.192847,0.128938
3.862499999999997,-0.032261,-1.200039,0.134415
3.865000000000009,-0.03541,-1.204551,0.135955
3.867500000000007,-0.030552,-1.203751,0.138698
3.870000000000005,-0.037666,-1.207278,0.14217
3.8725000000000014,-0.034803,-1.208173,0.144593
3.875,-0.038393,-1.213512,0.148504
3.8774999999999977,-0.037767,-1.220695,0.153916
3.8800000000000097,-0.036503,-1.227682,0.153758
3.882500000000008,-0.042693,-1.22639,0.155104
3.885000000000005,-0.041239,-1.231111,0.160214
3.887500000000003,-0.043038,-1.235276,0.161658
3.890000000000001,-0.044483,-1.236481,0.163528
3.8924999999999983,-0.045729,-1.241547,0.165508
3.89500000000001,-0.047001,-1.246594,0.167891
3.897500000000008,-0.049126,-1.248918,0.171819
3.9000000000000057,-0.050962,-1.250054,0.172206
3.9025000000000034,-0.052932,-1.255732,0.175496
3.905000000000001,-0.052662,-1.257133,0.181196
3.907499999999999,-0.055698,-1.257711,0.180162
3.9099999999999966,-0.060295,-1.26265,0.181436
3.912500000000009,-0.060137,-1.263866,0.182972
3.9150000000000063,-0.065421,-1.26336,0.188939
3.917500000000004,-0.062011,-1.263008,0.189544
3.9200000000000017,-0.064829,-1.269441,0.18891
3.9225,-0.06935,-1.265546,0.19071
3.924999999999997,-0.072192,-1.268164,0.19292
3.927500000000009,-0.075232,-1.264741,0.191311
3.930000000000007,-0.073729,-1.265167,0.196686
3.932500000000005,-0.075781,-1.266768,0.194346
3.9350000000000014,-0.076227,-1.267677,0.198653
3.9375,-0.078154,-1.270116,0.203627
3.9399999999999977,-0.079033,-1.272859,0.197949
3.9425000000000097,-0.079988,-1.271406,0.197723
3.945000000000008,-0.08242,-1.273797,0.20067
3.947500000000005,-0.081556,-1.274306,0.196441
3.950000000000003,-0.08698,-1.275972,0.194185
3.952500000000001,-0.082544,-1.281299,0.195132
3.9549999999999983,-0.08571,-1.281037,0.195464
3.95750000000001,-0.084069,-1.28764,0.195798
3.960000000000008,-0.086732,-1.285297,0.19263
3.9625000000000057,-0.086941,-1.290243,0.188939
3.9650000000000034,-0.086038,-1.294292,0.187277
3.967500000000001,-0.084136,-1.298749,0.186537
3.969999999999999,-0.088275,-1.297354,0.18514
3.9724999999999966,-0.086179,-1.303064,0.183819
3.975000000000009,-0.08442,-1.304331,0.182659
3.9775000000000063,-0.084971,-1.310191,0.176821
3.980000000000004,-0.085352,-1.311622,0.176127
3.9825000000000017,-0.083257,-1.308135,0.172214
3.985,-0.085248,-1.316387,0.173088
3.987499999999997,-0.083934,-1.321237,0.172591
3.990000000000009,-0.087319,-1.320609,0.170811
3.992500000000007,-0.082544,-1.325389,0.169053
3.995000000000005,-0.083625,-1.324742,0.172446
3.9975000000000014,-0.084077,-1.327551,0.17015
4.0,-0.085598,-1.323595,0.167336
4.002499999999998,-0.085309,-1.324258,0.168292
4.00500000000001,-0.086251,-1.327299,0.16718
4.007500000000007,-0.084718,-1.326369,0.165055
4.010000000000005,-0.08705,-1.32269,0.167494
4.012500000000003,-0.085658,-1.324249,0.165967
4.015000000000001,-0.091018,-1.322468,0.168052
4.017499999999998,-0.092913,-1.320124,0.164694
4.02000000000001,-0.093587,-1.318317,0.16494
4.022500000000008,-0.094505,-1.312188,0.162981
4.025000000000006,-0.093575,-1.3131,0.163774
4.027500000000003,-0.095266,-1.309434,0.15795
4.030000000000001,-0.096676,-1.310135,0.158856
4.032499999999999,-0.098237,-1.308637,0.15864
4.034999999999997,-0.096799,-1.306794,0.157034
4.0375000000000085,-0.099635,-1.309476,0.154596
4.040000000000006,-0.100401,-1.304733,0.153495
4.042500000000004,-0.10291,-1.308734,0.154164
4.045000000000002,-0.102913,-1.307685,0.154396
4.047499999999999,-0.104086,-1.304557,0.154846
4.049999999999997,-0.104901,-1.308425,0.152531
4.052500000000009,-0.10332,-1.305298,0.150923
4.055000000000007,-0.10363,-1.304095,0.151082
4.0575000000000045,-0.106742,-1.302414,0.149856
4.060000000000002,-0.109246,-1.301537,0.147343
4.0625,-0.113407,-1.299838,0.149482
4.064999999999998,-0.109689,-1.292439,0.148282
4.06750000000001,-0.111792,-1.295986,0.142225
4.070000000000007,-0.11394,-1.288476,0.144628
4.072500000000005,-0.11766,-1.281553,0.144918
4.075000000000003,-0.119798,-1.275451,0.140438
4.077500000000001,-0.119847,-1.273914,0.139421
4.079999999999998,-0.122599,-1.26955,0.140063
4.08250000000001,-0.124553,-1.262689,0.140005
4.085000000000008,-0.125605,-1.253078,0.13473
4.087500000000006,-0.12715,-1.24921,0.1345
4.090000000000003,-0.132154,-1.239205,0.136409
4.092500000000001,-0.133176,-1.22773,0.133769
4.094999999999999,-0.138845,-1.220202,0.131458
4.097499999999997,-0.139326,-1.208965,0.128921
4.1000000000000085,-0.142959,-1.19917,0.126486
4.102500000000006,-0.142455,-1.185746,0.126507
4.105000000000004,-0.145413,-1.174695,0.125212
4.107500000000002,-0.15361,-1.158701,0.11889
4.109999999999999,-0.155032,-1.147979,0.115726
4.112499999999997,-0.157213,-1.134843,0.113756
4.115000000000009,-0.161099,-1.120598,0.11076
4.117500000000007,-0.162828,-1.101779,0.111487
4.1200000000000045,-0.169335,-1.087106,0.105421
4.122500000000002,-0.17141,-1.066933,0.108317
4.125,-0.174435,-1.044557,0.104704
4.127499999999998,-0.176992,-1.026057,0.107487
4.13000000000001,-0.18422,-1.001659,0.101671
4.132500000000007,-0.191017,-0.976898,0.104495
4.135000000000005,-0.195609,-0.950921,0.09952
4.137500000000003,-0.200124,-0.926848,0.098387
4.140000000000001,-0.206244,-0.901589,0.094356
4.142499999999998,-0.212085,-0.8757,0.089132
4.14500000000001,-0.225762,-0.842303,0.084909
4.147500000000008,-0.228687,-0.817302,0.080686
4.150000000000006,-0.234519,-0.791736,0.077454
4.152500000000003,-0.242148,-0.760192,0.074992
4.155000000000001,-0.251724,-0.730466,0.075727
4.157499999999999,-0.25765,-0.699259,0.072808
4.159999999999997,-0.26975,-0.666051,0.07234
4.1625000000000085,-0.276883,-0.638297,0.064174
4.165000000000006,-0.283688,-0.610285,0.063079
4.167500000000004,-0.284469,-0.582579,0.0608
4.170000000000002,-0.292066,-0.548841,0.059763
4.172499999999999,-0.29266,-0.523435,0.057446
4.174999999999997,-0.298116,-0.496975,0.058595
4.177500000000009,-0.305499,-0.465854,0.051046
4.180000000000007,-0.304264,-0.44145,0.047993
4.1825000000000045,-0.308171,-0.411622,0.048289
4.185000000000002,-0.307877,-0.381707,0.044993
4.1875,-0.3084,-0.358444,0.040185
4.189999999999998,-0.3062,-0.33856,0.040979
4.19250000000001,-0.30759,-0.311537,0.034633
4.195000000000007,-0.301868,-0.28702,0.031687
4.197500000000005,-0.299852,-0.265329,0.026966
4.200000000000003,-0.295404,-0.244401,0.02396
4.202500000000001,-0.286926,-0.21905,0.020059
4.204999999999998,-0.280008,-0.195792,0.015894
4.20750000000001,-0.274609,-0.180949,0.011738
4.210000000000008,-0.269169,-0.160114,0.006951
4.212500000000006,-0.257379,-0.138958,0.007109
4.215000000000003,-0.246169,-0.121464,0.002468
4.217500000000001,-0.233649,-0.096688,-0.002435
4.219999999999999,-0.22112,-0.082864,-0.002147
4.222499999999997,-0.209473,-0.063215,-0.008966
4.2250000000000085,-0.195755,-0.04842,-0.011244
4.227500000000006,-0.179832,-0.032796,-0.01139
4.230000000000004,-0.168762,-0.010855,-0.016432
4.232500000000002,-0.154234,0.0025,-0.020534
4.234999999999999,-0.137325,0.019709,-0.023602
4.237499999999997,-0.120878,0.038993,-0.024562
4.240000000000009,-0.103575,0.050186,-0.029625
4.242500000000007,-0.087951,0.066984,-0.029722
4.2450000000000045,-0.070134,0.083577,-0.03414
4.247500000000002,-0.050905,0.092534,-0.033773
4.25,-0.028524,0.105884,-0.03781
4.252499999999998,-0.010671,0.115705,-0.037484
4.25500000000001,0.00449,0.132252,-0.04015
4.257500000000007,0.024641,0.147144,-0.046064
4.260000000000005,0.047066,0.158174,-0.046284
4.262500000000003,0.064737,0.16906,-0.050643
4.265000000000001,0.082637,0.179922,-0.052963
4.267499999999998,0.102765,0.188921,-0.054453
4.27000000000001,0.122938,0.19928,-0.05506
4.272500000000008,0.14,0.205237,-0.058189
4.275000000000006,0.160854,0.216008,-0.059736
4.277500000000003,0.175435,0.224302,-0.059964
4.280000000000001,0.195772,0.233381,-0.061719
4.282499999999999,0.214566,0.240987,-0.062834
4.284999999999997,0.230512,0.250539,-0.065936
4.2875000000000085,0.243887,0.259418,-0.065374
4.290000000000006,0.260886,0.266179,-0.066361
4.292500000000004,0.274024,0.273063,-0.068097
4.295000000000002,0.288137,0.28654,-0.066727
4.297499999999999,0.300088,0.292302,-0.069636
4.299999999999997,0.315619,0.302581,-0.069381
4.302500000000009,0.32878,0.307249,-0.071378
4.305000000000007,0.339758,0.318419,-0.070223
4.3075000000000045,0.349028,0.326895,-0.074871
4.310000000000002,0.359163,0.3368,-0.071307
4.3125,0.368454,0.343669,-0.07163
4.314999999999998,0.375133,0.350303,-0.072032
4.31750000000001,0.384069,0.357983,-0.072843
4.320000000000007,0.395427,0.371543,-0.072622
4.322500000000005,0.398555,0.37702,-0.076061
4.325000000000003,0.402627,0.386029,-0.076331
4.327500000000001,0.407606,0.391983,-0.076845
4.329999999999998,0.406618,0.399936,-0.077589
4.33250000000001,0.41307,0.413124,-0.081716
4.335000000000008,0.413103,0.420142,-0.08304
4.337500000000006,0.411046,0.428503,-0.088298
4.340000000000003,0.412987,0.437553,-0.088105
4.342500000000001,0.412879,0.444814,-0.089818
4.344999999999999,0.406902,0.456154,-0.093564
4.347499999999997,0.411321,0.464342,-0.094356
4.3500000000000085,0.407758,0.479838,-0.094497
4.352500000000006,0.402675,0.480258,-0.099404
4.355000000000004,0.40092,0.492708,-0.100818
4.357500000000002,0.395174,0.502511,-0.102319
4.359999999999999,0.389192,0.510552,-0.104004
4.362499999999997,0.385734,0.518767,-0.104427
4.365000000000009,0.380103,0.527767,-0.110227
4.367500000000007,0.374376,0.534021,-0.110589
4.3700000000000045,0.36924,0.548589,-0.109145
4.372500000000002,0.358494,0.558677,-0.111701
4.375,0.353281,0.567532,-0.110406
4.377499999999998,0.344261,0.575873,-0.112428
4.38000000000001,0.335513,0.585574,-0.115979
4.382500000000007,0.327117,0.599287,-0.114304
4.385000000000005,0.31812,0.606848,-0.117631
4.387500000000003,0.3081,0.621408,-0.114222
4.390000000000001,0.298295,0.631704,-0.119032
4.392499999999998,0.28958,0.639554,-0.123198
4.39500000000001,0.28146,0.655162,-0.121757
4.397500000000008,0.271385,0.663931,-0.118834
4.400000000000006,0.26282,0.674463,-0.120853
4.402500000000003,0.252945,0.689537,-0.12314
4.405000000000001,0.242036,0.7016,-0.122635
4.407499999999999,0.232018,0.714452,-0.123793
4.409999999999997,0.225148,0.729429,-0.124858
4.4125000000000085,0.214589,0.744946,-0.126338
4.415000000000006,0.205588,0.75632,-0.12667
4.417500000000004,0.197213,0.769713,-0.127964
4.420000000000002,0.192218,0.78241,-0.132708
4.422499999999999,0.18734,0.795343,-0.13399
4.424999999999997,0.17418,0.80479,-0.136137
4.427500000000009,0.164138,0.818752,-0.138937
4.430000000000007,0.160784,0.832356,-0.137548
4.4325000000000045,0.154292,0.846727,-0.14037
4.435000000000002,0.144567,0.86043,-0.141113
4.4375,0.13812,0.873059,-0.145319
4.439999999999998,0.128119,0.885301,-0.145818
4.44250000000001,0.123052,0.900492,-0.150879
4.445000000000007,0.119278,0.909637,-0.150971
4.447500000000005,0.108025,0.922748,-0.150462
4.450000000000003,0.106602,0.937751,-0.151809
4.452500000000001,0.097147,0.951483,-0.149646
4.454999999999998,0.090805,0.957083,-0.153998
4.45750000000001,0.08134,0.972448,-0.156586
4.460000000000008,0.078147,0.982882,-0.158519
4.462500000000006,0.068545,0.999038,-0.159101
4.465000000000003,0.063379,1.015495,-0.157917
4.467500000000001,0.059029,1.025031,-0.159752
4.469999999999999,0.053781,1.037055,-0.158159
4.472499999999997,0.047741,1.042641,-0.158232
4.4750000000000085,0.043007,1.057222,-0.159292
4.477500000000006,0.037768,1.064273,-0.161447
4.480000000000004,0.030408,1.077833,-0.162874
4.482500000000002,0.028848,1.087384,-0.162916
4.484999999999999,0.020967,1.096381,-0.160593
4.487499999999997,0.019274,1.106134,-0.161736
4.490000000000009,0.015966,1.11584,-0.15811
4.492500000000007,0.012527,1.122586,-0.157723
4.4950000000000045,0.009388,1.127815,-0.158496
4.497500000000002,0.006146,1.142409,-0.155172
4.5,0.006168,1.149437,-0.153065
4.502499999999998,0.000628,1.156383,-0.154987
4.50500000000001,-0.001964,1.165946,-0.149418
4.507500000000007,-0.003903,1.171313,-0.149298
4.510000000000005,-0.005609,1.178884,-0.148796
4.512500000000003,-0.0065,1.179972,-0.141808
4.515000000000001,-0.009465,1.19013,-0.137831
4.517499999999998,-0.012608,1.199671,-0.140938
4.52000000000001,-0.014803,1.201884,-0.137799
4.522500000000008,-0.01573,1.207669,-0.132804
4.525000000000006,-0.02085,1.214647,-0.130826
4.527500000000003,-0.021128,1.221923,-0.12897
4.530000000000001,-0.019145,1.226596,-0.122562
4.532499999999999,-0.020368,1.228969,-0.122768
4.534999999999997,-0.022632,1.231642,-0.116928
4.5375000000000085,-0.026464,1.239765,-0.114158
4.540000000000006,-0.029869,1.23823,-0.110732
4.542500000000004,-0.026634,1.243697,-0.10756
4.545000000000002,-0.032377,1.247319,-0.101176
4.547499999999999,-0.030179,1.253801,-0.098743
4.549999999999997,-0.028199,1.256539,-0.092469
4.552500000000009,-0.03541,1.258987,-0.089379
4.555000000000007,-0.038269,1.268698,-0.08626
4.5575000000000045,-0.03638,1.272818,-0.079472
4.560000000000002,-0.039478,1.27539,-0.07631
4.5625,-0.038628,1.275767,-0.072271
4.564999999999998,-0.039731,1.283847,-0.067025
4.56750000000001,-0.045952,1.290382,-0.063199
4.570000000000007,-0.046597,1.293412,-0.061484
4.572500000000005,-0.046852,1.299067,-0.059117
4.575000000000003,-0.0452,1.301005,-0.052501
4.577500000000001,-0.048304,1.300299,-0.057948
4.579999999999998,-0.047615,1.308159,-0.055589
4.58250000000001,-0.047274,1.311214,-0.047009
4.585000000000008,-0.046924,1.314519,-0.046039
4.587500000000006,-0.049511,1.318461,-0.046796
4.590000000000003,-0.046673,1.319659,-0.043884
4.592500000000001,-0.04663,1.318002,-0.040792
4.594999999999999,-0.047094,1.325901,-0.038263
4.597499999999997,-0.046904,1.326035,-0.039184
4.6000000000000085,-0.043675,1.332202,-0.034735
4.602500000000006,-0.042008,1.331449,-0.032829
4.605000000000004,-0.039707,1.332109,-0.030236
4.607500000000002,-0.042747,1.337555,-0.031632
4.609999999999999,-0.040212,1.336618,-0.021407
4.612499999999997,-0.037913,1.338102,-0.025229
4.615000000000009,-0.038718,1.337929,-0.022107
4.617500000000007,-0.040151,1.337767,-0.023499
4.6200000000000045,-0.035256,1.335831,-0.019963
4.622500000000002,-0.040413,1.337203,-0.021818
4.625,-0.035718,1.336293,-0.023912
4.627499999999998,-0.036159,1.3381,-0.020421
4.63000000000001,-0.035684,1.337379,-0.019032
4.632500000000007,-0.03204,1.33563,-0.018528
4.635000000000005,-0.034109,1.337305,-0.018257
4.637500000000003,-0.034688,1.33158,-0.017449
4.640000000000001,-0.035414,1.332661,-0.020191
4.642499999999998,-0.031284,1.323828,-0.016505
4.64500000000001,-0.032431,1.32889,-0.018455
4.647500000000008,-0.034028,1.326285,-0.017431
4.650000000000006,-0.031891,1.329264,-0.017534
4.652500000000003,-0.031596,1.328117,-0.019579
4.655000000000001,-0.03003,1.329012,-0.019173
4.657499999999999,-0.031297,1.331057,-0.022841
4.659999999999997,-0.030671,1.326278,-0.021148
4.6625000000000085,-0.028579,1.328713,-0.023294
4.665000000000006,-0.03043,1.327126,-0.0247
4.667500000000004,-0.027853,1.332406,-0.026469
4.670000000000002,-0.030836,1.329629,-0.027363
4.672499999999999,-0.028861,1.326697,-0.029942
4.674999999999997,-0.029151,1.330587,-0.029604
4.677500000000009,-0.027907,1.331654,-0.036556
4.680000000000007,-0.029127,1.330432,-0.03611
4.6825000000000045,-0.029755,1.326431,-0.042437
4.685000000000002,-0.028835,1.328236,-0.045216
4.6875,-0.03085,1.325647,-0.04901
4.689999999999998,-0.027137,1.326161,-0.054815
4.69250000000001,-0.030258,1.328078,-0.05617
4.695000000000007,-0.03223,1.329194,-0.061914
4.697500000000005,-0.034279,1.324069,-0.065511
4.700000000000003,-0.033592,1.323686,-0.069305
4.702500000000001,-0.03181,1.32252,-0.07223
4.704999999999998,-0.036971,1.319255,-0.076249
4.70750000000001,-0.033011,1.313951,-0.081395
4.710000000000008,-0.035629,1.308781,-0.086761
4.712500000000006,-0.034933,1.306292,-0.086072
4.715000000000003,-0.035149,1.300712,-0.087121
4.717500000000001,-0.037298,1.302239,-0.092389
4.719999999999999,-0.03922,1.29205,-0.093252
4.722499999999997,-0.039059,1.294622,-0.091879
4.7250000000000085,-0.036399,1.288684,-0.091521
4.727500000000006,-0.038561,1.283404,-0.092965
4.730000000000004,-0.037964,1.282734,-0.097172
4.732500000000002,-0.038973,1.277149,-0.098702
4.734999999999999,-0.035411,1.271333,-0.100212
4.737499999999997,-0.036427,1.264837,-0.100611
4.740000000000009,-0.035998,1.262827,-0.103076
4.742500000000007,-0.034346,1.263094,-0.104789
4.7450000000000045,-0.029682,1.253809,-0.109544
4.747500000000002,-0.02737,1.253246,-0.110707
4.75,-0.025013,1.247798,-0.115322
4.752499999999998,-0.024614,1.238008,-0.119108
4.75500000000001,-0.022039,1.233668,-0.118659
4.757500000000007,-0.015397,1.2218,-0.12521
4.760000000000005,-0.015318,1.219733,-0.125042
4.762500000000003,-0.013387,1.21154,-0.124697
4.765000000000001,-0.009167,1.20444,-0.127305
4.767499999999998,-0.005595,1.193426,-0.129229
4.77000000000001,0.001206,1.185231,-0.129719
4.772500000000008,0.006299,1.18166,-0.129239
4.775000000000006,0.010137,1.172334,-0.128648
4.777500000000003,0.01586,1.165321,-0.12899
4.780000000000001,0.021071,1.155565,-0.127856
4.782499999999999,0.02303,1.147914,-0.131768
4.784999999999997,0.031549,1.142689,-0.127128
4.7875000000000085,0.033919,1.131568,-0.129774
4.790000000000006,0.038866,1.129304,-0.127038
4.792500000000004,0.047835,1.119289,-0.128464
4.795000000000002,0.055734,1.110923,-0.124031
4.797499999999999,0.062837,1.10797,-0.127283
4.799999999999997,0.068159,1.096897,-0.125006
4.802500000000009,0.081132,1.092566,-0.123814
4.805000000000007,0.088469,1.082581,-0.12359
4.8075000000000045,0.094465,1.073624,-0.1204
4.810000000000002,0.10437,1.068173,-0.121351
4.8125,0.110438,1.058772,-0.118759
4.814999999999998,0.121979,1.046091,-0.116864
4.81750000000001,0.131137,1.031796,-0.117686
4.820000000000007,0.137442,1.022367,-0.113405
4.822500000000005,0.15083,1.003178,-0.113212
4.825000000000003,0.159847,0.986132,-0.109488
4.827500000000001,0.165277,0.977501,-0.109848
4.829999999999998,0.174484,0.958918,-0.104213
4.83250000000001,0.185823,0.939342,-0.106457
4.835000000000008,0.192664,0.923468,-0.102706
4.837500000000006,0.200986,0.905221,-0.100519
4.840000000000003,0.208587,0.884528,-0.103971
4.842500000000001,0.218522,0.867117,-0.102787
4.844999999999999,0.228202,0.847433,-0.099316
4.847499999999997,0.236397,0.825762,-0.103097
4.8500000000000085,0.241495,0.801363,-0.099841
4.852500000000006,0.246515,0.777657,-0.099689
4.855000000000004,0.250892,0.757415,-0.100972
4.857500000000002,0.260849,0.738276,-0.098312
4.859999999999999,0.265024,0.710913,-0.095874
4.862499999999997,0.270624,0.687777,-0.099503
4.865000000000009,0.275391,0.663821,-0.09357
4.867500000000007,0.279228,0.631914,-0.092387
4.8700000000000045,0.278512,0.610405,-0.090288
4.872500000000002,0.285057,0.584925,-0.090276
4.875,0.287925,0.559945,-0.084227
4.877499999999998,0.290755,0.535824,-0.08096
4.88000000000001,0.291375,0.514164,-0.076793
4.882500000000007,0.295701,0.481679,-0.074075
4.885000000000005,0.29523,0.460278,-0.071624
4.887500000000003,0.298437,0.435343,-0.06852
4.890000000000001,0.297729,0.412657,-0.062107
4.892499999999998,0.299377,0.382964,-0.064234
4.89500000000001,0.29277,0.36081,-0.059062
4.897500000000008,0.295151,0.328911,-0.054155
4.900000000000006,0.294476,0.302366,-0.051066
4.902500000000003,0.294236,0.276097,-0.045553
4.905000000000001,0.288709,0.256885,-0.041685
4.907499999999999,0.289535,0.234076,-0.033841
4.909999999999997,0.283173,0.205431,-0.029692
4.9125000000000085,0.281807,0.178725,-0.026274
4.915000000000006,0.27981,0.150596,-0.024611
4.917500000000004,0.274088,0.126224,-0.014217
4.920000000000002,0.272887,0.096939,-0.009552
4.922499999999999,0.271647,0.06992,-0.00564
4.924999999999997,0.263795,0.047458,0.001726
4.927500000000009,0.261257,0.024312,0.007261
4.930000000000007,0.257031,-0.003713,0.01737
4.9325000000000045,0.25376,-0.022615,0.017608
4.935000000000002,0.249317,-0.047638,0.021047
4.9375,0.244895,-0.073551,0.026009
4.939999999999998,0.241508,-0.093694,0.033324
4.94250000000001,0.231045,-0.11995,0.034667
4.945000000000007,0.228659,-0.139785,0.037081
4.947500000000005,0.219867,-0.163938,0.044379
4.950000000000003,0.212281,-0.184016,0.047582
4.952500000000001,0.206697,-0.203949,0.050454
4.954999999999998,0.202823,-0.223771,0.054742
4.95750000000001,0.197113,-0.239573,0.057491
4.960000000000008,0.191378,-0.257009,0.058191
4.962500000000006,0.185777,-0.279464,0.061042
4.965000000000003,0.180525,-0.293934,0.060876
4.967500000000001,0.170609,-0.307097,0.063086
4.969999999999999,0.163314,-0.322531,0.068092
4.972499999999997,0.159479,-0.339323,0.065202
4.9750000000000085,0.153928,-0.355285,0.069282
4.977500000000006,0.144719,-0.36833,0.068181
4.980000000000004,0.142226,-0.375502,0.066946
4.982500000000002,0.135186,-0.386825,0.066405
4.984999999999999,0.127541,-0.397378,0.069738
4.987499999999997,0.123411,-0.40095,0.068586
4.990000000000009,0.116434,-0.411403,0.066919
4.992500000000007,0.111926,-0.415298,0.063714
4.9950000000000045,0.105406,-0.42081,0.063203
4.997500000000002,0.10142,-0.425573,0.062484
5.0,0.094569,-0.428282,0.059793
5.002499999999998,0.091431,-0.429615,0.058558
5.00500000000001,0.080273,-0.435954,0.055952
5.007500000000007,0.076885,-0.433698,0.051006
5.010000000000005,0.068129,-0.432019,0.054137
5.012500000000003,0.064271,-0.437421,0.048957
5.015000000000001,0.061511,-0.434023,0.048488
5.017499999999998,0.057741,-0.433911,0.045613
5.02000000000001,0.046334,-0.430757,0.044554
5.022500000000008,0.045487,-0.429541,0.042669
5.025000000000006,0.039571,-0.430013,0.041831
5.027500000000003,0.034993,-0.42634,0.038206
5.030000000000001,0.028769,-0.425682,0.033862
5.032499999999999,0.023558,-0.426005,0.035126
5.034999999999997,0.021022,-0.425427,0.027614
5.0375000000000085,0.017186,-0.422922,0.027711
5.040000000000006,0.011922,-0.424218,0.022966
5.042500000000004,0.008828,-0.423226,0.021576
5.045000000000002,0.005972,-0.420439,0.016672
5.047499999999999,0.000977,-0.423038,0.012166
5.049999999999997,-0.001121,-0.420021,0.008791
5.052500000000009,-0.005265,-0.42119,0.010438
5.055000000000007,-0.008568,-0.425428,0.007726
5.0575000000000045,-0.011168,-0.428492,0.003854
5.060000000000002,-0.014456,-0.434576,-2.8e-05
5.0625,-0.019594,-0.438812,0.002918
5.064999999999998,-0.023459,-0.44556,0.000142
5.06750000000001,-0.018905,-0.452119,-0.000122
5.070000000000007,-0.026642,-0.461485,-0.00557
5.072500000000005,-0.025202,-0.471214,-0.007252
5.075000000000003,-0.024396,-0.477351,-0.005193
5.077500000000001,-0.026864,-0.48908,-0.005654
5.079999999999998,-0.024742,-0.498404,-0.007257
5.08250000000001,-0.026666,-0.515086,-0.007936
5.085000000000008,-0.023863,-0.525355,-0.0029
5.087500000000006,-0.024052,-0.535442,-0.004807
5.090000000000003,-0.022793,-0.554015,-0.006053
5.092500000000001,-0.023167,-0.568438,-0.00414
5.094999999999999,-0.021234,-0.588149,-0.002457
5.097499999999997,-0.020678,-0.605896,-0.00332
5.1000000000000085,-0.020105,-0.621842,0.002091
5.102500000000006,-0.021648,-0.640687,-0.001548
5.105000000000004,-0.019427,-0.661855,-0.001052
5.107500000000002,-0.017118,-0.680065,-0.00087
5.109999999999999,-0.01314,-0.700417,0.002169
5.112499999999997,-0.008546,-0.722771,-0.000408
5.115000000000009,-0.007467,-0.743935,0.002476
5.117500000000007,-0.004797,-0.766793,0.00413
5.1200000000000045,-0.001349,-0.785284,0.005039
5.122500000000002,0.001151,-0.810813,0.007006
5.125,0.007572,-0.83087,0.011513
5.127499999999998,0.008946,-0.851967,0.011157
5.13000000000001,0.015216,-0.871897,0.012327
5.132500000000007,0.01648,-0.89576,0.015493
5.135000000000005,0.027712,-0.916408,0.021772
5.137500000000003,0.028118,-0.93498,0.021171
5.140000000000001,0.032576,-0.954904,0.020974
5.142499999999998,0.040982,-0.97681,0.026981
5.14500000000001,0.047562,-0.992292,0.028924
5.147500000000008,0.04823,-1.010461,0.030614
5.150000000000006,0.057138,-1.031524,0.033679
5.152500000000003,0.059224,-1.050428,0.035047
5.155000000000001,0.066928,-1.073636,0.039902
5.157499999999999,0.073462,-1.08784,0.039472
5.159999999999997,0.077934,-1.104898,0.045507
5.1625000000000085,0.084817,-1.118738,0.045221
5.165000000000006,0.087739,-1.138264,0.049739
5.167500000000004,0.095231,-1.155021,0.055153
5.170000000000002,0.099216,-1.167347,0.054822
5.172499999999999,0.102536,-1.187422,0.054074
5.174999999999997,0.105717,-1.19547,0.061601
5.177500000000009,0.111427,-1.207841,0.061453
5.180000000000007,0.117951,-1.217688,0.064649
5.1825000000000045,0.117672,-1.230038,0.06598
5.185000000000002,0.116008,-1.24053,0.06899
5.1875,0.12142,-1.248976,0.075362
5.189999999999998,0.123546,-1.261636,0.073903
5.19250000000001,0.127135,-1.267854,0.074589
5.195000000000007,0.128459,-1.277836,0.07421
5.197500000000005,0.126313,-1.283985,0.076999
5.200000000000003,0.128632,-1.290101,0.077965
5.202500000000001,0.132487,-1.296309,0.07843
5.204999999999998,0.136725,-1.302595,0.079324
5.20750000000001,0.137893,-1.306026,0.08091
5.210000000000008,0.135512,-1.309616,0.079545
5.212500000000006,0.142331,-1.318688,0.080649
5.215000000000003,0.140356,-1.317073,0.08005
5.217500000000001,0.138225,-1.319573,0.081591
5.219999999999999,0.142313,-1.326104,0.080731
5.222499999999997,0.144961,-1.330376,0.080507
5.2250000000000085,0.143883,-1.326644,0.075647
5.227500000000006,0.146585,-1.328241,0.077734
5.230000000000004,0.146867,-1.33044,0.076789
5.232500000000002,0.147355,-1.329104,0.077511
5.234999999999999,0.150114,-1.331792,0.076183
5.237499999999997,0.15064,-1.331229,0.076773
5.240000000000009,0.148971,-1.330977,0.074685
5.242500000000007,0.148852,-1.330524,0.075007
5.2450000000000045,0.152112,-1.331808,0.074656
5.247500000000002,0.14989,-1.329323,0.071646
5.25,0.153511,-1.330493,0.068583
5.252499999999998,0.156465,-1.328312,0.070762
5.25500000000001,0.151616,-1.32724,0.070333
5.257500000000007,0.157266,-1.323838,0.065308
5.260000000000005,0.15341,-1.32556,0.068372
5.262500000000003,0.155395,-1.32123,0.063055
5.265000000000001,0.159405,-1.322258,0.06318
5.267499999999998,0.153368,-1.316877,0.064658
5.27000000000001,0.15425,-1.316058,0.062925
5.272500000000008,0.152742,-1.312164,0.060605
5.275000000000006,0.155645,-1.312844,0.064067
5.277500000000003,0.152289,-1.303973,0.05957
5.280000000000001,0.151993,-1.305628,0.063439
5.282499999999999,0.150604,-1.302292,0.064545
5.284999999999997,0.1504,-1.29817,0.067256
5.2875000000000085,0.149035,-1.2956,0.064782
5.290000000000006,0.144728,-1.289073,0.072985
5.292500000000004,0.142998,-1.284746,0.07387
5.295000000000002,0.141236,-1.281934,0.07536
5.297499999999999,0.135235,-1.283441,0.077831
5.299999999999997,0.131901,-1.279796,0.08251
5.302500000000009,0.127403,-1.277732,0.083794
5.305000000000007,0.124569,-1.274279,0.090269
5.3075000000000045,0.122278,-1.267079,0.090192
5.310000000000002,0.117693,-1.265073,0.097241
5.3125,0.113013,-1.264278,0.104166
5.314999999999998,0.10896,-1.258457,0.107374
5.31750000000001,0.106727,-1.25303,0.117239
5.320000000000007,0.09874,-1.251679,0.11786
5.322500000000005,0.096124,-1.243449,0.126363
5.325000000000003,0.091539,-1.241912,0.129687
5.327500000000001,0.086703,-1.229439,0.136139
5.329999999999998,0.081977,-1.226448,0.13931
5.33250000000001,0.080996,-1.219626,0.143633
5.335000000000008,0.072757,-1.211712,0.150172
5.337500000000006,0.067744,-1.205646,0.157293
5.340000000000003,0.061376,-1.197632,0.164037
5.342500000000001,0.057917,-1.189685,0.167938
5.344999999999999,0.054111,-1.179384,0.174027
5.347499999999997,0.04639,-1.173178,0.179551
5.3500000000000085,0.042332,-1.169518,0.184957
5.352500000000006,0.039241,-1.157274,0.192023
5.355000000000004,0.034831,-1.150956,0.19555
5.357500000000002,0.028441,-1.141134,0.198538
5.359999999999999,0.023588,-1.133337,0.202575
5.362499999999997,0.018371,-1.124557,0.205839
5.365000000000009,0.011315,-1.120946,0.207727
5.367500000000007,0.008047,-1.111034,0.211784
5.3700000000000045,0.002856,-1.105056,0.215177
5.372500000000002,-0.001,-1.102417,0.213438
5.375,-0.008634,-1.101508,0.211682
5.377499999999998,-0.007677,-1.091223,0.209946
5.38000000000001,-0.012398,-1.097873,0.210222
5.382500000000007,-0.02082,-1.089274,0.210554
5.385000000000005,-0.025821,-1.08734,0.207947
5.387500000000003,-0.028871,-1.089894,0.212937
5.390000000000001,-0.034179,-1.081498,0.207416
5.392499999999998,-0.035371,-1.08414,0.206933
5.39500000000001,-0.043617,-1.086115,0.207163
5.397500000000008,-0.047216,-1.085748,0.202794
5.400000000000006,-0.052542,-1.086195,0.206945
5.402500000000003,-0.053507,-1.084896,0.202056
5.405000000000001,-0.059764,-1.086921,0.201961
5.407499999999999,-0.063182,-1.08748,0.201411
5.409999999999997,-0.065947,-1.085353,0.201622
5.4125000000000085,-0.07278,-1.091856,0.201085
5.415000000000006,-0.07105,-1.095362,0.197392
5.417500000000004,-0.074056,-1.097919,0.197291
5.420000000000002,-0.079155,-1.100854,0.199384
5.422499999999999,-0.082542,-1.105589,0.195486
5.424999999999997,-0.085904,-1.113253,0.194604
5.427500000000009,-0.09138,-1.117075,0.192078
5.430000000000007,-0.090915,-1.11817,0.193317
5.4325000000000045,-0.096928,-1.124941,0.192916
5.435000000000002,-0.096257,-1.131377,0.193418
5.4375,-0.101362,-1.133058,0.193698
5.439999999999998,-0.105117,-1.139626,0.19116
5.44250000000001,-0.108692,-1.140772,0.189196
5.445000000000007,-0.109135,-1.151409,0.18739
5.447500000000005,-0.112098,-1.151176,0.186566
5.450000000000003,-0.111519,-1.161174,0.184674
5.452500000000001,-0.120416,-1.165691,0.183185
5.454999999999998,-0.120354,-1.169372,0.1823
5.45750000000001,-0.124943,-1.177656,0.182802
5.460000000000008,-0.125454,-1.186519,0.183035
5.462500000000006,-0.127584,-1.190734,0.175894
5.465000000000003,-0.130117,-1.196304,0.17551
5.467500000000001,-0.133503,-1.203603,0.175988
5.469999999999999,-0.138104,-1.218054,0.174464
5.472499999999997,-0.141743,-1.219246,0.173592
5.4750000000000085,-0.144184,-1.22898,0.17417
5.477500000000006,-0.151737,-1.233288,0.173093
5.480000000000004,-0.154397,-1.238724,0.176288
5.482500000000002,-0.157484,-1.245599,0.174324
5.484999999999999,-0.161772,-1.248675,0.174738
5.487499999999997,-0.166917,-1.257085,0.175575
5.490000000000009,-0.171876,-1.261391,0.175016
5.492500000000007,-0.17466,-1.262159,0.176733
5.4950000000000045,-0.176892,-1.268326,0.176097
5.497500000000002,-0.180978,-1.269706,0.176307
5.5,-0.183432,-1.270842,0.175827
5.502499999999998,-0.189316,-1.2707,0.176261
5.50500000000001,-0.192404,-1.271794,0.174578
5.507500000000007,-0.195071,-1.271748,0.175151
5.510000000000005,-0.200822,-1.267723,0.174152
5.512500000000003,-0.200933,-1.268752,0.172246
5.515000000000001,-0.205638,-1.266535,0.169001
5.517499999999998,-0.211243,-1.263668,0.17095
5.52000000000001,-0.209358,-1.262017,0.166627
5.522500000000008,-0.218284,-1.261513,0.163475
5.525000000000006,-0.2189,-1.256218,0.165352
5.527500000000003,-0.226325,-1.252734,0.162418
5.530000000000001,-0.227255,-1.247432,0.163586
5.532499999999999,-0.23018,-1.244392,0.156249
5.534999999999997,-0.231576,-1.242336,0.15759
5.5375000000000085,-0.232932,-1.23622,0.155368
5.540000000000006,-0.242986,-1.230702,0.15261
5.542500000000004,-0.244849,-1.225098,0.144056
5.545000000000002,-0.248492,-1.215903,0.14521
5.547499999999999,-0.25284,-1.203126,0.13947
5.549999999999997,-0.254709,-1.196626,0.13678
5.552500000000009,-0.255783,-1.184474,0.134321
5.555000000000007,-0.263561,-1.177164,0.130116
5.5575000000000045,-0.265581,-1.1651,0.126369
5.560000000000002,-0.272918,-1.148682,0.121685
5.5625,-0.276335,-1.128771,0.119724
5.564999999999998,-0.278688,-1.110216,0.119858
5.56750000000001,-0.28068,-1.087189,0.119812
5.570000000000007,-0.287555,-1.069239,0.11304
5.572500000000005,-0.288917,-1.044023,0.116435
5.575000000000003,-0.294794,-1.01922,0.112816
5.577500000000001,-0.301817,-0.998128,0.112037
5.579999999999998,-0.305228,-0.973335,0.106276
5.58250000000001,-0.309426,-0.9428,0.105827
5.585000000000008,-0.313939,-0.92298,0.099524
5.587500000000006,-0.315566,-0.893334,0.096098
5.590000000000003,-0.318983,-0.866485,0.090449
5.592500000000001,-0.322183,-0.843922,0.084976
5.594999999999999,-0.324786,-0.817497,0.078291
5.597499999999997,-0.324768,-0.790037,0.073583
5.6000000000000085,-0.327699,-0.761934,0.068971
5.602500000000006,-0.327092,-0.734237,0.064401
5.605000000000004,-0.329676,-0.707817,0.0623
5.607500000000002,-0.328955,-0.67642,0.055736
5.609999999999999,-0.327857,-0.649515,0.051602
5.612499999999997,-0.323352,-0.625532,0.0507
5.615000000000009,-0.320974,-0.600627,0.048959
5.617500000000007,-0.320059,-0.573939,0.048433
5.6200000000000045,-0.317608,-0.545563,0.045929
5.622500000000002,-0.310199,-0.52042,0.044512
5.625,-0.304331,-0.498076,0.045284
5.627499999999998,-0.296703,-0.473507,0.041228
5.63000000000001,-0.285794,-0.447008,0.039861
5.632500000000007,-0.2801,-0.422898,0.036558
5.635000000000005,-0.265645,-0.401045,0.038149
5.637500000000003,-0.259435,-0.375058,0.032368
5.640000000000001,-0.246485,-0.350456,0.031845
5.642499999999998,-0.236213,-0.332604,0.034394
5.64500000000001,-0.220016,-0.309786,0.030104
5.647500000000008,-0.205523,-0.283168,0.024747
5.650000000000006,-0.187412,-0.266249,0.025684
5.652500000000003,-0.172412,-0.245573,0.023956
5.655000000000001,-0.158605,-0.230806,0.022586
5.657499999999999,-0.140083,-0.20698,0.022537
5.659999999999997,-0.121933,-0.191727,0.019899
5.6625000000000085,-0.10308,-0.174063,0.019819
5.665000000000006,-0.083949,-0.160876,0.016751
5.667500000000004,-0.065961,-0.141436,0.012795
5.670000000000002,-0.045477,-0.127059,0.015683
5.672499999999999,-0.024307,-0.108452,0.014286
5.674999999999997,-0.002806,-0.0966,0.013808
5.677500000000009,0.011965,-0.080748,0.009725
5.680000000000007,0.032709,-0.060461,0.011551
5.6825000000000045,0.054867,-0.04736,0.005028
5.685000000000002,0.07678,-0.033529,0.008009
5.6875,0.09583,-0.017002,0.00473
5.689999999999998,0.119454,-0.005239,0.003245
5.69250000000001,0.138431,0.012567,0.000658
5.695000000000007,0.159299,0.025894,0.001038
5.697500000000005,0.180224,0.038082,-0.002214
5.700000000000003,0.200907,0.048842,-0.004464
5.702500000000001,0.22197,0.064086,-0.00883
5.704999999999998,0.240261,0.077311,-0.011423
5.70750000000001,0.2604,0.089773,-0.012431
5.710000000000008,0.280563,0.096246,-0.014795
5.712500000000006,0.300015,0.110812,-0.018537
5.715000000000003,0.320344,0.121858,-0.020878
5.717500000000001,0.336245,0.130614,-0.027022
5.719999999999999,0.354464,0.14353,-0.027503
5.722499999999997,0.371891,0.157148,-0.031875
5.7250000000000085,0.389092,0.163659,-0.033942
5.727500000000006,0.405695,0.173976,-0.038812
5.730000000000004,0.418297,0.186428,-0.041431
5.732500000000002,0.430537,0.195075,-0.046675
5.734999999999999,0.447226,0.206466,-0.045833
5.737499999999997,0.457461,0.212134,-0.049351
5.740000000000009,0.465483,0.223451,-0.052549
5.742500000000007,0.479498,0.230899,-0.058264
5.7450000000000045,0.488081,0.243638,-0.059944
5.747500000000002,0.498188,0.249592,-0.063218
5.75,0.501638,0.259196,-0.067604
5.752499999999998,0.510533,0.264636,-0.075173
5.75500000000001,0.513708,0.277596,-0.072326
5.757500000000007,0.518676,0.285097,-0.080457
5.760000000000005,0.519458,0.290505,-0.086527
5.762500000000003,0.522382,0.302144,-0.087227
5.765000000000001,0.518833,0.313251,-0.092752
5.767499999999998,0.520196,0.324252,-0.093997
5.77000000000001,0.521373,0.331455,-0.098701
5.772500000000008,0.515094,0.339467,-0.099541
5.775000000000006,0.514204,0.349484,-0.105259
5.777500000000003,0.507533,0.357006,-0.107069
5.780000000000001,0.5041,0.368009,-0.109713
5.782499999999999,0.49689,0.375105,-0.115408
5.784999999999997,0.492486,0.389432,-0.119981
5.7875000000000085,0.485327,0.39821,-0.12466
5.790000000000006,0.477357,0.40692,-0.125898
5.792500000000004,0.466938,0.418691,-0.127131
5.795000000000002,0.457145,0.427903,-0.132902
5.797499999999999,0.449298,0.438552,-0.138396
5.799999999999997,0.434377,0.452744,-0.139609
5.802500000000009,0.428488,0.459465,-0.144205
5.805000000000007,0.411975,0.473291,-0.146802
5.8075000000000045,0.396133,0.483186,-0.1509
5.810000000000002,0.383491,0.489403,-0.152968
5.8125,0.374753,0.501365,-0.155927
5.814999999999998,0.357962,0.515074,-0.163934
5.81750000000001,0.341363,0.528208,-0.166145
5.820000000000007,0.328823,0.535866,-0.169761
5.822500000000005,0.311301,0.542877,-0.170013
5.825000000000003,0.297191,0.559848,-0.177023
5.827500000000001,0.284701,0.56412,-0.176629
5.829999999999998,0.273079,0.577762,-0.178053
5.83250000000001,0.255274,0.583682,-0.178687
5.835000000000008,0.239781,0.5974,-0.181623
5.837500000000006,0.224134,0.610844,-0.179969
5.840000000000003,0.210383,0.618965,-0.182533
5.842500000000001,0.19751,0.631239,-0.18166
5.844999999999999,0.185607,0.639925,-0.186609
5.847499999999997,0.171021,0.653937,-0.189
5.8500000000000085,0.158998,0.660736,-0.189753
5.852500000000006,0.144254,0.673213,-0.194418
5.855000000000004,0.130191,0.682175,-0.190297
5.857500000000002,0.116078,0.69027,-0.193509
5.859999999999999,0.106014,0.705064,-0.197813
5.862499999999997,0.090263,0.710348,-0.195377
5.865000000000009,0.07977,0.721561,-0.200224
5.867500000000007,0.067053,0.731637,-0.197835
5.8700000000000045,0.057041,0.735364,-0.200371
5.872500000000002,0.04603,0.74634,-0.201571
5.875,0.035005,0.761271,-0.200768
5.877499999999998,0.027084,0.76875,-0.203374
5.88000000000001,0.018967,0.779339,-0.199828
5.882500000000007,0.003412,0.789883,-0.201014
5.885000000000005,-0.006242,0.798509,-0.202964
5.887500000000003,-0.013901,0.814297,-0.202645
5.890000000000001,-0.022262,0.81796,-0.200343
5.892499999999998,-0.03158,0.833943,-0.200436
5.89500000000001,-0.037733,0.844806,-0.196934
5.897500000000008,-0.040725,0.853771,-0.20265
5.900000000000006,-0.054924,0.861889,-0.199212
5.902500000000003,-0.055614,0.871227,-0.19853
5.905000000000001,-0.069758,0.880402,-0.196603
5.907499999999999,-0.073674,0.890047,-0.195977
5.909999999999997,-0.079912,0.897692,-0.195043
5.9125000000000085,-0.082436,0.900763,-0.192593
5.915000000000006,-0.089483,0.911433,-0.189169
5.917500000000004,-0.095473,0.918266,-0.19062
5.920000000000002,-0.100152,0.925099,-0.190331
5.922499999999999,-0.105225,0.926101,-0.185806
5.924999999999997,-0.105427,0.932803,-0.185601
5.927500000000009,-0.114368,0.940395,-0.184169
5.930000000000007,-0.11774,0.941462,-0.182301
5.9325000000000045,-0.116958,0.945928,-0.178318
5.935000000000002,-0.121225,0.949189,-0.175692
5.9375,-0.125954,0.952673,-0.175513
5.939999999999998,-0.127734,0.95774,-0.172964
5.94250000000001,-0.133157,0.95072,-0.170551
5.945000000000007,-0.136153,0.955869,-0.169623
5.947500000000005,-0.134796,0.962147,-0.162903
5.950000000000003,-0.141488,0.966382,-0.163518
5.952500000000001,-0.141983,0.96769,-0.159524
5.954999999999998,-0.143343,0.968524,-0.156625
5.95750000000001,-0.145465,0.971828,-0.149012
5.960000000000008,-0.148451,0.975348,-0.150335
5.962500000000006,-0.148851,0.976814,-0.14625
5.965000000000003,-0.15482,0.985541,-0.141433
5.967500000000001,-0.152913,0.989469,-0.137854
5.969999999999999,-0.155364,0.987742,-0.133456
5.972499999999997,-0.155951,0.992667,-0.129722
5.9750000000000085,-0.154966,0.996546,-0.13022
5.977500000000006,-0.153029,1.002802,-0.121446
5.980000000000004,-0.15759,1.008248,-0.119919
5.982500000000002,-0.155823,1.010979,-0.117961
5.984999999999999,-0.157221,1.013487,-0.118075
5.987499999999997,-0.155041,1.018637,-0.116122
5.990000000000009,-0.149155,1.022172,-0.116389
5.992500000000007,-0.156893,1.025052,-0.116241
5.9950000000000045,-0.155565,1.021936,-0.113398
5.997500000000002,-0.158134,1.023487,-0.111029
6.0,-0.155373,1.02611,-0.111283
6.002499999999998,-0.154449,1.024746,-0.110644
6.00500000000001,-0.152071,1.025591,-0.110251
6.007500000000007,-0.155346,1.022613,-0.112519
6.010000000000005,-0.15161,1.019042,-0.107694
6.012500000000003,-0.150359,1.018516,-0.105783
6.015000000000001,-0.151029,1.012711,-0.103714
6.017499999999998,-0.149386,1.018154,-0.103112
6.02000000000001,-0.146084,1.012292,-0.103261
6.022500000000008,-0.14502,1.006341,-0.100011
6.025000000000006,-0.142992,1.006639,-0.099999
6.027500000000003,-0.141648,0.998812,-0.097224
6.030000000000001,-0.138679,1.008166,-0.094968
6.032499999999999,-0.138792,0.998425,-0.094189
6.034999999999997,-0.135288,0.996166,-0.091028
6.0375000000000085,-0.138193,0.995916,-0.088994
6.040000000000006,-0.132828,0.999021,-0.084652
6.042500000000004,-0.131349,0.997418,-0.087054
6.045000000000002,-0.127935,1.002134,-0.084457
6.047499999999999,-0.128695,1.00424,-0.080112
6.049999999999997,-0.124627,1.008306,-0.077745
6.052500000000009,-0.125943,1.010429,-0.076053
6.055000000000007,-0.121351,1.01681,-0.070901
6.0575000000000045,-0.118239,1.021598,-0.069487
6.060000000000002,-0.117333,1.034137,-0.067207
6.0625,-0.115344,1.040856,-0.067329
6.064999999999998,-0.114106,1.046055,-0.063974
6.06750000000001,-0.111397,1.055397,-0.062092
6.070000000000007,-0.113384,1.064945,-0.063421
6.072500000000005,-0.109381,1.070814,-0.066313
6.075000000000003,-0.10661,1.080361,-0.062272
6.077500000000001,-0.1041,1.087056,-0.063789
6.079999999999998,-0.105786,1.096312,-0.064968
6.08250000000001,-0.094935,1.104745,-0.070415
6.085000000000008,-0.093557,1.109934,-0.073776
6.087500000000006,-0.091922,1.114246,-0.072908
6.090000000000003,-0.088729,1.128722,-0.076275
6.092500000000001,-0.082174,1.134482,-0.084581
6.094999999999999,-0.079168,1.145401,-0.083795
6.097499999999997,-0.07716,1.151919,-0.08326
6.1000000000000085,-0.070469,1.158042,-0.089453
6.102500000000006,-0.069212,1.169531,-0.090721
6.105000000000004,-0.065184,1.181225,-0.094207
6.107500000000002,-0.061786,1.192099,-0.096826
6.109999999999999,-0.056031,1.19467,-0.098237
6.112499999999997,-0.051312,1.211451,-0.100772
6.115000000000009,-0.04804,1.226784,-0.105302
6.117500000000007,-0.042261,1.236565,-0.109357
6.1200000000000045,-0.037055,1.249672,-0.112553
6.122500000000002,-0.027914,1.257303,-0.114515
6.125,-0.026165,1.274337,-0.117099
6.127499999999998,-0.018902,1.289253,-0.122981
6.13000000000001,-0.010464,1.304929,-0.128131
6.132500000000007,-0.004804,1.316698,-0.134116
6.135000000000005,-0.000171,1.331061,-0.140998
6.137500000000003,0.009096,1.343776,-0.145829
6.140000000000001,0.01402,1.353823,-0.149196
6.142499999999998,0.025763,1.368807,-0.155993
6.14500000000001,0.034512,1.378781,-0.164315
6.147500000000008,0.041036,1.384227,-0.175493
6.150000000000006,0.048279,1.396728,-0.183117
6.152500000000003,0.058813,1.400721,-0.191136
6.155000000000001,0.069857,1.405986,-0.196862
6.157499999999999,0.077092,1.410879,-0.205192
6.159999999999997,0.085647,1.415139,-0.213669
6.1625000000000085,0.096879,1.416691,-0.223069
6.165000000000006,0.107767,1.420432,-0.22632
6.167500000000004,0.117039,1.419821,-0.236589
6.170000000000002,0.129413,1.4146,-0.23984
6.172499999999999,0.137947,1.412943,-0.248256
6.174999999999997,0.146189,1.415281,-0.250235
6.177500000000009,0.155639,1.410563,-0.260148
6.180000000000007,0.168315,1.407063,-0.264155
6.1825000000000045,0.176593,1.400386,-0.26881
6.185000000000002,0.184653,1.400386,-0.270431
6.1875,0.194112,1.396616,-0.274295
6.189999999999998,0.199814,1.388519,-0.277227
6.19250000000001,0.210605,1.381299,-0.280404
6.195000000000007,0.221009,1.377067,-0.283379
6.197500000000005,0.226919,1.369719,-0.288102
6.200000000000003,0.233329,1.365188,-0.29033
6.202500000000001,0.240461,1.353936,-0.289379
6.204999999999998,0.246968,1.347232,-0.295998
6.20750000000001,0.251006,1.335347,-0.297599
6.210000000000008,0.259894,1.322333,-0.299414
6.212500000000006,0.260248,1.30893,-0.300132
6.215000000000003,0.267611,1.291785,-0.297955
6.217500000000001,0.272524,1.273398,-0.301206
6.219999999999999,0.274713,1.25449,-0.30189
6.222499999999997,0.279344,1.2342,-0.301984
6.2250000000000085,0.279547,1.210411,-0.297149
6.227500000000006,0.2828,1.184669,-0.297201
6.230000000000004,0.285446,1.158875,-0.295663
6.232500000000002,0.28094,1.131232,-0.295083
6.234999999999999,0.286175,1.102909,-0.290737
6.237499999999997,0.284564,1.077151,-0.285211
6.240000000000009,0.28754,1.045316,-0.2775
6.242500000000007,0.285328,1.016056,-0.2764
6.2450000000000045,0.285348,0.978414,-0.2699
6.247500000000002,0.28859,0.939796,-0.265887
6.25,0.283089,0.907045,-0.254737
6.252499999999998,0.287009,0.869981,-0.247251
6.25500000000001,0.282566,0.828018,-0.239383
6.257500000000007,0.284138,0.785166,-0.229834
6.260000000000005,0.27957,0.748367,-0.21704
6.262500000000003,0.278515,0.703108,-0.205714
6.265000000000001,0.278122,0.661955,-0.197259
6.267499999999998,0.273583,0.621898,-0.184278
6.27000000000001,0.271539,0.578945,-0.175554
6.272500000000008,0.268538,0.54092,-0.161588
6.275000000000006,0.265721,0.497852,-0.152819
6.277500000000003,0.259852,0.455966,-0.140886
6.280000000000001,0.253417,0.407719,-0.131918
6.282499999999999,0.254732,0.365091,-0.119048
6.284999999999997,0.250039,0.323388,-0.105698
6.2875000000000085,0.247059,0.281627,-0.099924
6.290000000000006,0.242794,0.235295,-0.085001
6.292500000000004,0.242966,0.192835,-0.07652
6.295000000000002,0.237567,0.156032,-0.06312
6.297499999999999,0.239045,0.115333,-0.055549
6.299999999999997,0.231565,0.080118,-0.045134
6.302500000000009,0.230259,0.051136,-0.0337
6.305000000000007,0.228322,0.015121,-0.022638
6.3075000000000045,0.227743,-0.01879,-0.010689
6.310000000000002,0.225993,-0.050144,-0.003786
6.3125,0.227299,-0.076124,0.005882
6.314999999999998,0.227401,-0.101237,0.014632
6.31750000000001,0.224487,-0.124194,0.025085
6.320000000000007,0.226044,-0.149174,0.034412
6.322500000000005,0.231459,-0.167792,0.039267
6.325000000000003,0.231197,-0.189029,0.04551
6.327500000000001,0.235983,-0.203288,0.056327
6.329999999999998,0.238698,-0.222905,0.058501
6.33250000000001,0.24109,-0.236404,0.065789
6.335000000000008,0.247207,-0.244449,0.070805
6.337500000000006,0.250117,-0.261539,0.072505
6.340000000000003,0.256898,-0.269653,0.076819
6.342500000000001,0.26397,-0.277868,0.080847
6.344999999999999,0.26843,-0.288263,0.083249
6.347499999999997,0.273656,-0.290407,0.088272
6.3500000000000085,0.277712,-0.299341,0.089078
6.352500000000006,0.28734,-0.303079,0.08632
6.355000000000004,0.293113,-0.303976,0.086612
6.357500000000002,0.301791,-0.304106,0.089061
6.359999999999999,0.308532,-0.306842,0.088143
6.362499999999997,0.313316,-0.305694,0.087423
6.365000000000009,0.321943,-0.302888,0.087406
6.367500000000007,0.329442,-0.305381,0.086077
6.3700000000000045,0.337863,-0.299351,0.087258
6.372500000000002,0.342887,-0.295447,0.08442
6.375,0.349352,-0.291789,0.078338
6.377499999999998,0.35599,-0.281551,0.079636
6.38000000000001,0.365184,-0.27945,0.079737
6.382500000000007,0.371581,-0.268434,0.07795
6.385000000000005,0.379547,-0.263223,0.069996
6.387500000000003,0.385303,-0.251403,0.065275
6.390000000000001,0.39395,-0.241847,0.063076
6.392499999999998,0.396738,-0.237292,0.061417
6.39500000000001,0.402462,-0.229976,0.054792
6.397500000000008,0.409239,-0.220889,0.050897
6.400000000000006,0.416248,-0.205684,0.048237
6.402500000000003,0.418093,-0.200471,0.047105
6.405000000000001,0.423435,-0.185674,0.043435
6.407499999999999,0.430208,-0.176975,0.039314
6.409999999999997,0.437478,-0.17121,0.033627
6.4125000000000085,0.44146,-0.156735,0.03658
6.415000000000006,0.43845,-0.149564,0.030164
6.417500000000004,0.442191,-0.1377,0.030316
6.420000000000002,0.447577,-0.124983,0.028277
6.422499999999999,0.449365,-0.120035,0.025923
6.424999999999997,0.451937,-0.109795,0.024829
6.427500000000009,0.448277,-0.098178,0.022841
6.430000000000007,0.445642,-0.086816,0.021651
6.4325000000000045,0.448907,-0.086299,0.02344
6.435000000000002,0.448821,-0.078388,0.021688
6.4375,0.446879,-0.066555,0.020991
6.439999999999998,0.444611,-0.061692,0.022516
6.44250000000001,0.444696,-0.058997,0.023801
6.445000000000007,0.440552,-0.054669,0.025278
6.447500000000005,0.434925,-0.052556,0.026705
6.450000000000003,0.429844,-0.047989,0.029965
6.452500000000001,0.426779,-0.044936,0.033285
6.454999999999998,0.420319,-0.046155,0.031661
6.45750000000001,0.415408,-0.045565,0.036412
6.460000000000008,0.407369,-0.045247,0.038096
6.462500000000006,0.405487,-0.046724,0.043155
6.465000000000003,0.395048,-0.048096,0.044587
6.467500000000001,0.388265,-0.045334,0.051913
6.469999999999999,0.379012,-0.048181,0.053691
6.472499999999997,0.37133,-0.051816,0.055742
6.4750000000000085,0.366966,-0.053522,0.057032
6.477500000000006,0.358313,-0.058727,0.064515
6.480000000000004,0.348582,-0.061271,0.066222
6.482500000000002,0.340416,-0.064835,0.070869
6.484999999999999,0.327525,-0.067213,0.072894
6.487499999999997,0.325764,-0.073449,0.076286
6.490000000000009,0.312603,-0.073755,0.077551
6.492500000000007,0.299696,-0.080529,0.079837
6.4950000000000045,0.29187,-0.087754,0.083227
6.497500000000002,0.284445,-0.08961,0.08501
6.5,0.274526,-0.096716,0.087266
6.502499999999998,0.264276,-0.102352,0.091089
6.50500000000001,0.254697,-0.110838,0.091109
6.507500000000007,0.242458,-0.113033,0.093807
6.510000000000005,0.23322,-0.116847,0.089645
6.512500000000003,0.224762,-0.124939,0.093529
6.515000000000001,0.212695,-0.129791,0.092528
6.517499999999998,0.200819,-0.13411,0.094057
