time,Gyr_X,Gyr_Y,Gyr_Z
0.0,0.00102,0.000315,0.002096
0.0024999999999977,0.004359,0.002923,0.001564
0.0049999999999954,0.00177,0.002622,0.001092
0.0074999999999931,-0.000276,0.00043,0.001482
0.0099999999999909,0.002142,0.002853,0.002462
0.0124999999999886,0.000823,-0.002317,0.00186
0.0149999999999863,0.000658,0.000567,-0.000447
0.017499999999984,0.003027,0.002637,0.003477
0.0199999999999818,0.00355,-0.000279,0.00368
0.0225000000000079,0.001379,0.00272,0.000576
0.0250000000000056,0.000123,-0.000711,0.000877
0.0275000000000034,0.002996,-0.000599,0.003729
0.0300000000000011,0.002032,0.001077,0.003775
0.0324999999999988,0.002842,0.005002,-0.00076
0.0349999999999965,0.001281,-0.001103,0.001413
0.0374999999999943,0.003002,0.001048,0.002772
0.039999999999992,0.001665,0.000822,7.4e-05
0.0424999999999897,0.001993,0.00226,-0.000425
0.0449999999999874,0.002909,0.001834,0.000558
0.0474999999999852,0.002299,-0.000817,-0.000115
0.0499999999999829,0.004988,-0.000517,0.000749
0.0524999999999806,0.000141,0.004644,0.000199
0.0550000000000068,0.002574,0.001349,0.002658
0.0575000000000045,0.000354,-0.001895,0.005307
0.0600000000000022,0.00053,0.001835,0.00012
0.0625,0.002537,-0.000462,-0.000376
0.0649999999999977,0.001446,-0.001663,0.001185
0.0674999999999954,0.002769,0.000816,-0.000444
0.0699999999999931,0.006527,-0.003208,0.000796
0.0724999999999909,0.00672,-2.2e-05,0.002258
0.0749999999999886,-0.000195,-0.000665,0.005517
0.0774999999999863,0.001696,-0.000697,0.004514
0.079999999999984,0.002421,0.001172,-0.002655
0.0824999999999818,0.00257,-0.000951,0.000774
0.0850000000000079,-0.00142,0.003134,0.001752
0.0875000000000056,0.001917,0.003657,0.002835
0.0900000000000034,0.003292,0.004465,-0.001562
0.0925000000000011,0.000422,0.002117,0.000661
0.0949999999999988,0.005984,0.001415,0.000934
0.0974999999999965,0.002524,-0.0002,0.001135
0.0999999999999943,0.002228,0.000667,0.002784
0.102499999999992,0.003319,0.001883,-0.001983
0.1049999999999897,0.003242,0.001585,-0.000682
0.1074999999999875,0.004338,0.00126,0.002647
0.1099999999999852,0.00195,0.001761,0.001014
0.1124999999999829,0.0002,0.000592,0.003073
0.1149999999999806,0.001604,0.001775,0.001166
0.1175000000000068,0.003254,-0.000651,0.002126
0.1200000000000045,0.002087,0.000101,0.00117
0.1225000000000022,0.004602,-0.000785,0.000875
0.125,0.0007,0.004762,0.002144
0.1274999999999977,-0.000976,0.004197,0.004262
0.1299999999999954,0.001635,0.000178,0.001764
0.1324999999999931,-0.000587,-0.001192,0.001708
0.1349999999999909,0.000115,0.001726,0.001922
0.1374999999999886,0.001805,-0.000592,0.000174
0.1399999999999863,0.001081,0.001042,0.000136
0.142499999999984,0.00244,0.001057,0.000141
0.1449999999999818,0.000723,0.003361,0.003479
0.1475000000000079,-0.000352,0.001145,0.002687
0.1500000000000056,-5.2e-05,0.001398,0.001127
0.1525000000000034,-0.000797,0.002704,-0.000125
0.1550000000000011,0.001319,0.00424,0.002433
0.1574999999999988,0.00236,-0.001419,0.001351
0.1599999999999966,0.004212,0.001118,0.002129
0.1624999999999943,0.003042,0.004072,0.00151
0.164999999999992,0.003117,-0.003073,0.003251
0.1674999999999897,0.00485,0.000604,0.001145
0.1699999999999875,0.003565,0.002473,0.001604
0.1724999999999852,0.005416,0.004937,0.004826
0.1749999999999829,0.001941,0.000208,0.004069
0.1774999999999806,0.001993,0.000443,0.003662
0.1800000000000068,0.001625,0.000254,0.000686
0.1825000000000045,0.003322,-0.000244,0.00133
0.1850000000000022,0.004413,-0.000592,0.000269
0.1875,0.003643,-0.000681,0.002813
0.1899999999999977,0.002538,0.000753,0.004885
0.1924999999999954,0.000668,-0.0009,0.002549
0.1949999999999931,0.000695,0.000191,0.002139
0.1974999999999909,-0.001591,0.00416,0.001284
0.1999999999999886,0.005827,-0.003113,-0.000314
0.2024999999999863,0.00209,-0.000186,-0.000565
0.204999999999984,0.003327,-0.001886,0.001905
0.2074999999999818,0.004623,0.002452,0.00375
0.2100000000000079,0.000127,0.004902,0.000838
0.2125000000000056,0.004343,0.004765,0.001951
0.2150000000000034,0.002115,0.000497,0.004435
0.2175000000000011,0.002893,-0.001813,0.001705
0.2199999999999988,0.002908,0.002214,0.003611
0.2224999999999966,0.004429,0.000989,-0.002113
0.2249999999999943,0.002182,0.000732,0.002677
0.227499999999992,0.002096,-0.00124,0.004699
0.2299999999999897,0.00219,2.3e-05,0.00185
0.2324999999999875,0.005177,-0.000289,0.000467
0.2349999999999852,0.003251,-0.000775,0.00181
0.2374999999999829,0.003589,0.001008,0.00641
0.2399999999999806,0.001965,0.000764,0.003421
0.2425000000000068,0.003608,0.000421,0.002716
0.2450000000000045,0.003309,-0.001988,0.003939
0.2475000000000022,0.003593,0.001272,0.002301
0.25,0.000823,0.00472,0.00254
0.2524999999999977,0.0034,0.005244,0.002224
0.2549999999999954,0.001266,0.001214,0.003263
0.2574999999999932,0.00213,0.000878,0.003692
0.2599999999999909,0.002446,0.000254,0.000522
0.2624999999999886,0.001868,0.00275,-0.000395
0.2649999999999863,0.00026,0.001331,0.00385
0.2674999999999841,0.002386,0.002845,0.001631
0.2699999999999818,0.000239,0.003087,0.00174
0.2725000000000079,0.000144,0.004115,0.001509
0.2750000000000057,0.002203,0.002185,0.003936
0.2775000000000034,0.003659,0.000188,0.003075
0.2800000000000011,0.005002,0.003055,0.002258
0.2824999999999988,0.003821,0.000825,0.000227
0.2849999999999966,0.001446,-0.000179,0.003297
0.2874999999999943,0.00237,0.002909,0.003197
0.289999999999992,0.001995,0.000539,0.001923
0.2924999999999897,0.003015,-0.001284,-0.001583
0.2949999999999875,0.003343,-0.000277,0.001962
0.2974999999999852,0.005925,-0.002196,0.007721
0.2999999999999829,0.00653,-0.001536,0.00383
0.3024999999999807,0.002375,-0.000246,0.00122
0.3050000000000068,0.005548,8.1e-05,0.000722
0.3075000000000045,0.008363,-0.00308,0.002237
0.3100000000000023,0.005796,-0.001003,0.000522
0.3125,0.005841,-0.002553,0.003461
0.3149999999999977,0.007553,-0.003912,-0.00104
0.3174999999999954,0.005197,-0.003371,0.003179
0.3199999999999932,0.004943,0.000743,0.000159
0.3224999999999909,0.010369,-0.002019,0.002217
0.3249999999999886,0.007703,-0.001602,0.000262
0.3274999999999863,0.007128,-0.003742,0.001629
0.3299999999999841,0.007775,-0.002012,0.001406
0.3324999999999818,0.008061,-0.002265,-0.003256
0.3350000000000079,0.007767,-0.002262,-9.5e-05
0.3375000000000057,0.008772,-0.004946,0.000168
0.3400000000000034,0.01232,-0.004499,-0.001153
0.3425000000000011,0.010603,-0.002259,-0.00468
0.3449999999999988,0.011552,-0.003381,-0.002949
0.3474999999999966,0.015641,-0.006594,-0.002715
0.3499999999999943,0.014814,-0.006117,-0.004557
0.352499999999992,0.014379,-0.006314,-0.005013
0.3549999999999897,0.017729,-0.007953,-0.002331
0.3574999999999875,0.015243,-0.005607,0.000335
0.3599999999999852,0.018332,-0.010702,-0.002439
0.3624999999999829,0.018249,-0.009193,-0.006184
0.3649999999999807,0.021058,-0.010508,-0.00319
0.3675000000000068,0.019468,-0.008042,-0.004166
0.3700000000000045,0.019925,-0.008291,-0.001767
0.3725000000000023,0.018509,-0.010526,-0.003962
0.375,0.021567,-0.007957,-0.005992
0.3774999999999977,0.01791,-0.006481,-0.002293
0.3799999999999954,0.015517,-0.006387,-0.004388
0.3824999999999932,0.015932,-0.008506,-0.001559
0.3849999999999909,0.015169,-0.001037,-0.004934
0.3874999999999886,0.015397,-0.004187,-0.002824
0.3899999999999863,0.007448,-0.001988,-0.004317
0.3924999999999841,0.010129,-0.001225,-0.001629
0.3949999999999818,0.004952,0.004213,-0.001308
0.3975000000000079,0.003698,0.000367,0.002601
0.4000000000000057,0.000983,8e-06,0.001385
0.4025000000000034,-0.001247,-0.001591,0.000272
0.4050000000000011,6.5e-05,0.002635,0.002729
0.4074999999999988,6.3e-05,0.001798,0.001983
0.4099999999999966,-0.000344,0.002747,0.001123
0.4124999999999943,0.000847,0.001048,-6.6e-05
0.414999999999992,-0.001867,0.001744,0.002796
0.4174999999999897,0.001778,0.004641,0.000229
0.4199999999999875,0.00388,0.002784,0.002303
0.4224999999999852,0.00725,0.005434,0.004231
0.4249999999999829,0.007141,1e-06,0.003577
0.4274999999999807,0.011072,0.001851,0.001321
0.4300000000000068,0.012822,0.00302,0.002871
0.4325000000000045,0.014221,0.005133,0.00053
0.4350000000000023,0.013027,0.007211,0.000519
0.4375,0.015596,0.004108,-0.001194
0.4399999999999977,0.013327,0.0066,0.000273
0.4424999999999954,0.014868,0.000491,-0.000924
0.4449999999999932,0.015337,0.002895,-6.7e-05
0.4474999999999909,0.014236,0.001938,-0.002773
0.4499999999999886,0.012613,0.004277,-0.002746
0.4524999999999863,0.012708,0.003458,-0.001968
0.4549999999999841,0.012488,0.004687,-0.004455
0.4574999999999818,0.015391,0.002965,-0.001791
0.4600000000000079,0.008192,0.001659,-0.002639
0.4625000000000057,0.010694,0.002361,-0.005805
0.4650000000000034,0.011878,0.000661,-0.003056
0.4675000000000011,0.009855,-0.002775,-0.001657
0.4699999999999988,0.010183,-0.00475,-0.004283
0.4724999999999966,0.011664,0.003459,-0.001615
0.4749999999999943,0.011461,-0.000338,-0.004593
0.477499999999992,0.015744,0.0012,-0.004564
0.4799999999999897,0.013458,0.000619,-0.003575
0.4824999999999875,0.016002,0.003257,-0.001931
0.4849999999999852,0.013305,-0.000232,-0.000489
0.4874999999999829,0.014772,-0.002851,-0.00159
0.4899999999999807,0.014048,0.005459,-0.001745
0.4925000000000068,0.01367,0.006033,-0.004177
0.4950000000000045,0.016294,0.002373,0.001315
0.4975000000000023,0.020971,0.002602,-0.001003
0.5,0.022131,0.001037,-0.000155
0.5024999999999977,0.023826,-0.000601,-0.00421
0.5049999999999955,0.026099,0.003349,-0.004163
0.5074999999999932,0.02831,-0.002255,-0.000833
0.5099999999999909,0.031012,-0.005294,-0.001815
0.5124999999999886,0.031564,-0.003764,-0.003885
0.5149999999999864,0.029644,-0.002438,-0.002325
0.5174999999999841,0.031083,-0.00422,-0.003354
0.5199999999999818,0.030171,-0.001906,-0.00385
0.522500000000008,0.033937,-0.001979,-0.002027
0.5250000000000057,0.033126,-0.001016,-0.004849
0.5275000000000034,0.033819,-0.002605,-0.004007
0.5300000000000011,0.034108,0.001507,-0.002936
0.5324999999999989,0.033773,0.002257,0.000461
0.5349999999999966,0.034135,0.002807,-0.004405
0.5374999999999943,0.032775,0.001068,-0.004247
0.539999999999992,0.036877,0.002485,-0.003114
0.5424999999999898,0.036096,-0.000866,0.001077
0.5449999999999875,0.034314,0.000196,-0.001834
0.5474999999999852,0.034099,0.002076,-0.00315
0.549999999999983,0.034965,-0.001955,-0.003476
0.5524999999999807,0.034521,-0.000301,-0.000952
0.5550000000000068,0.032236,0.004224,-0.005122
0.5575000000000045,0.031363,0.002798,-0.004968
0.5600000000000023,0.030898,0.001172,-0.000897
0.5625,0.029441,0.001391,0.000278
0.5649999999999977,0.0289,-0.000273,-0.00172
0.5674999999999955,0.026578,0.002103,-0.004669
0.5699999999999932,0.029952,-0.00051,-0.001527
0.5724999999999909,0.028338,0.004201,0.00122
0.5749999999999886,0.026567,0.001865,-0.001554
0.5774999999999864,0.028501,-0.00142,-0.003608
0.5799999999999841,0.028043,0.000574,-0.00204
0.5824999999999818,0.028428,0.000458,-0.000259
0.585000000000008,0.026874,0.004355,-0.001164
0.5875000000000057,0.029697,0.001208,-0.001051
0.5900000000000034,0.030487,0.0033,-0.001127
0.5925000000000011,0.034054,-0.003126,-0.001788
0.5949999999999989,0.036328,-0.00049,-0.000565
0.5974999999999966,0.035625,0.004842,0.000142
0.5999999999999943,0.034634,0.00147,-0.004166
0.602499999999992,0.035577,-0.001867,-0.002798
0.6049999999999898,0.035968,0.004702,-0.000268
0.6074999999999875,0.03945,0.000619,-0.001244
0.6099999999999852,0.04408,0.000163,-0.00224
0.612499999999983,0.041131,-0.000571,-0.004539
0.6149999999999807,0.044445,0.000722,-0.002351
0.6175000000000068,0.044956,0.001142,-0.002931
0.6200000000000045,0.046837,-0.000325,-0.002359
0.6225000000000023,0.048988,-0.000319,-0.004609
0.625,0.05198,-4.9e-05,-0.001185
0.6274999999999977,0.05338,-0.001708,-0.001188
0.6299999999999955,0.055864,0.002059,-8e-05
0.6324999999999932,0.059278,0.003672,-0.004022
0.6349999999999909,0.056412,-0.000907,-0.001684
0.6374999999999886,0.059704,0.001109,-0.001951
0.6399999999999864,0.065681,0.004149,-0.00266
0.6424999999999841,0.065918,0.00192,-0.002609
0.6449999999999818,0.066797,-0.001259,-0.001791
0.647500000000008,0.067794,-0.001113,0.000102
0.6500000000000057,0.074697,0.001188,-0.000539
0.6525000000000034,0.073207,-9.7e-05,-0.00255
0.6550000000000011,0.079452,0.001209,-0.003371
0.6574999999999989,0.07916,-0.000429,-0.003828
0.6599999999999966,0.083265,-4.6e-05,-0.003496
0.6624999999999943,0.089154,-0.002921,-0.005624
0.664999999999992,0.085609,-0.000858,-0.002904
0.6674999999999898,0.091865,0.00137,-0.004226
0.6699999999999875,0.096146,-0.001121,-0.003283
0.6724999999999852,0.102889,-0.001578,-0.004551
0.674999999999983,0.102425,0.00168,-0.00477
0.6774999999999807,0.108887,0.002747,-0.004971
0.6800000000000068,0.113019,0.001394,-0.00228
0.6825000000000045,0.113175,-0.002207,-0.004295
0.6850000000000023,0.118897,-0.00173,-0.005698
0.6875,0.124507,-0.000896,-0.002378
0.6899999999999977,0.128957,-0.000678,-6.9e-05
0.6924999999999955,0.134867,0.002532,-0.001627
0.6949999999999932,0.141629,0.004282,-0.000529
0.6974999999999909,0.144049,0.001369,-0.000115
0.6999999999999886,0.156037,0.003033,0.001018
0.7024999999999864,0.157658,0.005221,0.003808
0.7049999999999841,0.162289,9.9e-05,0.001342
0.7074999999999818,0.169521,0.001792,1.3e-05
0.710000000000008,0.176235,0.003547,-0.000146
0.7125000000000057,0.1834,0.002893,-0.001155
0.7150000000000034,0.191154,0.000512,0.000136
0.7175000000000011,0.198738,0.00144,-0.001985
0.7199999999999989,0.209139,-0.00158,-0.004028
0.7224999999999966,0.214163,0.001643,-0.002789
0.7249999999999943,0.223193,0.001036,-0.004204
0.727499999999992,0.232924,0.000335,-0.004433
0.7299999999999898,0.241662,-0.00051,-0.005186
0.7324999999999875,0.250647,0.003231,-0.004451
0.7349999999999852,0.259645,0.006137,-0.008655
0.737499999999983,0.269619,0.004322,-0.005546
0.7399999999999807,0.276529,0.004473,-0.00695
0.7425000000000068,0.288745,0.001887,-0.005062
0.7450000000000045,0.299259,0.005021,-0.007191
0.7475000000000023,0.308947,0.005829,-0.006944
0.75,0.31584,0.000129,-0.004891
0.7524999999999977,0.325248,0.00594,-0.006013
0.7549999999999955,0.336025,0.007103,-0.006886
0.7574999999999932,0.347186,0.007782,-0.00845
0.7599999999999909,0.354698,0.006219,-0.009109
0.7624999999999886,0.362103,0.005173,-0.006866
0.7649999999999864,0.372025,0.008371,-0.009727
0.7674999999999841,0.376578,0.009505,-0.005567
0.7699999999999818,0.386303,0.007301,-0.007617
0.772500000000008,0.393056,0.003939,-0.010191
0.7750000000000057,0.401466,0.007676,-0.00938
0.7775000000000034,0.404806,0.007678,-0.01096
0.7800000000000011,0.416245,0.007104,-0.010332
0.7824999999999989,0.423709,0.004648,-0.009668
0.7849999999999966,0.430807,0.003213,-0.008444
0.7874999999999943,0.438649,0.00815,-0.012463
0.789999999999992,0.445534,0.003707,-0.011505
0.7924999999999898,0.454918,0.006992,-0.013915
0.7949999999999875,0.457192,0.009427,-0.0148
0.7974999999999852,0.465725,0.005987,-0.015345
0.799999999999983,0.471,0.006003,-0.014795
0.8024999999999807,0.480979,0.004239,-0.014859
0.8050000000000068,0.485658,0.007529,-0.015713
0.8075000000000045,0.49718,0.006386,-0.013609
0.8100000000000023,0.499236,0.007064,-0.018632
0.8125,0.508704,0.008114,-0.016788
0.8149999999999977,0.514232,0.007995,-0.019722
0.8174999999999955,0.523336,0.00487,-0.019488
0.8199999999999932,0.531507,0.009283,-0.019735
0.8224999999999909,0.534234,0.00822,-0.019418
0.8249999999999886,0.544245,0.006845,-0.021645
0.8274999999999864,0.547914,0.006647,-0.021154
0.8299999999999841,0.556115,0.007763,-0.01936
0.8324999999999818,0.560843,0.006854,-0.021079
0.835000000000008,0.565849,0.009567,-0.02069
0.8375000000000057,0.569215,0.010151,-0.019215
0.8400000000000034,0.576878,0.011341,-0.0184
0.8425000000000011,0.584503,0.009058,-0.016753
0.8449999999999989,0.58563,0.00926,-0.017837
0.8474999999999966,0.590313,0.007911,-0.018264
0.8499999999999943,0.596688,0.006371,-0.014387
0.852499999999992,0.599491,0.009986,-0.013399
0.8549999999999898,0.598536,0.009016,-0.016415
0.8574999999999875,0.604016,0.010271,-0.015569
0.8599999999999852,0.607502,0.004105,-0.012527
0.862499999999983,0.607825,0.006983,-0.01317
0.8649999999999807,0.612799,0.003728,-0.017278
0.8675000000000068,0.61373,0.002628,-0.014286
0.8700000000000045,0.613838,0.007852,-0.013053
0.8725000000000023,0.614946,0.006375,-0.013041
0.875,0.62122,0.006675,-0.011417
0.8774999999999977,0.624435,0.006121,-0.012495
0.8799999999999955,0.623285,0.00805,-0.011379
0.8824999999999932,0.619736,0.003655,-0.012536
0.8849999999999909,0.62341,0.005119,-0.009577
0.8874999999999886,0.623231,0.003464,-0.006258
0.8899999999999864,0.623495,0.007927,-0.005972
0.8924999999999841,0.624857,0.00471,-0.007032
0.8949999999999818,0.623087,0.00427,-0.008655
0.897500000000008,0.62451,0.003237,-0.006981
0.9000000000000057,0.623209,-0.001249,-0.004354
0.9025000000000034,0.623166,0.005802,-0.005856
0.9050000000000012,0.619824,0.00403,-0.004004
0.9074999999999988,0.618845,0.003707,-0.004207
0.9099999999999966,0.619333,0.002661,-0.002098
0.9124999999999944,0.617323,0.006671,-0.002564
0.914999999999992,0.617192,0.004547,-0.001031
0.9174999999999898,0.617129,0.002948,0.001808
0.9199999999999876,0.615297,0.005207,0.002945
0.9224999999999852,0.615709,0.006879,-0.003722
0.924999999999983,0.610521,0.001451,0.000487
0.9274999999999808,0.61409,0.002005,0.000637
0.9300000000000068,0.611896,0.006086,-0.000438
0.9325000000000044,0.614772,0.001658,-0.000738
0.9350000000000024,0.612352,0.001822,0.000184
0.9375,0.610612,0.000868,-0.000568
0.9399999999999976,0.605849,0.001644,0.00226
0.9424999999999956,0.61023,0.000613,0.000311
0.9449999999999932,0.610431,-0.001483,-0.001581
0.9474999999999908,0.609144,0.000725,0.002011
0.9499999999999886,0.608745,0.001881,0.000801
0.9524999999999864,0.606,0.002082,0.000709
0.954999999999984,0.607371,0.002883,0.000481
0.9574999999999818,0.604115,0.006916,8.6e-05
0.960000000000008,0.603461,0.004677,0.003917
0.9625000000000056,0.600254,0.005113,0.004113
0.9650000000000034,0.600464,0.00535,-0.001109
0.9675000000000012,0.598892,0.008351,0.007009
0.9699999999999988,0.600896,0.005668,0.004642
0.9724999999999966,0.597709,0.003707,0.001477
0.9749999999999944,0.597675,0.003236,0.003869
0.977499999999992,0.59633,0.004391,0.001717
0.9799999999999898,0.59474,0.002299,0.002199
0.9824999999999876,0.592776,0.001507,-0.000878
0.9849999999999852,0.59244,0.001331,-0.001121
0.987499999999983,0.594222,0.004555,0.002719
0.9899999999999808,0.594608,0.006106,0.001564
0.9925000000000068,0.592031,0.001786,0.000478
0.9950000000000044,0.595474,0.002151,0.001266
0.9975000000000024,0.592902,0.004797,0.002761
1.0,0.597655,0.003121,0.00171
1.0024999999999975,0.598645,0.003778,-0.000307
1.0049999999999957,0.597542,0.006343,-0.000334
1.0074999999999932,0.594836,0.005088,0.001053
1.009999999999991,0.597707,0.006896,-0.002187
1.0124999999999886,0.600436,0.006915,-0.000584
1.0149999999999864,0.603219,0.004485,-7.5e-05
1.017499999999984,0.602319,0.00312,0.000613
1.0199999999999818,0.603814,0.003562,0.002383
1.022500000000008,0.608946,0.007307,-0.002685
1.0250000000000057,0.615361,-0.001362,-0.005496
1.0275000000000034,0.614529,0.001963,-0.002161
1.0300000000000011,0.61798,0.004394,-0.002684
1.0324999999999989,0.623759,0.001801,-0.003305
1.0349999999999966,0.627611,0.001848,-0.005241
1.0374999999999943,0.633421,-0.000109,-0.002383
1.039999999999992,0.640611,0.001455,-0.002269
1.0424999999999898,0.64377,0.001486,-0.002624
1.0449999999999875,0.652548,0.00103,-0.00421
1.0474999999999852,0.65459,0.002765,0.001428
1.049999999999983,0.660313,0.003574,-0.002658
1.052499999999981,0.669088,0.002097,-0.000335
1.0550000000000068,0.676984,0.001956,0.003869
1.0575000000000043,0.681383,0.004622,0.003161
1.0600000000000025,0.68546,0.002397,0.0026
1.0625,0.686354,0.000172,0.002862
1.0649999999999975,0.697329,-0.000709,0.002728
1.0674999999999957,0.702798,0.002111,0.005124
1.0699999999999932,0.707582,0.002784,0.006037
1.072499999999991,0.713865,0.005662,0.006568
1.0749999999999886,0.718402,0.002783,0.006782
1.0774999999999864,0.723983,0.004859,0.005918
1.079999999999984,0.729736,0.003416,0.003979
1.0824999999999818,0.731272,0.005939,0.004985
1.085000000000008,0.740389,0.007833,0.006599
1.0875000000000057,0.741198,0.007124,0.005143
1.0900000000000034,0.744537,0.007457,0.001528
1.0925000000000011,0.747357,0.008364,0.004169
1.0949999999999989,0.754681,0.009034,0.006325
1.0974999999999966,0.757379,0.007806,0.002865
1.0999999999999943,0.763617,0.008328,0.00323
1.102499999999992,0.76462,0.009733,0.000469
1.1049999999999898,0.767743,0.010618,0.000419
1.1074999999999875,0.770567,0.011938,0.000144
1.1099999999999852,0.77466,0.011379,0.001054
1.112499999999983,0.779409,0.007977,-0.000902
1.114999999999981,0.783121,0.009999,0.002625
1.1175000000000068,0.78433,0.010713,0.00108
1.1200000000000043,0.787031,0.012841,0.000785
1.1225000000000025,0.787053,0.011169,0.002087
1.125,0.790557,0.00925,0.001929
1.1274999999999975,0.791443,0.009481,0.000755
1.1299999999999957,0.792333,0.007328,0.002041
1.1324999999999932,0.792944,0.009505,0.002892
1.134999999999991,0.794966,0.008287,0.001333
1.1374999999999886,0.794869,0.007414,0.00289
1.1399999999999864,0.796738,0.007503,0.001236
1.142499999999984,0.79659,0.010598,0.001716
1.1449999999999818,0.800405,0.010816,0.00043
1.147500000000008,0.795802,0.009298,-0.000888
1.1500000000000057,0.797437,0.011487,-0.001386
1.1525000000000034,0.796197,0.00949,0.000929
1.1550000000000011,0.795501,0.011235,-0.001837
1.1574999999999989,0.792372,0.008767,0.001249
1.1599999999999966,0.792413,0.009941,0.000144
1.1624999999999943,0.79188,0.010922,-0.000402
1.164999999999992,0.786267,0.012239,-0.001714
1.1674999999999898,0.785584,0.013699,-0.000596
1.1699999999999875,0.784495,0.011174,-0.000513
1.1724999999999852,0.778449,0.013439,-0.000143
1.174999999999983,0.77476,0.011275,-0.001332
1.177499999999981,0.768844,0.011284,-0.002405
1.1800000000000068,0.766007,0.009318,-0.000875
1.1825000000000043,0.760207,0.012346,-0.000553
1.1850000000000025,0.75999,0.010399,0.000567
1.1875,0.753989,0.008992,-0.003363
1.1899999999999975,0.747148,0.007192,-0.002095
1.1924999999999957,0.741374,0.01272,0.000214
1.1949999999999932,0.734738,0.013082,-0.004013
1.197499999999991,0.730003,0.01244,-0.002177
1.1999999999999886,0.726361,0.012184,-0.006515
1.2024999999999864,0.719286,0.012747,-0.004563
1.204999999999984,0.709526,0.012211,-0.00286
1.2074999999999818,0.702996,0.00874,-0.004953
1.210000000000008,0.693766,0.011814,-0.000502
1.2125000000000057,0.686557,0.011986,-0.001974
1.2150000000000034,0.681675,0.009077,0.001376
1.2175000000000011,0.673435,0.013057,-0.000758
1.2199999999999989,0.664178,0.015724,-0.001839
1.2224999999999966,0.65588,0.014538,-1.9e-05
1.2249999999999943,0.650237,0.014801,-0.001007
1.227499999999992,0.637382,0.014622,0.003501
1.2299999999999898,0.625641,0.016066,0.001747
1.2324999999999875,0.616861,0.015577,-0.000429
1.2349999999999852,0.607021,0.017133,0.00219
1.237499999999983,0.595637,0.016356,0.0016
1.239999999999981,0.592155,0.014286,0.001458
1.2425000000000068,0.576275,0.015596,0.004601
1.2450000000000043,0.568422,0.01583,0.002901
1.2475000000000025,0.558279,0.018596,0.006249
1.25,0.547942,0.014076,0.002707
1.2524999999999975,0.535225,0.011281,0.003061
1.2549999999999957,0.527629,0.011169,0.003668
1.2574999999999932,0.51591,0.009328,0.003327
1.259999999999991,0.506336,0.011405,0.001993
1.2624999999999886,0.49732,0.010549,0.005896
1.2649999999999864,0.486676,0.006253,0.003213
1.267499999999984,0.477957,0.004997,0.004696
1.2699999999999818,0.471262,0.008961,0.001841
1.272500000000008,0.458009,0.002597,0.001629
1.2750000000000057,0.451996,0.004993,-0.001104
1.2775000000000034,0.443303,0.000458,-3e-05
1.2800000000000011,0.438564,0.002644,-0.003318
1.2824999999999989,0.431196,-5.5e-05,-0.003844
1.2849999999999966,0.426688,0.002678,-0.001831
1.2874999999999943,0.422109,2.6e-05,-0.002617
1.289999999999992,0.414299,-0.002202,-0.004171
1.2924999999999898,0.408471,0.000823,-0.00242
1.2949999999999875,0.40397,0.002962,-0.006081
1.2974999999999852,0.397115,-0.001125,-0.00774
1.299999999999983,0.394618,0.000266,-0.004756
1.302499999999981,0.387447,0.003863,-0.006169
1.3050000000000068,0.386073,0.000627,-0.006236
1.3075000000000043,0.382198,0.000454,-0.008267
1.3100000000000025,0.37973,-0.001472,-0.005627
1.3125,0.371928,0.001337,-0.006649
1.3149999999999975,0.370822,0.006067,-0.008264
1.3174999999999957,0.36784,0.004024,-0.00495
1.3199999999999932,0.365334,0.002056,-0.008269
1.322499999999991,0.361422,0.00184,-0.008436
1.3249999999999886,0.362781,0.00275,-0.005028
1.3274999999999864,0.356499,0.000616,-0.004576
1.329999999999984,0.351522,0.006234,-0.009727
1.3324999999999818,0.351072,0.001398,-0.007105
1.335000000000008,0.350942,0.006362,-0.006957
1.3375000000000057,0.35171,0.005976,-0.008279
1.3400000000000034,0.347508,0.001394,-0.005846
1.3425000000000011,0.350893,0.003716,-0.006898
1.3449999999999989,0.349771,0.0021,-0.006869
1.3474999999999966,0.348268,0.001194,-0.004748
1.3499999999999943,0.35199,0.002126,-0.006814
1.352499999999992,0.349937,0.002886,-0.006348
1.3549999999999898,0.347012,0.004324,-0.006256
1.3574999999999875,0.34646,0.002793,-0.004104
1.3599999999999852,0.350224,0.001924,-0.004485
1.362499999999983,0.348861,0.004638,-0.003262
1.364999999999981,0.350989,0.007064,-0.004727
1.3675000000000068,0.351619,0.005703,-0.003162
1.3700000000000043,0.356779,0.006714,-0.002971
1.3725000000000025,0.355557,0.002623,-0.00376
1.375,0.356901,0.004735,-0.004633
1.3774999999999975,0.360715,0.004034,-0.007011
1.3799999999999957,0.361051,0.002959,-0.004463
1.3824999999999932,0.367304,0.001458,-0.003271
1.384999999999991,0.368959,0.000408,-0.001211
1.3874999999999886,0.37244,-0.001596,-0.003159
1.3899999999999864,0.374685,-0.002337,-0.002581
1.392499999999984,0.37986,-0.001685,-0.003013
1.3949999999999818,0.380386,-0.003533,0.000259
1.397500000000008,0.386877,0.000875,-0.00117
1.4000000000000057,0.39414,-0.002453,0.001317
1.4025000000000034,0.393961,0.002166,0.004364
1.4050000000000011,0.400005,-0.000122,0.0021
1.4074999999999989,0.400622,-0.00142,0.003015
1.4099999999999966,0.410245,-0.002348,0.005243
1.4124999999999943,0.411396,-0.001961,0.003756
1.414999999999992,0.415855,0.001038,0.004507
1.4174999999999898,0.421967,0.001834,0.002395
1.4199999999999875,0.423517,-0.001021,0.004783
1.4224999999999852,0.429454,0.002673,0.006977
1.424999999999983,0.429399,0.00544,0.004233
1.427499999999981,0.437967,0.005013,0.002495
1.4300000000000068,0.441975,0.001919,0.000801
1.4325000000000043,0.442851,0.002716,0.003026
1.4350000000000025,0.452163,0.003733,-0.001036
1.4375,0.45551,0.004516,0.00247
1.4399999999999975,0.457225,0.004203,9.9e-05
1.4424999999999957,0.46696,0.004556,0.002091
1.4449999999999932,0.470222,0.002954,0.000649
1.447499999999991,0.472168,0.003126,-4.5e-05
1.4499999999999886,0.479544,0.003653,-0.001873
1.4524999999999864,0.486151,0.003872,0.00057
1.454999999999984,0.490468,0.00072,0.001634
1.4574999999999818,0.494617,0.004417,0.000707
1.460000000000008,0.4981,0.005863,-0.003763
1.4625000000000057,0.498612,0.006834,0.00181
1.4650000000000034,0.504949,0.007839,0.001084
1.4675000000000011,0.506816,0.010633,-0.001238
1.4699999999999989,0.514267,0.00485,0.003053
1.4724999999999966,0.517077,0.006538,0.000671
1.4749999999999943,0.52219,0.009625,-0.000311
1.477499999999992,0.524138,0.005803,-0.003774
1.4799999999999898,0.530607,0.003908,-0.000173
1.4824999999999875,0.531454,0.005431,-0.000243
1.4849999999999852,0.535067,0.006635,-0.001979
1.487499999999983,0.535739,0.004927,-0.00146
1.489999999999981,0.540739,0.004137,-8.2e-05
1.4925000000000068,0.545239,-4.5e-05,-0.000964
1.4950000000000043,0.545672,0.00651,0.000798
1.4975000000000025,0.548728,0.004806,-0.001027
1.5,0.551894,0.003206,-0.002022
1.5024999999999975,0.557079,0.003386,-0.005275
1.5049999999999957,0.560334,0.000634,-0.004315
1.5074999999999932,0.565445,0.001352,-0.002655
1.509999999999991,0.572483,0.001054,-0.006855
1.5124999999999886,0.572541,0.002797,-0.006309
1.5149999999999864,0.578558,0.002421,-0.009055
1.517499999999984,0.584111,0.004592,-0.010137
1.5199999999999818,0.590579,-5.8e-05,-0.009362
1.522500000000008,0.595265,0.004395,-0.010341
1.5250000000000057,0.597008,0.002695,-0.010647
1.5275000000000034,0.604192,0.003711,-0.008628
1.5300000000000011,0.608439,0.004806,-0.008169
1.5324999999999989,0.610187,0.006609,-0.004977
1.5349999999999966,0.615253,0.004961,-0.00401
1.5374999999999943,0.613423,0.004799,-0.00411
1.539999999999992,0.618775,0.00638,0.000816
1.5424999999999898,0.618058,0.004213,-0.001615
1.5449999999999875,0.622473,0.007512,0.00039
1.5474999999999852,0.623073,0.006651,0.002994
1.549999999999983,0.627448,0.009226,0.000186
1.552499999999981,0.625006,0.006445,0.002473
1.5550000000000068,0.630803,0.003833,0.003821
1.5575000000000043,0.62987,0.00472,0.006556
1.5600000000000025,0.632174,0.00645,0.003963
1.5625,0.632144,0.003491,0.006717
1.5649999999999975,0.631913,0.008572,0.00184
1.5674999999999957,0.63251,0.005137,0.006578
1.5699999999999932,0.630511,0.008563,0.004674
1.572499999999991,0.632107,0.006399,0.002532
1.5749999999999886,0.634014,0.002908,0.002377
1.5774999999999864,0.635236,0.004224,0.001951
1.579999999999984,0.636727,0.003254,3.1e-05
1.5824999999999818,0.636206,0.001074,0.003711
1.585000000000008,0.637516,0.002191,0.003632
1.5875000000000057,0.641195,-0.001174,0.004899
1.5900000000000034,0.645251,-0.000101,0.004788
1.5925000000000011,0.646833,0.000347,0.002296
1.5949999999999989,0.647286,-0.000225,0.002205
1.5974999999999966,0.647874,0.004566,-0.001436
1.5999999999999943,0.649148,0.005003,0.000808
1.602499999999992,0.653858,0.005386,0.002056
1.6049999999999898,0.654205,0.00503,-0.002377
1.6074999999999875,0.656591,0.003054,0.001059
1.6099999999999852,0.661072,0.008572,-0.001545
1.612499999999983,0.661042,0.008262,-0.000539
1.614999999999981,0.670276,0.004268,-0.002398
1.6175000000000068,0.666133,0.00245,-0.001872
1.6200000000000043,0.670643,0.004316,-0.001141
1.6225000000000025,0.672267,0.005899,-0.004742
1.625,0.672223,0.007138,-0.004683
1.6274999999999975,0.673599,0.010981,-0.004697
1.6299999999999957,0.676496,0.008925,-0.003627
1.6324999999999932,0.679808,0.009967,-0.001518
1.634999999999991,0.675579,0.011348,-0.00304
1.6374999999999886,0.681553,0.012874,-0.004479
1.6399999999999864,0.680635,0.011238,-0.000679
1.642499999999984,0.68047,0.007606,-0.00498
1.6449999999999818,0.681927,0.009831,-0.00668
1.647500000000008,0.682407,0.008952,-0.005247
1.6500000000000057,0.680865,0.012531,-0.002827
1.6525000000000034,0.681917,0.011832,-0.004923
1.6550000000000011,0.683453,0.009758,-0.003041
1.6574999999999989,0.684796,0.009529,-0.004442
1.6599999999999966,0.684085,0.006644,-0.006489
1.6624999999999943,0.683511,0.0053,-0.003256
1.664999999999992,0.684124,0.008857,-0.003946
1.6674999999999898,0.688063,0.01018,-0.005901
1.6699999999999875,0.686369,0.006007,-0.00236
1.6724999999999852,0.688673,0.007168,-0.005226
1.674999999999983,0.687885,0.007188,-0.001752
1.677499999999981,0.687757,0.007945,-0.001997
1.6800000000000068,0.690446,0.008138,-0.000396
1.6825000000000043,0.69394,0.006744,-0.000578
1.6850000000000025,0.691966,0.007232,-0.00419
1.6875,0.692559,0.003368,0.000248
1.6899999999999975,0.694677,0.005496,-0.000952
1.6924999999999957,0.69662,0.007265,-0.005172
1.6949999999999932,0.694317,0.005312,-0.001128
1.697499999999991,0.69781,0.008669,-0.00181
1.6999999999999886,0.693404,0.007496,-0.001207
1.7024999999999864,0.699606,0.006615,-0.002465
1.704999999999984,0.696927,0.00707,-0.002638
1.7074999999999818,0.700394,0.007171,-0.002214
1.710000000000008,0.7005,0.006969,-0.0046
1.7125000000000057,0.699217,0.00506,-0.003718
1.7150000000000034,0.700321,0.012615,-0.005004
1.7175000000000011,0.69828,0.007876,-0.00415
1.7199999999999989,0.700275,0.013802,-0.006071
1.7224999999999966,0.697991,0.011688,-0.002754
1.7249999999999943,0.699405,0.008038,-0.006197
1.727499999999992,0.698209,0.013714,-0.004068
1.7299999999999898,0.695267,0.010658,-0.00619
1.7324999999999875,0.69749,0.012786,-0.006098
1.7349999999999852,0.695173,0.014725,-0.003006
1.737499999999983,0.692336,0.010591,-0.006227
1.739999999999981,0.691443,0.011944,-0.00453
1.7425000000000068,0.684031,0.015152,-0.005707
1.7450000000000043,0.678063,0.013598,-0.004962
1.7475000000000025,0.676239,0.014918,-0.007282
1.75,0.671175,0.011959,-0.007717
1.7524999999999975,0.671829,0.015043,-0.004467
1.7549999999999957,0.664429,0.014027,-0.007835
1.7574999999999932,0.656939,0.011788,-0.006719
1.759999999999991,0.650425,0.010601,-0.008701
1.7624999999999886,0.645933,0.012218,-0.009872
1.7649999999999864,0.634236,0.010139,-0.009371
1.767499999999984,0.627541,0.012676,-0.011614
1.7699999999999818,0.621114,0.009202,-0.01144
1.772500000000008,0.614205,0.012618,-0.013377
1.7750000000000057,0.602512,0.013529,-0.013547
1.7775000000000034,0.594931,0.013257,-0.015895
1.7800000000000011,0.582393,0.011719,-0.016718
1.7824999999999989,0.571214,0.017541,-0.016713
1.7849999999999966,0.561879,0.010767,-0.017832
1.7874999999999943,0.555578,0.011866,-0.019984
1.789999999999992,0.541119,0.013394,-0.019956
1.7924999999999898,0.529621,0.014532,-0.021125
1.7949999999999875,0.515222,0.01502,-0.023331
1.7974999999999852,0.504793,0.018739,-0.027318
1.799999999999983,0.493131,0.014455,-0.026719
1.802499999999981,0.481891,0.014939,-0.030677
1.8050000000000068,0.470419,0.014719,-0.03337
1.8075000000000043,0.459989,0.012297,-0.031939
1.8100000000000025,0.448477,0.014139,-0.039439
1.8125,0.43465,0.011326,-0.03731
1.8149999999999975,0.421727,0.01043,-0.03818
1.8174999999999957,0.414912,0.010017,-0.037888
1.8199999999999927,0.40535,0.012506,-0.042218
1.822499999999991,0.395913,0.009464,-0.045377
1.8249999999999889,0.384816,0.012215,-0.041451
1.8274999999999864,0.372501,0.008488,-0.045195
1.829999999999984,0.364914,0.008405,-0.04562
1.8324999999999816,0.354198,0.009246,-0.04724
1.835000000000008,0.342646,0.012336,-0.043938
1.8375000000000057,0.33223,0.008874,-0.042982
1.8400000000000036,0.321559,0.005413,-0.044717
1.8425000000000007,0.312018,0.009593,-0.044136
1.8449999999999989,0.299668,0.005748,-0.04373
1.8474999999999968,0.284804,0.010971,-0.041075
1.8499999999999943,0.275414,0.004945,-0.041215
1.852499999999992,0.267362,0.004425,-0.039943
1.8549999999999895,0.255463,0.004683,-0.037983
1.8574999999999875,0.245548,0.003991,-0.033683
1.8599999999999848,0.23491,0.001704,-0.032921
1.862499999999983,0.226036,0.001758,-0.026985
1.864999999999981,0.215064,0.003159,-0.023896
1.8675000000000068,0.204729,0.001564,-0.022504
1.8700000000000043,0.192804,0.003599,-0.018242
1.8725000000000025,0.18184,0.001449,-0.016004
1.875,0.170439,-0.000632,-0.012745
1.8774999999999975,0.161762,0.004349,-0.010942
1.8799999999999957,0.153012,0.001373,-0.009759
1.8824999999999927,0.139079,-0.001486,-0.00661
1.884999999999991,0.132854,-0.00045,-0.007673
1.8874999999999889,0.120988,-0.001439,-0.002328
1.8899999999999864,0.109717,-0.002766,-0.000858
1.892499999999984,0.10115,-0.000699,0.001802
1.8949999999999816,0.093842,-0.002769,-0.000894
1.897500000000008,0.083338,-0.000776,0.004216
1.9000000000000057,0.079716,0.00075,0.004885
1.9025000000000036,0.071209,0.001279,0.00407
1.9050000000000007,0.062383,0.000732,0.001626
1.9074999999999989,0.054318,-0.001094,0.002744
1.9099999999999968,0.047208,-0.002415,0.003985
1.9124999999999943,0.037027,0.000883,0.000701
1.914999999999992,0.032641,0.000606,0.004868
1.9174999999999895,0.027627,0.000791,0.000175
1.9199999999999875,0.019536,-0.000484,0.00188
1.9224999999999848,0.013299,-0.002253,0.003868
1.924999999999983,0.012735,-0.005361,0.002366
1.927499999999981,0.006264,-0.002733,0.004458
1.9300000000000068,0.001708,-0.002855,0.004204
1.9325000000000043,0.000856,-0.001091,0.004434
1.9350000000000025,-0.004287,-0.003411,0.002591
1.9375,-0.007688,-0.000829,0.006764
1.9399999999999975,-0.010024,-0.006741,0.004592
1.9424999999999957,-0.015819,-0.002117,0.008061
1.9449999999999927,-0.012402,-0.00264,0.005778
1.947499999999991,-0.017805,-0.003017,0.00663
1.9499999999999889,-0.015119,-0.003397,0.005067
1.9524999999999864,-0.017798,-0.002077,0.005873
1.954999999999984,-0.017439,-0.006092,0.006334
1.9574999999999816,-0.015742,-0.00844,0.008168
1.960000000000008,-0.01566,-0.003387,0.007243
1.9625000000000057,-0.011258,-0.003277,0.003891
1.9650000000000036,-0.013022,-0.006212,0.006839
1.9675000000000007,-0.010459,-0.002612,0.007833
1.9699999999999989,-0.009833,-0.003475,0.005365
1.9724999999999968,-0.007366,0.001168,0.00357
1.9749999999999943,-0.006819,-0.003479,0.003565
1.977499999999992,-0.005411,-0.001773,0.003196
1.9799999999999895,-0.005145,-0.006483,0.001209
1.9824999999999875,-0.001672,-0.002761,0.000472
1.9849999999999848,0.00219,-0.002645,0.002002
1.987499999999983,0.004447,-0.000808,0.002193
1.989999999999981,0.006669,0.000919,0.001249
1.9925000000000068,0.008372,-0.004078,-0.001304
1.9950000000000043,0.011408,0.000463,0.001154
1.9975000000000025,0.012303,0.00094,-0.001593
2.0,0.015425,0.002604,-0.002776
2.0024999999999977,0.017188,-0.002491,0.000247
2.0049999999999955,0.020391,-0.001302,-0.001481
2.007499999999993,0.026395,9.6e-05,-0.003871
2.009999999999991,0.030356,-0.001274,-0.00217
2.0124999999999886,0.032028,-0.002281,-0.001334
2.0149999999999864,0.039279,-0.002488,-0.004369
2.017499999999984,0.045081,-0.004253,-0.006317
2.019999999999982,0.047915,-0.007558,-0.004728
2.022500000000008,0.053633,-0.00131,-0.006105
2.0250000000000057,0.058515,-0.002185,-0.007208
2.0275000000000034,0.059957,-0.00205,-0.006542
2.030000000000001,0.070169,-0.002593,-0.008661
2.032499999999999,0.073234,-0.005428,-0.007799
2.0349999999999966,0.078491,-0.006354,-0.006872
2.0374999999999943,0.085995,-0.006771,-0.009248
2.039999999999992,0.091756,-0.003751,-0.009413
2.0424999999999898,0.099818,-0.007081,-0.011441
2.0449999999999875,0.104349,-0.005892,-0.010978
2.047499999999985,0.108508,-0.005801,-0.011671
2.049999999999983,0.117093,-0.006087,-0.010638
2.0524999999999807,0.125795,-0.006226,-0.010508
2.055000000000007,0.131816,-0.005473,-0.01258
2.0575000000000045,0.138903,-0.003667,-0.012366
2.0600000000000023,0.142267,-0.005323,-0.016096
2.0625,0.151206,-0.007802,-0.012711
2.0649999999999977,0.160318,-0.005975,-0.01308
2.0674999999999955,0.165517,-0.005205,-0.012469
2.069999999999993,0.173565,-0.003751,-0.013711
2.072499999999991,0.181039,-0.004892,-0.015309
2.0749999999999886,0.188354,-0.003164,-0.010985
2.0774999999999864,0.193004,-0.002597,-0.010277
2.079999999999984,0.203278,-0.004128,-0.013787
2.082499999999982,0.208379,-0.004785,-0.010705
2.085000000000008,0.214993,-0.002871,-0.009127
2.0875000000000057,0.22388,-0.000723,-0.008848
2.0900000000000034,0.229669,-0.00321,-0.009432
2.092500000000001,0.234977,-0.000407,-0.007565
2.094999999999999,0.243681,-0.002217,-0.012411
2.0974999999999966,0.250082,-0.005001,-0.007074
2.0999999999999943,0.25434,0.00085,-0.007541
2.102499999999992,0.26665,-0.005712,-0.005282
2.1049999999999898,0.270393,0.000622,-0.007677
2.1074999999999875,0.278028,0.000825,-0.003864
2.109999999999985,0.281777,-0.000906,-0.003392
2.112499999999983,0.291134,0.001066,-0.00748
2.1149999999999807,0.296026,-0.004144,-0.005402
2.117500000000007,0.301491,0.001123,-0.003722
2.1200000000000045,0.312791,-0.001061,-0.00658
2.1225000000000023,0.315044,0.00365,-0.004883
2.125,0.323338,0.001063,-0.00543
2.1274999999999977,0.326923,0.000717,-0.009085
2.1299999999999955,0.329795,0.003359,-0.004116
2.132499999999993,0.337782,-0.001819,-0.005734
2.134999999999991,0.34379,0.003637,-0.005482
2.1374999999999886,0.348646,0.005605,-0.007766
2.1399999999999864,0.351321,0.004623,-0.006464
2.142499999999984,0.357404,0.001391,-0.005661
2.144999999999982,0.364534,-0.0007,-0.005889
2.147500000000008,0.368182,0.004647,-0.005582
2.1500000000000057,0.372089,0.00023,-0.002608
2.1525000000000034,0.375957,0.002947,-0.005421
2.155000000000001,0.379004,0.001516,-0.00667
2.157499999999999,0.386398,0.002979,-0.008591
2.1599999999999966,0.389091,-0.001676,-0.009081
2.1624999999999943,0.394031,0.002723,-0.006773
2.164999999999992,0.402453,0.004547,-0.007255
2.1674999999999898,0.40145,-0.00591,-0.006744
2.1699999999999875,0.407069,0.001336,-0.008649
2.172499999999985,0.408014,0.002422,-0.006227
2.174999999999983,0.412586,-0.002055,-0.006749
2.1774999999999807,0.414918,0.003306,-0.006649
2.180000000000007,0.420723,0.00309,-0.005932
2.1825000000000045,0.424192,0.002267,-0.004727
2.1850000000000023,0.425289,0.002626,-0.006793
2.1875,0.427752,0.002203,-0.006579
2.1899999999999977,0.433771,0.002313,-0.005232
2.1924999999999955,0.433991,0.002364,-0.006965
2.194999999999993,0.440014,0.002461,-0.008425
2.197499999999991,0.438239,0.005724,-0.007671
2.1999999999999886,0.441849,0.004052,-0.00338
2.2024999999999864,0.445923,0.002488,-0.005277
2.204999999999984,0.444708,0.003908,-0.006928
2.207499999999982,0.450099,0.002176,-0.00487
2.210000000000008,0.451631,0.001927,-0.003313
2.2125000000000057,0.452925,0.010515,-0.006582
2.2150000000000034,0.458825,0.005273,-0.004314
2.217500000000001,0.460311,0.008409,-0.005728
2.219999999999999,0.460302,0.005949,-0.00159
2.2224999999999966,0.461996,0.004838,-0.004819
2.2249999999999943,0.464219,0.004661,-0.000104
2.227499999999992,0.47176,0.002915,-0.005642
2.2299999999999898,0.471397,0.007682,-0.003698
2.2324999999999875,0.471839,0.005367,-0.001399
2.234999999999985,0.475968,0.004418,-0.007057
2.237499999999983,0.474399,0.005316,0.000819
2.2399999999999807,0.477546,0.006632,-0.004269
2.242500000000007,0.477038,0.005817,-0.003171
2.2450000000000045,0.479373,0.002842,0.00317
2.2475000000000023,0.482469,0.003844,-0.001872
2.25,0.483195,0.003343,-0.001697
2.2524999999999977,0.487795,0.003358,0.003899
2.2549999999999955,0.484478,0.003304,-0.001822
2.257499999999993,0.487306,0.005694,-0.000696
2.259999999999991,0.486917,0.005712,-0.000499
2.2624999999999886,0.491018,0.004215,-0.000687
2.2649999999999864,0.493708,0.002167,-0.001889
2.267499999999984,0.495844,0.003602,0.0004
2.269999999999982,0.491127,0.005948,-0.004503
2.272500000000008,0.496326,0.003406,0.000917
2.2750000000000057,0.497013,0.001835,-0.004126
2.2775000000000034,0.497956,0.005641,-0.002582
2.280000000000001,0.496271,0.008787,-0.001259
2.282499999999999,0.49782,0.005636,-0.000143
2.2849999999999966,0.498877,0.004245,-0.002584
2.2874999999999943,0.497264,0.00742,-0.001752
2.289999999999992,0.498522,0.005948,-0.00145
2.2924999999999898,0.496338,0.005447,-0.000125
2.2949999999999875,0.497458,0.006884,-0.000925
2.297499999999985,0.501927,0.006291,-0.003695
2.299999999999983,0.50079,0.006587,-0.002573
2.3024999999999807,0.501145,0.003976,0.000209
2.305000000000007,0.503392,0.006563,-0.000724
2.3075000000000045,0.502706,0.005279,-0.000501
2.3100000000000023,0.50431,0.007344,0.001343
2.3125,0.511209,0.003798,0.002328
2.3149999999999977,0.512704,0.003362,0.003562
2.3174999999999955,0.513997,0.006258,-0.001051
2.319999999999993,0.513368,0.009439,0.001792
2.322499999999991,0.519691,0.006031,0.001312
2.3249999999999886,0.519209,0.00721,0.002102
2.3274999999999864,0.525291,0.005949,0.002674
2.329999999999984,0.530743,0.006396,-0.000711
2.332499999999982,0.5287,0.009996,0.001299
2.335000000000008,0.53329,0.006985,-0.002109
2.3375000000000057,0.539423,0.005277,0.002881
2.3400000000000034,0.540394,0.004581,-0.000383
2.342500000000001,0.544294,0.007422,0.000215
2.344999999999999,0.549107,0.007386,0.002111
2.3474999999999966,0.549492,0.005429,0.001261
2.3499999999999943,0.54946,0.005289,0.000348
2.352499999999992,0.556038,0.006825,-9.7e-05
2.3549999999999898,0.559933,0.008414,-0.004908
2.3574999999999875,0.564569,0.007569,-0.002712
2.359999999999985,0.561273,0.00407,0.002751
2.362499999999983,0.564406,0.005267,0.009749
2.3649999999999807,0.572413,0.002795,0.005559
2.367500000000007,0.569867,0.004079,-0.000718
2.3700000000000045,0.57691,0.007636,-0.002563
2.3725000000000023,0.57554,0.008716,-0.001723
2.375,0.583752,0.004747,0.000767
2.3774999999999977,0.582943,-0.000398,0.005425
2.3799999999999955,0.585388,0.00718,0.005535
2.382499999999993,0.587747,0.006398,0.002343
2.384999999999991,0.593632,0.005556,0.002509
2.3874999999999886,0.597154,0.003814,-0.001143
2.3899999999999864,0.599694,0.00566,0.000218
2.392499999999984,0.60134,0.006723,0.002145
2.394999999999982,0.607929,0.003549,0.004012
2.397500000000008,0.611747,0.004482,0.002032
2.4000000000000057,0.613397,0.001445,0.001395
2.4025000000000034,0.620069,0.002654,0.002483
2.405000000000001,0.618806,0.008068,0.00388
2.407499999999999,0.623939,0.006466,0.0051
2.4099999999999966,0.626782,0.002515,0.002425
2.4124999999999943,0.635963,0.002474,0.005902
2.414999999999992,0.641748,0.001795,0.003576
2.4174999999999898,0.643214,0.002985,0.004952
2.4199999999999875,0.647452,0.006344,0.005502
2.422499999999985,0.652099,0.002471,0.009171
2.424999999999983,0.655845,0.000577,0.004253
2.4274999999999807,0.661687,0.004146,0.000484
2.430000000000007,0.666475,0.006066,0.003495
2.4325000000000045,0.673326,0.003562,0.003088
2.4350000000000023,0.674731,0.002671,0.002157
2.4375,0.677861,0.00465,0.004037
2.4399999999999977,0.683827,0.004677,0.002276
2.4424999999999955,0.688354,0.005306,0.004636
2.444999999999993,0.691401,0.007486,0.001691
2.447499999999991,0.694118,0.00652,0.004331
2.4499999999999886,0.698701,0.006162,0.004932
2.4524999999999864,0.703662,0.002535,0.005404
2.454999999999984,0.705727,0.005766,0.006399
2.457499999999982,0.707508,0.005949,0.005064
2.460000000000008,0.710142,0.006471,0.005097
2.4625000000000057,0.711586,0.004403,0.003908
2.4650000000000034,0.714307,0.005706,0.008083
2.467500000000001,0.712688,0.006697,0.0069
2.469999999999999,0.716191,0.008626,0.005522
2.4724999999999966,0.722701,0.003033,0.00563
2.4749999999999943,0.719929,0.004295,0.004576
2.477499999999992,0.723089,0.005032,0.005853
2.4799999999999898,0.723314,0.006623,0.003695
2.4824999999999875,0.725193,0.004318,0.003619
2.484999999999985,0.728596,0.000339,0.003923
2.487499999999983,0.725819,0.002625,0.005314
2.4899999999999807,0.727781,0.00407,0.009888
2.492500000000007,0.732332,0.002372,0.004803
2.4950000000000045,0.73162,0.002899,0.003161
2.4975000000000023,0.732714,0.004557,0.001206
2.5,0.735486,0.003261,0.00178
2.5024999999999977,0.734753,0.002473,0.002631
2.5049999999999955,0.73768,0.004279,0.004528
2.507499999999993,0.737738,0.006954,0.003173
2.509999999999991,0.741043,0.006198,0.005332
2.5124999999999886,0.740933,0.009274,0.008161
2.5149999999999864,0.742275,0.007398,0.005588
2.517499999999984,0.744353,0.004289,0.003172
2.519999999999982,0.744423,0.005583,0.006337
2.522500000000008,0.743123,0.007302,0.00897
2.5250000000000057,0.746534,0.002495,0.006383
2.5275000000000034,0.745218,0.005407,0.004818
2.530000000000001,0.749465,0.004993,0.006548
2.532499999999999,0.745631,0.0044,0.004949
2.5349999999999966,0.74577,0.006502,0.008114
2.5374999999999943,0.744464,0.009678,0.007194
2.539999999999992,0.745743,0.008049,0.006685
2.5424999999999898,0.743342,0.008159,0.009618
2.5449999999999875,0.740723,0.006618,0.00725
2.547499999999985,0.741025,0.004495,0.00987
2.549999999999983,0.73855,0.008502,0.00974
2.5524999999999807,0.739796,0.007697,0.008806
2.555000000000007,0.740636,0.005342,0.007661
2.5575000000000045,0.738555,0.004778,0.003044
2.5600000000000023,0.734464,0.004738,0.00883
2.5625,0.732533,0.00212,0.011947
2.5649999999999977,0.734446,0.002027,0.004209
2.5674999999999955,0.729843,0.00672,0.005814
2.569999999999993,0.73271,0.003844,0.008181
2.572499999999991,0.730107,0.006113,0.006189
2.5749999999999886,0.72887,0.004473,0.003464
2.5774999999999864,0.73098,0.002968,0.004769
2.579999999999984,0.733108,-0.000457,0.001802
2.582499999999982,0.731788,0.002306,0.003786
2.585000000000008,0.735504,0.002598,0.00396
2.5875000000000057,0.729909,0.002832,0.002784
2.5900000000000034,0.729477,0.004938,0.006261
2.592500000000001,0.731168,0.005542,0.003741
2.594999999999999,0.730923,0.00485,0.003496
2.5974999999999966,0.728791,0.001865,0.004747
2.5999999999999943,0.731885,0.006218,0.005221
2.602499999999992,0.734279,0.006231,0.006514
2.6049999999999898,0.733533,0.003219,0.007685
2.6074999999999875,0.737367,0.006575,0.002228
2.609999999999985,0.73458,0.006234,0.003525
2.612499999999983,0.730226,0.007466,0.006124
2.6149999999999807,0.732624,0.006891,0.004015
2.617500000000007,0.730454,0.005979,0.005995
2.6200000000000045,0.729848,0.010411,0.005884
2.6225000000000023,0.72742,0.007425,0.004856
2.625,0.726103,0.005809,0.005215
2.6274999999999977,0.724056,0.009277,0.006484
2.6299999999999955,0.726299,0.008816,0.007047
2.632499999999993,0.725772,0.005179,0.003638
2.634999999999991,0.728067,0.0062,0.005854
2.6374999999999886,0.723142,0.007341,0.006186
2.6399999999999864,0.725199,0.006942,0.006039
2.642499999999984,0.724108,0.005727,0.004528
2.644999999999982,0.718928,0.007705,0.005575
2.647500000000008,0.722266,0.007857,0.005419
2.6500000000000057,0.72015,0.005028,0.005666
2.6525000000000034,0.719927,0.005188,0.004204
2.655000000000001,0.722882,0.000385,0.005954
2.657499999999999,0.724597,0.003537,0.00358
2.6599999999999966,0.7241,0.003635,0.003902
2.6624999999999943,0.721596,0.002053,0.005736
2.664999999999992,0.723115,0.001401,0.00552
2.6674999999999898,0.720551,0.004291,0.004055
2.6699999999999875,0.724316,0.006471,0.006054
2.672499999999985,0.72605,0.00703,0.001476
2.674999999999983,0.722271,0.007238,0.004856
2.6774999999999807,0.724019,0.00454,0.004567
2.680000000000007,0.729883,0.005159,0.00329
2.6825000000000045,0.726696,0.007049,0.004382
2.6850000000000023,0.725018,0.007584,0.00357
2.6875,0.725105,0.011597,0.006298
2.6899999999999977,0.723938,0.008396,0.004669
2.6924999999999955,0.724607,0.008402,0.004645
2.694999999999993,0.729125,0.008915,0.007247
2.697499999999991,0.725757,0.008664,0.008684
2.6999999999999886,0.724552,0.00594,0.006879
2.7024999999999864,0.723786,0.005273,0.006608
2.704999999999984,0.728167,0.006282,0.005917
2.707499999999982,0.725774,0.006773,0.005168
2.710000000000008,0.725309,0.007468,0.008211
2.7125000000000057,0.724814,0.007405,0.00992
2.7150000000000034,0.727511,0.004739,0.007624
2.717500000000001,0.724598,0.006302,0.005697
2.719999999999999,0.724767,0.004461,0.006894
2.7224999999999966,0.724532,0.006422,0.007258
2.7249999999999943,0.722925,0.009608,0.004541
2.727499999999992,0.725084,0.007724,0.002151
2.7299999999999898,0.723369,0.005189,0.002972
2.7324999999999875,0.726622,0.006371,0.001497
2.734999999999985,0.723673,0.006362,0.004039
2.737499999999983,0.725456,0.00763,0.003115
2.7399999999999807,0.726879,0.007465,0.003343
2.742500000000007,0.725434,0.005767,0.004979
2.7450000000000045,0.722981,0.011285,0.005267
2.7475000000000023,0.725363,0.008471,0.004812
2.75,0.722183,0.010937,0.00672
2.7524999999999977,0.723324,0.006384,0.004954
2.7549999999999955,0.721627,0.009099,0.00568
2.757499999999993,0.726203,0.006595,0.004604
2.759999999999991,0.726905,0.006516,0.005297
2.7624999999999886,0.724129,0.008256,0.006329
2.7649999999999864,0.726765,0.005072,0.006331
2.767499999999984,0.720069,0.008018,0.008307
2.769999999999982,0.719982,0.006405,0.007082
2.772500000000008,0.722582,0.007603,0.008353
2.7750000000000057,0.728768,0.006235,0.008968
2.7775000000000034,0.722853,0.009548,0.006983
2.780000000000001,0.718192,0.007468,0.009041
2.782499999999999,0.725223,0.005097,0.00354
2.7849999999999966,0.719684,0.006811,0.006294
2.7874999999999943,0.724893,0.009606,0.00673
2.789999999999992,0.720067,0.008404,0.007302
2.7924999999999898,0.721551,0.00871,0.004714
2.7949999999999875,0.721953,0.005779,0.007405
2.797499999999985,0.718457,0.005639,0.005812
2.799999999999983,0.719302,0.004237,0.007517
2.8024999999999807,0.723521,0.006277,0.005191
2.805000000000007,0.722324,0.005742,0.009636
2.8075000000000045,0.723218,0.007328,0.004864
2.8100000000000023,0.724688,0.002664,0.005003
2.8125,0.724648,0.003015,0.004424
2.8149999999999977,0.724291,0.00691,0.006246
2.8174999999999955,0.725087,0.007721,0.003276
2.819999999999993,0.726765,0.009992,0.005554
2.822499999999991,0.722592,0.005334,0.007237
2.8249999999999886,0.724674,0.004862,0.00471
2.8274999999999864,0.725796,0.004243,0.00348
2.829999999999984,0.72339,0.00769,0.006616
2.832499999999982,0.725155,0.006136,0.009436
2.835000000000008,0.723726,0.007189,0.006445
2.8375000000000057,0.722128,0.006119,0.006465
2.8400000000000034,0.72083,0.007378,0.006258
2.842500000000001,0.724743,0.005878,0.006873
2.844999999999999,0.720208,0.005721,0.005478
2.8474999999999966,0.717653,0.006478,0.007043
2.8499999999999943,0.717295,0.005556,0.003637
2.852499999999992,0.718535,0.005207,0.007249
2.8549999999999898,0.716692,0.006016,0.005639
2.8574999999999875,0.713087,0.007925,0.004243
2.859999999999985,0.712923,0.00696,0.005459
2.862499999999983,0.70839,0.007521,0.008843
2.8649999999999807,0.70509,0.009244,0.00594
2.867500000000007,0.703233,0.003842,0.004981
2.8700000000000045,0.699986,0.005915,0.005331
2.8725000000000023,0.6989,0.008477,0.00928
2.875,0.693201,0.006834,0.005827
2.8774999999999977,0.686536,0.008338,0.006434
2.8799999999999955,0.682358,0.007617,0.007302
2.882499999999993,0.678247,0.010549,0.003397
2.884999999999991,0.670507,0.010105,0.00305
2.8874999999999886,0.668156,0.00788,0.006012
2.8899999999999864,0.664095,0.005243,0.004133
2.892499999999984,0.656728,0.007059,0.005216
2.894999999999982,0.651521,0.003255,0.003324
2.897500000000008,0.642463,0.008809,0.005838
2.9000000000000057,0.637678,0.005237,0.002446
2.9025000000000034,0.634188,0.00496,0.002231
2.905000000000001,0.626426,0.006334,0.006186
2.907499999999999,0.621329,0.004407,0.005011
2.9099999999999966,0.610318,0.00538,0.002316
2.9124999999999943,0.603003,0.006638,0.007821
2.914999999999992,0.600238,0.005821,0.003251
2.9174999999999898,0.591473,0.004447,0.005607
2.9199999999999875,0.585649,0.005806,0.004178
2.922499999999985,0.578701,0.006671,0.00303
2.924999999999983,0.57575,0.007442,0.004727
2.9274999999999807,0.568155,0.004888,0.006133
2.930000000000007,0.563408,0.004863,0.002364
2.9325000000000045,0.556225,0.003696,0.003385
2.9350000000000023,0.550957,0.001581,0.006607
2.9375,0.547736,0.002692,0.004951
2.9399999999999977,0.536823,0.003297,0.002132
2.9424999999999955,0.532896,0.006237,0.00682
2.944999999999993,0.523425,0.006043,0.004957
2.947499999999991,0.520402,0.006015,0.003313
2.9499999999999886,0.513092,0.003374,0.001695
2.9524999999999864,0.506856,0.003516,0.001932
2.954999999999984,0.500623,0.003535,0.000273
2.957499999999982,0.495376,0.002434,0.002264
2.960000000000008,0.490341,0.005359,0.004254
2.9625000000000057,0.481732,0.002071,0.001699
2.9650000000000034,0.475504,0.000731,0.001264
2.967500000000001,0.46922,0.003044,0.000196
2.969999999999999,0.46711,0.000412,0.001364
2.9724999999999966,0.459849,0.002762,0.000422
2.9749999999999943,0.453167,0.000707,0.0021
2.977499999999992,0.445852,0.002401,-0.00201
2.9799999999999898,0.435802,0.003289,0.001652
2.9824999999999875,0.430199,0.003026,0.000416
2.984999999999985,0.425393,0.00485,0.000373
2.987499999999983,0.416476,0.002234,0.00103
2.9899999999999807,0.41469,0.006137,0.000758
2.992500000000007,0.404326,0.003391,0.000416
2.9950000000000045,0.397308,0.003447,0.000992
2.9975000000000023,0.392356,0.003202,-0.000301
3.0,0.388696,0.001337,0.002813
3.0024999999999977,0.382265,0.00479,0.003081
3.0049999999999955,0.377668,0.005016,0.004285
3.007499999999993,0.374823,0.002889,0.003047
3.009999999999991,0.36886,0.002637,-0.001726
3.0124999999999886,0.362379,0.004197,0.001133
3.0149999999999864,0.356702,0.003242,0.003222
3.017499999999984,0.358268,0.002373,0.002167
3.019999999999982,0.348742,0.003435,0.00191
3.022500000000008,0.347488,0.006496,0.003251
3.0250000000000057,0.344143,0.004283,0.005446
3.0275000000000034,0.338046,0.002889,0.005858
3.030000000000001,0.334635,0.000577,0.002267
3.032499999999999,0.332657,0.001163,0.003866
3.0349999999999966,0.327177,0.002798,0.003018
3.0374999999999943,0.324232,0.003178,0.004523
3.039999999999992,0.321365,0.004252,0.004565
3.0424999999999898,0.316481,0.003412,0.0014
3.0449999999999875,0.316892,-0.002493,0.002738
3.047499999999985,0.312646,0.005267,0.002805
3.049999999999983,0.310693,0.000975,0.00424
3.0524999999999807,0.309394,-0.000626,0.006269
3.055000000000007,0.306165,0.002766,0.007065
3.0575000000000045,0.303199,0.001162,0.004639
3.0600000000000023,0.30074,0.0003,0.00569
3.0625,0.301962,0.005464,0.006365
3.0649999999999977,0.299966,0.004856,0.00133
3.0674999999999955,0.299095,0.006046,0.002795
3.069999999999993,0.297853,0.004674,0.002406
3.072499999999991,0.295987,0.00165,0.004987
3.0749999999999886,0.29344,0.007363,0.00475
3.0774999999999864,0.288845,0.004465,0.007371
3.079999999999984,0.292107,0.002783,0.004505
3.082499999999982,0.289319,0.004428,0.004093
3.085000000000008,0.287747,0.004738,0.004079
3.0875000000000057,0.287702,0.004601,0.005306
3.0900000000000034,0.28443,0.006299,0.005517
3.092500000000001,0.282545,0.004467,0.00462
3.094999999999999,0.281511,0.003,0.006229
3.0974999999999966,0.276762,0.005654,0.001917
3.0999999999999943,0.279636,-0.002646,0.005015
3.102499999999992,0.275745,0.003424,0.007673
3.1049999999999898,0.273129,0.003584,0.006142
3.1074999999999875,0.273066,0.001267,0.006702
3.109999999999985,0.268774,0.002607,0.005611
3.112499999999983,0.269809,0.005784,0.005849
3.1149999999999807,0.265046,0.000531,0.00279
3.117500000000007,0.266933,0.003166,0.00739
3.1200000000000045,0.262291,0.000901,0.007253
3.1225000000000023,0.259855,0.002334,0.005352
3.125,0.25483,0.001595,0.004525
3.1274999999999977,0.256575,0.007189,0.004169
3.1299999999999955,0.253154,0.005246,0.008067
3.132499999999993,0.252619,0.001923,0.005869
3.134999999999991,0.251075,0.005918,0.003903
3.1374999999999886,0.248621,0.007807,-6.4e-05
3.1399999999999864,0.246745,0.002577,0.000954
3.142499999999984,0.24268,0.000586,0.003519
3.144999999999982,0.244344,0.004894,0.000853
3.147500000000008,0.242872,0.005988,0.000102
3.1500000000000057,0.239799,0.003982,0.002643
3.1525000000000034,0.239069,0.005264,0.002094
3.155000000000001,0.23812,0.00226,0.001992
3.157499999999999,0.234649,0.00538,0.003498
3.1599999999999966,0.236198,0.004006,0.00213
3.1624999999999943,0.237925,0.006712,0.003053
3.164999999999992,0.234342,0.002008,0.003844
3.1674999999999898,0.23515,0.001945,0.003343
3.1699999999999875,0.235263,0.001643,0.00231
3.172499999999985,0.233688,0.000934,0.00504
3.174999999999983,0.232025,0.003891,0.005313
3.1774999999999807,0.231674,0.0031,0.002544
3.180000000000007,0.232207,0.003517,0.003459
3.1825000000000045,0.231948,0.002376,0.003036
3.1850000000000023,0.230981,0.006395,0.003841
3.1875,0.228672,0.002212,0.004403
3.1899999999999977,0.230908,0.002807,0.005425
3.1924999999999955,0.229957,0.000159,0.000875
3.194999999999993,0.230799,1e-06,0.002757
3.197499999999991,0.232197,0.003537,0.002571
3.1999999999999886,0.231958,0.000658,0.003748
3.2024999999999864,0.233152,0.000957,0.004115
3.204999999999984,0.234988,-0.000609,0.004908
3.207499999999982,0.236671,0.003747,0.003885
3.210000000000008,0.242802,0.000405,0.000788
3.2125000000000057,0.239908,0.00148,0.001945
3.2150000000000034,0.240339,0.001722,0.004055
3.217500000000001,0.238026,0.000738,0.004318
3.219999999999999,0.244214,0.001829,0.004663
3.2224999999999966,0.244518,0.00354,0.003616
3.2249999999999943,0.248397,0.000656,0.003634
3.227499999999992,0.249135,0.00357,0.000884
3.2299999999999898,0.251348,0.002708,0.003273
3.2324999999999875,0.251784,0.004714,0.004118
3.234999999999985,0.256679,0.001954,0.005055
3.237499999999983,0.25479,-0.00046,0.004937
3.2399999999999807,0.255404,0.002194,-0.000603
3.242500000000007,0.259338,0.00063,0.003339
3.2450000000000045,0.261282,0.002723,0.001893
3.2475000000000023,0.260283,0.000681,0.003402
3.25,0.261464,0.003301,0.001431
3.2524999999999977,0.263447,0.003343,0.004584
3.2549999999999955,0.267559,0.000929,0.003115
3.257499999999993,0.267439,-0.000763,0.006301
3.259999999999991,0.262617,-0.000721,0.005535
3.2624999999999886,0.267578,0.001831,0.00458
3.2649999999999864,0.270782,0.003489,0.003213
3.267499999999984,0.266854,0.000869,0.00469
3.269999999999982,0.277961,0.002267,0.006235
3.272500000000008,0.273674,0.002361,0.004803
3.2750000000000057,0.271683,-0.002387,0.006855
3.2775000000000034,0.275185,0.003383,0.004285
3.280000000000001,0.274969,0.000245,0.005584
3.282499999999999,0.27642,0.00174,0.002793
3.2849999999999966,0.278526,0.004486,0.008007
3.2874999999999943,0.276055,0.000676,0.006766
3.289999999999992,0.275289,0.002091,0.005133
3.2924999999999898,0.278165,0.001722,0.002765
3.2949999999999875,0.279843,0.000221,0.004593
3.297499999999985,0.279082,0.003111,0.004189
3.299999999999983,0.276745,0.002361,0.00261
3.3024999999999807,0.279889,0.00397,0.006124
3.305000000000007,0.284069,0.004775,0.001837
3.3075000000000045,0.282323,0.007267,0.005644
3.3100000000000023,0.28576,0.005292,0.002488
3.3125,0.282037,0.005085,0.007779
3.3149999999999977,0.283525,0.004197,0.004587
3.3174999999999955,0.280526,0.006139,0.003726
3.319999999999993,0.282691,0.004645,0.007655
3.322499999999991,0.28434,0.005487,0.004857
3.3249999999999886,0.284828,0.006696,0.002471
3.3274999999999864,0.277995,0.005857,0.00538
3.329999999999984,0.280557,0.006074,0.00196
3.332499999999982,0.280883,0.008716,0.005964
3.335000000000008,0.280296,0.006729,0.010402
3.3375000000000057,0.278161,0.005668,0.007077
3.3400000000000034,0.275541,0.009479,0.005678
3.342500000000001,0.274042,0.007481,0.005724
3.344999999999999,0.275327,-0.00011,0.00683
3.3474999999999966,0.273862,0.006846,0.005991
3.3499999999999943,0.27424,0.004708,0.004145
3.352499999999992,0.269169,0.005218,0.006572
3.3549999999999898,0.26798,0.005778,0.00652
3.3574999999999875,0.267791,0.005721,0.005617
3.359999999999985,0.26731,0.005995,0.00136
3.362499999999983,0.269849,0.005812,0.004049
3.3649999999999807,0.265772,0.002997,0.001549
3.367500000000007,0.26454,0.00835,0.004279
3.3700000000000045,0.263574,0.001139,0.00535
3.3725000000000023,0.262936,0.001555,0.00196
3.375,0.264207,0.007144,0.00364
3.3774999999999977,0.262601,0.002798,0.001083
3.3799999999999955,0.265513,0.000506,0.002078
3.382499999999993,0.262853,0.001068,0.005405
3.384999999999991,0.262322,0.003401,0.005011
3.3874999999999886,0.26043,-0.000246,0.00368
3.3899999999999864,0.263105,0.000284,0.001868
3.392499999999984,0.262768,0.002857,0.004417
3.394999999999982,0.264125,0.000667,0.006019
3.397500000000008,0.262437,0.000536,0.006508
3.4000000000000057,0.26638,0.005498,0.002978
3.4025000000000034,0.263377,0.002631,0.004869
3.405000000000001,0.265149,0.003349,0.00348
3.407499999999999,0.263578,0.001673,0.006587
3.4099999999999966,0.262866,0.003865,0.00663
3.4124999999999943,0.265756,-0.000577,0.004881
3.414999999999992,0.266769,0.003339,0.004158
3.4174999999999898,0.265498,0.004225,0.004057
3.4199999999999875,0.266174,0.00115,0.002959
3.422499999999985,0.263872,0.00158,0.004587
3.424999999999983,0.266222,0.00255,0.00473
3.4274999999999807,0.269426,-0.000769,0.002683
3.430000000000007,0.265942,0.00091,0.003851
3.4325000000000045,0.265101,0.003586,0.00521
3.4350000000000023,0.268196,2.2e-05,0.006196
3.4375,0.270494,0.000738,0.007468
3.4399999999999977,0.268743,0.006298,0.00562
3.4424999999999955,0.276207,-0.002086,0.005082
3.444999999999993,0.2742,0.004108,0.005611
3.447499999999991,0.277717,0.002005,0.004742
3.4499999999999886,0.276937,0.000162,0.00615
3.4524999999999864,0.280108,0.001932,0.005575
3.454999999999984,0.27957,0.002982,0.003942
3.457499999999982,0.283562,-6.6e-05,0.003899
3.460000000000008,0.285269,0.003076,0.006882
3.4625000000000057,0.286017,0.005465,0.008968
3.4650000000000034,0.289785,0.002126,0.007627
3.467500000000001,0.289804,0.006232,0.007219
3.469999999999999,0.292128,0.006296,0.00676
3.4724999999999966,0.293916,0.002121,0.005331
3.4749999999999943,0.293302,0.006334,0.006778
3.477499999999992,0.295264,0.005176,0.005025
3.4799999999999898,0.293507,0.004254,0.008335
3.4824999999999875,0.299261,0.006602,0.006136
3.484999999999985,0.301393,0.009307,0.006009
3.487499999999983,0.300553,0.006849,0.007582
3.4899999999999807,0.303616,0.007255,0.004832
3.492500000000007,0.30937,0.007344,0.006028
3.4950000000000045,0.304782,0.008363,0.006332
3.4975000000000023,0.307444,0.008664,0.004752
3.5,0.303485,0.008395,0.007902
3.5024999999999977,0.30634,0.005236,0.006508
3.5049999999999955,0.304052,0.010208,0.005151
3.507499999999993,0.306749,0.0049,0.008491
3.509999999999991,0.306892,0.00876,0.006507
3.5124999999999886,0.310088,0.006551,0.008913
3.5149999999999864,0.307152,0.007751,0.005703
3.517499999999984,0.308139,0.008842,0.006688
3.519999999999982,0.310899,0.007425,0.005769
3.522500000000008,0.307437,0.008551,0.008919
3.5250000000000057,0.3062,0.011865,0.006212
3.5275000000000034,0.308653,0.011487,0.008459
3.530000000000001,0.30425,0.010514,0.004587
3.532499999999999,0.306966,0.007182,0.004021
3.5349999999999966,0.308476,0.009789,0.005717
3.5374999999999943,0.301439,0.008012,0.006496
3.539999999999992,0.301435,0.009207,0.008435
3.5424999999999898,0.301353,0.009593,0.004286
3.5449999999999875,0.299197,0.007626,0.006681
3.547499999999985,0.299535,0.012077,0.003525
3.549999999999983,0.301292,0.00947,0.00679
3.5524999999999807,0.295703,0.010534,0.006868
3.555000000000007,0.294629,0.012136,0.007729
3.5575000000000045,0.294835,0.007498,0.004529
3.5600000000000023,0.293615,0.009549,0.006039
3.5625,0.291731,0.006095,0.00613
3.5649999999999977,0.290627,0.007027,0.008001
3.5674999999999955,0.291435,0.008207,0.001498
3.569999999999993,0.28454,0.009335,0.003692
3.572499999999991,0.28564,0.009163,0.006657
3.5749999999999886,0.28523,0.006779,0.005888
3.5774999999999864,0.285035,0.007177,0.007
3.579999999999984,0.279693,0.004574,0.007137
3.582499999999982,0.277316,0.007943,0.008281
3.585000000000008,0.277916,0.009464,0.006543
3.5875000000000057,0.27843,0.010101,0.005702
3.5900000000000034,0.272273,0.008319,0.006541
3.592500000000001,0.272276,0.008013,0.005511
3.594999999999999,0.269926,0.005443,0.004909
3.5974999999999966,0.268716,0.004708,0.001877
3.5999999999999943,0.269543,0.008164,-0.000329
3.602499999999992,0.268724,0.003485,0.005815
3.6049999999999898,0.268529,0.003197,0.00427
3.607499999999988,0.267661,0.003723,0.00511
3.609999999999985,0.266138,0.003142,0.004234
3.612499999999983,0.270597,0.002637,0.00421
3.6149999999999807,0.267056,0.002135,0.005702
3.617500000000007,0.2694,0.002224,0.003809
3.620000000000005,0.270546,0.004549,0.005614
3.6225000000000014,0.269964,0.000683,0.004592
3.625,0.270016,0.003869,0.004791
3.6274999999999977,0.271196,0.005954,0.005279
3.629999999999996,0.273032,0.001804,0.003461
3.632499999999993,0.27241,0.00396,0.000765
3.634999999999991,0.274672,0.004936,0.004042
3.6374999999999886,0.275066,0.005565,0.007329
3.6399999999999855,0.277343,0.004079,0.002595
3.642499999999984,0.278301,0.004885,0.002471
3.644999999999982,0.279359,0.004611,0.006519
3.647500000000008,0.281035,0.001795,0.006972
3.6500000000000057,0.281123,0.003222,0.004453
3.6525000000000034,0.284978,0.00112,0.004046
3.655000000000001,0.28558,0.002652,0.006046
3.657499999999999,0.287134,0.001851,0.005537
3.6599999999999966,0.288761,0.00231,0.00849
3.6624999999999934,0.290301,0.002847,0.005997
3.664999999999992,0.292977,0.001495,0.00697
3.6674999999999898,0.29406,0.001839,0.006376
3.669999999999988,0.294426,0.000371,0.006373
3.672499999999985,0.297626,-0.001323,0.008867
3.674999999999983,0.295762,1.7e-05,0.004699
3.6774999999999807,0.296538,0.000567,0.008846
3.680000000000007,0.296731,0.001978,0.009479
3.682500000000005,0.291862,0.003285,0.009485
3.6850000000000014,0.293884,-0.00051,0.015058
3.6875,0.291047,0.00441,0.018094
3.6899999999999977,0.291867,0.006867,0.014589
3.692499999999996,0.286043,0.006448,0.017943
3.694999999999993,0.283191,0.007727,0.022046
3.697499999999991,0.278216,0.007626,0.024446
3.6999999999999886,0.271385,0.006659,0.030189
3.7024999999999855,0.266282,0.009643,0.030539
3.704999999999984,0.257818,0.007734,0.033321
3.707499999999982,0.253063,0.011798,0.035944
3.710000000000008,0.239979,0.011336,0.039376
3.7125000000000057,0.232274,0.008737,0.043202
3.7150000000000034,0.221993,0.009048,0.046922
3.717500000000001,0.21674,0.006071,0.050797
3.719999999999999,0.20235,0.009578,0.054016
3.7224999999999966,0.190488,0.013154,0.058762
3.7249999999999934,0.180463,0.01049,0.061572
3.727499999999992,0.169479,0.011272,0.062659
3.7299999999999898,0.157409,0.010126,0.062641
3.732499999999988,0.14495,0.010519,0.064496
3.734999999999985,0.132792,0.013218,0.064632
3.737499999999983,0.124685,0.009768,0.063405
3.7399999999999807,0.116286,0.008707,0.062042
3.742500000000007,0.104267,0.008697,0.063176
3.745000000000005,0.095847,0.006341,0.061796
3.7475000000000014,0.088795,0.008113,0.055768
3.75,0.078402,0.002323,0.054221
3.7524999999999977,0.072873,0.003473,0.047242
3.754999999999996,0.065599,0.003593,0.046524
3.757499999999993,0.058297,-0.002217,0.040384
3.759999999999991,0.052845,-0.000614,0.035691
3.7624999999999886,0.04934,0.000385,0.031356
3.7649999999999855,0.04312,0.001945,0.024935
3.767499999999984,0.03651,0.001547,0.020436
3.769999999999982,0.037179,0.002453,0.014306
3.772500000000008,0.036953,0.003893,0.011735
3.7750000000000057,0.026526,0.008643,0.012546
3.7775000000000034,0.02876,0.004465,0.011053
3.780000000000001,0.022929,0.004386,0.007359
3.782499999999999,0.023339,0.001445,0.002786
3.7849999999999966,0.021654,0.002042,-0.000422
3.7874999999999934,0.017148,0.003422,0.00428
3.789999999999992,0.013987,0.004145,0.000646
3.7924999999999898,0.013895,0.004778,-0.000988
3.794999999999988,0.011475,0.00238,0.002526
3.797499999999985,0.010387,0.005075,-0.000587
3.799999999999983,0.011445,0.005836,0.002501
3.8024999999999807,0.009125,0.003635,0.005744
3.805000000000007,0.008466,0.004532,0.005332
3.807500000000005,0.006425,0.006821,0.002862
3.8100000000000014,0.008024,0.004464,0.005009
3.8125,0.008159,0.002526,0.001944
3.8149999999999977,0.009883,0.004461,0.004392
3.817499999999996,0.007983,0.003994,0.006626
3.819999999999993,0.004577,0.003111,0.005042
3.822499999999991,0.003157,0.006535,0.006294
3.8249999999999886,0.008329,0.002826,0.007016
3.8274999999999855,0.006302,0.00298,0.010502
3.829999999999984,0.007135,0.004747,0.006542
3.832499999999982,0.007648,0.001698,0.003623
3.835000000000008,0.00672,0.001093,0.004064
3.8375000000000057,0.006648,0.005325,0.005858
3.8400000000000034,0.009104,0.007128,0.005541
3.842500000000001,0.009113,0.003017,0.005069
3.844999999999999,0.007793,0.000616,0.00371
3.8474999999999966,0.008649,0.004307,0.005434
3.8499999999999934,0.007332,0.007591,0.004598
3.852499999999992,0.006015,0.003301,0.005231
3.8549999999999898,0.009722,0.003435,0.007615
3.857499999999988,0.00576,0.002692,0.005444
3.859999999999985,0.003827,0.004611,0.004847
3.862499999999983,0.007199,0.001501,0.006323
3.8649999999999807,0.003649,0.002962,0.002671
3.867500000000007,0.003292,0.002835,0.005197
3.870000000000005,0.00599,0.002692,0.006954
3.8725000000000014,0.005393,0.002148,0.008195
3.875,0.00435,0.000986,0.007059
3.8774999999999977,0.004721,0.000436,0.007831
3.879999999999996,0.00682,0.001594,0.007967
3.882499999999993,0.002066,-0.000694,0.001436
3.884999999999991,0.004662,0.004236,0.007566
3.8874999999999886,0.003041,0.000345,0.005672
3.8899999999999855,0.001473,0.002559,0.003707
3.892499999999984,0.006119,-0.000718,0.002638
3.894999999999982,0.006079,0.001156,0.004793
3.897500000000008,0.003701,0.003494,0.006827
3.9000000000000057,0.003604,0.002217,0.004882
3.9025000000000034,0.00186,0.003765,0.005529
3.905000000000001,0.005525,0.001603,0.003055
3.907499999999999,0.002738,-0.000644,0.002021
3.9099999999999966,0.005948,0.003525,0.001547
3.9124999999999934,-3.7e-05,0.001853,0.003792
3.914999999999992,-0.001277,0.00116,0.002102
3.9174999999999898,-0.000843,0.003729,0.001471
3.919999999999988,-0.002521,0.003632,0.000509
3.922499999999985,-0.001501,0.001252,-0.000459
3.924999999999983,-0.000156,0.002544,-0.000651
3.9274999999999807,-0.005729,-0.000222,0.001673
3.930000000000007,-0.002991,0.005048,0.000336
3.932500000000005,-0.004703,-0.001866,-0.003169
3.9350000000000014,-0.005563,-0.001408,-4.5e-05
3.9375,-0.005035,0.001334,0.002182
3.9399999999999977,-0.005294,0.000676,-0.001012
3.942499999999996,-0.009258,0.003038,-0.000226
3.944999999999993,-0.00746,0.000349,-0.000206
3.947499999999991,-0.007385,0.002234,-0.000829
3.9499999999999886,-0.009559,0.000191,-0.003022
3.9524999999999855,-0.009802,0.001999,-0.001137
3.954999999999984,-0.006735,0.003485,-0.000469
3.957499999999982,-0.005592,0.000658,-0.001381
3.960000000000008,-0.009376,0.003763,-0.001569
3.9625000000000057,-0.007518,0.001652,-0.001219
3.9650000000000034,-0.006914,0.004969,-0.000437
3.967500000000001,-0.004429,0.003553,-0.00136
3.969999999999999,-0.004111,0.000306,-0.004038
3.9724999999999966,-0.006446,-0.001243,-0.000528
3.9749999999999934,-0.006329,0.002643,0.000951
3.977499999999992,-0.003441,0.001582,-0.000778
3.9799999999999898,-0.003612,0.001692,-0.002025
3.982499999999988,-0.000435,-0.000294,0.00105
3.984999999999985,-0.001274,0.000814,0.001084
3.987499999999983,-0.000477,0.001264,0.000501
3.9899999999999807,0.002695,0.003681,0.006536
3.992500000000007,0.001538,0.002457,0.003093
3.995000000000005,0.005732,0.000872,0.003809
3.9975000000000014,0.006879,0.007182,0.004446
4.0,0.007396,0.002693,0.006489
4.002499999999998,0.009642,0.005763,0.00624
4.004999999999996,0.008857,0.003228,0.003595
4.007499999999993,0.013474,0.002243,0.007579
4.009999999999991,0.013616,0.003385,0.007821
4.012499999999989,0.014501,-7.5e-05,0.009193
4.014999999999986,0.016052,0.001644,0.008047
4.017499999999984,0.017896,0.000567,0.010871
4.019999999999982,0.019344,0.002482,0.010977
4.022500000000008,0.021707,0.000214,0.011908
4.025000000000006,0.023737,0.001674,0.012679
4.027500000000003,0.022727,-0.001423,0.011442
4.030000000000001,0.025459,0.000537,0.010034
4.032499999999999,0.026097,0.005355,0.010594
4.034999999999997,0.029209,0.000574,0.013106
4.037499999999994,0.027731,0.00333,0.014213
4.039999999999992,0.026254,0.005317,0.014948
4.04249999999999,0.030435,0.002495,0.016914
4.044999999999988,0.026958,0.002959,0.015879
4.047499999999985,0.03119,0.001136,0.02181
4.049999999999983,0.031229,0.003811,0.018423
4.052499999999981,0.026386,0.003309,0.019822
4.055000000000007,0.027911,0.004589,0.015839
4.0575000000000045,0.030997,0.002598,0.019779
4.060000000000002,0.027634,0.005332,0.017457
4.0625,0.028551,0.001784,0.017813
4.064999999999998,0.027688,0.006293,0.020437
4.067499999999996,0.027209,-0.000294,0.017162
4.069999999999993,0.024473,0.003669,0.019582
4.072499999999991,0.027251,0.00328,0.019381
4.074999999999989,0.027124,0.004385,0.016811
4.077499999999986,0.027782,0.001223,0.017545
4.079999999999984,0.027788,0.001143,0.014256
4.082499999999982,0.028236,0.002019,0.018325
4.085000000000008,0.02343,0.003295,0.018578
4.087500000000006,0.022341,0.001637,0.013187
4.090000000000003,0.023691,0.000613,0.016101
4.092500000000001,0.025093,0.002127,0.017314
4.094999999999999,0.025242,0.002811,0.015011
4.097499999999997,0.020441,0.001369,0.014173
4.099999999999994,0.019703,0.002781,0.012464
4.102499999999992,0.020509,0.000668,0.014053
4.10499999999999,0.021295,0.004458,0.008496
4.107499999999988,0.016197,0.001585,0.010832
4.109999999999985,0.014938,0.000701,0.010961
4.112499999999983,0.016988,0.001343,0.012151
4.114999999999981,0.01475,0.00487,0.011454
4.117500000000007,0.012331,-0.001274,0.008933
4.1200000000000045,0.014845,0.002795,0.00742
4.122500000000002,0.011308,0.002223,0.007329
4.125,0.01049,0.005019,0.010335
4.127499999999998,0.010411,0.000199,0.007498
4.129999999999996,0.009254,0.000864,0.007067
4.132499999999993,0.008064,0.002911,0.005443
4.134999999999991,0.009114,-0.002304,0.003669
4.137499999999989,0.0066,0.000965,0.003398
4.139999999999986,0.004003,0.003558,0.00327
4.142499999999984,0.008854,0.002115,0.005911
4.144999999999982,0.006924,2.6e-05,0.003468
4.147500000000008,0.004209,-0.000811,0.00492
4.150000000000006,0.01037,0.000229,0.001358
4.152500000000003,0.003602,-0.001109,0.00402
4.155000000000001,0.002316,0.003935,0.003023
4.157499999999999,0.001212,-0.002794,0.001032
4.159999999999997,0.001701,0.001102,0.002461
4.162499999999994,-0.002278,0.002474,0.001092
4.164999999999992,0.001004,-0.001229,-0.00079
4.16749999999999,-0.002401,0.000479,-0.000195
4.169999999999988,-0.00246,0.001176,0.003091
4.172499999999985,0.000259,3.9e-05,0.001738
4.174999999999983,-4.8e-05,0.002632,0.000813
4.177499999999981,-0.002775,-0.000308,0.002272
4.180000000000007,-0.00037,0.003182,0.003379
4.1825000000000045,0.001412,-0.001208,0.000129
4.185000000000002,-0.003606,0.001868,0.002455
4.1875,-0.000806,0.004446,0.001707
4.189999999999998,-0.000988,0.000676,0.0042
4.192499999999996,0.001953,0.004236,0.003112
4.194999999999993,0.003264,0.005545,-0.000234
4.197499999999991,0.000385,-0.000353,6e-05
4.199999999999989,0.000901,0.001109,0.003024
4.202499999999986,0.002893,6.8e-05,0.0023
4.204999999999984,0.004176,-0.002204,0.000965
4.207499999999982,0.004045,0.002124,-0.00073
4.210000000000008,0.000539,0.003853,0.003924
4.212500000000006,0.004388,0.003523,0.002519
4.215000000000003,0.001212,0.004078,0.003033
4.217500000000001,0.000437,0.001536,0.001434
4.219999999999999,0.004037,0.000877,0.001601
4.222499999999997,0.001778,0.000793,0.001949
4.224999999999994,0.002141,0.003074,0.004737
4.227499999999992,0.004569,0.00113,0.003015
4.22999999999999,0.004631,0.000494,0.005195
4.232499999999988,0.007743,0.001948,0.005316
4.234999999999985,0.006015,-0.000171,0.002558
4.237499999999983,0.005624,-0.00093,0.004589
4.239999999999981,0.007281,0.005264,0.004951
4.242500000000007,0.003789,0.000467,0.005438
4.2450000000000045,0.00139,-0.012712,0.002963
4.247500000000002,0.003324,-0.00779,-0.000291
4.25,-0.003345,-0.00525,0.001092
4.252499999999998,-0.002062,0.002427,-0.000814
4.254999999999996,-0.004739,0.008059,0.001528
4.257499999999993,-0.001565,0.010855,0.000136
4.259999999999991,-0.001577,0.012336,0.001908
4.262499999999989,0.001099,0.005218,0.00414
4.264999999999986,0.003571,0.002012,0.001154
4.267499999999984,0.002704,-2.4e-05,0.001708
4.269999999999982,0.003082,-0.001287,-0.000168
4.272500000000008,0.002199,-0.001778,0.001898
4.275000000000006,0.00243,-0.000755,0.001183
4.277500000000003,0.005958,0.000366,0.003017
4.280000000000001,0.006638,0.000199,0.002941
4.282499999999999,0.007666,0.005399,0.003897
4.284999999999997,0.006149,-0.000407,0.003677
4.287499999999994,0.005891,0.003996,0.004319
4.289999999999992,0.006918,0.004347,0.005919
4.29249999999999,0.003351,0.000549,0.004946
4.294999999999988,0.006901,0.001874,0.006593
4.297499999999985,0.006037,-0.001317,0.003844
4.299999999999983,0.007992,0.002126,0.007615
4.302499999999981,0.006907,0.000734,0.004054
4.305000000000007,0.008998,0.0007,0.004718
4.3075000000000045,0.008155,0.003293,0.004156
4.310000000000002,0.007227,0.003396,0.006491
4.3125,0.008471,0.002419,0.00621
4.314999999999998,0.008326,0.002234,0.006496
4.317499999999996,0.00946,-0.00093,0.005551
4.319999999999993,0.009025,0.001822,0.004298
4.322499999999991,0.008468,0.001904,0.007757
4.324999999999989,0.009771,0.003756,0.003903
4.327499999999986,0.011928,0.001926,0.00468
4.329999999999984,0.00839,0.000473,0.007949
4.332499999999982,0.006802,-0.000456,0.004552
4.335000000000008,0.00662,0.001542,0.003196
4.337500000000006,0.006013,0.001348,0.006887
4.340000000000003,0.006691,-0.000817,0.006338
4.342500000000001,0.006697,0.000707,0.005492
4.344999999999999,0.008578,-0.002342,0.004435
4.347499999999997,0.009944,-0.002801,0.006067
4.349999999999994,0.008198,0.00424,0.004406
4.352499999999992,0.007959,-0.001946,0.0048
4.35499999999999,0.007788,0.001103,0.005069
4.357499999999988,0.00824,0.000507,0.007964
4.359999999999985,0.006283,-0.001827,0.004461
4.362499999999983,0.005429,0.003318,0.003948
4.364999999999981,0.005638,0.002223,0.003461
4.367500000000007,0.006311,-0.000598,0.003757
4.3700000000000045,0.005548,0.002175,0.001887
4.372500000000002,0.006618,-0.001372,0.001831
4.375,0.003655,0.001747,0.001917
4.377499999999998,0.003587,0.003202,0.004334
4.379999999999996,0.00011,0.001638,0.000889
4.382499999999993,0.001224,0.003459,0.003579
4.384999999999991,0.003257,0.003768,0.003604
4.387499999999989,0.002033,0.000829,0.002942
4.389999999999986,0.003285,0.000278,0.003275
4.392499999999984,0.004787,0.00117,0.001053
4.394999999999982,0.002057,0.001875,0.000186
4.397500000000008,0.003192,0.002837,0.001895
4.400000000000006,0.002957,-0.000268,0.002813
4.402500000000003,0.000339,0.001381,0.000637
4.405000000000001,0.000537,-0.000136,0.005766
4.407499999999999,0.002647,0.000899,0.002097
4.409999999999997,0.003063,0.000713,0.004091
4.412499999999994,0.002799,0.001217,0.002993
4.414999999999992,0.002711,-0.002265,0.003975
4.41749999999999,0.000731,-0.001588,0.002518
4.419999999999988,0.001926,-0.000173,0.003573
