time,Gyr_X,Gyr_Y,Gyr_Z
0.0,-0.003755,0.002294,0.010408
0.0025000000000119,-0.001548,0.000595,0.010365
0.0050000000000096,-0.002971,0.001543,0.010598
0.0075000000000073,-0.00523,-0.002126,0.009283
0.0100000000000051,-0.003098,0.004283,0.009442
0.0125000000000028,-0.002915,0.002021,0.009011
0.0150000000000005,0.000533,0.0022,0.0096
0.0175000000000125,0.002348,0.001901,0.008558
0.0200000000000102,-0.002509,0.001364,0.009351
0.0225000000000079,-0.000365,-6.1e-05,0.009713
0.0250000000000056,0.004072,0.000878,0.006298
0.0275000000000034,0.014891,-0.002035,0.011852
0.0300000000000011,0.010311,0.001208,0.009612
0.032500000000013,0.006004,0.006119,0.01309
0.0350000000000108,0.004841,-0.000589,0.010446
0.0375000000000085,0.010527,-0.000335,0.010086
0.0400000000000062,0.007861,0.001516,0.011916
0.0425000000000039,0.005578,0.002573,0.010737
0.0450000000000017,0.00151,-0.001036,0.013561
0.0475000000000136,0.001373,0.000419,0.007515
0.0500000000000113,-0.00346,-0.001018,0.008652
0.052500000000009,-0.006764,0.00379,0.007366
0.0550000000000068,-0.006233,0.001357,0.010311
0.0575000000000045,-0.010589,0.000573,0.011674
0.0600000000000022,-0.006075,0.004313,0.013237
0.0625,-0.004977,0.003836,0.00843
0.0650000000000119,-5.5e-05,0.001816,0.007474
0.0675000000000096,-0.001773,0.000996,0.007095
0.0700000000000073,0.000989,0.002363,0.008006
0.0725000000000051,0.002871,0.000758,0.008702
0.0750000000000028,0.003063,0.000896,0.00659
0.0775000000000005,-3e-06,-0.000645,0.008794
0.0800000000000125,0.002866,-0.001626,0.008626
0.0825000000000102,-3e-06,-0.002405,0.010174
0.0850000000000079,-0.001074,0.002446,0.009593
0.0875000000000056,0.000519,0.001683,0.010902
0.0900000000000034,0.00127,0.000695,0.011719
0.0925000000000011,0.001501,0.002273,0.009864
0.095000000000013,-0.000907,0.001109,0.01288
0.0975000000000108,-0.000766,0.005317,0.009441
0.1000000000000085,-0.001764,-0.001681,0.009254
0.1025000000000062,0.002252,0.001595,0.007945
0.1050000000000039,0.004868,0.001572,0.008838
0.1075000000000017,0.007682,0.002914,0.008085
0.1100000000000136,0.002664,0.002141,0.009543
0.1125000000000113,0.007694,-0.001022,0.010065
0.1150000000000091,0.004876,0.00172,0.00984
0.1175000000000068,0.009329,-0.000331,0.006846
0.1200000000000045,0.008292,0.000355,0.00741
0.1225000000000022,0.007728,0.000639,0.010083
0.125,0.010603,0.002236,0.006782
0.1275000000000119,0.007186,0.000442,0.011604
0.1300000000000096,0.010908,0.000439,0.00845
0.1325000000000074,0.00555,0.001755,0.009789
0.1350000000000051,0.003248,0.003331,0.011588
0.1375000000000028,0.001953,0.003006,0.012142
0.1400000000000005,0.003383,0.00122,0.009834
0.1425000000000125,-0.002174,-0.000244,0.009929
0.1450000000000102,0.000218,0.002975,0.009272
0.1475000000000079,-0.00086,-0.001274,0.007772
0.1500000000000056,-0.0047,0.001926,0.009497
0.1525000000000034,0.001337,0.000859,0.009549
0.1550000000000011,-0.002602,-0.003834,0.00887
0.157500000000013,-0.000228,0.003348,0.012066
0.1600000000000108,-0.004797,-0.000246,0.011051
0.1625000000000085,-0.000545,-3.4e-05,0.007155
0.1650000000000062,-0.002877,0.003124,0.01133
0.1675000000000039,0.000504,0.001626,0.007144
0.1700000000000017,0.000327,0.002112,0.010251
0.1725000000000136,0.002971,0.002391,0.010104
0.1750000000000113,0.000618,0.000683,0.007669
0.1775000000000091,0.001519,-0.001647,0.010038
0.1800000000000068,0.000826,0.002331,0.009733
0.1825000000000045,0.003847,0.004528,0.01139
0.1850000000000022,0.000546,0.001696,0.010089
0.1875,0.001057,0.000639,0.011156
0.1900000000000119,-0.000787,0.001418,0.013488
0.1925000000000096,0.00333,0.00037,0.008831
0.1950000000000074,0.004316,0.001695,0.010843
0.1975000000000051,0.001778,0.002404,0.009222
0.2000000000000028,0.003611,0.002518,0.009384
0.2025000000000005,0.007739,0.00108,0.011391
0.2050000000000125,0.003528,0.00434,0.014094
0.2075000000000102,0.000403,0.003087,0.008982
0.2100000000000079,0.003044,0.004304,0.009566
0.2125000000000056,0.006207,0.003549,0.011361
0.2150000000000034,0.009183,0.001089,0.006977
0.2175000000000011,0.009956,0.000798,0.009302
0.220000000000013,0.006519,0.004207,0.011315
0.2225000000000108,0.007846,0.004628,0.009478
0.2250000000000085,0.007532,0.005066,0.009818
0.2275000000000062,0.006855,0.002291,0.009633
0.2300000000000039,0.00552,0.001653,0.011616
0.2325000000000017,0.007572,0.000774,0.007477
0.2350000000000136,0.00707,0.001412,0.010014
0.2375000000000113,0.008699,-0.000592,0.010306
0.2400000000000091,0.007513,0.001635,0.010344
0.2425000000000068,0.004492,0.000707,0.010494
0.2450000000000045,0.007104,0.003127,0.010485
0.2475000000000022,0.005157,0.001413,0.007436
0.25,0.003814,0.001188,0.010545
0.2525000000000119,0.00399,0.003601,0.010236
0.2550000000000096,0.00389,0.000439,0.013939
0.2575000000000074,0.005133,0.001109,0.011111
0.2600000000000051,0.000761,-0.000894,0.010487
0.2625000000000028,0.005206,0.000807,0.012209
0.2650000000000005,0.004937,-0.000989,0.010078
0.2675000000000125,0.004635,0.00485,0.011259
0.2700000000000102,0.003365,-0.001366,0.009694
0.2725000000000079,0.006805,0.000397,0.010123
0.2750000000000057,0.00302,0.004115,0.008463
0.2775000000000034,0.003896,0.000811,0.009079
0.2800000000000011,0.001793,7.2e-05,0.008834
0.2825000000000131,0.001097,0.003431,0.010049
0.2850000000000108,-0.000528,0.001916,0.00874
0.2875000000000085,0.003592,0.000352,0.009472
0.2900000000000062,0.002086,0.001287,0.008439
0.292500000000004,0.004566,0.002418,0.007559
0.2950000000000017,0.002726,-6.3e-05,0.01139
0.2975000000000136,0.008065,0.000583,0.009703
0.3000000000000113,0.004707,0.001939,0.008596
0.3025000000000091,0.003209,0.007119,0.009152
0.3050000000000068,0.00388,-0.000383,0.010783
0.3075000000000045,0.005571,0.001173,0.009496
0.3100000000000023,0.00171,0.000273,0.012062
0.3125,0.003629,-0.000988,0.009064
0.3150000000000119,0.004422,0.000585,0.008822
0.3175000000000096,0.003288,-0.000489,0.009715
0.3200000000000074,0.003228,0.003337,0.009909
0.3225000000000051,0.005073,-0.000606,0.01066
0.3250000000000028,0.007191,0.001355,0.008357
0.3275000000000005,0.005368,0.001628,0.011272
0.3300000000000125,0.006487,0.001102,0.010293
0.3325000000000102,0.002483,-0.000209,0.009783
0.3350000000000079,0.005396,0.004066,0.009287
0.3375000000000057,0.003461,0.003249,0.010655
0.3400000000000034,0.006982,0.00295,0.007803
0.3425000000000011,0.004499,0.002492,0.009816
0.3450000000000131,0.005107,0.001071,0.008858
0.3475000000000108,0.002288,0.003772,0.010159
0.3500000000000085,0.006644,0.000536,0.00651
0.3525000000000062,0.003815,0.003194,0.011056
0.355000000000004,0.005042,0.002416,0.011555
0.3575000000000017,0.006177,0.000577,0.011641
0.3600000000000136,0.005881,-0.001656,0.01208
0.3625000000000113,0.006992,0.00105,0.011445
0.3650000000000091,0.003131,0.002579,0.009496
0.3675000000000068,0.009037,0.000589,0.011706
0.3700000000000045,0.00683,-0.000186,0.009251
0.3725000000000023,0.008038,0.001162,0.013415
0.375,0.009073,0.001631,0.009453
0.3775000000000119,0.010238,-0.000927,0.012027
0.3800000000000096,0.01063,0.001615,0.010806
0.3825000000000074,0.006398,0.000351,0.01139
0.3850000000000051,0.009791,-0.000542,0.00743
0.3875000000000028,0.01375,0.001981,0.011448
0.3900000000000005,0.012541,0.001514,0.008643
0.3925000000000125,0.010722,0.003921,0.011475
0.3950000000000102,0.011968,0.000816,0.010843
0.3975000000000079,0.011957,0.002486,0.010941
0.4000000000000057,0.011859,0.004739,0.010226
0.4025000000000034,0.011095,0.003252,0.010047
0.4050000000000011,0.012761,0.005705,0.011579
0.4075000000000131,0.0115,0.001148,0.010961
0.4100000000000108,0.013153,0.003087,0.009257
0.4125000000000085,0.011276,0.000965,0.010631
0.4150000000000062,0.016942,0.001545,0.011662
0.417500000000004,0.013288,0.003956,0.012816
0.4200000000000017,0.013079,0.002149,0.00718
0.4225000000000136,0.016066,-0.001144,0.010956
0.4250000000000113,0.011728,0.000607,0.009681
0.4275000000000091,0.009152,-0.000255,0.011697
0.4300000000000068,0.009502,-0.000404,0.011205
0.4325000000000045,0.010019,-0.000881,0.011929
0.4350000000000023,0.012536,0.001263,0.012267
0.4375,0.013865,0.002416,0.013781
0.4400000000000119,0.014161,-0.002213,0.013576
0.4425000000000096,0.013792,-0.000639,0.011998
0.4450000000000074,0.015011,-0.000933,0.01275
0.4475000000000051,0.014059,-0.00169,0.011932
0.4500000000000028,0.017773,0.000867,0.01149
0.4525000000000005,0.013217,-0.002401,0.009865
0.4550000000000125,0.017241,0.000303,0.013795
0.4575000000000102,0.016821,0.001063,0.012156
0.4600000000000079,0.014835,-0.001217,0.012054
0.4625000000000057,0.018854,-0.001025,0.010497
0.4650000000000034,0.02019,-0.002627,0.013255
0.4675000000000011,0.018615,-0.00166,0.014048
0.4700000000000131,0.018349,0.000248,0.012919
0.4725000000000108,0.019125,-0.003718,0.01275
0.4750000000000085,0.02142,-0.00148,0.012349
0.4775000000000062,0.020523,-0.002314,0.013173
0.480000000000004,0.019398,-0.006276,0.013697
0.4825000000000017,0.020614,-0.005047,0.013594
0.4850000000000136,0.021892,-0.001839,0.012489
0.4875000000000113,0.019551,-0.000653,0.010436
0.4900000000000091,0.020362,-0.000767,0.012787
0.4925000000000068,0.021473,-0.003339,0.014845
0.4950000000000045,0.020138,0.00057,0.012324
0.4975000000000023,0.019985,-0.001207,0.013605
0.5,0.022501,0.000302,0.015233
0.5025000000000119,0.01866,-0.001802,0.012273
0.5050000000000097,0.015689,-0.000674,0.014097
0.5075000000000074,0.020962,-0.001936,0.012437
0.5100000000000051,0.0209,-0.001307,0.013094
0.5125000000000028,0.0199,-0.005165,0.010837
0.5150000000000006,0.02091,-0.000493,0.014193
0.5175000000000125,0.021888,0.000831,0.01081
0.5200000000000102,0.021669,0.004115,0.011992
0.522500000000008,0.021096,0.000355,0.011662
0.5250000000000057,0.021537,0.001461,0.011847
0.5275000000000034,0.018881,0.002528,0.013091
0.5300000000000011,0.020628,0.003625,0.013683
0.5325000000000131,0.02384,0.003196,0.015686
0.5350000000000108,0.021774,-0.001076,0.010077
0.5375000000000085,0.022707,-0.000526,0.012133
0.5400000000000063,0.025392,0.003815,0.009961
0.542500000000004,0.025953,0.002087,0.011752
0.5450000000000017,0.025143,0.005458,0.010736
0.5475000000000136,0.026499,0.003958,0.010098
0.5500000000000114,0.02551,0.003339,0.011245
0.5525000000000091,0.027604,0.00075,0.010044
0.5550000000000068,0.029477,0.004081,0.011078
0.5575000000000045,0.027625,-3.6e-05,0.011437
0.5600000000000023,0.026991,0.002969,0.012619
0.5625,0.027878,0.000157,0.012589
0.5650000000000119,0.027993,0.002775,0.012477
0.5675000000000097,0.02616,0.002053,0.012953
0.5700000000000074,0.026848,0.002531,0.013382
0.5725000000000051,0.028867,0.000419,0.01378
0.5750000000000028,0.030712,-0.003222,0.015946
0.5775000000000006,0.028528,-0.001431,0.013023
0.5800000000000125,0.033125,-0.000195,0.014908
0.5825000000000102,0.031457,-0.002602,0.01859
0.585000000000008,0.035229,-0.00028,0.014284
0.5875000000000057,0.034416,-0.000772,0.013732
0.5900000000000034,0.034376,-0.000218,0.015239
0.5925000000000011,0.038273,-0.003354,0.019104
0.5950000000000131,0.039936,-0.002824,0.017219
0.5975000000000108,0.038596,-0.00228,0.017989
0.6000000000000085,0.043634,-0.001584,0.017375
0.6025000000000063,0.047568,0.000765,0.015744
0.605000000000004,0.051644,-0.000618,0.019234
0.6075000000000017,0.047725,-0.003748,0.018401
0.6100000000000136,0.052094,-0.002517,0.015973
0.6125000000000114,0.05048,0.000807,0.014596
0.6150000000000091,0.051584,-0.001575,0.018051
0.6175000000000068,0.051921,-0.004555,0.01696
0.6200000000000045,0.052512,-0.002064,0.018052
0.6225000000000023,0.049876,-0.000577,0.01623
0.625,0.0539,4e-06,0.017881
0.6275000000000119,0.050559,-0.004452,0.019864
0.6300000000000097,0.054974,-0.003982,0.018793
0.6325000000000074,0.055549,-0.001879,0.017863
0.6350000000000051,0.057656,-0.001073,0.020409
0.6375000000000028,0.05585,-0.004396,0.017972
0.6400000000000006,0.057413,0.000279,0.018059
0.6425000000000125,0.060002,-0.002302,0.016733
0.6450000000000102,0.066683,0.002342,0.015084
0.647500000000008,0.068373,0.001542,0.017273
0.6500000000000057,0.071671,-0.001086,0.017668
0.6525000000000034,0.072245,0.002421,0.020177
0.6550000000000011,0.078753,0.003707,0.016367
0.6575000000000131,0.084185,0.001726,0.015629
0.6600000000000108,0.087971,0.003448,0.015949
0.6625000000000085,0.091811,0.001826,0.01286
0.6650000000000063,0.096632,-0.000203,0.014313
0.667500000000004,0.101513,0.005696,0.012449
0.6700000000000017,0.10506,0.000975,0.016666
0.6725000000000136,0.108794,-0.000393,0.016392
0.6750000000000114,0.114427,0.003234,0.013297
0.6775000000000091,0.120901,0.002386,0.015029
0.6800000000000068,0.128577,-0.000924,0.012311
0.6825000000000045,0.130204,0.000363,0.014416
0.6850000000000023,0.134359,6.5e-05,0.019138
0.6875,0.139478,-0.001206,0.017989
0.6900000000000119,0.141612,-0.003563,0.020111
0.6925000000000097,0.147452,0.000346,0.021584
0.6950000000000074,0.148737,-0.003725,0.019772
0.6975000000000051,0.157293,-0.006326,0.019944
0.7000000000000028,0.158528,-0.003274,0.021357
0.7025000000000006,0.162486,-0.000876,0.023129
0.7050000000000125,0.164365,-0.001629,0.020088
0.7075000000000102,0.173225,-0.000189,0.022773
0.710000000000008,0.169229,-0.002907,0.023412
0.7125000000000057,0.171939,-0.00222,0.024042
0.7150000000000034,0.177238,-0.002348,0.02385
0.7175000000000011,0.180324,-0.006136,0.022627
0.7200000000000131,0.181199,-0.0025,0.020768
0.7225000000000108,0.184489,-0.001304,0.024482
0.7250000000000085,0.189369,-7e-05,0.021934
0.7275000000000063,0.192138,0.001151,0.018888
0.730000000000004,0.191123,0.00278,0.021137
0.7325000000000017,0.193582,0.000394,0.019259
0.7350000000000136,0.195175,-0.000122,0.018819
0.7375000000000114,0.196993,0.002248,0.019018
0.7400000000000091,0.202674,0.001638,0.0171
0.7425000000000068,0.208464,8.6e-05,0.017411
0.7450000000000045,0.208028,0.000245,0.017371
0.7475000000000023,0.210454,0.001053,0.016283
0.75,0.209752,4.5e-05,0.016674
0.7525000000000119,0.210696,0.006581,0.013561
0.7550000000000097,0.216126,0.004409,0.013571
0.7575000000000074,0.214849,0.004563,0.015248
0.7600000000000051,0.216243,0.003438,0.015671
0.7625000000000028,0.216939,0.003425,0.013543
0.7650000000000006,0.217516,0.005152,0.013981
0.7675000000000125,0.219227,0.002518,0.014671
0.7700000000000102,0.217999,0.00244,0.012649
0.772500000000008,0.219762,0.00765,0.014677
0.7750000000000057,0.217899,0.006246,0.010183
0.7775000000000034,0.222883,0.003449,0.012476
0.7800000000000011,0.219095,0.002457,0.012982
0.7825000000000131,0.221962,0.005081,0.013467
0.7850000000000108,0.224193,-0.000107,0.014289
0.7875000000000085,0.222216,0.00278,0.014011
0.7900000000000063,0.22335,5.7e-05,0.014118
0.792500000000004,0.223004,0.003114,0.01607
0.7950000000000017,0.219847,0.001533,0.015535
0.7975000000000136,0.223953,0.001354,0.014534
0.8000000000000114,0.21958,-0.002326,0.013895
0.8025000000000091,0.222353,0.001729,0.01358
0.8050000000000068,0.221815,0.003747,0.014543
0.8075000000000045,0.224925,0.003678,0.015638
0.8100000000000023,0.22391,0.002871,0.014754
0.8125,0.22485,0.003327,0.013668
0.8150000000000119,0.227945,0.003038,0.013087
0.8175000000000097,0.232632,0.008414,0.012583
0.8200000000000074,0.230833,0.005186,0.013243
0.8225000000000051,0.232286,0.006524,0.009931
0.8250000000000028,0.23207,0.002899,0.00966
0.8275000000000006,0.23753,0.008043,0.011519
0.8300000000000125,0.237186,0.004764,0.016579
0.8325000000000102,0.238185,0.005858,0.013722
0.835000000000008,0.241268,0.009456,0.011172
0.8375000000000057,0.242449,0.004693,0.013571
0.8400000000000034,0.244746,0.004291,0.009003
0.8425000000000011,0.244013,0.004259,0.012522
0.8450000000000131,0.250608,0.00625,0.011983
0.8475000000000108,0.249947,0.004563,0.013926
0.8500000000000085,0.251692,0.003432,0.014003
0.8525000000000063,0.252359,0.00393,0.012022
0.855000000000004,0.258508,0.003999,0.014288
0.8575000000000017,0.260359,0.002742,0.015639
0.8600000000000136,0.258454,0.001068,0.013413
0.8625000000000114,0.262331,0.00503,0.011726
0.8650000000000091,0.264756,0.006432,0.013209
0.8675000000000068,0.263908,0.003577,0.012604
0.8700000000000045,0.26711,0.000513,0.010673
0.8725000000000023,0.272418,0.004577,0.011689
0.875,0.275559,0.004786,0.010645
0.8775000000000119,0.274261,0.004009,0.012171
0.8800000000000097,0.276851,0.006405,0.014327
0.8825000000000074,0.276602,0.008913,0.010311
0.8850000000000051,0.279687,0.00492,0.01129
0.8875000000000028,0.281144,0.004243,0.013863
0.8900000000000006,0.283252,0.004939,0.015571
0.8925000000000125,0.289603,0.004534,0.010388
0.8950000000000102,0.294399,0.004492,0.01481
0.897500000000008,0.295556,0.005487,0.012813
0.9000000000000057,0.294732,0.002239,0.013482
0.9025000000000034,0.297894,0.000579,0.013294
0.9050000000000012,0.299013,0.004409,0.014176
0.9075000000000132,0.304072,0.002009,0.013959
0.9100000000000108,0.307199,0.004108,0.012691
0.9125000000000084,0.311784,0.002175,0.012571
0.9150000000000064,0.313955,0.00483,0.011904
0.917500000000004,0.315576,0.003351,0.009335
0.9200000000000016,0.315783,0.005855,0.016237
0.9225000000000136,0.321057,0.004397,0.013993
0.9250000000000114,0.323323,0.003947,0.010193
0.9275000000000092,0.32632,0.002652,0.011303
0.9300000000000068,0.325617,0.001502,0.012235
0.9325000000000044,0.330514,0.003066,0.011858
0.9350000000000024,0.328373,-0.00183,0.01458
0.9375,0.332064,0.001924,0.016964
0.940000000000012,0.333638,0.000582,0.014739
0.9425000000000096,0.336365,0.001977,0.015614
0.9450000000000074,0.337314,0.004698,0.018985
0.9475000000000052,0.337248,-0.002122,0.018772
0.9500000000000028,0.34131,0.001305,0.016315
0.9525000000000006,0.342085,-0.000618,0.016046
0.9550000000000124,0.340707,0.002573,0.013333
0.9575000000000102,0.344674,0.002036,0.017621
0.960000000000008,0.348466,0.003412,0.016657
0.9625000000000056,0.353601,0.0026,0.01866
0.9650000000000034,0.354462,0.00174,0.016884
0.9675000000000012,0.35303,0.001951,0.015736
0.9700000000000132,0.354408,0.002991,0.016699
0.9725000000000108,0.357633,0.001309,0.014985
0.9750000000000084,0.362655,0.003161,0.017128
0.9775000000000064,0.36278,0.002301,0.016784
0.980000000000004,0.364389,0.003659,0.018138
0.9825000000000016,0.366832,0.005116,0.014993
0.9850000000000136,0.371886,0.005739,0.019207
0.9875000000000114,0.371011,0.000199,0.018357
0.9900000000000092,0.376908,0.003428,0.017057
0.9925000000000068,0.376935,0.00344,0.015769
0.9950000000000044,0.375805,0.003345,0.012981
0.9975000000000024,0.3819,0.001849,0.016932
1.0,0.381821,-0.000128,0.014739
1.002500000000012,0.383654,0.005146,0.015568
1.0050000000000097,0.387489,0.000452,0.016444
1.0075000000000074,0.385103,0.001901,0.017118
1.0100000000000051,0.385238,0.004522,0.020622
1.0125000000000028,0.388736,0.000403,0.01714
1.0150000000000006,0.38755,0.001658,0.016952
1.0175000000000125,0.390441,0.003678,0.017663
1.0200000000000102,0.39051,0.003754,0.017979
1.022500000000008,0.389909,0.001661,0.013521
1.0250000000000057,0.388876,0.002833,0.016544
1.0275000000000034,0.390031,0.003672,0.015526
1.0300000000000011,0.387464,0.001811,0.013161
1.032500000000013,0.390752,0.00655,0.014991
1.0350000000000108,0.395498,0.003193,0.013655
1.0375000000000083,0.39543,0.010329,0.01367
1.0400000000000065,0.396804,0.005979,0.01338
1.042500000000004,0.399856,0.006773,0.013291
1.0450000000000017,0.399777,0.006557,0.015641
1.0475000000000136,0.402292,0.005598,0.013206
1.0500000000000114,0.404524,0.008652,0.011697
1.052500000000009,0.407431,0.003973,0.010224
1.0550000000000068,0.409576,0.00912,0.009502
1.0575000000000043,0.411931,0.006298,0.01149
1.0600000000000025,0.413015,0.010695,0.007493
1.0625,0.414061,0.005008,0.012889
1.065000000000012,0.418443,0.004553,0.013942
1.0675000000000097,0.419491,0.006113,0.013704
1.0700000000000074,0.423008,0.004026,0.012119
1.0725000000000051,0.423307,0.006912,0.015124
1.0750000000000028,0.426684,0.00348,0.015671
1.0775000000000006,0.429136,0.005821,0.013161
1.0800000000000125,0.427929,0.004751,0.015263
1.0825000000000102,0.432386,0.006898,0.014605
1.085000000000008,0.434493,0.004179,0.015081
1.0875000000000057,0.436077,0.003786,0.016355
1.0900000000000034,0.436138,0.005267,0.013431
1.0925000000000011,0.436387,0.005468,0.013965
1.095000000000013,0.437021,0.006229,0.013258
1.0975000000000108,0.439153,0.008775,0.013087
1.1000000000000083,0.437865,0.004995,0.01404
1.1025000000000065,0.437156,0.009119,0.01416
1.105000000000004,0.439683,0.008831,0.012762
1.1075000000000017,0.439679,0.004766,0.011677
1.1100000000000136,0.443088,0.007268,0.010941
1.1125000000000114,0.442124,0.007796,0.012796
1.115000000000009,0.445012,0.007137,0.0099
1.1175000000000068,0.444198,0.006414,0.009631
1.1200000000000043,0.447667,0.005817,0.0079
1.1225000000000025,0.453068,0.006361,0.010044
1.125,0.451458,0.011461,0.010776
1.127500000000012,0.456068,0.00903,0.005525
1.1300000000000097,0.456985,0.008235,0.01025
1.1325000000000074,0.460891,0.010372,0.008687
1.1350000000000051,0.459614,0.008727,0.007287
1.1375000000000028,0.461247,0.009891,0.007343
1.1400000000000006,0.46263,0.007503,0.009919
1.1425000000000125,0.465483,0.005951,0.008292
1.1450000000000102,0.46578,0.007337,0.009798
1.147500000000008,0.466389,0.007976,0.012644
1.1500000000000057,0.468867,0.008003,0.011162
1.1525000000000034,0.468894,0.003047,0.011756
1.1550000000000011,0.469407,0.006501,0.011504
1.157500000000013,0.471979,0.006496,0.012224
1.1600000000000108,0.472329,0.007658,0.013003
1.1625000000000083,0.475474,0.005408,0.014081
1.1650000000000065,0.476462,0.003003,0.011482
1.167500000000004,0.477686,0.004391,0.012913
1.1700000000000017,0.476533,0.003333,0.014635
1.1725000000000136,0.476106,0.005057,0.013956
1.1750000000000114,0.476325,0.005234,0.014829
1.177500000000009,0.480413,0.007045,0.015367
1.1800000000000068,0.479157,0.006523,0.014099
1.1825000000000043,0.48142,0.008599,0.01606
1.1850000000000025,0.482243,0.003656,0.017411
1.1875,0.484946,0.003893,0.016893
1.190000000000012,0.485089,0.004908,0.016045
1.1925000000000097,0.485589,0.00631,0.014403
1.1950000000000074,0.484037,0.009198,0.016711
1.1975000000000051,0.484266,0.006785,0.014915
1.2000000000000028,0.486813,0.0041,0.013656
1.2025000000000006,0.483493,0.00586,0.018387
1.2050000000000125,0.487197,0.008146,0.013819
1.2075000000000102,0.490377,0.006294,0.013121
1.210000000000008,0.487389,0.007764,0.012059
1.2125000000000057,0.487556,0.005849,0.013623
1.2150000000000034,0.491036,0.003127,0.011898
1.2175000000000011,0.48919,0.007246,0.013197
1.220000000000013,0.492198,0.007542,0.010855
1.2225000000000108,0.490389,0.008807,0.011007
1.2250000000000083,0.489049,0.004574,0.012896
1.2275000000000065,0.486187,0.006583,0.010645
1.230000000000004,0.487539,0.008122,0.010087
1.2325000000000017,0.487468,0.007365,0.012723
1.2350000000000136,0.485548,0.00888,0.015368
1.2375000000000114,0.485448,0.011469,0.012038
1.240000000000009,0.482369,0.007287,0.012485
1.2425000000000068,0.482858,0.007539,0.010497
1.2450000000000043,0.482632,0.006364,0.012287
1.2475000000000025,0.485002,0.007489,0.014626
1.25,0.484415,0.007971,0.014032
1.252500000000012,0.483108,0.008722,0.011758
1.2550000000000097,0.483545,0.010919,0.011822
1.2575000000000074,0.485433,0.009582,0.012171
1.2600000000000051,0.486621,0.007346,0.011977
1.2625000000000028,0.488362,0.008605,0.015905
1.2650000000000006,0.491237,0.007436,0.012126
1.2675000000000125,0.491596,0.008678,0.011062
1.2700000000000102,0.497691,0.009053,0.011241
1.272500000000008,0.497737,0.01087,0.012878
1.2750000000000057,0.498457,0.011192,0.01348
1.2775000000000034,0.507266,0.007353,0.012187
1.2800000000000011,0.5077,0.009482,0.008503
1.282500000000013,0.514299,0.008694,0.009773
1.2850000000000108,0.519317,0.010044,0.0135
1.2875000000000083,0.520099,0.012024,0.011479
1.2900000000000065,0.522655,0.010482,0.008921
1.292500000000004,0.530342,0.010196,0.011576
1.2950000000000017,0.53361,0.011604,0.009135
1.2975000000000136,0.53554,0.013217,0.01074
1.3000000000000114,0.539529,0.012247,0.006875
1.302500000000009,0.543552,0.012747,0.006423
1.3050000000000068,0.54707,0.00973,0.007438
1.3075000000000043,0.551624,0.008149,0.007636
1.3100000000000025,0.556629,0.010917,0.01219
1.3125,0.555406,0.010736,0.010297
1.315000000000012,0.561749,0.013357,0.013419
1.3175000000000097,0.566552,0.010518,0.009147
1.3200000000000074,0.56696,0.00999,0.01282
1.3225000000000051,0.569349,0.009657,0.01348
1.3250000000000028,0.571438,0.010998,0.012852
1.3275000000000006,0.577114,0.010503,0.013592
1.3300000000000125,0.577674,0.009949,0.014392
1.3325000000000102,0.580106,0.011086,0.011038
1.335000000000008,0.582459,0.008067,0.013674
1.3375000000000057,0.584214,0.009672,0.011744
1.3400000000000034,0.590516,0.008384,0.014704
1.3425000000000011,0.590646,0.006676,0.014871
1.345000000000013,0.589293,0.008924,0.014981
1.3475000000000108,0.592706,0.014364,0.012787
1.3500000000000083,0.596612,0.014677,0.012141
1.3525000000000065,0.595952,0.011087,0.010998
1.355000000000004,0.601143,0.013233,0.010071
1.3575000000000017,0.60462,0.013115,0.012303
1.3600000000000136,0.605803,0.013474,0.010138
1.3625000000000114,0.605511,0.011533,0.010387
1.365000000000009,0.603756,0.015794,0.010367
1.3675000000000068,0.608022,0.013515,0.01171
1.3700000000000043,0.610443,0.013072,0.010512
1.3725000000000025,0.61418,0.015586,0.011916
1.375,0.615267,0.010624,0.01367
1.377500000000012,0.61154,0.012165,0.012644
1.3800000000000097,0.61317,0.013573,0.015246
1.3825000000000074,0.616109,0.011275,0.012661
1.3850000000000051,0.617438,0.012795,0.01181
1.3875000000000028,0.613695,0.012489,0.010663
1.3900000000000006,0.614327,0.015406,0.013146
1.3925000000000125,0.614104,0.014034,0.013575
1.3950000000000102,0.613097,0.010618,0.011107
1.397500000000008,0.611308,0.007845,0.008982
1.4000000000000057,0.609942,0.011228,0.012255
1.4025000000000034,0.613494,0.015058,0.01061
1.4050000000000011,0.607603,0.012887,0.011174
1.407500000000013,0.602765,0.012957,0.012376
1.4100000000000108,0.60385,0.015062,0.011706
1.4125000000000083,0.60421,0.013006,0.013415
1.4150000000000065,0.598791,0.015771,0.013775
1.417500000000004,0.596451,0.010332,0.01721
1.4200000000000017,0.592169,0.012142,0.01436
1.4225000000000136,0.593164,0.015136,0.017432
1.4250000000000114,0.588556,0.018483,0.016341
1.427500000000009,0.583052,0.015277,0.017411
1.4300000000000068,0.578644,0.015671,0.017961
1.4325000000000043,0.570547,0.018913,0.015504
1.4350000000000025,0.571952,0.020019,0.019247
1.4375,0.56771,0.018757,0.019174
1.440000000000012,0.561317,0.021899,0.021244
1.4425000000000097,0.556392,0.020277,0.021044
1.4450000000000074,0.549924,0.018593,0.019271
1.4475000000000051,0.544731,0.015182,0.022858
1.4500000000000028,0.541186,0.018539,0.020582
1.4525000000000006,0.535248,0.019243,0.02358
1.4550000000000125,0.527298,0.018077,0.020339
1.4575000000000102,0.519689,0.019129,0.024132
1.460000000000008,0.512191,0.016209,0.023491
1.4625000000000057,0.508852,0.019871,0.020603
1.4650000000000034,0.500874,0.017055,0.023311
1.4675000000000011,0.494308,0.020596,0.022162
1.470000000000013,0.492381,0.016927,0.023591
1.4725000000000108,0.483895,0.01741,0.019998
1.4750000000000083,0.479423,0.018362,0.020099
1.4775000000000065,0.472617,0.021547,0.018795
1.480000000000004,0.46627,0.019296,0.020089
1.4825000000000017,0.462607,0.020779,0.018964
1.4850000000000136,0.457997,0.01783,0.018051
1.4875000000000114,0.455653,0.01828,0.018363
1.490000000000009,0.455103,0.020843,0.017164
1.4925000000000068,0.453358,0.019536,0.015467
1.4950000000000043,0.448461,0.020117,0.016303
1.4975000000000025,0.44303,0.019407,0.01275
1.5,0.446316,0.018381,0.014704
1.502500000000012,0.443257,0.015818,0.011731
1.5050000000000097,0.43853,0.015759,0.010408
1.5075000000000074,0.438836,0.018128,0.012153
1.5100000000000051,0.436656,0.021343,0.010741
1.5125000000000028,0.435654,0.015772,0.010454
1.5150000000000006,0.432863,0.016417,0.011673
1.5175000000000125,0.432216,0.01026,0.014129
1.5200000000000102,0.432067,0.013191,0.013971
1.522500000000008,0.432077,0.01581,0.012018
1.5250000000000057,0.428762,0.011747,0.012597
1.5275000000000034,0.428854,0.01145,0.013839
1.5300000000000011,0.428037,0.015413,0.013434
1.532500000000013,0.426624,0.017295,0.01343
1.5350000000000108,0.429134,0.015962,0.01556
1.5375000000000083,0.432598,0.010871,0.016832
1.5400000000000065,0.428232,0.011308,0.016163
1.542500000000004,0.428148,0.010914,0.013763
1.5450000000000017,0.430624,0.013598,0.01206
1.5475000000000136,0.42867,0.00943,0.013404
1.5500000000000114,0.431376,0.011804,0.014884
1.552500000000009,0.431741,0.009062,0.011974
1.5550000000000068,0.429932,0.014346,0.015072
1.5575000000000043,0.43691,0.012542,0.017793
1.5600000000000025,0.434236,0.013772,0.015857
1.5625,0.439852,0.015142,0.014266
1.565000000000012,0.439865,0.011472,0.012042
1.5675000000000097,0.44257,0.010937,0.014695
1.5700000000000074,0.442376,0.010277,0.014194
1.5725000000000051,0.444471,0.011725,0.015245
1.5750000000000028,0.444249,0.010709,0.018355
1.5775000000000006,0.450749,0.010877,0.015786
1.5800000000000125,0.450917,0.013661,0.017842
1.5825000000000102,0.451373,0.012325,0.014579
1.585000000000008,0.452868,0.008876,0.018317
1.5875000000000057,0.458978,0.010058,0.017828
1.5900000000000034,0.458116,0.012813,0.020406
1.5925000000000011,0.459949,0.011969,0.017525
1.595000000000013,0.461454,0.010961,0.016709
1.5975000000000108,0.464942,0.007505,0.019721
1.6000000000000083,0.468718,0.011506,0.019286
1.6025000000000065,0.468426,0.011597,0.019764
1.605000000000004,0.47001,0.008228,0.018076
1.6075000000000017,0.474202,0.008147,0.02171
1.6100000000000136,0.475442,0.0097,0.019813
1.6125000000000114,0.471136,0.010504,0.019751
1.615000000000009,0.476546,0.008636,0.024747
1.6175000000000068,0.479893,0.008068,0.020415
1.6200000000000043,0.478586,0.007503,0.023641
1.6225000000000025,0.480747,0.011314,0.022613
1.625,0.479459,0.010958,0.021449
1.627500000000012,0.478423,0.006773,0.021119
1.6300000000000097,0.478882,0.008962,0.022238
1.6325000000000074,0.481331,0.009499,0.020976
1.6350000000000051,0.482161,0.007553,0.023075
1.6375000000000028,0.482682,0.008901,0.021986
1.6400000000000006,0.483938,0.007556,0.024541
1.6425000000000125,0.482363,0.011907,0.020758
1.6450000000000102,0.483052,0.013054,0.017775
1.647500000000008,0.48481,0.012378,0.019269
1.6500000000000057,0.485086,0.012901,0.019176
1.6525000000000034,0.485957,0.00945,0.017453
1.6550000000000011,0.490033,0.009673,0.016039
1.657500000000013,0.48758,0.010213,0.012838
1.6600000000000108,0.489178,0.012798,0.014564
1.6625000000000083,0.488889,0.016086,0.015789
1.6650000000000065,0.489081,0.013381,0.016354
1.667500000000004,0.49305,0.011867,0.01596
1.6700000000000017,0.493535,0.011852,0.016063
1.6725000000000136,0.492523,0.011925,0.015455
1.6750000000000114,0.496248,0.012272,0.018751
1.677500000000009,0.499789,0.016134,0.017179
1.6800000000000068,0.499173,0.009669,0.014383
1.6825000000000043,0.496627,0.010645,0.013917
1.6850000000000025,0.499218,0.009366,0.013273
1.6875,0.505211,0.007879,0.017459
1.690000000000012,0.500781,0.008579,0.013762
1.6925000000000097,0.503921,0.012333,0.012205
1.6950000000000074,0.504487,0.011203,0.016304
1.6975000000000051,0.506003,0.012714,0.012939
1.7000000000000028,0.508706,0.00748,0.012898
1.7025000000000006,0.508715,0.012492,0.011522
1.7050000000000125,0.509963,0.011202,0.013166
1.7075000000000102,0.507837,0.012971,0.017171
1.710000000000008,0.514519,0.00902,0.012737
1.7125000000000057,0.515062,0.011069,0.010324
1.7150000000000034,0.516429,0.01136,0.013793
1.7175000000000011,0.514912,0.012165,0.016428
1.720000000000013,0.517782,0.014732,0.010373
1.7225000000000108,0.521066,0.014361,0.009517
1.7250000000000083,0.526736,0.013816,0.010829
1.7275000000000065,0.521661,0.013459,0.013169
1.730000000000004,0.523796,0.011138,0.009409
1.7325000000000017,0.526571,0.013246,0.009938
1.7350000000000136,0.52883,0.014708,0.01059
1.7375000000000114,0.528281,0.012278,0.006851
1.740000000000009,0.531717,0.009143,0.011367
1.7425000000000068,0.53468,0.013467,0.01039
1.7450000000000043,0.534812,0.012658,0.009508
1.7475000000000025,0.53478,0.013552,0.010432
1.75,0.537022,0.013528,0.011606
1.752500000000012,0.538301,0.013813,0.010668
1.7550000000000097,0.540578,0.015258,0.01004
1.7575000000000074,0.541487,0.014391,0.00925
1.7600000000000051,0.543273,0.01486,0.01374
1.7625000000000028,0.545397,0.013579,0.011543
1.7650000000000006,0.548629,0.011694,0.011338
1.7675000000000125,0.549509,0.011339,0.008696
1.7700000000000102,0.547638,0.009564,0.01187
1.772500000000008,0.551411,0.012475,0.011873
1.7750000000000057,0.549591,0.012707,0.011889
1.7775000000000034,0.552494,0.016209,0.013535
1.7800000000000011,0.554129,0.012655,0.009579
1.782500000000013,0.559894,0.012638,0.010719
1.7850000000000108,0.556902,0.011951,0.011965
1.7875000000000083,0.559898,0.014539,0.013553
1.7900000000000065,0.562482,0.011394,0.012752
1.792500000000004,0.564321,0.015398,0.011822
1.7950000000000017,0.564752,0.012908,0.010421
1.7975000000000136,0.565291,0.013199,0.010514
1.8000000000000114,0.569498,0.007867,0.011224
1.802500000000009,0.572398,0.012163,0.012966
1.8050000000000068,0.572709,0.012208,0.012066
1.8075000000000043,0.57436,0.013607,0.012042
1.8100000000000025,0.578756,0.0136,0.013735
1.8125,0.578853,0.014556,0.009333
1.815000000000012,0.578939,0.012169,0.012573
1.8175000000000097,0.585189,0.014571,0.014042
1.8200000000000076,0.584476,0.012787,0.010356
1.822500000000005,0.584981,0.01723,0.014116
1.8250000000000028,0.584276,0.011408,0.012957
1.8275000000000008,0.5884,0.011154,0.007472
1.8300000000000125,0.591486,0.01469,0.014367
1.8325000000000105,0.59299,0.009001,0.011837
1.835000000000008,0.593018,0.01296,0.010674
1.8375000000000057,0.59095,0.013588,0.013429
1.8400000000000036,0.593404,0.011287,0.01098
1.8425000000000007,0.597995,0.011335,0.009622
1.845000000000013,0.597104,0.014388,0.013179
1.8475000000000108,0.598489,0.016537,0.011978
1.8500000000000083,0.60033,0.014108,0.00942
1.8525000000000065,0.603532,0.011007,0.012413
1.855000000000004,0.605247,0.014732,0.012688
1.8575000000000017,0.605993,0.01191,0.011152
1.8600000000000136,0.611008,0.010244,0.011819
1.8625000000000116,0.611098,0.012197,0.009477
1.865000000000009,0.617924,0.016281,0.012423
1.8675000000000068,0.618886,0.016794,0.010648
1.8700000000000043,0.622832,0.013601,0.010424
1.8725000000000025,0.622398,0.015203,0.010132
1.875,0.629216,0.014956,0.012275
1.877500000000012,0.63028,0.013376,0.010627
1.8800000000000097,0.633258,0.012731,0.009946
1.8825000000000076,0.638319,0.014352,0.012485
1.885000000000005,0.638566,0.014817,0.010527
1.8875000000000028,0.63952,0.013112,0.01005
1.8900000000000008,0.642086,0.015015,0.010138
1.8925000000000125,0.650182,0.016966,0.009421
1.8950000000000105,0.647871,0.016146,0.0105
1.897500000000008,0.653864,0.012577,0.008311
1.9000000000000057,0.652256,0.016352,0.01035
1.9025000000000036,0.660437,0.011001,0.010944
1.9050000000000007,0.664183,0.014887,0.012781
1.907500000000013,0.66748,0.019046,0.011203
1.9100000000000108,0.668926,0.015265,0.010098
1.9125000000000083,0.674603,0.015543,0.009236
1.9150000000000065,0.677661,0.014817,0.012024
1.917500000000004,0.680732,0.014185,0.010005
1.9200000000000017,0.685331,0.012522,0.012743
1.9225000000000136,0.688938,0.017034,0.011549
1.9250000000000116,0.6903,0.017028,0.012548
1.927500000000009,0.692537,0.015783,0.010466
1.9300000000000068,0.693787,0.014041,0.011053
1.9325000000000043,0.702457,0.016768,0.01194
1.9350000000000025,0.70624,0.018506,0.014263
1.9375,0.709622,0.01312,0.011943
1.940000000000012,0.711706,0.015255,0.010955
1.9425000000000097,0.714398,0.016133,0.010558
1.9450000000000076,0.717905,0.014851,0.009862
1.947500000000005,0.719299,0.016767,0.011285
1.9500000000000028,0.723263,0.017454,0.009132
1.9525000000000008,0.728636,0.01361,0.011662
1.9550000000000125,0.732598,0.014187,0.010528
1.9575000000000105,0.734777,0.01599,0.010068
1.960000000000008,0.740125,0.014415,0.010661
1.9625000000000057,0.741085,0.016018,0.011603
1.9650000000000036,0.747643,0.011181,0.013644
1.9675000000000007,0.753755,0.013364,0.009317
1.970000000000013,0.75457,0.016513,0.00829
1.9725000000000108,0.753719,0.018667,0.009949
1.9750000000000083,0.760394,0.018001,0.009959
1.9775000000000065,0.763028,0.014354,0.00992
1.980000000000004,0.759924,0.015496,0.009344
1.9825000000000017,0.768284,0.014108,0.012233
1.9850000000000136,0.768294,0.017621,0.011622
1.9875000000000116,0.772422,0.01398,0.011189
1.990000000000009,0.771942,0.012884,0.009648
1.9925000000000068,0.770251,0.016201,0.013698
1.9950000000000043,0.773985,0.017054,0.010914
1.9975000000000025,0.77414,0.017212,0.011929
2.0,0.777804,0.018884,0.014336
2.002500000000012,0.776362,0.01583,0.010736
2.0050000000000097,0.782152,0.020321,0.010649
2.0075000000000074,0.785332,0.01697,0.008804
2.010000000000005,0.784921,0.020013,0.008378
2.012500000000003,0.787724,0.022622,0.01381
2.015000000000001,0.792351,0.017702,0.012799
2.0175000000000125,0.796322,0.018609,0.008974
2.0200000000000102,0.798594,0.01748,0.010028
2.022500000000008,0.800815,0.016955,0.008129
2.0250000000000057,0.80512,0.018052,0.00846
2.0275000000000034,0.80886,0.019094,0.005133
2.030000000000001,0.813798,0.019916,0.00724
2.032500000000013,0.818474,0.017535,0.010411
2.035000000000011,0.820512,0.020651,0.011503
2.0375000000000085,0.823216,0.019934,0.008356
2.0400000000000063,0.826008,0.020889,0.007061
2.042500000000004,0.831724,0.016966,0.006398
2.0450000000000017,0.835822,0.020132,0.010667
2.0475000000000136,0.840015,0.015625,0.008338
2.050000000000012,0.843866,0.018881,0.00575
2.052500000000009,0.846733,0.020728,0.009351
2.055000000000007,0.848165,0.018706,0.010356
2.0575000000000045,0.853328,0.019186,0.008624
2.0600000000000023,0.853776,0.017857,0.010213
2.0625,0.858534,0.018885,0.011181
2.065000000000012,0.859116,0.019921,0.008143
2.0675000000000097,0.868104,0.017465,0.00755
2.0700000000000074,0.865986,0.0186,0.008718
2.072500000000005,0.867124,0.018893,0.010625
2.075000000000003,0.872572,0.02111,0.00989
2.077500000000001,0.876554,0.018508,0.009935
2.0800000000000125,0.876897,0.020079,0.007429
2.0825000000000102,0.882796,0.018251,0.008272
2.085000000000008,0.882418,0.01946,0.010359
2.0875000000000057,0.886039,0.017285,0.010427
2.0900000000000034,0.886341,0.020099,0.009727
2.092500000000001,0.892448,0.020138,0.009749
2.095000000000013,0.894922,0.017286,0.010831
2.097500000000011,0.897194,0.018778,0.008627
2.1000000000000085,0.899277,0.01952,0.009065
2.1025000000000063,0.902046,0.015796,0.009348
2.105000000000004,0.906637,0.014307,0.009362
2.1075000000000017,0.910475,0.017437,0.010497
2.1100000000000136,0.911851,0.018982,0.012059
2.112500000000012,0.915067,0.018917,0.012131
2.115000000000009,0.918818,0.016827,0.011911
2.117500000000007,0.91585,0.018466,0.01147
2.1200000000000045,0.92687,0.017835,0.010158
2.1225000000000023,0.924758,0.017742,0.00932
2.125,0.925762,0.014934,0.008285
2.127500000000012,0.930129,0.017669,0.009016
2.1300000000000097,0.928404,0.018986,0.00947
2.1325000000000074,0.928455,0.019816,0.009567
2.135000000000005,0.929555,0.018712,0.008404
2.137500000000003,0.928419,0.01717,0.006957
2.140000000000001,0.93036,0.017843,0.008101
2.1425000000000125,0.929845,0.017417,0.008381
2.1450000000000102,0.929872,0.021537,0.008208
2.147500000000008,0.929845,0.02202,0.0051
2.1500000000000057,0.930029,0.018882,0.008752
2.1525000000000034,0.926922,0.019635,0.008489
2.155000000000001,0.931094,0.019526,0.006244
2.157500000000013,0.930211,0.018301,0.011308
2.160000000000011,0.931337,0.019185,0.008348
2.1625000000000085,0.928012,0.02102,0.011408
2.1650000000000063,0.9314,0.020628,0.008751
2.167500000000004,0.929053,0.019511,0.01094
2.1700000000000017,0.934983,0.019731,0.009152
2.1725000000000136,0.93504,0.016923,0.008089
2.175000000000012,0.934991,0.018872,0.01019
2.177500000000009,0.934719,0.015944,0.008753
2.180000000000007,0.939157,0.018147,0.010376
2.1825000000000045,0.941565,0.019399,0.012483
2.1850000000000023,0.937636,0.019487,0.012364
2.1875,0.937902,0.019269,0.010591
2.190000000000012,0.939111,0.016076,0.010488
2.1925000000000097,0.938728,0.016352,0.012068
2.1950000000000074,0.941071,0.015411,0.011538
2.197500000000005,0.938945,0.01867,0.011415
2.200000000000003,0.940535,0.012881,0.014178
2.202500000000001,0.945902,0.014402,0.012845
2.2050000000000125,0.942452,0.016087,0.011351
2.2075000000000102,0.941427,0.014059,0.008211
2.210000000000008,0.941348,0.013561,0.010765
2.2125000000000057,0.937825,0.013714,0.013388
2.2150000000000034,0.938294,0.014973,0.013154
2.217500000000001,0.932756,0.011948,0.010961
2.220000000000013,0.933715,0.01416,0.011564
2.222500000000011,0.93488,0.016516,0.009138
2.2250000000000085,0.931604,0.014647,0.009909
2.2275000000000063,0.930248,0.01208,0.012762
2.230000000000004,0.927932,0.013372,0.010946
2.2325000000000017,0.922092,0.013108,0.013631
2.2350000000000136,0.918,0.013224,0.009092
2.237500000000012,0.917044,0.013963,0.008606
2.240000000000009,0.91087,0.01381,0.009794
2.242500000000007,0.91132,0.010262,0.007754
2.2450000000000045,0.90197,0.01281,0.003674
2.2475000000000023,0.897459,0.015634,0.007021
2.25,0.892687,0.013615,0.008744
2.252500000000012,0.889645,0.010162,0.007173
2.2550000000000097,0.884564,0.015361,0.00511
2.2575000000000074,0.874531,0.017115,0.006691
2.260000000000005,0.869388,0.017171,0.004565
2.262500000000003,0.868077,0.013752,0.006186
2.265000000000001,0.859354,0.01762,0.008958
2.2675000000000125,0.851067,0.012537,0.004039
2.2700000000000102,0.849048,0.013749,0.00458
2.272500000000008,0.842694,0.013819,0.006355
2.2750000000000057,0.834654,0.016463,0.004971
2.2775000000000034,0.827921,0.018553,0.009507
2.280000000000001,0.819113,0.009917,0.005617
2.282500000000013,0.812524,0.012652,0.00558
2.285000000000011,0.805301,0.010396,0.008748
2.2875000000000085,0.797562,0.01163,0.008457
2.2900000000000063,0.788499,0.009757,0.00938
2.292500000000004,0.784786,0.0089,0.009855
2.2950000000000017,0.774685,0.008661,0.008304
2.2975000000000136,0.766973,0.008892,0.007162
2.300000000000012,0.754509,0.012795,0.005729
2.302500000000009,0.74671,0.009201,0.011189
2.305000000000007,0.738242,0.007529,0.008792
2.3075000000000045,0.733175,0.011907,0.008021
2.3100000000000023,0.715455,0.007813,0.006766
2.3125,0.709292,0.009181,0.008912
2.315000000000012,0.695672,0.004948,0.00447
2.3175000000000097,0.676967,0.009312,0.008404
2.3200000000000074,0.668479,0.009852,0.009311
2.322500000000005,0.655022,0.008211,0.008085
2.325000000000003,0.637425,0.012235,0.006516
2.327500000000001,0.618937,0.011077,0.007739
2.3300000000000125,0.605533,0.012612,0.007582
2.3325000000000102,0.590266,0.011066,0.00503
2.335000000000008,0.567491,0.013284,0.007928
2.3375000000000057,0.551809,0.011054,0.005599
2.3400000000000034,0.531898,0.013077,0.006569
2.342500000000001,0.51275,0.011709,0.006517
2.345000000000013,0.490169,0.011846,0.005897
2.347500000000011,0.470322,0.013033,0.005973
2.3500000000000085,0.447581,0.012884,0.003114
2.3525000000000063,0.427737,0.015921,0.007521
2.355000000000004,0.40041,0.016255,0.004149
2.3575000000000017,0.376177,0.0117,0.006889
2.3600000000000136,0.357018,0.013495,0.007691
2.362500000000012,0.333685,0.015622,0.00669
2.365000000000009,0.309329,0.013711,0.011609
2.367500000000007,0.28756,0.014039,0.006553
2.3700000000000045,0.260256,0.015374,0.007503
2.3725000000000023,0.241517,0.017425,0.007688
2.375,0.221013,0.013199,0.006268
2.377500000000012,0.195172,0.011664,0.007509
2.3800000000000097,0.171929,0.011908,0.008138
2.3825000000000074,0.152298,0.014458,0.006507
2.385000000000005,0.129367,0.010177,0.006803
2.387500000000003,0.111891,0.008584,0.008815
2.390000000000001,0.087764,0.00888,0.008091
2.3925000000000125,0.069026,0.007767,0.008108
2.3950000000000102,0.050911,0.004271,0.010101
2.397500000000008,0.036756,0.004757,0.010272
2.4000000000000057,0.016024,0.002877,0.01258
2.4025000000000034,-0.003366,0.001765,0.012664
2.405000000000001,-0.011995,0.001956,0.012056
2.407500000000013,-0.029851,-0.001471,0.009308
2.410000000000011,-0.045452,-0.003041,0.009509
2.4125000000000085,-0.055464,-0.00276,0.011236
2.4150000000000063,-0.070198,-0.003088,0.00863
2.417500000000004,-0.079058,-0.002845,0.015339
2.4200000000000017,-0.089709,-0.001606,0.012184
2.4225000000000136,-0.093977,-0.005542,0.015049
2.425000000000012,-0.099352,-0.002079,0.011028
2.427500000000009,-0.105795,-0.003719,0.012951
2.430000000000007,-0.112715,-0.003575,0.014626
2.4325000000000045,-0.117645,-0.003938,0.012166
2.4350000000000023,-0.12214,-0.007689,0.010227
2.4375,-0.125482,-0.00316,0.011341
2.440000000000012,-0.123797,-0.004043,0.01147
2.4425000000000097,-0.125745,-0.004661,0.011834
2.4450000000000074,-0.12922,-0.002277,0.008661
2.447500000000005,-0.131293,-0.005305,0.011768
2.450000000000003,-0.129819,-0.002913,0.009162
2.452500000000001,-0.129573,-0.004356,0.011372
2.4550000000000125,-0.128718,-0.001886,0.011366
2.4575000000000102,-0.125983,-0.003116,0.010862
2.460000000000008,-0.125077,-0.004177,0.012485
2.4625000000000057,-0.121276,-0.001326,0.007691
2.4650000000000034,-0.117654,0.002099,0.010107
2.467500000000001,-0.114569,-0.003093,0.01077
2.470000000000013,-0.110751,0.000621,0.009961
2.472500000000011,-0.10433,0.004622,0.00765
2.4750000000000085,-0.096793,0.004094,0.011221
2.4775000000000063,-0.090384,0.000731,0.011418
2.480000000000004,-0.084399,0.002452,0.011446
2.4825000000000017,-0.076245,0.004124,0.008421
2.4850000000000136,-0.071053,0.007137,0.013057
2.487500000000012,-0.059469,0.0062,0.010017
2.490000000000009,-0.050467,0.00302,0.011065
2.492500000000007,-0.038457,0.002114,0.010148
2.4950000000000045,-0.025821,0.005663,0.010519
2.4975000000000023,-0.013924,0.005469,0.010375
2.5,-0.002581,0.002237,0.010835
2.502500000000012,0.005863,0.006386,0.00946
2.5050000000000097,0.023925,0.004439,0.010532
2.5075000000000074,0.036827,0.004651,0.013908
2.510000000000005,0.048154,0.003045,0.010826
2.512500000000003,0.059386,0.003146,0.008855
2.515000000000001,0.078178,0.002424,0.007444
2.5175000000000125,0.091291,0.002586,0.011382
2.5200000000000102,0.106718,0.003473,0.008789
2.522500000000008,0.119566,0.003368,0.011086
2.5250000000000057,0.13581,0.004479,0.009877
2.5275000000000034,0.144877,0.009985,0.009457
2.530000000000001,0.158731,0.007752,0.009751
2.532500000000013,0.172774,0.009165,0.008073
2.535000000000011,0.183273,0.006387,0.00765
2.5375000000000085,0.195255,0.011598,0.010147
2.5400000000000063,0.202828,0.010366,0.009286
2.542500000000004,0.216738,0.012467,0.009429
2.5450000000000017,0.223701,0.0128,0.010902
2.5475000000000136,0.231386,0.015689,0.007438
2.550000000000012,0.236934,0.014139,0.007253
2.552500000000009,0.246776,0.011837,0.005011
2.555000000000007,0.253605,0.014771,0.007439
2.5575000000000045,0.263066,0.016884,0.007425
2.5600000000000023,0.262012,0.019277,0.00554
2.5625,0.269552,0.020226,0.009679
2.565000000000012,0.278571,0.021061,0.009762
2.5675000000000097,0.281822,0.025532,0.007129
2.5700000000000074,0.285908,0.025409,0.005383
2.572500000000005,0.288721,0.027706,0.007444
2.575000000000003,0.294176,0.032314,0.009318
2.577500000000001,0.299587,0.035537,0.011181
2.5800000000000125,0.302622,0.036722,0.006963
2.5825000000000102,0.307719,0.036798,0.00988
2.585000000000008,0.312439,0.045612,0.011014
2.5875000000000057,0.312353,0.046171,0.009715
2.5900000000000034,0.318956,0.050753,0.014516
2.592500000000001,0.322384,0.057601,0.012589
2.595000000000013,0.325055,0.059115,0.015479
2.597500000000011,0.331064,0.062658,0.020148
2.6000000000000085,0.334674,0.064504,0.022656
2.6025000000000063,0.337834,0.069145,0.02004
2.605000000000004,0.340647,0.070337,0.020737
2.6075000000000017,0.348944,0.072845,0.022721
2.6100000000000136,0.352023,0.077794,0.021072
2.612500000000012,0.359038,0.077499,0.024105
2.615000000000009,0.36004,0.075328,0.025014
2.617500000000007,0.360879,0.082181,0.026322
2.6200000000000045,0.366306,0.083333,0.027654
2.6225000000000023,0.369632,0.083587,0.025103
2.625,0.372753,0.085109,0.02412
2.627500000000012,0.372628,0.080625,0.022743
2.6300000000000097,0.374205,0.081999,0.021406
2.6325000000000074,0.375117,0.081668,0.020825
2.635000000000005,0.378964,0.080945,0.022335
2.637500000000003,0.377726,0.081786,0.019737
2.640000000000001,0.384016,0.080772,0.016002
2.6425000000000125,0.381858,0.073984,0.014838
2.6450000000000102,0.382455,0.074167,0.013622
2.647500000000008,0.382922,0.07559,0.010238
2.6500000000000057,0.379612,0.072505,0.009521
2.6525000000000034,0.379311,0.07037,0.008405
2.655000000000001,0.377458,0.069263,0.006691
2.657500000000013,0.379296,0.066537,0.006407
2.660000000000011,0.376853,0.064889,0.001552
2.6625000000000085,0.37793,0.063934,0.003431
2.6650000000000063,0.374018,0.061829,0.000656
2.667500000000004,0.375014,0.061253,-0.000708
2.6700000000000017,0.36984,0.056251,-0.006032
2.6725000000000136,0.366724,0.056224,-0.006405
2.675000000000012,0.367227,0.05324,-0.011002
2.677500000000009,0.362171,0.050297,-0.008644
2.680000000000007,0.360103,0.04926,-0.009149
2.6825000000000045,0.359989,0.045153,-0.010815
2.6850000000000023,0.348286,0.043973,-0.002709
2.6875,0.33811,0.036356,-0.001313
2.690000000000012,0.336393,0.034139,-0.003764
2.6925000000000097,0.337473,0.036725,-0.011253
2.6950000000000074,0.329363,0.041401,-0.01981
2.697500000000005,0.319458,0.042801,-0.020161
2.700000000000003,0.312682,0.033903,-0.020275
2.702500000000001,0.315886,0.024133,-0.018233
2.7050000000000125,0.31021,0.025129,-0.013888
2.7075000000000102,0.306121,0.019839,-0.015643
2.710000000000008,0.307902,0.020682,-0.020908
2.7125000000000057,0.307084,0.018159,-0.025631
2.7150000000000034,0.304122,0.018089,-0.027338
2.717500000000001,0.29972,0.014108,-0.028647
2.720000000000013,0.294413,0.015465,-0.031367
2.722500000000011,0.292868,0.01194,-0.034516
2.7250000000000085,0.29005,0.013872,-0.032789
2.7275000000000063,0.285067,0.008512,-0.036286
2.730000000000004,0.282004,0.01233,-0.036171
2.7325000000000017,0.283369,0.010518,-0.036448
2.7350000000000136,0.274733,0.010046,-0.038144
2.737500000000012,0.271448,0.011911,-0.038232
2.740000000000009,0.268198,0.012993,-0.039324
2.742500000000007,0.264671,0.013942,-0.041485
2.7450000000000045,0.258534,0.015941,-0.038518
2.7475000000000023,0.259727,0.014157,-0.041427
2.75,0.254125,0.01894,-0.041644
2.752500000000012,0.252926,0.020329,-0.042182
2.7550000000000097,0.254402,0.023069,-0.045879
2.7575000000000074,0.250775,0.023109,-0.044626
2.760000000000005,0.248269,0.025158,-0.044723
2.762500000000003,0.246774,0.025051,-0.043984
2.765000000000001,0.24691,0.024492,-0.048627
2.7675000000000125,0.246655,0.027709,-0.04769
2.7700000000000102,0.242586,0.029351,-0.052995
2.772500000000008,0.246289,0.029691,-0.050761
2.7750000000000057,0.246801,0.029593,-0.052185
2.7775000000000034,0.244249,0.028755,-0.054474
2.780000000000001,0.245285,0.030087,-0.052203
2.782500000000013,0.245392,0.031216,-0.05428
2.785000000000011,0.247148,0.033209,-0.053754
2.7875000000000085,0.245101,0.03644,-0.054953
2.7900000000000063,0.248875,0.035246,-0.05556
2.792500000000004,0.249831,0.039048,-0.054643
2.7950000000000017,0.249892,0.038009,-0.05544
2.7975000000000136,0.252704,0.041036,-0.055887
2.800000000000012,0.250123,0.041107,-0.056581
2.802500000000009,0.25909,0.041295,-0.05196
2.805000000000007,0.258657,0.041205,-0.050992
2.8075000000000045,0.264134,0.041694,-0.053681
2.8100000000000023,0.26531,0.038908,-0.050744
2.8125,0.268554,0.043125,-0.049028
2.815000000000012,0.271947,0.038249,-0.050752
2.8175000000000097,0.279556,0.039873,-0.053145
2.8200000000000074,0.279132,0.039563,-0.049198
2.822500000000005,0.284543,0.040702,-0.047997
2.825000000000003,0.288161,0.040592,-0.048959
2.827500000000001,0.297405,0.042051,-0.047317
2.8300000000000125,0.299241,0.03463,-0.045753
2.8325000000000102,0.304986,0.035169,-0.04193
2.835000000000008,0.309686,0.038163,-0.042962
2.8375000000000057,0.310973,0.035442,-0.042801
2.8400000000000034,0.321264,0.037508,-0.043446
2.842500000000001,0.324864,0.036258,-0.040269
2.845000000000013,0.330228,0.035296,-0.038439
2.847500000000011,0.339409,0.036681,-0.040403
2.8500000000000085,0.349382,0.037107,-0.037973
2.8525000000000063,0.35791,0.03859,-0.035834
2.855000000000004,0.36424,0.038625,-0.032631
2.8575000000000017,0.374592,0.034481,-0.035727
2.8600000000000136,0.380385,0.037622,-0.033222
2.862500000000012,0.390688,0.03683,-0.033951
2.865000000000009,0.402237,0.036024,-0.031807
2.867500000000007,0.413745,0.035235,-0.031537
2.8700000000000045,0.421824,0.037073,-0.029263
2.8725000000000023,0.430196,0.036029,-0.028421
2.875,0.443352,0.036222,-0.029205
2.877500000000012,0.452929,0.03724,-0.031194
2.8800000000000097,0.46029,0.033458,-0.027749
2.8825000000000074,0.468574,0.034409,-0.025389
2.885000000000005,0.476155,0.035087,-0.023882
2.887500000000003,0.486376,0.031319,-0.026807
2.890000000000001,0.494684,0.03032,-0.020181
2.8925000000000125,0.505718,0.026416,-0.024399
2.8950000000000102,0.518338,0.027821,-0.022782
2.897500000000008,0.523391,0.02357,-0.02133
2.9000000000000057,0.530715,0.020046,-0.021243
2.9025000000000034,0.538508,0.020381,-0.020504
2.905000000000001,0.546181,0.017443,-0.018626
2.907500000000013,0.555044,0.019964,-0.018279
2.910000000000011,0.558444,0.016814,-0.014803
2.9125000000000085,0.56519,0.013568,-0.011992
2.9150000000000063,0.575566,0.014489,-0.014271
2.917500000000004,0.576464,0.011554,-0.009517
2.9200000000000017,0.58114,0.006678,-0.00985
2.9225000000000136,0.589562,0.005483,-0.008233
2.925000000000012,0.593817,0.002324,-0.007059
2.927500000000009,0.597709,-0.001331,-0.009748
2.930000000000007,0.597497,-0.001426,-0.001425
2.9325000000000045,0.601546,-0.007656,0.002649
2.9350000000000023,0.603006,-0.012094,0.000962
2.9375,0.608865,-0.014426,0.0049
2.940000000000012,0.611127,-0.014365,0.005666
2.9425000000000097,0.610735,-0.011428,0.007532
2.9450000000000074,0.615034,-0.015317,0.010727
2.947500000000005,0.615601,-0.018869,0.011379
2.950000000000003,0.613631,-0.017934,0.01085
2.952500000000001,0.617691,-0.019711,0.01772
2.9550000000000125,0.62247,-0.019525,0.021147
2.9575000000000102,0.618082,-0.023192,0.023543
2.960000000000008,0.619183,-0.023374,0.025288
2.9625000000000057,0.621768,-0.020267,0.026237
2.9650000000000034,0.620784,-0.024422,0.028162
2.967500000000001,0.621646,-0.025214,0.03256
2.970000000000013,0.622758,-0.021964,0.030414
2.972500000000011,0.626703,-0.02117,0.030907
2.9750000000000085,0.626397,-0.020728,0.034641
2.9775000000000063,0.627452,-0.020118,0.034647
2.980000000000004,0.629608,-0.016539,0.03539
2.9825000000000017,0.63084,-0.011384,0.035993
2.9850000000000136,0.632928,-0.012219,0.036166
2.987500000000012,0.632808,-0.008686,0.034856
2.990000000000009,0.637335,-0.007878,0.0334
2.992500000000007,0.639852,-0.003511,0.032612
2.9950000000000045,0.643606,-0.00546,0.034329
2.9975000000000023,0.644647,-0.002025,0.031913
3.0,0.649072,-0.001051,0.03356
3.002500000000012,0.651043,0.003793,0.032326
3.0050000000000097,0.656095,0.002461,0.032578
3.0075000000000074,0.658589,0.006508,0.03304
3.010000000000005,0.664128,0.005778,0.031527
3.012500000000003,0.668728,0.004772,0.032265
3.015000000000001,0.677694,0.008833,0.029001
3.0175000000000125,0.678352,0.011937,0.028072
3.0200000000000102,0.683663,0.002982,0.03108
3.022500000000008,0.692908,0.005873,0.028803
3.0250000000000057,0.693255,0.008015,0.029201
3.0275000000000034,0.700005,0.007986,0.026951
3.030000000000001,0.708721,0.005282,0.028101
3.032500000000013,0.711676,0.005031,0.026166
3.035000000000011,0.719089,0.003675,0.023923
3.0375000000000085,0.720402,0.003225,0.026145
3.0400000000000063,0.730048,0.005301,0.022379
3.042500000000004,0.736124,0.001896,0.025164
3.0450000000000017,0.738979,0.002,0.024683
3.0475000000000136,0.747857,0.001425,0.020859
3.050000000000012,0.751839,0.000826,0.01603
3.052500000000009,0.756928,0.001864,0.018345
3.055000000000007,0.761678,0.001665,0.017042
3.0575000000000045,0.764252,0.001086,0.015012
3.0600000000000023,0.770278,-0.0021,0.014134
3.0625,0.779151,0.000808,0.013008
3.065000000000012,0.778784,4.5e-05,0.011189
3.0675000000000097,0.783181,0.000753,0.010405
3.0700000000000074,0.784787,-0.003977,0.008129
3.072500000000005,0.790494,-0.005254,0.005745
3.075000000000003,0.7895,-0.009163,0.006807
3.077500000000001,0.788633,-0.007722,0.002248
3.0800000000000125,0.794058,-0.009917,0.000481
3.0825000000000102,0.791439,-0.01183,0.003985
3.085000000000008,0.791718,-0.015171,6.3e-05
3.0875000000000057,0.789636,-0.016886,-0.000712
3.0900000000000034,0.788819,-0.018896,-0.003812
3.092500000000001,0.787342,-0.022145,-0.004141
3.095000000000013,0.782617,-0.023114,-0.005613
3.097500000000011,0.781802,-0.020869,-0.007002
3.1000000000000085,0.781693,-0.024398,-0.009827
3.1025000000000063,0.776097,-0.028341,-0.007921
3.105000000000004,0.77766,-0.03047,-0.009568
3.1075000000000017,0.770251,-0.031182,-0.006291
3.1100000000000136,0.76708,-0.032482,-0.009881
3.112500000000012,0.769682,-0.034004,-0.005762
3.115000000000009,0.767503,-0.033282,-0.00523
3.117500000000007,0.763083,-0.035635,-0.006057
3.1200000000000045,0.762496,-0.032493,-0.002559
3.1225000000000023,0.760528,-0.035426,-3.3e-05
3.125,0.752651,-0.036657,0.000732
3.127500000000012,0.750073,-0.036123,0.000774
3.1300000000000097,0.750864,-0.035897,0.001486
3.1325000000000074,0.749474,-0.033161,0.004669
3.135000000000005,0.7546,-0.032967,0.004748
3.137500000000003,0.74682,-0.031458,0.007246
3.140000000000001,0.746875,-0.027153,0.008348
3.1425000000000125,0.746177,-0.026092,0.013158
3.1450000000000102,0.745675,-0.028436,0.007127
3.147500000000008,0.744579,-0.024855,0.012823
3.1500000000000057,0.744798,-0.022449,0.010305
3.1525000000000034,0.742316,-0.019695,0.010113
3.155000000000001,0.741198,-0.016345,0.010931
3.157500000000013,0.734132,-0.015487,0.009798
3.160000000000011,0.736851,-0.011805,0.011853
3.1625000000000085,0.731727,-0.012229,0.009278
3.1650000000000063,0.731897,-0.010353,0.008995
3.167500000000004,0.7251,-0.00805,0.007942
3.1700000000000017,0.723326,-0.004216,0.009631
3.1725000000000136,0.722175,-0.000843,0.004477
3.175000000000012,0.717992,-0.004172,0.004321
3.177500000000009,0.713652,-0.00249,0.005949
3.180000000000007,0.712351,-0.001198,0.00254
3.1825000000000045,0.707794,-0.001584,0.001266
3.1850000000000023,0.703662,0.001199,0.000425
3.1875,0.700141,-0.001588,3.1e-05
3.190000000000012,0.6984,0.003009,-0.001988
3.1925000000000097,0.69575,-0.000954,-0.006536
3.1950000000000074,0.689475,-0.00087,-0.004305
3.197500000000005,0.690886,-0.001854,-0.006627
3.200000000000003,0.684863,-0.000952,-0.00674
3.202500000000001,0.679331,-0.004397,-0.006431
3.2050000000000125,0.67756,0.000492,-0.009803
3.2075000000000102,0.669269,-0.000313,-0.00705
3.210000000000008,0.669373,-0.000773,-0.010154
3.2125000000000057,0.663241,-0.002655,-0.007914
3.2150000000000034,0.660261,-0.005093,-0.008366
3.217500000000001,0.659739,-0.003505,-0.006725
3.220000000000013,0.655194,-0.003894,-0.008971
3.222500000000011,0.654888,-0.006172,-0.007132
3.2250000000000085,0.652795,-0.008152,-0.006013
3.2275000000000063,0.648463,-0.009251,-0.002997
3.230000000000004,0.652327,-0.007236,-0.004055
3.2325000000000017,0.648847,-0.014308,0.000728
3.2350000000000136,0.6473,-0.01051,0.001325
3.237500000000012,0.648288,-0.015104,0.004264
3.240000000000009,0.64339,-0.012997,0.006505
3.242500000000007,0.644934,-0.017412,0.007861
3.2450000000000045,0.639813,-0.018859,0.011859
3.2475000000000023,0.639265,-0.019343,0.013656
3.25,0.633355,-0.021729,0.014264
3.252500000000012,0.629607,-0.021678,0.017942
3.2550000000000097,0.629488,-0.026275,0.022214
3.2575000000000074,0.629678,-0.027122,0.026161
3.260000000000005,0.622044,-0.027826,0.030715
3.262500000000003,0.619154,-0.027242,0.031862
3.265000000000001,0.615639,-0.027114,0.033299
3.2675000000000125,0.616738,-0.027247,0.0365
3.2700000000000102,0.611817,-0.022312,0.037723
3.272500000000008,0.610343,-0.028147,0.037654
3.2750000000000057,0.60055,-0.026198,0.040475
3.2775000000000034,0.597563,-0.024782,0.042108
3.280000000000001,0.593044,-0.022714,0.045249
3.282500000000013,0.593615,-0.020286,0.045363
3.285000000000011,0.587283,-0.020045,0.047232
3.2875000000000085,0.583986,-0.017884,0.051368
3.2900000000000063,0.579723,-0.014612,0.052895
3.292500000000004,0.57526,-0.012888,0.052986
3.2950000000000017,0.570846,-0.014965,0.054442
3.2975000000000136,0.563788,-0.010927,0.057781
3.300000000000012,0.558185,-0.006275,0.060198
3.302500000000009,0.55465,-0.004667,0.058857
3.305000000000007,0.551803,-0.002682,0.061858
3.3075000000000045,0.549495,-0.003496,0.064661
3.3100000000000023,0.543884,0.000722,0.066849
3.3125,0.53915,0.005189,0.065089
3.315000000000012,0.533802,0.00338,0.069129
3.3175000000000097,0.525887,0.005256,0.070257
3.3200000000000074,0.518728,0.005148,0.070787
3.322500000000005,0.514621,0.0035,0.075
3.325000000000003,0.509089,0.003455,0.074559
3.327500000000001,0.502896,0.003172,0.078053
3.3300000000000125,0.49764,0.005104,0.075696
3.3325000000000102,0.494195,0.001586,0.078858
3.335000000000008,0.488213,0.000539,0.081111
3.3375000000000057,0.479389,0.000647,0.083565
3.3400000000000034,0.473631,-0.000863,0.085045
3.342500000000001,0.463166,-0.001851,0.081681
3.345000000000013,0.455336,-0.006114,0.086793
3.347500000000011,0.449523,-0.007524,0.086907
3.3500000000000085,0.440984,-0.008497,0.083504
3.3525000000000063,0.434474,-0.007559,0.083857
3.355000000000004,0.424311,-0.008512,0.089032
3.3575000000000017,0.416597,-0.013539,0.088602
3.3600000000000136,0.406239,-0.013636,0.086341
3.362500000000012,0.395291,-0.013988,0.083899
3.365000000000009,0.386462,-0.013877,0.083894
3.367500000000007,0.378842,-0.015628,0.085617
3.3700000000000045,0.366142,-0.013283,0.082358
3.3725000000000023,0.356362,-0.016144,0.08089
3.375,0.345566,-0.015485,0.081859
3.377500000000012,0.338163,-0.016531,0.076289
3.3800000000000097,0.324961,-0.012253,0.071404
3.3825000000000074,0.314509,-0.013408,0.069756
3.385000000000005,0.307346,-0.01349,0.066667
3.387500000000003,0.29586,-0.011605,0.06588
3.390000000000001,0.284033,-0.009392,0.061233
3.3925000000000125,0.275493,-0.010134,0.058918
3.3950000000000102,0.266184,-0.009304,0.050762
3.397500000000008,0.255827,-0.009747,0.048713
3.4000000000000057,0.244256,-0.012001,0.044981
3.4025000000000034,0.233521,-0.008038,0.042746
3.405000000000001,0.225935,-0.00824,0.040922
3.407500000000013,0.213324,-0.00748,0.037644
3.410000000000011,0.205214,-0.00618,0.034551
3.4125000000000085,0.19668,-0.008011,0.030042
3.4150000000000063,0.185076,-0.003438,0.031572
3.417500000000004,0.175376,-0.007552,0.025352
3.4200000000000017,0.166919,-0.005741,0.025087
3.4225000000000136,0.158428,-0.007212,0.023771
3.425000000000012,0.150281,-0.004232,0.020839
3.427500000000009,0.135554,-0.003567,0.017648
3.430000000000007,0.127301,-0.004469,0.016961
3.4325000000000045,0.116967,-0.003229,0.018441
3.4350000000000023,0.113785,-0.002085,0.012422
3.4375,0.10412,-0.003102,0.01342
3.440000000000012,0.092784,-0.003321,0.011604
3.4425000000000097,0.084507,-0.001654,0.012391
3.4450000000000074,0.078011,-0.002222,0.008995
3.447500000000005,0.066296,0.001284,0.009771
3.450000000000003,0.061318,-3.4e-05,0.011487
3.452500000000001,0.050369,0.0039,0.008549
3.4550000000000125,0.045734,0.005048,0.010092
3.4575000000000102,0.035616,0.005261,0.006912
3.460000000000008,0.030243,0.005131,0.010336
3.4625000000000057,0.022664,0.00642,0.005043
3.4650000000000034,0.020052,0.007188,0.00302
3.467500000000001,0.012337,0.005779,0.002035
3.470000000000013,0.009195,0.006335,0.00435
3.472500000000011,0.003327,0.001244,0.003372
3.4750000000000085,-0.003242,0.004897,0.001105
3.4775000000000063,-0.006454,0.003872,0.002632
3.480000000000004,-0.008222,0.001615,0.001165
3.4825000000000017,-0.014177,0.003169,0.002386
3.4850000000000136,-0.016318,0.005928,0.002643
3.487500000000012,-0.021949,0.003921,0.002221
3.490000000000009,-0.025432,0.002408,0.005764
3.492500000000007,-0.026014,0.002474,0.003203
3.4950000000000045,-0.0255,0.00608,0.002027
3.4975000000000023,-0.030392,0.005984,0.007138
3.5,-0.03109,0.002947,0.005663
3.502500000000012,-0.031957,0.001412,0.004814
3.5050000000000097,-0.034635,0.001999,0.004791
3.5075000000000074,-0.033219,0.003207,0.007331
3.510000000000005,-0.031734,0.000924,0.006092
3.512500000000003,-0.031251,0.003254,0.007949
3.515000000000001,-0.031796,0.004323,0.002696
3.5175000000000125,-0.029124,0.003778,0.00765
3.5200000000000102,-0.02825,0.001437,0.009368
3.522500000000008,-0.023271,0.003128,0.010546
3.5250000000000057,-0.020739,0.005669,0.009284
3.5275000000000034,-0.020163,0.002048,0.007955
3.530000000000001,-0.01404,-0.000933,0.010171
3.532500000000013,-0.011478,0.004346,0.010497
3.535000000000011,-0.006299,0.003303,0.011799
3.5375000000000085,-0.001051,0.001819,0.010013
3.5400000000000063,0.003262,0.001259,0.011002
3.542500000000004,0.00921,-0.001444,0.009694
3.5450000000000017,0.013571,0.002696,0.009706
3.5475000000000136,0.019046,0.002486,0.009907
3.550000000000012,0.025818,0.004642,0.009202
3.552500000000009,0.031049,0.00555,0.006592
3.555000000000007,0.041152,0.003471,0.0094
3.5575000000000045,0.044831,0.006338,0.008021
3.5600000000000023,0.048938,0.005526,0.006171
3.5625,0.058689,0.003425,0.008278
3.565000000000012,0.061517,0.001618,0.005818
3.5675000000000097,0.066426,0.008436,0.009405
3.5700000000000074,0.073942,0.004555,0.008371
3.572500000000005,0.077323,0.006294,0.008128
3.575000000000003,0.081906,0.007526,0.007758
3.577500000000001,0.088286,0.006583,0.007103
3.5800000000000125,0.097025,0.007548,0.009631
3.5825000000000102,0.102704,0.007396,0.006961
3.585000000000008,0.104415,0.008523,0.011503
3.5875000000000057,0.111977,0.008754,0.01047
3.5900000000000034,0.116216,0.008791,0.013996
3.592500000000001,0.123943,0.003742,0.012317
3.595000000000013,0.1251,0.007849,0.013439
3.597500000000011,0.128271,0.005814,0.012616
3.6000000000000085,0.137048,0.004437,0.014531
3.6025000000000063,0.143682,0.007773,0.016152
3.605000000000004,0.144915,0.004356,0.017042
3.6075000000000017,0.150099,0.006079,0.0172
3.6100000000000136,0.153414,0.006666,0.016911
3.6125000000000114,0.154883,0.005849,0.018457
3.615000000000009,0.163858,0.004217,0.017725
3.617500000000007,0.166655,0.00652,0.020974
3.620000000000005,0.166372,0.003063,0.022944
3.6225000000000014,0.174149,0.002248,0.018921
3.625,0.177325,0.004872,0.020305
3.627500000000012,0.181849,0.002147,0.022014
3.6300000000000097,0.183562,0.00337,0.027189
3.632500000000008,0.187177,0.002662,0.022327
3.635000000000005,0.189478,0.001501,0.026125
3.637500000000003,0.194899,-0.002557,0.02804
3.640000000000001,0.196882,0.001184,0.031223
3.642500000000013,0.199635,-0.000481,0.030886
3.64500000000001,0.203352,0.001664,0.030398
3.647500000000008,0.20271,0.000917,0.028468
3.6500000000000057,0.205314,-0.00182,0.029127
3.6525000000000034,0.209957,5e-05,0.029428
3.655000000000001,0.21436,-0.000995,0.026112
3.657500000000013,0.213566,-0.002895,0.02834
3.660000000000011,0.216248,-0.002317,0.029502
3.662500000000009,0.216223,-0.002967,0.029235
3.6650000000000063,0.215756,0.000238,0.029968
3.667500000000004,0.217644,-0.002603,0.027781
3.6700000000000017,0.21541,-0.002627,0.027356
3.6725000000000136,0.218733,0.000778,0.024197
3.6750000000000114,0.218929,-0.000991,0.026552
3.677500000000009,0.220361,0.001393,0.022722
3.680000000000007,0.219024,0.002254,0.021376
3.682500000000005,0.216559,0.005051,0.021485
3.6850000000000014,0.217225,0.000327,0.019849
3.6875,0.219668,0.001732,0.01995
3.690000000000012,0.218368,0.003413,0.013848
3.6925000000000097,0.216778,-0.000164,0.015733
3.695000000000008,0.216564,0.003629,0.012634
3.697500000000005,0.215928,0.004379,0.013428
3.700000000000003,0.215222,0.003242,0.014995
3.702500000000001,0.208565,0.004765,0.014026
3.705000000000013,0.208885,0.005812,0.009135
3.70750000000001,0.208884,0.0048,0.008426
3.710000000000008,0.209645,0.005814,0.010817
3.7125000000000057,0.204556,0.005148,0.009426
3.7150000000000034,0.201749,0.007775,0.008295
3.717500000000001,0.197855,0.002206,0.008825
3.720000000000013,0.195766,0.0053,0.010786
3.722500000000011,0.191361,0.003161,0.008319
3.725000000000009,0.189494,0.005015,0.006866
3.7275000000000063,0.190137,0.005805,0.006494
3.730000000000004,0.186878,0.005224,0.00777
3.7325000000000017,0.178181,0.0053,0.008213
3.7350000000000136,0.177807,0.00442,0.008179
3.7375000000000114,0.177629,0.007785,0.009242
3.740000000000009,0.175384,0.004257,0.008988
3.742500000000007,0.16556,0.005496,0.011494
3.745000000000005,0.166676,0.004686,0.008634
3.7475000000000014,0.161067,0.003307,0.009399
3.75,0.160197,0.003805,0.010989
3.752500000000012,0.152791,0.00447,0.009655
3.7550000000000097,0.152776,0.006565,0.012227
3.757500000000008,0.145596,0.002757,0.011306
3.760000000000005,0.142243,0.007109,0.00943
3.762500000000003,0.13553,0.003497,0.010742
3.765000000000001,0.132985,0.005766,0.007536
3.767500000000013,0.131211,0.002707,0.008667
3.77000000000001,0.126527,0.005219,0.007433
3.772500000000008,0.120861,0.004437,0.010423
3.7750000000000057,0.114799,0.000102,0.008405
3.7775000000000034,0.109672,0.006866,0.008989
3.780000000000001,0.109207,0.006587,0.009679
3.782500000000013,0.101502,0.007972,0.009812
3.785000000000011,0.096857,0.001141,0.008573
3.787500000000009,0.090708,0.00232,0.009155
3.7900000000000063,0.088681,0.004297,0.008357
3.792500000000004,0.083961,0.005674,0.008082
3.7950000000000017,0.080089,0.005772,0.007077
3.7975000000000136,0.077253,0.002896,0.007106
3.8000000000000114,0.072708,0.004307,0.011728
3.802500000000009,0.067102,0.001254,0.010272
3.805000000000007,0.063355,0.005149,0.008134
3.807500000000005,0.055762,0.003516,0.007486
3.8100000000000014,0.053199,0.004612,0.006975
3.8125,0.046835,0.002902,0.01126
3.815000000000012,0.04501,0.002236,0.011998
3.8175000000000097,0.04482,0.004164,0.013068
3.820000000000008,0.038322,0.002465,0.013175
3.822500000000005,0.036342,0.002063,0.011883
3.825000000000003,0.032019,0.005507,0.008721
3.827500000000001,0.027221,-0.000881,0.011765
3.830000000000013,0.026322,0.00475,0.010613
3.83250000000001,0.024059,0.001413,0.010913
3.835000000000008,0.019801,0.002413,0.012847
3.8375000000000057,0.019304,0.004195,0.009844
3.8400000000000034,0.019602,0.004867,0.013808
3.842500000000001,0.015188,0.00444,0.012974
3.845000000000013,0.016018,0.002686,0.011008
3.847500000000011,0.013553,0.001555,0.010546
3.850000000000009,0.013565,0.001552,0.011192
3.8525000000000063,0.013138,0.005087,0.011123
3.855000000000004,0.012904,0.001941,0.01219
3.8575000000000017,0.007587,0.001954,0.011425
3.8600000000000136,0.012903,-0.003181,0.011465
3.8625000000000114,0.01306,0.000482,0.012349
3.865000000000009,0.014683,0.00433,0.011509
3.867500000000007,0.01452,0.00271,0.015087
3.870000000000005,0.013546,-0.00141,0.014427
3.8725000000000014,0.012862,-0.001787,0.013807
3.875,0.014993,0.003684,0.013826
3.877500000000012,0.012403,0.005368,0.011029
3.8800000000000097,0.016516,0.001683,0.013313
3.882500000000008,0.016233,0.00026,0.008663
3.885000000000005,0.017277,0.000542,0.011288
3.887500000000003,0.017985,-0.001143,0.011451
3.890000000000001,0.021141,-0.002223,0.01289
3.892500000000013,0.023509,0.001395,0.01175
3.89500000000001,0.022303,0.002552,0.008733
3.897500000000008,0.026097,0.003695,0.009499
3.9000000000000057,0.026023,0.001622,0.011603
3.9025000000000034,0.02938,-0.001433,0.012425
3.905000000000001,0.02599,0.00503,0.012029
3.907500000000013,0.027536,0.002238,0.011705
3.910000000000011,0.034293,0.004036,0.0098
3.912500000000009,0.028042,0.002948,0.01368
3.9150000000000063,0.031028,0.001723,0.011153
3.917500000000004,0.035948,-0.000478,0.01236
3.9200000000000017,0.033255,0.001901,0.012386
3.9225000000000136,0.035293,0.003392,0.010226
3.9250000000000114,0.035664,0.000615,0.011887
3.927500000000009,0.035837,0.002661,0.013528
3.930000000000007,0.037193,0.002254,0.00978
3.932500000000005,0.039177,0.000619,0.010105
3.9350000000000014,0.038473,0.001568,0.011421
3.9375,0.0406,0.003123,0.010604
3.940000000000012,0.039748,0.000351,0.012521
3.9425000000000097,0.045889,0.00199,0.007636
3.945000000000008,0.042974,0.00741,0.009484
3.947500000000005,0.04371,0.006054,0.010768
3.950000000000003,0.043275,0.00382,0.011284
3.952500000000001,0.045117,-0.001208,0.007676
3.955000000000013,0.048156,0.001267,0.008486
3.95750000000001,0.04653,0.003941,0.009858
3.960000000000008,0.047421,0.004507,0.01414
3.9625000000000057,0.046333,0.001093,0.011284
3.9650000000000034,0.048753,0.003826,0.0094
3.967500000000001,0.047169,0.003137,0.009549
3.970000000000013,0.047203,0.002927,0.00871
3.972500000000011,0.04786,0.003409,0.011153
3.975000000000009,0.045966,0.000536,0.010128
3.9775000000000063,0.044329,0.000607,0.0113
3.980000000000004,0.046811,-0.001507,0.010929
3.9825000000000017,0.047699,0.00184,0.012662
3.9850000000000136,0.043146,0.000951,0.011113
3.9875000000000114,0.041882,-0.000164,0.011589
3.990000000000009,0.042369,-0.000723,0.009746
3.992500000000007,0.040636,0.000418,0.011074
3.995000000000005,0.038513,0.002738,0.007979
3.9975000000000014,0.039617,0.003634,0.009195
4.0,0.036607,0.003635,0.01102
4.002500000000012,0.03672,0.001525,0.010324
4.00500000000001,0.032509,0.006465,0.010679
4.007500000000007,0.028744,0.004568,0.010631
4.010000000000005,0.032792,0.001796,0.007411
4.012500000000003,0.029425,0.003339,0.008335
4.015000000000001,0.026388,0.002038,0.0091
4.0175000000000125,0.025357,-0.001153,0.009847
4.02000000000001,0.024745,0.000362,0.008133
4.022500000000008,0.024673,0.003829,0.013266
4.025000000000006,0.019405,0.00376,0.011707
4.027500000000003,0.016677,0.004617,0.007939
4.030000000000001,0.015353,-0.000143,0.010868
4.032500000000013,0.012884,0.003303,0.0099
4.035000000000011,0.011433,0.002597,0.011646
4.0375000000000085,0.010965,0.002106,0.009853
4.040000000000006,0.006054,-0.000548,0.011124
4.042500000000004,0.003716,0.002008,0.010336
4.045000000000002,0.00195,0.001333,0.011647
4.047500000000014,-0.00657,0.000148,0.009082
4.050000000000011,-0.007224,0.003164,0.008848
4.052500000000009,-0.00706,0.001691,0.010921
4.055000000000007,-0.006889,0.00111,0.011125
4.0575000000000045,-0.015454,0.001615,0.008289
4.060000000000002,-0.015031,0.003722,0.010108
4.0625,-0.016394,0.003145,0.010019
4.065000000000012,-0.021957,0.003427,0.010646
4.06750000000001,-0.021678,0.000799,0.007645
4.070000000000007,-0.02306,0.003665,0.010552
4.072500000000005,-0.027086,0.0061,0.008186
4.075000000000003,-0.028634,0.003874,0.00721
4.077500000000001,-0.031604,0.000396,0.006931
4.0800000000000125,-0.03752,0.002665,0.005988
4.08250000000001,-0.037599,0.002068,0.004213
4.085000000000008,-0.035249,-0.000142,0.006326
4.087500000000006,-0.037582,-8.9e-05,0.008323
4.090000000000003,-0.035301,0.004867,0.007626
4.092500000000001,-0.039813,0.002875,0.007568
4.095000000000013,-0.04191,0.004274,0.008532
4.097500000000011,-0.04039,0.000284,0.011434
4.1000000000000085,-0.042646,0.004833,0.009397
4.102500000000006,-0.042528,0.002237,0.009234
4.105000000000004,-0.041789,0.004754,0.010131
4.107500000000002,-0.043328,0.000342,0.011346
4.110000000000014,-0.041771,0.00404,0.008871
4.112500000000011,-0.039479,0.002331,0.012503
4.115000000000009,-0.043872,0.003587,0.010728
4.117500000000007,-0.043316,0.003488,0.009593
4.1200000000000045,-0.045152,0.001312,0.007763
4.122500000000002,-0.045809,0.003073,0.009231
4.125,-0.046267,0.003048,0.008626
4.127500000000012,-0.041057,0.005246,0.006983
4.13000000000001,-0.043397,0.003684,0.008466
4.132500000000007,-0.04119,0.001159,0.010186
4.135000000000005,-0.040691,0.00312,0.011326
4.137500000000003,-0.042343,0.002915,0.010204
4.140000000000001,-0.03923,-0.000183,0.008536
4.1425000000000125,-0.039065,0.001992,0.006161
4.14500000000001,-0.037435,0.000391,0.008684
4.147500000000008,-0.03745,-0.001763,0.005712
4.150000000000006,-0.035755,0.005119,0.008666
4.152500000000003,-0.03252,0.003088,0.010329
4.155000000000001,-0.034463,0.000939,0.011389
4.157500000000013,-0.027972,0.000688,0.008727
4.160000000000011,-0.032106,0.001904,0.008554
4.1625000000000085,-0.027937,0.002583,0.007843
4.165000000000006,-0.031267,-0.000149,0.010213
4.167500000000004,-0.021696,-0.002225,0.010201
4.170000000000002,-0.024222,0.006329,0.010242
4.172500000000014,-0.024815,0.002022,0.012104
4.175000000000011,-0.023472,0.000968,0.012452
4.177500000000009,-0.018488,0.002971,0.009585
4.180000000000007,-0.019564,0.004525,0.009388
4.1825000000000045,-0.013563,0.004292,0.007632
4.185000000000002,-0.017396,0.001477,0.011299
4.1875,-0.013457,-6.1e-05,0.009791
4.190000000000012,-0.010051,0.003891,0.009844
4.19250000000001,-0.010134,0.002239,0.009597
4.195000000000007,-0.007837,0.000634,0.010289
4.197500000000005,-0.003754,0.00303,0.0096
4.200000000000003,-0.005637,0.002662,0.009913
4.202500000000001,-0.002065,0.004572,0.010609
4.2050000000000125,-0.00032,0.001206,0.009831
4.20750000000001,-0.000325,0.000877,0.011816
4.210000000000008,0.002915,0.003997,0.008241
4.212500000000006,0.00448,0.000612,0.011856
4.215000000000003,0.005651,0.005082,0.007802
4.217500000000001,0.00852,0.001156,0.012237
4.220000000000013,0.008293,0.002321,0.009783
4.222500000000011,0.009305,0.005143,0.010117
4.2250000000000085,0.010932,0.001659,0.012525
4.227500000000006,0.013762,0.000652,0.01232
4.230000000000004,0.013493,0.000493,0.010253
4.232500000000002,0.015955,0.001775,0.009368
4.235000000000014,0.015458,0.002832,0.011364
4.237500000000011,0.01877,0.002212,0.009368
4.240000000000009,0.017471,0.000272,0.009903
4.242500000000007,0.015961,0.003884,0.011457
4.2450000000000045,0.020049,0.0031,0.011077
4.247500000000002,0.022412,0.00618,0.011037
4.25,0.021606,0.002003,0.010019
4.252500000000012,0.021314,0.000144,0.009636
4.25500000000001,0.021363,0.002142,0.008232
4.257500000000007,0.024789,0.00554,0.008035
4.260000000000005,0.023604,0.002073,0.010414
4.262500000000003,0.025982,0.000599,0.009716
4.265000000000001,0.02226,0.001212,0.012178
4.2675000000000125,0.020332,0.002576,0.010709
4.27000000000001,0.023469,0.000568,0.011068
4.272500000000008,0.022689,0.002687,0.011467
4.275000000000006,0.025292,0.001374,0.009876
4.277500000000003,0.023312,0.001951,0.009038
4.280000000000001,0.021779,0.000737,0.008392
4.282500000000013,0.021755,0.001427,0.008903
4.285000000000011,0.024488,0.00244,0.010843
4.2875000000000085,0.021774,0.003774,0.009795
4.290000000000006,0.021046,-0.00069,0.009536
4.292500000000004,0.020193,0.003589,0.008964
4.295000000000002,0.020336,0.003276,0.009433
4.297500000000014,0.019028,0.004248,0.008167
4.300000000000011,0.021186,0.004859,0.008883
4.302500000000009,0.02412,0.00013,0.011475
4.305000000000007,0.01891,0.002453,0.011183
4.3075000000000045,0.014789,0.004951,0.007721
4.310000000000002,0.019222,0.004809,0.009762
4.3125,0.017753,0.002448,0.012064
4.315000000000012,0.014245,0.000919,0.009853
4.31750000000001,0.012893,0.00392,0.008713
4.320000000000007,0.01341,0.002449,0.009406
4.322500000000005,0.01257,0.001637,0.009786
4.325000000000003,0.014683,0.003818,0.009701
4.327500000000001,0.008123,0.001384,0.010188
4.3300000000000125,0.00904,0.000323,0.009254
4.33250000000001,0.010777,-0.00032,0.007182
4.335000000000008,0.007848,0.001471,0.008463
4.337500000000006,0.007815,0.004572,0.012421
4.340000000000003,0.0085,0.004254,0.009578
4.342500000000001,0.007152,0.003331,0.009645
4.345000000000013,0.003489,0.001945,0.009879
4.347500000000011,0.004331,0.00487,0.009883
4.3500000000000085,0.000545,0.002979,0.010895
4.352500000000006,-0.000319,0.003814,0.011341
4.355000000000004,0.005356,0.001254,0.009327
4.357500000000002,-0.000261,0.003508,0.01403
4.360000000000014,0.002711,0.001916,0.010287
4.362500000000011,0.001226,-0.000699,0.008409
4.365000000000009,-0.002219,0.001795,0.005888
4.367500000000007,-0.000849,0.000996,0.007731
4.3700000000000045,-0.00394,0.002541,0.011507
4.372500000000002,-0.003044,0.00153,0.011664
4.375,-0.003172,0.00452,0.010853
4.377500000000012,-0.006402,0.004999,0.009718
4.38000000000001,-0.003894,0.001924,0.008921
4.382500000000007,-0.005265,-0.000232,0.011212
4.385000000000005,-0.005725,0.000389,0.009111
4.387500000000003,-0.004895,-0.000919,0.010148
4.390000000000001,-0.008525,0.001002,0.010804
4.3925000000000125,-0.005417,-0.000745,0.012254
4.39500000000001,-0.005357,0.004294,0.009481
4.397500000000008,-0.009079,-0.00075,0.007827
4.400000000000006,-0.00478,0.004091,0.010843
4.402500000000003,-0.007324,0.002433,0.011912
4.405000000000001,-0.006862,0.002372,0.010108
4.407500000000013,-0.006935,0.004427,0.009826
4.410000000000011,-0.005876,0.001233,0.008161
4.4125000000000085,-0.005387,0.004541,0.008962
4.415000000000006,-0.004517,0.000154,0.010981
4.417500000000004,-0.006439,0.000467,0.009624
4.420000000000002,-0.007541,-0.000642,0.009749
4.422500000000014,-0.006118,-0.000253,0.010858
4.425000000000011,-0.005025,0.004824,0.010706
4.427500000000009,-0.0056,0.000621,0.00852
4.430000000000007,-0.005209,0.002833,0.008222
4.4325000000000045,-0.004725,0.001872,0.01082
4.435000000000002,-0.004168,0.002605,0.009488
4.4375,-0.003397,0.001638,0.010011
4.440000000000012,-0.002277,-0.000377,0.009561
4.44250000000001,-0.001381,0.002524,0.012373
4.445000000000007,-0.001253,-0.001445,0.010969
4.447500000000005,-0.001894,0.000798,0.008748
4.450000000000003,-0.00276,0.005289,0.010631
4.452500000000001,0.000193,0.003051,0.0096
4.4550000000000125,-0.000371,-6.6e-05,0.010946
4.45750000000001,0.000187,0.003547,0.010035
4.460000000000008,-5.5e-05,0.003389,0.009667
4.462500000000006,0.003055,0.004757,0.008319
4.465000000000003,0.001815,0.002594,0.009674
4.467500000000001,0.003263,0.001696,0.00995
