time,Gyr_X,Gyr_Y,Gyr_Z
0.0,0.000869,0.002719,0.002205
0.0024999999999977,-0.002453,-0.00053,-7.9e-05
0.0049999999999954,-0.00076,0.002132,1.7e-05
0.0074999999999931,0.001434,-0.002776,0.000196
0.0099999999999909,0.000844,-0.002469,0.00032
0.0124999999999886,0.002379,-0.002564,-0.001636
0.0149999999999863,-0.001824,-0.001396,0.000905
0.017499999999984,0.001078,0.000862,-0.000693
0.0199999999999818,0.000223,-0.001644,0.002839
0.0224999999999795,0.000171,0.002251,0.001202
0.0250000000000056,-0.000249,0.000916,0.001543
0.0275000000000034,0.000989,-0.000906,0.001005
0.0300000000000011,0.00164,0.000728,0.000299
0.0324999999999988,0.001497,-0.001533,0.000986
0.0349999999999965,0.001181,0.00143,0.000479
0.0374999999999943,0.00397,-0.000574,0.002339
0.039999999999992,0.000187,-0.001132,-0.001499
0.0424999999999897,0.001983,0.000902,-0.001587
0.0449999999999874,0.00133,0.00611,-0.002101
0.0474999999999852,0.002395,-0.000152,0.003088
0.0499999999999829,0.002759,0.005335,0.001698
0.0524999999999806,0.002194,0.001746,0.000893
0.0550000000000068,0.000574,-0.000268,0.000229
0.0575000000000045,0.000796,0.000974,5.9e-05
0.0600000000000022,0.002917,0.005668,0.005212
0.0625,0.001562,0.000945,0.00136
0.0649999999999977,-0.0017,0.00178,0.000126
0.0674999999999954,0.001008,0.003048,-0.000741
0.0699999999999931,0.003282,0.003206,-0.001287
0.0724999999999909,-0.000368,0.00307,-0.001141
0.0749999999999886,0.001694,0.004356,-0.000569
0.0774999999999863,0.000576,0.002826,-0.001565
0.079999999999984,0.000102,0.001768,0.001571
0.0824999999999818,0.001802,-0.00236,-0.00163
0.0849999999999795,0.00084,-0.000916,-0.00267
0.0875000000000056,8.3e-05,-0.000817,-0.001669
0.0900000000000034,0.00032,-0.00052,-0.001258
0.0925000000000011,0.001114,0.001506,-0.00107
0.0949999999999988,0.002027,-0.001574,0.000452
0.0974999999999965,0.003449,6.5e-05,0.00268
0.0999999999999943,0.002562,-0.000618,0.000944
0.102499999999992,-0.000517,-0.001401,0.002784
0.1049999999999897,-0.001402,0.002386,0.0024
0.1074999999999875,-0.005729,0.001359,0.001173
0.1099999999999852,0.00188,0.002962,0.005419
0.1124999999999829,-0.002223,0.006969,0.002342
0.1149999999999806,-0.000374,0.002974,0.003282
0.1175000000000068,-0.002114,0.001655,0.004803
0.1200000000000045,-0.000851,0.006237,0.002281
0.1225000000000022,0.002076,0.001926,-0.000775
0.125,0.000418,0.00279,0.001208
0.1274999999999977,0.000867,-0.000629,-0.001746
0.1299999999999954,-0.002001,0.001133,0.001974
0.1324999999999931,0.000311,0.000937,-0.001144
0.1349999999999909,-0.000976,0.002622,-0.000851
0.1374999999999886,-0.001891,0.002036,-0.00159
0.1399999999999863,-0.001074,0.005155,-0.000939
0.142499999999984,0.002781,0.001923,-0.001122
0.1449999999999818,0.002291,0.001966,-0.00352
0.1474999999999795,-0.000112,0.002714,0.000102
0.1500000000000056,-0.001618,-0.000344,-0.002198
0.1525000000000034,-0.00165,0.003771,0.0013
0.1550000000000011,0.000509,0.000619,0.001571
0.1574999999999988,-0.000346,-0.002995,4.5e-05
0.1599999999999966,0.001783,0.003069,0.001732
0.1624999999999943,-0.001043,0.00305,0.002214
0.164999999999992,-0.002091,0.00272,0.002103
0.1674999999999897,0.001635,0.003422,0.001741
0.1699999999999875,-0.002986,0.004054,0.001363
0.1724999999999852,0.000545,0.004197,0.002084
0.1749999999999829,-0.00287,0.003796,0.000487
0.1774999999999806,-0.001252,0.007721,0.003018
0.1800000000000068,-0.000864,0.004365,-0.000708
0.1825000000000045,0.003303,0.010299,-0.002947
0.1850000000000022,0.00331,0.00752,0.000118
0.1875,0.001646,0.009688,-0.003609
0.1899999999999977,-0.000159,0.008648,-0.004756
0.1924999999999954,0.001492,0.007329,-0.004169
0.1949999999999931,0.002078,0.007621,-0.002789
0.1974999999999909,0.002424,0.009232,-0.001754
0.1999999999999886,-0.001138,0.005425,-0.004084
0.2024999999999863,0.001594,0.00805,-0.00632
0.204999999999984,0.001789,0.00856,-0.006326
0.2074999999999818,0.00337,0.01212,-0.005113
0.2099999999999795,-0.00207,0.013425,-0.003959
0.2125000000000056,0.003716,0.011215,-0.006281
0.2150000000000034,0.004915,0.01109,-0.004084
0.2175000000000011,0.00063,0.011253,-0.002274
0.2199999999999988,0.000257,0.015876,-0.002517
0.2224999999999966,0.001826,0.015027,-0.002082
0.2249999999999943,0.001917,0.017952,-0.00236
0.227499999999992,0.002264,0.015191,-0.002412
0.2299999999999897,-0.000995,0.022491,-0.00079
0.2324999999999875,0.002185,0.018685,0.00116
0.2349999999999852,0.000467,0.016991,-0.002174
0.2374999999999829,0.002521,0.022135,0.0005
0.2399999999999806,0.001023,0.019867,0.0012
0.2425000000000068,0.001699,0.023291,0.00195
0.2450000000000045,0.001835,0.024111,0.003628
0.2475000000000022,0.001108,0.018922,0.000624
0.25,0.001848,0.026382,-0.002903
0.2524999999999977,-0.002208,0.018259,-0.002559
0.2549999999999954,-0.000729,0.023466,-0.003177
0.2574999999999932,-0.000936,0.025656,-0.001167
0.2599999999999909,-0.000364,0.021193,0.001366
0.2624999999999886,0.005247,0.024708,-0.000733
0.2649999999999863,0.00134,0.021543,0.001257
0.2674999999999841,-0.000413,0.022281,-0.00249
0.2699999999999818,-0.002722,0.024436,0.002214
0.2724999999999795,0.000206,0.028031,-0.000788
0.2750000000000057,-0.000915,0.025275,0.001987
0.2775000000000034,0.000409,0.023066,0.00231
0.2800000000000011,-2.4e-05,0.02408,0.001966
0.2824999999999988,0.003026,0.021795,0.004982
0.2849999999999966,0.002428,0.023995,0.000621
0.2874999999999943,0.003902,0.018444,0.001391
0.289999999999992,0.003516,0.016113,0.003711
0.2924999999999897,0.003781,0.025155,0.004511
0.2949999999999875,0.000886,0.013257,0.001922
0.2974999999999852,0.000285,0.015687,0.002903
0.2999999999999829,0.000881,0.013072,0.003982
0.3024999999999807,-0.000402,0.010071,0.005753
0.3050000000000068,0.000411,0.00563,0.005721
0.3075000000000045,0.00354,0.000113,0.004969
0.3100000000000023,0.0012,0.000568,0.003368
0.3125,0.001604,-0.001106,0.00461
0.3149999999999977,0.001331,-0.003482,0.008219
0.3174999999999954,-0.001997,-0.005649,0.006164
0.3199999999999932,-0.000344,-0.008766,0.009423
0.3224999999999909,0.001574,-0.009032,0.007627
0.3249999999999886,-0.001709,-0.01391,0.006483
0.3274999999999863,-0.002755,-0.015604,0.010344
0.3299999999999841,-3.9e-05,-0.016606,0.007377
0.3324999999999818,-0.002092,-0.017288,0.008401
0.3349999999999795,-1.2e-05,-0.018646,0.008754
0.3375000000000057,-0.000602,-0.019039,0.0087
0.3400000000000034,-0.001261,-0.023127,0.003456
0.3425000000000011,-0.003412,-0.02491,0.003999
0.3449999999999988,0.001771,-0.027364,0.006332
0.3474999999999966,-0.004278,-0.023191,0.002994
0.3499999999999943,0.000656,-0.028233,0.002714
0.352499999999992,-0.000988,-0.025634,0.003222
0.3549999999999897,0.000826,-0.023749,0.005924
0.3574999999999875,-0.003642,-0.027184,0.00292
0.3599999999999852,-0.003801,-0.024404,0.001008
0.3624999999999829,-0.004214,-0.024642,0.005206
0.3649999999999807,-0.001945,-0.02186,0.003534
0.3675000000000068,-0.003703,-0.022469,0.003032
0.3700000000000045,-0.001943,-0.019415,0.006782
0.3725000000000023,-0.007857,-0.021988,0.003143
0.375,-0.008091,-0.016521,0.004103
0.3774999999999977,-0.005391,-0.011286,0.003455
0.3799999999999954,-0.006504,-0.013283,0.004142
0.3824999999999932,-0.00601,-0.012408,0.000865
0.3849999999999909,-0.000389,-0.015549,0.000327
0.3874999999999886,-0.005159,-0.014067,0.005532
0.3899999999999863,-0.001769,-0.008422,0.004224
0.3924999999999841,-0.000814,-0.01042,0.002401
0.3949999999999818,0.000452,-0.006753,0.005115
0.3974999999999795,0.001011,-0.008775,-0.000849
0.4000000000000057,0.001606,-0.010352,0.000442
0.4025000000000034,-0.001566,-0.009054,0.003878
0.4050000000000011,-0.002046,-0.005744,0.003127
0.4074999999999988,-0.004302,-0.004424,0.006282
0.4099999999999966,-0.002563,-0.004511,0.003216
0.4124999999999943,9.6e-05,-0.005578,0.00151
0.414999999999992,-0.002308,-0.005095,0.003389
0.4174999999999897,0.00012,-0.003424,0.004055
0.4199999999999875,0.000306,0.000677,0.00779
0.4224999999999852,-0.001207,-0.000477,0.002339
0.4249999999999829,-0.002934,-0.002106,0.007709
0.4274999999999807,-0.004685,-0.006202,0.008424
0.4300000000000068,-0.001793,-0.002964,0.010093
0.4325000000000045,0.001261,-0.001585,0.005489
0.4350000000000023,0.000571,0.002434,0.00817
0.4375,0.001318,0.001336,0.007013
0.4399999999999977,-0.002594,0.003488,0.010907
0.4424999999999954,-7.7e-05,0.000698,0.007031
0.4449999999999932,0.00094,0.001293,0.009384
0.4474999999999909,0.000713,-0.000137,0.009454
0.4499999999999886,0.002835,0.002561,0.008278
0.4524999999999863,0.003018,0.002525,0.004268
0.4549999999999841,0.001983,0.001875,0.003227
0.4574999999999818,1.9e-05,0.002014,0.004121
0.4599999999999795,-0.000504,0.002191,0.003221
0.4625000000000057,0.000661,0.006887,0.002541
0.4650000000000034,-0.002304,0.004888,0.00143
0.4675000000000011,0.000376,0.002792,0.001618
0.4699999999999988,0.003975,0.004262,0.000467
0.4724999999999966,0.000849,0.006906,-0.000174
0.4749999999999943,0.003157,0.005918,-0.003643
0.477499999999992,0.000288,0.006386,-0.005202
0.4799999999999897,0.003409,0.004204,-0.000535
0.4824999999999875,0.001787,0.008718,-0.004977
0.4849999999999852,-0.000393,0.008816,-0.007153
0.4874999999999829,0.001992,0.009171,-0.007626
0.4899999999999807,0.005019,0.004556,-0.007206
0.4925000000000068,0.002966,0.009213,-0.005665
0.4950000000000045,0.005301,0.008003,-0.004497
0.4975000000000023,0.003202,0.013279,-0.007609
0.5,0.00818,0.010318,-0.007254
0.5024999999999977,0.003675,0.010132,-0.005586
0.5049999999999955,0.004,0.008629,-0.004809
0.5074999999999932,-0.000408,0.011305,-0.00553
0.5099999999999909,0.003598,0.014219,-0.004734
0.5124999999999886,-0.000115,0.014015,0.00068
0.5149999999999864,0.004997,0.008007,-0.002243
0.5174999999999841,0.001674,0.012646,-0.001583
0.5199999999999818,0.000355,0.012671,0.002471
0.5224999999999795,-0.000992,0.009746,-0.001164
0.5250000000000057,0.001111,0.007319,0.000735
0.5275000000000034,-0.00201,0.005799,0.001755
0.5300000000000011,0.000585,0.005355,0.003389
0.5324999999999989,0.003544,0.009369,0.003802
0.5349999999999966,0.001412,0.006863,0.003292
0.5374999999999943,0.000491,0.006848,0.003462
0.539999999999992,0.000861,0.009305,0.008196
0.5424999999999898,-0.003436,0.007009,0.005975
0.5449999999999875,-0.002228,0.006296,0.008627
0.5474999999999852,-0.002044,0.00334,0.007405
0.549999999999983,-0.00376,0.005165,0.008894
0.5524999999999807,0.000118,0.004485,0.010686
0.5550000000000068,0.000147,0.004239,0.011078
0.5575000000000045,-0.002281,0.007875,0.010674
0.5600000000000023,0.000346,0.003233,0.008195
0.5625,-0.000814,0.001629,0.0135
0.5649999999999977,-7.6e-05,0.001542,0.013033
0.5674999999999955,-0.00136,0.000269,0.017194
0.5699999999999932,-0.003949,-0.000577,0.014117
0.5724999999999909,0.000171,-0.0056,0.017644
0.5749999999999886,-0.002778,-0.000617,0.017891
0.5774999999999864,-0.000232,-0.006449,0.0196
0.5799999999999841,0.000121,-0.010264,0.020742
0.5824999999999818,-0.001475,-0.011459,0.023211
0.5849999999999795,-0.000861,-0.012589,0.024799
0.5875000000000057,-0.003442,-0.013246,0.023324
0.5900000000000034,0.000869,-0.016201,0.026347
0.5925000000000011,-0.003466,-0.015032,0.026011
0.5949999999999989,-0.004309,-0.022995,0.024881
0.5974999999999966,-0.005287,-0.024937,0.029211
0.5999999999999943,-0.002581,-0.026618,0.030916
0.602499999999992,-0.002986,-0.031236,0.029714
0.6049999999999898,-0.004718,-0.033468,0.031362
0.6074999999999875,-5.5e-05,-0.038309,0.03124
0.6099999999999852,-0.000992,-0.040005,0.03581
0.612499999999983,-0.004722,-0.040923,0.040191
0.6149999999999807,-0.002205,-0.047863,0.041428
0.6175000000000068,-0.007586,-0.045961,0.047662
0.6200000000000045,-0.010513,-0.052838,0.047814
0.6225000000000023,-0.01101,-0.050479,0.051006
0.625,-0.010893,-0.053529,0.053457
0.6274999999999977,-0.014721,-0.054705,0.054724
0.6299999999999955,-0.015618,-0.061461,0.061283
0.6324999999999932,-0.016886,-0.06042,0.066219
0.6349999999999909,-0.016223,-0.061448,0.06979
0.6374999999999886,-0.018898,-0.061977,0.070531
0.6399999999999864,-0.020505,-0.061923,0.074498
0.6424999999999841,-0.019394,-0.066279,0.075366
0.6449999999999818,-0.021404,-0.065248,0.077847
0.6474999999999795,-0.023744,-0.063272,0.08085
0.6500000000000057,-0.024499,-0.066134,0.082503
0.6525000000000034,-0.026442,-0.069377,0.085429
0.6550000000000011,-0.029719,-0.064032,0.086526
0.6574999999999989,-0.031339,-0.066549,0.087992
0.6599999999999966,-0.033464,-0.064279,0.090922
0.6624999999999943,-0.034398,-0.067757,0.093123
0.664999999999992,-0.037476,-0.064799,0.096909
0.6674999999999898,-0.041315,-0.061743,0.098731
0.6699999999999875,-0.042227,-0.058849,0.102382
0.6724999999999852,-0.046501,-0.054976,0.103352
0.674999999999983,-0.051285,-0.053695,0.107837
0.6774999999999807,-0.056237,-0.05305,0.112089
0.6800000000000068,-0.06146,-0.052053,0.113644
0.6825000000000045,-0.063628,-0.043857,0.12021
0.6850000000000023,-0.066254,-0.038944,0.119934
0.6875,-0.068763,-0.036746,0.123986
0.6899999999999977,-0.074509,-0.032835,0.126561
0.6924999999999955,-0.076939,-0.030653,0.127756
0.6949999999999932,-0.083522,-0.021659,0.128367
0.6974999999999909,-0.08491,-0.024173,0.132055
0.6999999999999886,-0.087492,-0.021943,0.135795
0.7024999999999864,-0.087647,-0.020665,0.139498
0.7049999999999841,-0.092702,-0.016131,0.140437
0.7074999999999818,-0.094722,-0.016184,0.140568
0.7099999999999795,-0.092442,-0.013433,0.141231
0.7125000000000057,-0.096674,-0.010946,0.14204
0.7150000000000034,-0.098667,-0.009966,0.149419
0.7175000000000011,-0.097686,-0.00754,0.147247
0.7199999999999989,-0.098631,-0.0037,0.150067
0.7224999999999966,-0.102562,-0.002623,0.146209
0.7249999999999943,-0.103839,-0.008492,0.149786
0.727499999999992,-0.104655,-0.002232,0.150702
0.7299999999999898,-0.105508,0.000452,0.149224
0.7324999999999875,-0.111577,-0.000322,0.151608
0.7349999999999852,-0.116618,0.000145,0.150659
0.737499999999983,-0.121424,0.003489,0.153638
0.7399999999999807,-0.126069,0.006019,0.1551
0.7425000000000068,-0.130537,0.002594,0.157242
0.7450000000000045,-0.141326,0.005671,0.159874
0.7475000000000023,-0.147831,0.00597,0.162096
0.75,-0.154364,0.006109,0.160225
0.7524999999999977,-0.165319,0.008596,0.163343
0.7549999999999955,-0.170325,0.009585,0.166655
0.7574999999999932,-0.179735,0.012622,0.167277
0.7599999999999909,-0.18319,0.011677,0.169086
0.7624999999999886,-0.195466,0.017462,0.171255
0.7649999999999864,-0.200772,0.019618,0.17157
0.7674999999999841,-0.208591,0.021774,0.175672
0.7699999999999818,-0.211832,0.025507,0.175323
0.7724999999999795,-0.2186,0.029124,0.180417
0.7750000000000057,-0.222318,0.030643,0.183439
0.7775000000000034,-0.230366,0.034497,0.18572
0.7800000000000011,-0.231613,0.03252,0.186124
0.7824999999999989,-0.239697,0.03655,0.189755
0.7849999999999966,-0.23831,0.036868,0.197505
0.7874999999999943,-0.244096,0.040374,0.201546
0.789999999999992,-0.245172,0.046357,0.205361
0.7924999999999898,-0.245109,0.045488,0.210375
0.7949999999999875,-0.247987,0.047439,0.216507
0.7974999999999852,-0.252977,0.048063,0.223648
0.799999999999983,-0.252503,0.050605,0.226606
0.8024999999999807,-0.251518,0.05048,0.236069
0.8050000000000068,-0.255005,0.051121,0.241116
0.8075000000000045,-0.255699,0.049794,0.245083
0.8100000000000023,-0.258929,0.05407,0.255396
0.8125,-0.257769,0.052508,0.263851
0.8149999999999977,-0.259048,0.051972,0.269853
0.8174999999999955,-0.253983,0.046467,0.274258
0.8199999999999932,-0.258544,0.045045,0.282428
0.8224999999999909,-0.259672,0.046805,0.286972
0.8249999999999886,-0.255755,0.042927,0.296643
0.8274999999999864,-0.250374,0.038011,0.302777
0.8299999999999841,-0.252441,0.035796,0.304598
0.8324999999999818,-0.245442,0.033113,0.314877
0.8349999999999795,-0.239761,0.031815,0.322885
0.8375000000000057,-0.238019,0.02526,0.326698
0.8400000000000034,-0.232048,0.020944,0.334512
0.8425000000000011,-0.235455,0.024017,0.339963
0.8449999999999989,-0.22593,0.019626,0.353309
0.8474999999999966,-0.217138,0.014066,0.35856
0.8499999999999943,-0.216106,0.013829,0.366671
0.852499999999992,-0.205576,0.013957,0.376342
0.8549999999999898,-0.19709,0.007602,0.381828
0.8574999999999875,-0.190727,0.007259,0.392338
0.8599999999999852,-0.182618,0.008249,0.395835
0.862499999999983,-0.172915,0.007106,0.406521
0.8649999999999807,-0.167033,0.007943,0.414447
0.8675000000000068,-0.160366,0.005148,0.424262
0.8700000000000045,-0.149183,0.005979,0.430935
0.8725000000000023,-0.143755,0.005753,0.436343
0.875,-0.127982,0.003944,0.44715
0.8774999999999977,-0.118636,0.004634,0.450956
0.8799999999999955,-0.113387,0.003947,0.459959
0.8824999999999932,-0.102358,0.003579,0.468793
0.8849999999999909,-0.089344,0.008605,0.475749
0.8874999999999886,-0.080951,0.005937,0.479566
0.8899999999999864,-0.07235,0.00326,0.485761
0.8924999999999841,-0.059874,0.006374,0.489219
0.8949999999999818,-0.050552,0.002537,0.497591
0.8974999999999795,-0.038375,0.001536,0.503004
0.9000000000000057,-0.033332,-0.002234,0.507534
0.9025000000000034,-0.023542,-0.004719,0.513715
0.9050000000000012,-0.015284,-0.007838,0.519771
0.9074999999999988,-0.00986,-0.009428,0.521833
0.9099999999999966,-0.001369,-0.011715,0.531171
0.9124999999999944,0.007101,-0.01263,0.534288
0.914999999999992,0.013936,-0.019993,0.542904
0.9174999999999898,0.017247,-0.023863,0.549375
0.9199999999999876,0.023808,-0.024153,0.557507
0.9224999999999852,0.030413,-0.033343,0.562941
0.924999999999983,0.037218,-0.040923,0.57387
0.9274999999999808,0.039046,-0.047944,0.580216
0.9300000000000068,0.040525,-0.053459,0.585601
0.9325000000000044,0.046062,-0.055839,0.596736
0.9350000000000024,0.051142,-0.063118,0.604548
0.9375,0.051286,-0.070471,0.612979
0.9399999999999976,0.058322,-0.079313,0.622343
0.9424999999999956,0.060598,-0.084169,0.632837
0.9449999999999932,0.060884,-0.092413,0.638706
0.9474999999999908,0.067591,-0.096859,0.649668
0.9499999999999886,0.071896,-0.104257,0.656939
0.9524999999999864,0.074359,-0.109305,0.663551
0.954999999999984,0.07961,-0.116864,0.670859
0.9574999999999818,0.085142,-0.121787,0.679583
0.9599999999999796,0.090576,-0.12832,0.684422
0.9625000000000056,0.101029,-0.128801,0.690027
0.9650000000000034,0.103762,-0.136063,0.698047
0.9675000000000012,0.109334,-0.140476,0.703693
0.9699999999999988,0.116282,-0.144707,0.706979
0.9724999999999966,0.121563,-0.149329,0.712273
0.9749999999999944,0.128869,-0.152992,0.713962
0.977499999999992,0.131851,-0.155495,0.716402
0.9799999999999898,0.135844,-0.155492,0.7209
0.9824999999999876,0.139842,-0.161554,0.725965
0.9849999999999852,0.142384,-0.158857,0.729563
0.987499999999983,0.141005,-0.165379,0.728584
0.9899999999999808,0.145223,-0.167619,0.736586
0.9925000000000068,0.141232,-0.171912,0.740285
0.9950000000000044,0.139412,-0.173643,0.742681
0.9975000000000024,0.136051,-0.173339,0.744564
1.0,0.131356,-0.174269,0.748418
1.0024999999999975,0.126175,-0.17668,0.755454
1.0049999999999957,0.118472,-0.175566,0.756718
1.0074999999999932,0.115042,-0.175083,0.761936
1.009999999999991,0.107694,-0.174078,0.763751
1.0124999999999886,0.098751,-0.178522,0.770182
1.0149999999999864,0.094285,-0.184464,0.770664
1.017499999999984,0.088591,-0.187002,0.775937
1.0199999999999818,0.081966,-0.191377,0.777067
1.0224999999999795,0.079454,-0.195433,0.776557
1.0250000000000057,0.064688,-0.197132,0.778692
1.0275000000000034,0.064214,-0.197928,0.779771
1.0300000000000011,0.058446,-0.205025,0.778725
1.0324999999999989,0.0518,-0.205396,0.779333
1.0349999999999966,0.047237,-0.209312,0.776088
1.0374999999999943,0.042532,-0.213379,0.776374
1.039999999999992,0.038495,-0.221199,0.773867
1.0424999999999898,0.032542,-0.220925,0.77024
1.0449999999999875,0.026605,-0.232333,0.767527
1.0474999999999852,0.025349,-0.228529,0.76321
1.049999999999983,0.018886,-0.23495,0.758959
1.052499999999981,0.008705,-0.235471,0.755637
1.0550000000000068,0.006577,-0.240287,0.75093
1.0575000000000043,-0.000927,-0.239182,0.739656
1.0600000000000025,-0.005212,-0.242546,0.738416
1.0625,-0.015324,-0.24696,0.731927
1.0649999999999975,-0.022078,-0.247578,0.724564
1.0674999999999957,-0.029156,-0.246078,0.718033
1.0699999999999932,-0.040144,-0.250782,0.711122
1.072499999999991,-0.045724,-0.248811,0.703303
1.0749999999999886,-0.053552,-0.250606,0.693853
1.0774999999999864,-0.063467,-0.252958,0.687501
1.079999999999984,-0.075865,-0.248423,0.679161
1.0824999999999818,-0.086606,-0.248107,0.671909
1.0849999999999795,-0.097357,-0.251497,0.662955
1.0875000000000057,-0.105737,-0.247492,0.658379
1.0900000000000034,-0.115858,-0.247321,0.65048
1.0925000000000011,-0.129578,-0.245501,0.641
1.0949999999999989,-0.143424,-0.244252,0.631703
1.0974999999999966,-0.154351,-0.246136,0.625851
1.0999999999999943,-0.16138,-0.246871,0.61985
1.102499999999992,-0.174607,-0.243525,0.613231
1.1049999999999898,-0.18357,-0.244433,0.608707
1.1074999999999875,-0.198115,-0.240427,0.599096
1.1099999999999852,-0.205311,-0.23825,0.59064
1.112499999999983,-0.218214,-0.23858,0.586949
1.114999999999981,-0.227858,-0.236715,0.580972
1.1175000000000068,-0.236307,-0.235164,0.577533
1.1200000000000043,-0.24575,-0.234494,0.572915
1.1225000000000025,-0.25494,-0.231619,0.566334
1.125,-0.262755,-0.226299,0.562168
1.1274999999999975,-0.266901,-0.229254,0.558401
1.1299999999999957,-0.273165,-0.225225,0.550962
1.1324999999999932,-0.279459,-0.21735,0.547048
1.134999999999991,-0.285967,-0.219895,0.545882
1.1374999999999886,-0.292547,-0.215153,0.541771
1.1399999999999864,-0.299495,-0.211363,0.535218
1.142499999999984,-0.307097,-0.206681,0.533565
1.1449999999999818,-0.313741,-0.200059,0.527237
1.1474999999999795,-0.318162,-0.196302,0.52295
1.1500000000000057,-0.322582,-0.189883,0.521622
1.1525000000000034,-0.326158,-0.188652,0.517053
1.1550000000000011,-0.329521,-0.183745,0.511443
1.1574999999999989,-0.335553,-0.184092,0.510191
1.1599999999999966,-0.335924,-0.177003,0.508755
1.1624999999999943,-0.341424,-0.176485,0.503423
1.164999999999992,-0.343782,-0.171797,0.504079
1.1674999999999898,-0.351003,-0.168008,0.500167
1.1699999999999875,-0.360341,-0.166982,0.503243
1.1724999999999852,-0.359765,-0.165534,0.500021
1.174999999999983,-0.369863,-0.158851,0.501704
1.177499999999981,-0.374705,-0.159918,0.504348
1.1800000000000068,-0.379832,-0.154853,0.507721
1.1825000000000043,-0.389627,-0.152239,0.510047
1.1850000000000025,-0.394699,-0.151013,0.513209
1.1875,-0.402042,-0.150651,0.518871
1.1899999999999975,-0.411055,-0.14362,0.527845
1.1924999999999957,-0.418903,-0.144865,0.53073
1.1949999999999932,-0.43,-0.140145,0.538991
1.197499999999991,-0.441215,-0.133529,0.546367
1.1999999999999886,-0.448354,-0.128491,0.558151
1.2024999999999864,-0.456087,-0.131293,0.563476
1.204999999999984,-0.46186,-0.124402,0.57342
1.2074999999999818,-0.476574,-0.120539,0.580712
1.2099999999999795,-0.481853,-0.117074,0.592526
1.2125000000000057,-0.489754,-0.118426,0.597901
1.2150000000000034,-0.494932,-0.1118,0.607162
1.2175000000000011,-0.503579,-0.108765,0.61548
1.2199999999999989,-0.509766,-0.105836,0.628235
1.2224999999999966,-0.511032,-0.098097,0.634847
1.2249999999999943,-0.513157,-0.095992,0.63927
1.227499999999992,-0.515395,-0.095886,0.649462
1.2299999999999898,-0.513904,-0.09412,0.653032
1.2324999999999875,-0.518134,-0.085837,0.658017
1.2349999999999852,-0.518631,-0.085962,0.666367
1.237499999999983,-0.519937,-0.084338,0.671003
1.239999999999981,-0.520432,-0.08042,0.677294
1.2425000000000068,-0.518739,-0.072829,0.679919
1.2450000000000043,-0.519921,-0.068119,0.683392
1.2475000000000025,-0.518344,-0.068229,0.691015
1.25,-0.516395,-0.063068,0.69362
1.2524999999999975,-0.510895,-0.054155,0.695386
1.2549999999999957,-0.510977,-0.054134,0.699277
1.2574999999999932,-0.506833,-0.048251,0.705887
1.259999999999991,-0.504154,-0.041436,0.711949
1.2624999999999886,-0.50081,-0.03778,0.712351
1.2649999999999864,-0.496803,-0.03169,0.721524
1.267499999999984,-0.487779,-0.025992,0.725148
1.2699999999999818,-0.487261,-0.020994,0.730901
1.2724999999999795,-0.479722,-0.007619,0.735124
1.2750000000000057,-0.473002,-0.006862,0.738184
1.2775000000000034,-0.471883,-0.004746,0.747348
1.2800000000000011,-0.463274,0.003389,0.750708
1.2824999999999989,-0.455368,0.009721,0.755529
1.2849999999999966,-0.444575,0.016912,0.764253
1.2874999999999943,-0.438804,0.020108,0.766597
1.289999999999992,-0.435479,0.028191,0.770544
1.2924999999999898,-0.425887,0.025823,0.778312
1.2949999999999875,-0.423069,0.027018,0.782243
1.2974999999999852,-0.414367,0.03384,0.785837
1.299999999999983,-0.411965,0.029727,0.793565
1.302499999999981,-0.40495,0.032214,0.801415
1.3050000000000068,-0.396948,0.036744,0.80693
1.3075000000000043,-0.398615,0.037713,0.813952
1.3100000000000025,-0.39237,0.037583,0.823031
1.3125,-0.389901,0.039204,0.829863
1.3149999999999975,-0.387373,0.036579,0.835417
1.3174999999999957,-0.37996,0.04018,0.845639
1.3199999999999932,-0.380583,0.03491,0.851748
1.322499999999991,-0.377025,0.036088,0.85944
1.3249999999999886,-0.373501,0.036756,0.868803
1.3274999999999864,-0.373286,0.032347,0.883777
1.329999999999984,-0.372894,0.025832,0.891968
1.3324999999999818,-0.367765,0.029515,0.902464
1.3349999999999795,-0.362881,0.025568,0.913709
1.3375000000000057,-0.36172,0.019566,0.921697
1.3400000000000034,-0.357425,0.02002,0.93248
1.3425000000000011,-0.352053,0.014324,0.943809
1.3449999999999989,-0.346166,0.013993,0.954471
1.3474999999999966,-0.345017,0.008006,0.967738
1.3499999999999943,-0.338642,0.001661,0.984093
1.352499999999992,-0.332217,-0.001937,0.992366
1.3549999999999898,-0.329825,-0.007449,1.006269
1.3574999999999875,-0.330064,-0.011717,1.014697
1.3599999999999852,-0.322022,-0.017643,1.024788
1.362499999999983,-0.320186,-0.018242,1.036618
1.364999999999981,-0.318767,-0.027201,1.048104
1.3675000000000068,-0.313994,-0.030994,1.063984
1.3700000000000043,-0.31303,-0.040172,1.073345
1.3725000000000025,-0.307377,-0.040562,1.085092
1.375,-0.30421,-0.047177,1.098644
1.3774999999999975,-0.300384,-0.05137,1.113777
1.3799999999999957,-0.296706,-0.062142,1.121345
1.3824999999999932,-0.293674,-0.066395,1.132378
1.384999999999991,-0.291193,-0.072451,1.140891
1.3874999999999886,-0.289033,-0.083159,1.15219
1.3899999999999864,-0.284736,-0.090875,1.164865
1.392499999999984,-0.27822,-0.093137,1.176497
1.3949999999999818,-0.271396,-0.103253,1.185171
1.3974999999999795,-0.263001,-0.107284,1.194365
1.4000000000000057,-0.259659,-0.115448,1.20378
1.4025000000000034,-0.256752,-0.122382,1.211121
1.4050000000000011,-0.248945,-0.128819,1.217299
1.4074999999999989,-0.243151,-0.136438,1.226826
1.4099999999999966,-0.240405,-0.1404,1.232388
1.4124999999999943,-0.226808,-0.146233,1.236588
1.414999999999992,-0.218503,-0.157619,1.241134
1.4174999999999898,-0.211217,-0.16069,1.246083
1.4199999999999875,-0.202032,-0.1652,1.245595
1.4224999999999852,-0.192258,-0.173885,1.249601
1.424999999999983,-0.190084,-0.176339,1.252989
1.427499999999981,-0.18654,-0.180316,1.255552
1.4300000000000068,-0.178197,-0.187427,1.260365
1.4325000000000043,-0.174677,-0.192344,1.268957
1.4350000000000025,-0.169641,-0.200497,1.269492
1.4375,-0.162214,-0.198831,1.268565
1.4399999999999975,-0.163862,-0.197475,1.274596
1.4424999999999957,-0.157727,-0.200312,1.277517
1.4449999999999932,-0.154309,-0.200051,1.276626
1.447499999999991,-0.155087,-0.19993,1.28534
1.4499999999999886,-0.14981,-0.201744,1.282687
1.4524999999999864,-0.145792,-0.203112,1.284805
1.454999999999984,-0.139208,-0.204277,1.288093
1.4574999999999818,-0.13499,-0.210142,1.289271
1.4599999999999795,-0.137882,-0.213601,1.289931
1.4625000000000057,-0.135622,-0.213766,1.28947
1.4650000000000034,-0.131697,-0.214,1.292176
1.4675000000000011,-0.129397,-0.21487,1.291717
1.4699999999999989,-0.121476,-0.217934,1.292534
1.4724999999999966,-0.126264,-0.217846,1.292772
1.4749999999999943,-0.120206,-0.222558,1.294619
1.477499999999992,-0.120588,-0.224255,1.291384
1.4799999999999898,-0.113162,-0.227371,1.287621
1.4824999999999875,-0.115685,-0.224951,1.286098
1.4849999999999852,-0.112768,-0.227912,1.288014
1.487499999999983,-0.108856,-0.228569,1.28814
1.489999999999981,-0.108345,-0.229827,1.286778
1.4925000000000068,-0.104189,-0.228049,1.282736
1.4950000000000043,-0.108185,-0.230101,1.277681
1.4975000000000025,-0.108105,-0.231198,1.279223
1.5,-0.110279,-0.232956,1.27805
1.5024999999999975,-0.108714,-0.227003,1.276432
1.5049999999999957,-0.110218,-0.224716,1.280308
1.5074999999999932,-0.114732,-0.224142,1.276645
1.509999999999991,-0.118518,-0.224355,1.279025
1.5124999999999886,-0.116882,-0.225036,1.275821
1.5149999999999864,-0.122133,-0.226259,1.2766
1.517499999999984,-0.126961,-0.228213,1.27633
1.5199999999999818,-0.124224,-0.223291,1.276357
1.5224999999999795,-0.130577,-0.226559,1.275084
1.5250000000000057,-0.134052,-0.228131,1.273547
1.5275000000000034,-0.137447,-0.231578,1.273857
1.5300000000000011,-0.140622,-0.233245,1.272285
1.5324999999999989,-0.141655,-0.233139,1.273659
1.5349999999999966,-0.150317,-0.239627,1.273387
1.5374999999999943,-0.155051,-0.237657,1.274895
1.539999999999992,-0.153554,-0.244886,1.272841
1.5424999999999898,-0.158198,-0.245933,1.273191
1.5449999999999875,-0.160775,-0.253356,1.271716
1.5474999999999852,-0.162904,-0.247613,1.272453
1.549999999999983,-0.167857,-0.251311,1.268926
1.552499999999981,-0.168853,-0.252678,1.270678
1.5550000000000068,-0.17038,-0.253555,1.264947
1.5575000000000043,-0.171721,-0.252174,1.263173
1.5600000000000025,-0.176752,-0.248987,1.258349
1.5625,-0.181286,-0.242858,1.259582
1.5649999999999975,-0.184505,-0.242865,1.258722
1.5674999999999957,-0.190505,-0.239749,1.251299
1.5699999999999932,-0.191319,-0.236596,1.248728
1.572499999999991,-0.196903,-0.231122,1.249775
1.5749999999999886,-0.201733,-0.226922,1.243746
1.5774999999999864,-0.207496,-0.225142,1.24271
1.579999999999984,-0.210476,-0.219837,1.238264
1.5824999999999818,-0.208067,-0.215095,1.240183
1.5849999999999795,-0.211179,-0.211735,1.23845
1.5875000000000057,-0.210594,-0.209655,1.236003
1.5900000000000034,-0.208791,-0.202634,1.232023
1.5925000000000011,-0.210908,-0.202099,1.228848
1.5949999999999989,-0.20736,-0.199407,1.227281
1.5974999999999966,-0.210562,-0.194928,1.220503
1.5999999999999943,-0.205203,-0.189717,1.221625
1.602499999999992,-0.204395,-0.188159,1.216915
1.6049999999999898,-0.20604,-0.186202,1.212603
1.6074999999999875,-0.204158,-0.185272,1.210129
1.6099999999999852,-0.201003,-0.181606,1.206811
1.612499999999983,-0.197643,-0.175607,1.203511
1.614999999999981,-0.199168,-0.172831,1.201771
1.6175000000000068,-0.197968,-0.169422,1.20279
1.6200000000000043,-0.199018,-0.168467,1.193744
1.6225000000000025,-0.195326,-0.159811,1.195636
1.625,-0.195807,-0.15887,1.18695
1.6274999999999975,-0.193651,-0.151348,1.183971
1.6299999999999957,-0.192428,-0.150801,1.180796
1.6324999999999932,-0.190458,-0.144149,1.17432
1.634999999999991,-0.191306,-0.139754,1.170653
1.6374999999999886,-0.188693,-0.137712,1.169403
1.6399999999999864,-0.186612,-0.128441,1.167057
1.642499999999984,-0.190095,-0.126679,1.159987
1.6449999999999818,-0.184505,-0.124575,1.157783
1.6474999999999795,-0.183815,-0.120705,1.151999
1.6500000000000057,-0.182755,-0.1157,1.148702
1.6525000000000034,-0.18047,-0.109133,1.1498
1.6550000000000011,-0.177512,-0.107348,1.146626
1.6574999999999989,-0.17587,-0.101538,1.146851
1.6599999999999966,-0.177896,-0.094883,1.145148
1.6624999999999943,-0.177048,-0.089607,1.143613
1.664999999999992,-0.174353,-0.085369,1.142527
1.6674999999999898,-0.175314,-0.08539,1.140317
1.6699999999999875,-0.177629,-0.08138,1.141135
1.6724999999999852,-0.172564,-0.073186,1.140049
1.674999999999983,-0.173661,-0.075147,1.140509
1.677499999999981,-0.170349,-0.068645,1.144087
1.6800000000000068,-0.168522,-0.069509,1.148224
1.6825000000000043,-0.167266,-0.064102,1.150721
1.6850000000000025,-0.166264,-0.062558,1.155366
1.6875,-0.162625,-0.068811,1.156833
1.6899999999999975,-0.160852,-0.066026,1.161123
1.6924999999999957,-0.159258,-0.062194,1.163573
1.6949999999999932,-0.155297,-0.068545,1.169862
1.697499999999991,-0.151129,-0.06783,1.174089
1.6999999999999886,-0.149643,-0.064586,1.176685
1.7024999999999864,-0.142865,-0.07032,1.180628
1.704999999999984,-0.142436,-0.067729,1.182256
1.7074999999999818,-0.132147,-0.071794,1.186852
1.7099999999999795,-0.124928,-0.06956,1.190515
1.7125000000000057,-0.124043,-0.071694,1.191452
1.7150000000000034,-0.118087,-0.073364,1.191997
1.7175000000000011,-0.111331,-0.07612,1.194061
1.7199999999999989,-0.10761,-0.07636,1.197619
1.7224999999999966,-0.096342,-0.076765,1.201202
1.7249999999999943,-0.093819,-0.077076,1.199241
1.727499999999992,-0.085662,-0.082663,1.20296
1.7299999999999898,-0.081787,-0.082888,1.205203
1.7324999999999875,-0.072354,-0.081225,1.204954
1.7349999999999852,-0.064984,-0.082724,1.205687
1.737499999999983,-0.054139,-0.087133,1.204936
1.739999999999981,-0.047618,-0.091793,1.204201
1.7425000000000068,-0.040185,-0.091878,1.204109
1.7450000000000043,-0.02383,-0.097153,1.196225
1.7475000000000025,-0.013174,-0.098239,1.195405
1.75,-0.0036,-0.106949,1.192024
1.7524999999999975,0.007085,-0.10442,1.186663
1.7549999999999957,0.01817,-0.108075,1.185184
1.7574999999999932,0.029071,-0.107364,1.176773
1.759999999999991,0.04067,-0.111543,1.169545
1.7624999999999886,0.050583,-0.110549,1.162904
1.7649999999999864,0.059884,-0.109027,1.153965
1.767499999999984,0.070172,-0.109185,1.147428
1.7699999999999818,0.076038,-0.10692,1.136398
1.7724999999999795,0.084611,-0.110331,1.12326
1.7750000000000057,0.088396,-0.118041,1.111543
1.7775000000000034,0.084695,-0.126737,1.092697
1.7800000000000011,0.084617,-0.135116,1.072336
1.7824999999999989,0.071421,-0.159001,1.046241
1.7849999999999966,0.053561,-0.176886,1.011811
1.7874999999999943,0.024887,-0.208867,0.968973
1.789999999999992,-0.008,-0.247489,0.920847
1.7924999999999898,-0.055859,-0.300002,0.857442
1.7949999999999875,-0.108403,-0.364903,0.772318
1.7974999999999852,-0.181173,-0.428934,0.668151
1.799999999999983,-0.24903,-0.483222,0.567503
1.802499999999981,-0.317712,-0.513949,0.480212
1.8050000000000068,-0.378412,-0.551821,0.425059
1.8075000000000043,-0.42312,-0.568788,0.39456
1.8100000000000025,-0.464304,-0.561489,0.38757
1.8125,-0.498139,-0.545617,0.406607
1.8149999999999975,-0.521991,-0.52903,0.431933
1.8174999999999957,-0.54048,-0.517588,0.462129
1.8199999999999927,-0.559129,-0.508323,0.491058
1.822499999999991,-0.561388,-0.497681,0.513537
1.8249999999999889,-0.560582,-0.505848,0.534497
1.8274999999999864,-0.545587,-0.509894,0.552427
1.829999999999984,-0.53279,-0.513713,0.560292
1.8324999999999816,-0.515685,-0.524131,0.569507
1.8349999999999795,-0.499743,-0.530149,0.578072
1.8375000000000057,-0.482611,-0.535119,0.587078
1.8400000000000036,-0.476843,-0.52978,0.596289
1.8425000000000007,-0.465769,-0.531224,0.614393
1.8449999999999989,-0.459771,-0.520469,0.630879
1.8474999999999968,-0.459512,-0.515109,0.646763
1.8499999999999943,-0.456216,-0.506263,0.658526
1.852499999999992,-0.453472,-0.497075,0.674122
1.8549999999999895,-0.450568,-0.489125,0.685222
1.8574999999999875,-0.446332,-0.477372,0.699376
1.8599999999999848,-0.441825,-0.461032,0.706465
1.862499999999983,-0.434686,-0.455491,0.712954
1.864999999999981,-0.424956,-0.445034,0.715833
1.8675000000000068,-0.419933,-0.430735,0.723519
1.8700000000000043,-0.41104,-0.419067,0.727224
1.8725000000000025,-0.396201,-0.402226,0.731834
1.875,-0.386454,-0.389615,0.733164
1.8774999999999975,-0.376558,-0.371526,0.734959
1.8799999999999957,-0.359914,-0.36179,0.733689
1.8824999999999927,-0.347208,-0.342713,0.73135
1.884999999999991,-0.330409,-0.3318,0.733227
1.8874999999999889,-0.31904,-0.31599,0.731005
1.8899999999999864,-0.301203,-0.297342,0.725582
1.892499999999984,-0.285773,-0.274167,0.723354
1.8949999999999816,-0.269356,-0.257674,0.713974
1.8974999999999795,-0.254077,-0.247049,0.704364
1.9000000000000057,-0.232542,-0.230999,0.697749
1.9025000000000036,-0.222813,-0.214449,0.6859
1.9050000000000007,-0.20432,-0.199105,0.677591
1.9074999999999989,-0.182307,-0.194937,0.663981
1.9099999999999968,-0.169493,-0.189149,0.644469
1.9124999999999943,-0.153402,-0.17843,0.628001
1.914999999999992,-0.135924,-0.176829,0.609139
1.9174999999999895,-0.127457,-0.177635,0.589778
1.9199999999999875,-0.114597,-0.175631,0.566254
1.9224999999999848,-0.112875,-0.176485,0.545437
1.924999999999983,-0.107181,-0.178128,0.525913
1.927499999999981,-0.109604,-0.179155,0.504244
1.9300000000000068,-0.109001,-0.182313,0.484147
1.9325000000000043,-0.114587,-0.188309,0.456817
1.9350000000000025,-0.11393,-0.190115,0.437927
1.9375,-0.119928,-0.188082,0.418849
1.9399999999999975,-0.117634,-0.189504,0.395856
1.9424999999999957,-0.116751,-0.189331,0.379991
1.9449999999999927,-0.109576,-0.184843,0.367942
1.947499999999991,-0.104499,-0.183149,0.361434
1.9499999999999889,-0.101492,-0.178361,0.361746
1.9524999999999864,-0.089429,-0.179289,0.35887
1.954999999999984,-0.088279,-0.169419,0.359686
1.9574999999999816,-0.078462,-0.173943,0.356578
1.9599999999999795,-0.072093,-0.17401,0.35983
1.9625000000000057,-0.063612,-0.173792,0.362331
1.9650000000000036,-0.063241,-0.170587,0.364525
1.9675000000000007,-0.055511,-0.176142,0.369499
1.9699999999999989,-0.051598,-0.171649,0.373902
1.9724999999999968,-0.047983,-0.170788,0.378407
1.9749999999999943,-0.047506,-0.172128,0.380642
1.977499999999992,-0.043422,-0.164348,0.384115
1.9799999999999895,-0.047503,-0.163835,0.39096
1.9824999999999875,-0.045189,-0.163589,0.393466
1.9849999999999848,-0.044999,-0.163679,0.396922
1.987499999999983,-0.048159,-0.16467,0.40187
1.989999999999981,-0.040635,-0.163022,0.402401
1.9925000000000068,-0.037092,-0.159298,0.405223
1.9950000000000043,-0.04086,-0.159623,0.409185
1.9975000000000025,-0.041501,-0.15378,0.415234
2.0,-0.037143,-0.152835,0.418582
2.0024999999999977,-0.035456,-0.151528,0.421707
2.0049999999999955,-0.034292,-0.155966,0.42728
2.007499999999993,-0.03162,-0.156823,0.431844
2.009999999999991,-0.033623,-0.157964,0.434937
2.0124999999999886,-0.032267,-0.156145,0.443307
2.0149999999999864,-0.034405,-0.159073,0.448428
2.017499999999984,-0.033972,-0.156435,0.452491
2.019999999999982,-0.034076,-0.157522,0.455891
2.0224999999999795,-0.036821,-0.156383,0.466598
2.0250000000000057,-0.03906,-0.153182,0.472406
2.0275000000000034,-0.042439,-0.155954,0.477722
2.030000000000001,-0.04102,-0.154419,0.479957
2.032499999999999,-0.043257,-0.148375,0.482683
2.0349999999999966,-0.045718,-0.147909,0.488064
2.0374999999999943,-0.049527,-0.146972,0.489774
2.039999999999992,-0.049868,-0.148264,0.494324
2.0424999999999898,-0.049753,-0.143164,0.494323
2.0449999999999875,-0.048396,-0.144082,0.497306
2.047499999999985,-0.051503,-0.138515,0.496904
2.049999999999983,-0.052707,-0.137819,0.498765
2.0524999999999807,-0.051683,-0.141275,0.502525
2.055000000000007,-0.050509,-0.134756,0.508299
2.0575000000000045,-0.056176,-0.134414,0.511947
2.0600000000000023,-0.055949,-0.130513,0.517876
2.0625,-0.055116,-0.127709,0.521984
2.0649999999999977,-0.056109,-0.125377,0.5298
2.0674999999999955,-0.059043,-0.123912,0.529458
2.069999999999993,-0.060309,-0.122924,0.531586
2.072499999999991,-0.057569,-0.121424,0.538992
2.0749999999999886,-0.06033,-0.116184,0.540938
2.0774999999999864,-0.061795,-0.112286,0.544097
2.079999999999984,-0.062092,-0.109872,0.547775
2.082499999999982,-0.065465,-0.106528,0.55012
2.0849999999999795,-0.065969,-0.10577,0.552494
2.0875000000000057,-0.073491,-0.10141,0.552333
2.0900000000000034,-0.077629,-0.093792,0.550466
2.092500000000001,-0.078304,-0.096244,0.556635
2.094999999999999,-0.078559,-0.088076,0.557157
2.0974999999999966,-0.085725,-0.090921,0.555774
2.0999999999999943,-0.087768,-0.085412,0.562707
2.102499999999992,-0.089009,-0.080445,0.562272
2.1049999999999898,-0.093901,-0.075774,0.564059
2.1074999999999875,-0.099233,-0.073808,0.560579
2.109999999999985,-0.101721,-0.065085,0.564494
2.112499999999983,-0.103454,-0.06302,0.563098
2.1149999999999807,-0.107001,-0.061192,0.564686
2.117500000000007,-0.108394,-0.060259,0.5617
2.1200000000000045,-0.109507,-0.05666,0.561986
2.1225000000000023,-0.114429,-0.052741,0.562195
2.125,-0.115228,-0.051777,0.561862
2.1274999999999977,-0.114834,-0.054935,0.5591
2.1299999999999955,-0.117931,-0.052965,0.562004
2.132499999999993,-0.1195,-0.048518,0.558327
2.134999999999991,-0.117886,-0.047113,0.55831
2.1374999999999886,-0.120413,-0.048335,0.556881
2.1399999999999864,-0.122575,-0.045297,0.559961
2.142499999999984,-0.121911,-0.043577,0.555805
2.144999999999982,-0.122486,-0.047539,0.55647
2.1474999999999795,-0.123289,-0.041653,0.553402
2.1500000000000057,-0.125268,-0.048152,0.552748
2.1525000000000034,-0.12532,-0.043397,0.553454
2.155000000000001,-0.121255,-0.046426,0.551906
2.157499999999999,-0.127113,-0.043327,0.545739
2.1599999999999966,-0.12046,-0.043659,0.545723
2.1624999999999943,-0.125602,-0.048545,0.547591
2.164999999999992,-0.123644,-0.047147,0.542343
2.1674999999999898,-0.122662,-0.051789,0.541993
2.1699999999999875,-0.123817,-0.049283,0.539314
2.172499999999985,-0.124718,-0.053728,0.537174
2.174999999999983,-0.119977,-0.056903,0.531731
2.1774999999999807,-0.125827,-0.053835,0.53215
2.180000000000007,-0.121075,-0.055785,0.527593
2.1825000000000045,-0.118855,-0.05846,0.527931
2.1850000000000023,-0.12022,-0.064063,0.524718
2.1875,-0.122149,-0.064644,0.524697
2.1899999999999977,-0.116217,-0.061861,0.522857
2.1924999999999955,-0.115439,-0.063102,0.519239
2.194999999999993,-0.113188,-0.06579,0.515117
2.197499999999991,-0.109696,-0.067379,0.510684
2.1999999999999886,-0.107451,-0.068153,0.5102
2.2024999999999864,-0.107393,-0.067733,0.510608
2.204999999999984,-0.10329,-0.07156,0.504654
2.207499999999982,-0.101802,-0.074871,0.503854
2.2099999999999795,-0.101668,-0.071345,0.503122
2.2125000000000057,-0.102851,-0.076798,0.499877
2.2150000000000034,-0.098048,-0.078079,0.493968
2.217500000000001,-0.096639,-0.08065,0.492797
2.219999999999999,-0.095898,-0.079359,0.489429
2.2224999999999966,-0.092463,-0.084394,0.488874
2.2249999999999943,-0.091641,-0.084832,0.484147
2.227499999999992,-0.090058,-0.089651,0.484779
2.2299999999999898,-0.087507,-0.090532,0.481432
2.2324999999999875,-0.089385,-0.093426,0.478943
2.234999999999985,-0.085491,-0.094098,0.476088
2.237499999999983,-0.090404,-0.101413,0.47689
2.2399999999999807,-0.08812,-0.104068,0.476971
2.242500000000007,-0.08578,-0.107664,0.475285
2.2450000000000045,-0.086322,-0.10876,0.471424
2.2475000000000023,-0.085725,-0.110239,0.472886
2.25,-0.089332,-0.111559,0.470368
2.2524999999999977,-0.091667,-0.114435,0.470547
2.2549999999999955,-0.08761,-0.111701,0.471998
2.257499999999993,-0.091423,-0.112629,0.468984
2.259999999999991,-0.090413,-0.111224,0.467864
2.2624999999999886,-0.091469,-0.11768,0.465141
2.2649999999999864,-0.088497,-0.115763,0.46889
2.267499999999984,-0.089382,-0.116365,0.464562
2.269999999999982,-0.09063,-0.12182,0.463872
2.2724999999999795,-0.086464,-0.12228,0.462873
2.2750000000000057,-0.088929,-0.122002,0.462999
2.2775000000000034,-0.084643,-0.126918,0.461452
2.280000000000001,-0.081518,-0.127581,0.463662
2.282499999999999,-0.081344,-0.128052,0.462549
2.2849999999999966,-0.076489,-0.125626,0.461028
2.2874999999999943,-0.078467,-0.12189,0.456917
2.289999999999992,-0.073856,-0.12244,0.456622
2.2924999999999898,-0.074486,-0.120859,0.454544
2.2949999999999875,-0.066935,-0.119686,0.449147
2.297499999999985,-0.073105,-0.117549,0.450052
2.299999999999983,-0.070654,-0.1186,0.447959
2.3024999999999807,-0.071873,-0.120088,0.445943
2.305000000000007,-0.07119,-0.121613,0.444139
2.3075000000000045,-0.072634,-0.11927,0.441296
2.3100000000000023,-0.067288,-0.125352,0.444432
2.3125,-0.069079,-0.120734,0.444826
2.3149999999999977,-0.065097,-0.121485,0.445125
2.3174999999999955,-0.070015,-0.125539,0.443449
2.319999999999993,-0.067775,-0.123349,0.440989
2.322499999999991,-0.073577,-0.121874,0.443902
2.3249999999999886,-0.074741,-0.123192,0.444
2.3274999999999864,-0.079051,-0.118725,0.443811
2.329999999999984,-0.081034,-0.110629,0.441927
2.332499999999982,-0.083749,-0.110051,0.440591
2.3349999999999795,-0.086141,-0.108415,0.440336
2.3375000000000057,-0.086507,-0.104703,0.437399
2.3400000000000034,-0.08864,-0.101958,0.43681
2.342500000000001,-0.091188,-0.104509,0.435739
2.344999999999999,-0.094004,-0.103277,0.433565
2.3474999999999966,-0.102219,-0.099732,0.433419
2.3499999999999943,-0.101753,-0.096099,0.433484
2.352499999999992,-0.104176,-0.092214,0.430843
2.3549999999999898,-0.107518,-0.091709,0.428858
2.3574999999999875,-0.111552,-0.08707,0.428741
2.359999999999985,-0.115518,-0.085424,0.425511
2.362499999999983,-0.117902,-0.083977,0.425271
2.3649999999999807,-0.1169,-0.084993,0.423502
2.367500000000007,-0.123517,-0.08097,0.423566
2.3700000000000045,-0.121202,-0.079563,0.422179
2.3725000000000023,-0.120366,-0.081284,0.425198
2.375,-0.127523,-0.081138,0.422553
2.3774999999999977,-0.124444,-0.080827,0.424442
2.3799999999999955,-0.13161,-0.081559,0.427441
2.382499999999993,-0.129437,-0.078067,0.427259
2.384999999999991,-0.12926,-0.076619,0.426751
2.3874999999999886,-0.133936,-0.081307,0.429391
2.3899999999999864,-0.136247,-0.076701,0.431896
2.392499999999984,-0.137223,-0.076251,0.432389
2.394999999999982,-0.136775,-0.069578,0.436267
2.3974999999999795,-0.138891,-0.073689,0.435934
2.4000000000000057,-0.143144,-0.073218,0.438215
2.4025000000000034,-0.143436,-0.068782,0.439072
2.405000000000001,-0.139934,-0.066936,0.437155
2.407499999999999,-0.140443,-0.069752,0.438038
2.4099999999999966,-0.140461,-0.070649,0.433118
2.4124999999999943,-0.136632,-0.071093,0.442057
2.414999999999992,-0.13662,-0.07315,0.443273
2.4174999999999898,-0.135276,-0.071448,0.445259
2.4199999999999875,-0.136447,-0.071089,0.446235
2.422499999999985,-0.133488,-0.068399,0.445094
2.424999999999983,-0.132254,-0.070854,0.443272
2.4274999999999807,-0.131346,-0.072181,0.443771
2.430000000000007,-0.128263,-0.073457,0.446407
2.4325000000000045,-0.128217,-0.072689,0.445168
2.4350000000000023,-0.12383,-0.070423,0.445423
2.4375,-0.125194,-0.074862,0.443587
2.4399999999999977,-0.118855,-0.075112,0.446873
2.4424999999999955,-0.121267,-0.076857,0.45088
2.444999999999993,-0.112632,-0.0791,0.449834
2.447499999999991,-0.112531,-0.081056,0.454562
2.4499999999999886,-0.10962,-0.082478,0.450697
2.4524999999999864,-0.10782,-0.086921,0.453223
2.454999999999984,-0.102338,-0.085475,0.458098
2.457499999999982,-0.103089,-0.087519,0.456683
2.4599999999999795,-0.101061,-0.089544,0.45447
2.4625000000000057,-0.097908,-0.092119,0.461053
2.4650000000000034,-0.094889,-0.094233,0.459396
2.467500000000001,-0.092199,-0.095001,0.461594
2.469999999999999,-0.088939,-0.094862,0.462743
2.4724999999999966,-0.085397,-0.097391,0.463431
2.4749999999999943,-0.086348,-0.101724,0.469627
2.477499999999992,-0.081994,-0.101346,0.469875
2.4799999999999898,-0.073338,-0.10398,0.468486
2.4824999999999875,-0.071083,-0.108196,0.472429
2.484999999999985,-0.067782,-0.112623,0.475503
2.487499999999983,-0.066186,-0.116025,0.477438
2.4899999999999807,-0.061895,-0.114676,0.480258
2.492500000000007,-0.055508,-0.116888,0.477996
2.4950000000000045,-0.052182,-0.115985,0.481554
2.4975000000000023,-0.047494,-0.120029,0.486369
2.5,-0.045563,-0.124222,0.484442
2.5024999999999977,-0.038984,-0.12784,0.489137
2.5049999999999955,-0.035252,-0.132005,0.493538
2.507499999999993,-0.027898,-0.131308,0.494894
2.509999999999991,-0.02442,-0.136319,0.495916
2.5124999999999886,-0.016731,-0.140235,0.498042
2.5149999999999864,-0.01203,-0.140016,0.502601
2.517499999999984,-0.010857,-0.142206,0.505474
2.519999999999982,-0.002019,-0.140725,0.507722
2.5224999999999795,0.001406,-0.145082,0.510039
2.5250000000000057,0.009096,-0.144995,0.507736
2.5275000000000034,0.014395,-0.147015,0.511008
2.530000000000001,0.020332,-0.147149,0.514252
2.532499999999999,0.02828,-0.150336,0.513244
2.5349999999999966,0.03351,-0.148135,0.516268
2.5374999999999943,0.040483,-0.151426,0.518305
2.539999999999992,0.040641,-0.150632,0.520912
2.5424999999999898,0.050593,-0.150126,0.522134
2.5449999999999875,0.055874,-0.153542,0.523666
2.547499999999985,0.055435,-0.153497,0.527781
2.549999999999983,0.061322,-0.152132,0.523656
2.5524999999999807,0.066844,-0.152402,0.530871
2.555000000000007,0.069606,-0.150445,0.530317
2.5575000000000045,0.071772,-0.149991,0.531643
2.5600000000000023,0.073386,-0.147359,0.532416
2.5625,0.073818,-0.149004,0.533081
2.5649999999999977,0.082534,-0.14957,0.532218
2.5674999999999955,0.085711,-0.14904,0.534377
2.569999999999993,0.086509,-0.14147,0.534944
2.572499999999991,0.092382,-0.142682,0.534689
2.5749999999999886,0.094957,-0.141692,0.534067
2.5774999999999864,0.089701,-0.139205,0.534721
2.579999999999984,0.095127,-0.141756,0.537533
2.582499999999982,0.098672,-0.140412,0.533418
2.5849999999999795,0.100874,-0.137104,0.531248
2.5875000000000057,0.102507,-0.139886,0.529704
2.5900000000000034,0.101585,-0.139087,0.527189
2.592500000000001,0.106154,-0.142317,0.532015
2.594999999999999,0.104172,-0.136016,0.526095
2.5974999999999966,0.107645,-0.137863,0.52501
2.5999999999999943,0.109031,-0.138935,0.523388
2.602499999999992,0.104775,-0.133914,0.524307
2.6049999999999898,0.108612,-0.135928,0.521324
2.6074999999999875,0.106038,-0.13328,0.517678
2.609999999999985,0.107438,-0.132042,0.51892
2.612499999999983,0.108159,-0.130193,0.511559
2.6149999999999807,0.106081,-0.128762,0.509418
2.617500000000007,0.107365,-0.126873,0.511136
2.6200000000000045,0.107544,-0.129956,0.50396
2.6225000000000023,0.107769,-0.129247,0.499965
2.625,0.107719,-0.125285,0.498165
2.6274999999999977,0.102108,-0.126337,0.495457
2.6299999999999955,0.103227,-0.122896,0.488772
2.632499999999993,0.103191,-0.120644,0.487662
2.634999999999991,0.100813,-0.125219,0.486354
2.6374999999999886,0.099475,-0.123119,0.482995
2.6399999999999864,0.098296,-0.12328,0.479241
2.642499999999984,0.097402,-0.1151,0.475303
2.644999999999982,0.094006,-0.117661,0.474487
2.6474999999999795,0.096431,-0.115319,0.468947
2.6500000000000057,0.08928,-0.107034,0.471411
2.6525000000000034,0.090229,-0.108282,0.467861
2.655000000000001,0.087824,-0.104195,0.463762
2.657499999999999,0.082514,-0.105894,0.461348
2.6599999999999966,0.079461,-0.102696,0.460198
2.6624999999999943,0.077107,-0.098638,0.458431
2.664999999999992,0.069842,-0.094791,0.457784
2.6674999999999898,0.070485,-0.091843,0.456237
2.6699999999999875,0.065259,-0.095826,0.452813
2.672499999999985,0.061942,-0.093891,0.455173
2.674999999999983,0.059827,-0.088613,0.45133
2.6774999999999807,0.053931,-0.088307,0.450429
2.680000000000007,0.047139,-0.082536,0.447059
2.6825000000000045,0.047812,-0.078781,0.449649
2.6850000000000023,0.041715,-0.07817,0.447848
2.6875,0.036369,-0.072323,0.443801
2.6899999999999977,0.033789,-0.073464,0.442294
2.6924999999999955,0.027367,-0.070012,0.44016
2.694999999999993,0.023275,-0.065614,0.439652
2.697499999999991,0.021838,-0.06385,0.436135
2.6999999999999886,0.016158,-0.063603,0.434256
2.7024999999999864,0.011811,-0.06112,0.434498
2.704999999999984,0.010172,-0.055991,0.431391
2.707499999999982,0.007381,-0.056322,0.427506
2.7099999999999795,0.001451,-0.056991,0.426476
2.7125000000000057,0.002632,-0.050235,0.423431
2.7150000000000034,0.002442,-0.053921,0.418631
2.717500000000001,-0.003444,-0.053905,0.42007
2.719999999999999,-0.009137,-0.050889,0.415153
2.7224999999999966,-0.00324,-0.054775,0.412365
2.7249999999999943,-0.003578,-0.053844,0.410279
2.727499999999992,-0.005695,-0.050351,0.407366
2.7299999999999898,-0.008075,-0.051446,0.407232
2.7324999999999875,-0.012101,-0.050178,0.402489
2.734999999999985,-0.011392,-0.054385,0.400411
2.737499999999983,-0.013967,-0.054163,0.399833
2.7399999999999807,-0.011784,-0.05371,0.39315
2.742500000000007,-0.012067,-0.057925,0.392071
2.7450000000000045,-0.011121,-0.060259,0.387757
2.7475000000000023,-0.013451,-0.057644,0.384132
2.75,-0.013146,-0.059186,0.384762
2.7524999999999977,-0.013089,-0.061303,0.383011
2.7549999999999955,-0.00951,-0.06395,0.380861
2.757499999999993,-0.012611,-0.066631,0.379228
2.759999999999991,-0.01035,-0.069451,0.374129
2.7624999999999886,-0.010717,-0.073901,0.378386
2.7649999999999864,-0.007723,-0.084031,0.379755
2.767499999999984,-0.007117,-0.087044,0.375082
2.769999999999982,-0.009054,-0.094529,0.374047
2.7724999999999795,-0.010568,-0.091101,0.377294
2.7750000000000057,-0.009428,-0.095496,0.377458
2.7775000000000034,-0.008515,-0.096059,0.377645
2.780000000000001,-0.012743,-0.097008,0.376131
2.782499999999999,-0.011717,-0.095385,0.375815
2.7849999999999966,-0.010771,-0.093161,0.374609
2.7874999999999943,-0.010476,-0.09861,0.377674
2.789999999999992,-0.010106,-0.097986,0.376748
2.7924999999999898,-0.009546,-0.102207,0.374881
2.7949999999999875,-0.013956,-0.097154,0.378311
2.797499999999985,-0.010265,-0.105785,0.375006
2.799999999999983,-0.008546,-0.106587,0.377477
2.8024999999999807,-0.003794,-0.110289,0.376423
2.805000000000007,-0.003554,-0.111948,0.379606
2.8075000000000045,-0.005393,-0.117597,0.385135
2.8100000000000023,-0.003584,-0.121211,0.384719
2.8125,-0.003232,-0.122932,0.387127
2.8149999999999977,-0.003713,-0.12468,0.387412
2.8174999999999955,-0.004074,-0.124089,0.386717
2.819999999999993,-0.003766,-0.13115,0.386553
2.822499999999991,-9.2e-05,-0.130592,0.386085
2.8249999999999886,0.001077,-0.129376,0.387187
2.8274999999999864,0.00234,-0.136119,0.386988
2.829999999999984,0.00402,-0.135249,0.385685
2.832499999999982,0.006693,-0.134544,0.38381
2.8349999999999795,0.011351,-0.135939,0.383426
2.8375000000000057,0.013299,-0.142398,0.382287
2.8400000000000034,0.013629,-0.141859,0.38098
2.842500000000001,0.016027,-0.145526,0.381104
2.844999999999999,0.021192,-0.149676,0.379237
2.8474999999999966,0.022635,-0.154091,0.376806
2.8499999999999943,0.025066,-0.156653,0.378244
2.852499999999992,0.026213,-0.162119,0.375827
2.8549999999999898,0.026237,-0.165419,0.373664
2.8574999999999875,0.032461,-0.167561,0.375789
2.859999999999985,0.035074,-0.172338,0.375506
2.862499999999983,0.032526,-0.17105,0.378605
2.8649999999999807,0.03754,-0.179099,0.377632
2.867500000000007,0.039408,-0.180767,0.379162
2.8700000000000045,0.044427,-0.183867,0.378376
2.8725000000000023,0.045233,-0.187205,0.377703
2.875,0.0485,-0.191356,0.378791
2.8774999999999977,0.055189,-0.194831,0.376984
2.8799999999999955,0.055198,-0.193463,0.375876
2.882499999999993,0.05539,-0.195032,0.377814
2.884999999999991,0.060294,-0.194734,0.376873
2.8874999999999886,0.062291,-0.202918,0.374106
2.8899999999999864,0.067341,-0.20067,0.377301
2.892499999999984,0.066642,-0.20908,0.373346
2.894999999999982,0.069422,-0.212947,0.374121
2.8974999999999795,0.073572,-0.214854,0.376856
2.9000000000000057,0.075247,-0.221679,0.375433
2.9025000000000034,0.075496,-0.225675,0.377803
2.905000000000001,0.0806,-0.225414,0.378155
2.907499999999999,0.083897,-0.235227,0.377633
2.9099999999999966,0.086872,-0.240456,0.378554
2.9124999999999943,0.090652,-0.245589,0.380928
2.914999999999992,0.093491,-0.24664,0.380599
2.9174999999999898,0.094467,-0.251748,0.384257
2.9199999999999875,0.096262,-0.254776,0.386935
2.922499999999985,0.096891,-0.252864,0.379726
2.924999999999983,0.100309,-0.254269,0.377748
2.9274999999999807,0.102551,-0.256284,0.379504
2.930000000000007,0.107404,-0.259934,0.376473
2.9325000000000045,0.106651,-0.262359,0.375827
2.9350000000000023,0.113413,-0.264731,0.377944
2.9375,0.111034,-0.266475,0.379621
2.9399999999999977,0.116364,-0.268333,0.377155
2.9424999999999955,0.118348,-0.269544,0.376451
2.944999999999993,0.119656,-0.276232,0.374944
2.947499999999991,0.122222,-0.277643,0.375215
2.9499999999999886,0.121615,-0.278214,0.377888
2.9524999999999864,0.127783,-0.281127,0.375289
2.954999999999984,0.126228,-0.281513,0.374552
2.957499999999982,0.126701,-0.283173,0.375738
2.9599999999999795,0.127017,-0.284709,0.374927
2.9625000000000057,0.130204,-0.287119,0.371156
2.9650000000000034,0.128222,-0.283699,0.371451
2.967500000000001,0.131171,-0.288284,0.367665
2.969999999999999,0.130299,-0.287671,0.369243
2.9724999999999966,0.126225,-0.290075,0.366803
2.9749999999999943,0.12624,-0.283371,0.363712
2.977499999999992,0.127087,-0.288807,0.363506
2.9799999999999898,0.127251,-0.286379,0.360689
2.9824999999999875,0.124905,-0.293262,0.359602
2.984999999999985,0.123665,-0.28733,0.358702
2.987499999999983,0.122157,-0.286965,0.360044
2.9899999999999807,0.121274,-0.289238,0.359949
2.992500000000007,0.121687,-0.286454,0.358246
2.9950000000000045,0.121442,-0.278622,0.358044
2.9975000000000023,0.112452,-0.283805,0.358119
3.0,0.117526,-0.282016,0.357034
3.0024999999999977,0.114007,-0.27552,0.354829
3.0049999999999955,0.117479,-0.28073,0.354701
3.007499999999993,0.114981,-0.279681,0.353705
3.009999999999991,0.115826,-0.279005,0.354145
3.0124999999999886,0.114273,-0.27866,0.34934
3.0149999999999864,0.114434,-0.275281,0.35414
3.017499999999984,0.113415,-0.277725,0.351795
3.019999999999982,0.112226,-0.281084,0.35047
3.0224999999999795,0.110062,-0.273584,0.352656
3.0250000000000057,0.109499,-0.26997,0.347368
3.0275000000000034,0.107939,-0.27442,0.349025
3.030000000000001,0.106651,-0.276713,0.347255
3.032499999999999,0.103962,-0.277039,0.344677
3.0349999999999966,0.103837,-0.27335,0.348308
3.0374999999999943,0.102917,-0.276817,0.343414
3.039999999999992,0.103444,-0.275429,0.343047
3.0424999999999898,0.097092,-0.270669,0.337702
3.0449999999999875,0.09236,-0.26776,0.338686
3.047499999999985,0.091898,-0.268336,0.338655
3.049999999999983,0.086658,-0.265598,0.337214
3.0524999999999807,0.0868,-0.259779,0.336465
3.055000000000007,0.086869,-0.262289,0.336341
3.0575000000000045,0.085049,-0.259921,0.3331
3.0600000000000023,0.081635,-0.262909,0.33165
3.0625,0.080109,-0.258018,0.332024
3.0649999999999977,0.079613,-0.254148,0.33103
3.0674999999999955,0.077545,-0.254564,0.32926
3.069999999999993,0.074836,-0.252496,0.327512
3.072499999999991,0.073213,-0.255632,0.32175
3.0749999999999886,0.073665,-0.258718,0.322156
3.0774999999999864,0.069625,-0.25721,0.320712
3.079999999999984,0.072251,-0.25558,0.319845
3.082499999999982,0.069966,-0.259203,0.319264
3.0849999999999795,0.065456,-0.256243,0.319134
3.0875000000000057,0.06389,-0.259294,0.319481
3.0900000000000034,0.061294,-0.262071,0.316446
3.092500000000001,0.058172,-0.255753,0.316634
3.094999999999999,0.058153,-0.255294,0.314946
3.0974999999999966,0.059863,-0.257133,0.314655
3.0999999999999943,0.057095,-0.251423,0.312074
3.102499999999992,0.053044,-0.251265,0.307291
3.1049999999999898,0.052401,-0.248042,0.309136
3.1074999999999875,0.04926,-0.249325,0.30416
3.109999999999985,0.047063,-0.23925,0.29865
3.112499999999983,0.04436,-0.240293,0.29617
3.1149999999999807,0.039893,-0.242285,0.296691
3.117500000000007,0.041098,-0.236358,0.292497
3.1200000000000045,0.043761,-0.232829,0.292162
3.1225000000000023,0.037513,-0.236738,0.288809
3.125,0.036129,-0.236467,0.289709
3.1274999999999977,0.031174,-0.229701,0.283589
3.1299999999999955,0.033148,-0.22915,0.285035
3.132499999999993,0.030392,-0.229266,0.280394
3.134999999999991,0.026724,-0.227807,0.281417
3.1374999999999886,0.025512,-0.226793,0.276069
3.1399999999999864,0.021727,-0.220194,0.277641
3.142499999999984,0.018726,-0.221518,0.27403
3.144999999999982,0.021475,-0.218667,0.270835
3.1474999999999795,0.019597,-0.21762,0.268491
3.1500000000000057,0.018277,-0.215632,0.265308
3.1525000000000034,0.015157,-0.212489,0.262038
3.155000000000001,0.017262,-0.210613,0.256365
3.157499999999999,0.013422,-0.209603,0.250306
3.1599999999999966,0.012895,-0.209503,0.247426
3.1624999999999943,0.008363,-0.205952,0.243827
3.164999999999992,0.012966,-0.201736,0.242374
3.1674999999999898,0.010857,-0.203599,0.234661
3.1699999999999875,0.009022,-0.200118,0.230233
3.172499999999985,0.009838,-0.2004,0.225619
3.174999999999983,0.007574,-0.196397,0.222925
3.1774999999999807,0.009011,-0.199428,0.212731
3.180000000000007,0.00783,-0.189519,0.208011
3.1825000000000045,0.001831,-0.185609,0.203156
3.1850000000000023,0.002242,-0.185472,0.196188
3.1875,0.001539,-0.177331,0.188235
3.1899999999999977,-0.002179,-0.17259,0.1817
3.1924999999999955,-0.005156,-0.167786,0.172253
3.194999999999993,-0.005826,-0.1601,0.160324
3.197499999999991,-0.012308,-0.150864,0.1493
3.1999999999999886,-0.013492,-0.146767,0.134934
3.2024999999999864,-0.01896,-0.137703,0.122329
3.204999999999984,-0.021651,-0.12673,0.109322
3.207499999999982,-0.025189,-0.119878,0.094784
3.2099999999999795,-0.028494,-0.113456,0.078199
3.2125000000000057,-0.033551,-0.102454,0.067907
3.2150000000000034,-0.038478,-0.095601,0.05488
3.217500000000001,-0.038408,-0.082845,0.041078
3.219999999999999,-0.039555,-0.071724,0.024981
3.2224999999999966,-0.044587,-0.057942,0.018515
3.2249999999999943,-0.045826,-0.045303,0.006901
3.227499999999992,-0.051698,-0.04134,-0.003664
3.2299999999999898,-0.052972,-0.027111,-0.01087
3.2324999999999875,-0.057766,-0.015268,-0.016971
3.234999999999985,-0.060864,-0.00387,-0.025605
3.237499999999983,-0.060669,0.001734,-0.029954
3.2399999999999807,-0.063109,0.016431,-0.033963
3.242500000000007,-0.061814,0.023223,-0.037059
3.2450000000000045,-0.059448,0.025945,-0.039282
3.2475000000000023,-0.062704,0.034628,-0.041501
3.25,-0.062902,0.035597,-0.040042
3.2524999999999977,-0.063293,0.041299,-0.037095
3.2549999999999955,-0.060613,0.037516,-0.035496
3.257499999999993,-0.057088,0.03835,-0.032672
3.259999999999991,-0.05801,0.044004,-0.029968
3.2624999999999886,-0.063664,0.041244,-0.023369
3.2649999999999864,-0.062284,0.037373,-0.020967
3.267499999999984,-0.058796,0.038805,-0.014806
3.269999999999982,-0.056082,0.033117,-0.007489
3.2724999999999795,-0.057663,0.034835,-0.002283
3.2750000000000057,-0.060083,0.030828,0.000524
3.2775000000000034,-0.058255,0.02808,0.007252
3.280000000000001,-0.058852,0.027863,0.012838
3.282499999999999,-0.058667,0.02754,0.018661
3.2849999999999966,-0.056086,0.021329,0.021172
3.2874999999999943,-0.061303,0.021812,0.024078
3.289999999999992,-0.056808,0.013114,0.030413
3.2924999999999898,-0.056934,0.01454,0.031585
3.2949999999999875,-0.056976,0.014973,0.035661
3.297499999999985,-0.056958,0.007849,0.038778
3.299999999999983,-0.057155,0.003663,0.039513
3.3024999999999807,-0.05502,0.003826,0.044685
3.305000000000007,-0.054228,-0.001639,0.042767
3.3075000000000045,-0.053944,0.000403,0.041413
3.3100000000000023,-0.05675,-0.004916,0.047623
3.3125,-0.056094,-0.002883,0.048184
3.3149999999999977,-0.056434,-0.008768,0.043123
3.3174999999999955,-0.051013,-0.008693,0.042819
3.319999999999993,-0.054909,-0.010294,0.044935
3.322499999999991,-0.052311,-0.013749,0.045757
3.3249999999999886,-0.053915,-0.018857,0.042629
3.3274999999999864,-0.051974,-0.021303,0.036692
3.329999999999984,-0.050151,-0.022118,0.042706
3.332499999999982,-0.051104,-0.023307,0.03811
3.3349999999999795,-0.048208,-0.026967,0.032114
3.3375000000000057,-0.053039,-0.030749,0.034162
3.3400000000000034,-0.050749,-0.03472,0.030728
3.342500000000001,-0.054134,-0.034462,0.037313
3.344999999999999,-0.058313,-0.035706,0.035853
3.3474999999999966,-0.056961,-0.037004,0.036485
3.3499999999999943,-0.059749,-0.035207,0.036912
3.352499999999992,-0.065696,-0.037232,0.036187
3.3549999999999898,-0.071335,-0.035743,0.033049
3.3574999999999875,-0.07395,-0.029983,0.037103
3.359999999999985,-0.072939,-0.029843,0.034407
3.362499999999983,-0.077003,-0.022495,0.039943
3.3649999999999807,-0.079262,-0.018334,0.032914
3.367500000000007,-0.08285,-0.01225,0.035115
3.3700000000000045,-0.087309,-0.01239,0.030341
3.3725000000000023,-0.089462,-0.008291,0.029279
3.375,-0.093921,0.001342,0.028478
3.3774999999999977,-0.091326,-0.000471,0.027689
3.3799999999999955,-0.09466,0.00177,0.02423
3.382499999999993,-0.091934,0.005681,0.023565
3.384999999999991,-0.095289,0.006258,0.019011
3.3874999999999886,-0.091796,0.010685,0.013763
3.3899999999999864,-0.095433,0.007766,0.012576
3.392499999999984,-0.091513,0.005899,0.012609
3.394999999999982,-0.095105,0.008693,0.006285
3.3974999999999795,-0.091758,0.005152,0.007107
3.4000000000000057,-0.091775,0.004273,0.009442
3.4025000000000034,-0.091101,0.003748,0.007107
3.405000000000001,-0.085251,0.002665,0.004392
3.407499999999999,-0.090201,0.001331,0.003149
3.4099999999999966,-0.090459,-0.00218,0.000393
3.4124999999999943,-0.0872,0.002111,0.00152
3.414999999999992,-0.090091,-0.000352,0.00189
3.4174999999999898,-0.08841,-0.004023,0.002512
3.4199999999999875,-0.08769,-0.003389,0.003486
3.422499999999985,-0.087395,-0.002356,0.002427
3.424999999999983,-0.089867,0.002714,0.001635
3.4274999999999807,-0.091648,0.000925,0.002997
3.430000000000007,-0.088891,0.000717,0.005435
3.4325000000000045,-0.087552,0.001989,0.003508
3.4350000000000023,-0.086284,-0.001228,0.002471
3.4375,-0.088096,-8.5e-05,0.005209
3.4399999999999977,-0.086337,-0.006814,0.006703
3.4424999999999955,-0.090452,-0.006095,0.005416
3.444999999999993,-0.086856,-0.009778,0.004745
3.447499999999991,-0.088517,-0.012849,0.006685
3.4499999999999886,-0.087036,-0.010277,0.009122
3.4524999999999864,-0.089817,-0.009809,0.013145
3.454999999999984,-0.090362,0.001326,0.01691
3.457499999999982,-0.089979,0.003774,0.012087
3.4599999999999795,-0.086175,0.005556,0.009864
3.4625000000000057,-0.089024,0.009235,0.011281
3.4650000000000034,-0.091077,0.001597,0.016938
3.467500000000001,-0.101316,0.00262,0.013322
3.469999999999999,-0.095116,-5.5e-05,0.015532
3.4724999999999966,-0.092468,0.000488,0.01634
3.4749999999999943,-0.096269,0.000791,0.013471
3.477499999999992,-0.095592,0.001284,0.016411
3.4799999999999898,-0.099014,-0.002864,0.019848
3.4824999999999875,-0.103417,-0.008464,0.021562
3.484999999999985,-0.102009,-0.006366,0.019056
3.487499999999983,-0.102492,-0.002049,0.01782
3.4899999999999807,-0.104629,-0.000766,0.018611
3.492500000000007,-0.106541,-0.000373,0.018597
3.4950000000000045,-0.107233,-0.005168,0.018143
3.4975000000000023,-0.106327,-0.003238,0.015797
3.5,-0.109661,-0.003511,0.014252
3.5024999999999977,-0.106235,-0.003053,0.014713
3.5049999999999955,-0.103989,-0.000359,0.010323
3.507499999999993,-0.1076,0.002087,0.012211
3.509999999999991,-0.109133,-0.001478,0.011165
3.5124999999999886,-0.107227,-0.0001,0.012263
3.5149999999999864,-0.104731,-0.001274,0.01105
3.517499999999984,-0.107136,0.00209,0.007809
3.519999999999982,-0.107279,0.00327,0.008661
3.5224999999999795,-0.108302,-0.001249,0.008715
3.5250000000000057,-0.104803,0.000868,0.008034
3.5275000000000034,-0.106671,-0.000653,0.008371
3.530000000000001,-0.107403,-0.000545,0.006074
3.532499999999999,-0.10664,-0.001612,0.007189
3.5349999999999966,-0.106306,-0.00343,0.006182
3.5374999999999943,-0.102141,-0.003417,0.006614
3.539999999999992,-0.103617,0.00178,0.004486
3.5424999999999898,-0.103363,-0.002818,0.008107
3.5449999999999875,-0.105748,0.002109,0.007842
3.547499999999985,-0.105435,-0.003828,0.007445
3.549999999999983,-0.10277,-0.003184,0.006887
3.5524999999999807,-0.101587,-5.4e-05,0.007591
3.555000000000007,-0.105292,0.003464,0.004355
3.5575000000000045,-0.107012,-0.000662,0.009277
3.5600000000000023,-0.10694,0.003765,0.00651
3.5625,-0.104737,-0.001726,0.00494
3.5649999999999977,-0.106378,0.002093,0.006341
3.5674999999999955,-0.107574,4.5e-05,0.0057
3.569999999999993,-0.108653,0.001488,0.00774
3.572499999999991,-0.107281,0.003079,0.006569
3.5749999999999886,-0.103396,-0.002247,0.006952
3.5774999999999864,-0.104649,0.001553,0.004434
3.579999999999984,-0.1047,0.001139,0.004893
3.582499999999982,-0.104775,-0.000937,0.003942
3.5849999999999795,-0.103863,-0.001274,0.006082
3.5875000000000057,-0.103896,0.00295,0.006822
3.5900000000000034,-0.103061,0.001132,0.003929
3.592500000000001,-0.106858,0.001965,0.003733
3.594999999999999,-0.102207,-0.000638,0.005917
3.5974999999999966,-0.100882,-0.001301,0.00414
3.5999999999999943,-0.103995,0.000118,0.002833
3.602499999999992,-0.104289,-0.001276,0.001053
3.6049999999999898,-0.102711,-0.002211,0.005729
3.607499999999988,-0.101642,0.000627,0.004368
3.609999999999985,-0.098571,0.001024,0.00283
3.612499999999983,-0.098538,-0.004424,0.003528
3.6149999999999807,-0.095288,-0.002412,0.003371
3.617500000000007,-0.094162,-0.002807,0.004981
3.620000000000005,-0.094472,-0.000308,-0.000118
3.6225000000000014,-0.09665,0.002178,0.002182
3.625,-0.095099,0.001239,0.002796
3.6274999999999977,-0.090702,-0.003202,0.003301
3.629999999999996,-0.095297,0.000104,0.003172
3.632499999999993,-0.085869,0.001147,0.000393
3.634999999999991,-0.092648,-0.002825,0.004039
3.6374999999999886,-0.087933,-0.003009,0.003793
3.6399999999999855,-0.088759,0.004836,0.001518
3.642499999999984,-0.085801,0.00255,0.002306
3.644999999999982,-0.087675,0.000343,0.003152
3.64749999999998,-0.088115,5.1e-05,0.003812
3.6500000000000057,-0.086531,0.003777,0.004905
3.6525000000000034,-0.087219,0.002923,0.002778
3.655000000000001,-0.084727,0.001246,0.003193
3.657499999999999,-0.083861,-0.000718,0.004309
3.6599999999999966,-0.084645,0.000726,0.003595
3.6624999999999934,-0.079997,-0.000159,0.00046
3.664999999999992,-0.077178,-0.000277,0.003915
3.6674999999999898,-0.077114,0.002308,0.003983
3.669999999999988,-0.078413,0.001741,0.004803
3.672499999999985,-0.070077,-0.002472,0.007849
3.674999999999983,-0.074704,-0.004724,0.003486
3.6774999999999807,-0.071369,0.000625,0.005659
3.680000000000007,-0.068261,0.00075,0.003692
3.682500000000005,-0.067775,0.002284,0.005109
3.6850000000000014,-0.069405,0.001846,0.005939
3.6875,-0.065671,0.002261,0.003245
3.6899999999999977,-0.062218,0.000186,0.004052
3.692499999999996,-0.058459,-0.001767,0.006593
3.694999999999993,-0.057808,0.001989,0.003532
3.697499999999991,-0.056051,-0.002345,0.002941
3.6999999999999886,-0.056435,0.000494,0.002857
3.7024999999999855,-0.055207,-0.002773,0.004549
3.704999999999984,-0.052503,0.000342,0.002397
3.707499999999982,-0.052059,0.001074,-0.000323
3.70999999999998,-0.049068,0.002339,0.007301
3.7125000000000057,-0.048478,0.00189,0.003328
3.7150000000000034,-0.046785,-0.000724,0.001212
3.717500000000001,-0.045279,0.00019,0.0041
3.719999999999999,-0.04143,-0.002067,0.004222
3.7224999999999966,-0.043246,0.000859,-0.000297
3.7249999999999934,-0.039402,0.00188,0.001024
3.727499999999992,-0.04143,0.002805,0.002145
3.7299999999999898,-0.037332,0.000786,0.001872
3.732499999999988,-0.038968,0.000379,0.001051
3.734999999999985,-0.037593,-0.000989,0.001789
3.737499999999983,-0.036088,0.000145,0.001673
3.7399999999999807,-0.03639,2.3e-05,0.002228
3.742500000000007,-0.03538,0.00112,0.001249
3.745000000000005,-0.032553,0.00641,-0.002347
3.7475000000000014,-0.034595,-0.000198,0.001263
3.75,-0.034386,-0.000142,0.000507
3.7524999999999977,-0.029859,0.000464,0.004073
3.754999999999996,-0.029829,-0.001627,0.000732
3.757499999999993,-0.02863,0.003063,-0.001632
3.759999999999991,-0.02643,0.001834,0.004326
3.7624999999999886,-0.02473,-0.00314,0.002081
3.7649999999999855,-0.028801,0.0018,0.002374
3.767499999999984,-0.026862,0.001844,0.004437
3.769999999999982,-0.025471,0.002239,0.002178
3.77249999999998,-0.022799,-0.002261,0.00375
3.7750000000000057,-0.025366,0.001999,0.00307
3.7775000000000034,-0.020753,0.003352,0.004984
3.780000000000001,-0.021735,0.000242,0.000343
3.782499999999999,-0.016782,0.001626,0.000738
3.7849999999999966,-0.019278,-0.002377,0.002509
3.7874999999999934,-0.017287,0.002291,0.001708
3.789999999999992,-0.015976,-0.000106,0.000363
3.7924999999999898,-0.014569,-0.002465,0.000977
3.794999999999988,-0.017284,-0.000533,-0.00072
3.797499999999985,-0.013612,0.001841,0.000853
3.799999999999983,-0.013672,0.002623,0.00144
3.8024999999999807,-0.010943,0.0022,0.002377
3.805000000000007,-0.011535,0.002632,0.00126
3.807500000000005,-0.01155,0.000701,0.000542
3.8100000000000014,-0.012657,7.2e-05,0.001641
3.8125,-0.013393,-0.001895,-0.00194
3.8149999999999977,-0.013945,-0.002939,0.002023
3.817499999999996,-0.012305,0.001129,-0.000189
3.819999999999993,-0.011428,0.002161,0.001168
3.822499999999991,-0.012553,0.000431,0.002276
3.8249999999999886,-0.01532,0.002082,0.001434
3.8274999999999855,-0.011724,0.001229,0.002313
3.829999999999984,-0.014386,-0.004306,0.001972
3.832499999999982,-0.014529,0.002613,0.002065
3.83499999999998,-0.011094,-0.001107,0.002285
3.8375000000000057,-0.01251,0.000604,0.004485
3.8400000000000034,-0.012951,0.001103,0.003632
3.842500000000001,-0.015359,0.002337,0.002078
3.844999999999999,-0.011918,-0.000344,-0.000812
3.8474999999999966,-0.013812,-0.001381,0.000373
3.8499999999999934,-0.010428,-0.000744,7.1e-05
3.852499999999992,-0.011258,0.000938,0.000974
3.8549999999999898,-0.015666,0.004265,-0.004235
3.857499999999988,-0.008371,0.000135,-0.002198
3.859999999999985,-0.014523,-0.000812,0.001656
3.862499999999983,-0.013827,-0.001056,0.000264
3.8649999999999807,-0.010286,0.001357,0.001893
3.867500000000007,-0.011651,-0.000851,0.003616
3.870000000000005,-0.015758,0.000108,0.001863
3.8725000000000014,-0.016868,0.001667,-0.001125
3.875,-0.01196,0.003151,-8.8e-05
3.8774999999999977,-0.012298,0.001264,0.000442
3.879999999999996,-0.008677,-0.001386,0.002245
3.882499999999993,-0.010897,-0.002164,0.001962
3.884999999999991,-0.011951,-0.002542,0.00139
3.8874999999999886,-0.009149,-0.001362,-0.003111
3.8899999999999855,-0.010456,0.005326,0.002737
3.892499999999984,-0.011267,0.000774,0.002507
3.894999999999982,-0.00532,0.000707,0.000887
3.89749999999998,-0.006954,0.000615,-0.000691
3.9000000000000057,-0.006676,0.000613,0.000798
3.9025000000000034,-0.008702,-0.001417,0.002136
3.905000000000001,-0.008939,0.001789,-0.000194
3.907499999999999,-0.005552,0.00025,-0.00051
3.9099999999999966,-0.004846,-0.002283,-0.000809
3.9124999999999934,-0.008211,0.000573,0.001363
3.914999999999992,-0.009322,-0.001794,-0.000753
3.9174999999999898,-0.006665,0.000972,0.002433
3.919999999999988,-0.003134,0.001744,0.0031
3.922499999999985,-0.005764,0.00229,0.001825
3.924999999999983,-0.004162,0.000826,0.001866
3.9274999999999807,-0.006041,-0.00053,0.005055
3.930000000000007,-0.007114,0.003602,0.003212
3.932500000000005,-0.00307,-3.7e-05,-0.000918
3.9350000000000014,-0.00252,0.000568,0.003388
3.9375,-0.004919,0.004414,-0.001627
3.9399999999999977,-0.004217,-0.000532,0.000871
3.942499999999996,0.000254,0.000691,0.001758
3.944999999999993,-0.003429,0.001847,0.000124
3.947499999999991,-0.003424,-0.001235,0.002059
3.9499999999999886,-0.003293,-0.000499,0.002294
3.9524999999999855,0.001246,0.000503,0.000942
3.954999999999984,-0.002417,0.005347,0.001568
3.957499999999982,-0.000189,6.6e-05,0.002761
3.95999999999998,0.000273,-0.001192,0.00355
3.9625000000000057,-0.000487,0.001418,0.002762
3.9650000000000034,-0.002523,0.002667,-0.000124
3.967500000000001,-0.001992,0.005966,0.000157
3.969999999999999,-0.000188,0.003713,0.003114
3.9724999999999966,0.000574,0.005261,-0.002052
3.9749999999999934,-0.001092,0.000616,0.001609
3.977499999999992,0.001772,0.001415,0.003336
3.9799999999999898,0.00074,0.002367,0.002498
3.982499999999988,0.000248,-0.002761,-0.001909
3.984999999999985,0.001761,-0.002165,0.00254
3.987499999999983,7.4e-05,0.004599,0.000947
3.9899999999999807,0.003295,-0.004338,0.004243
3.992500000000007,0.001792,-0.002566,0.001376
3.995000000000005,4.2e-05,-0.00111,0.002711
3.9975000000000014,-0.001222,2.8e-05,-0.0009
4.0,0.005572,-0.001009,-0.000437
4.002499999999998,0.000187,-0.002171,0.001084
4.004999999999996,0.00489,0.002901,6.2e-05
4.007499999999993,0.001819,0.002266,-0.002898
4.009999999999991,0.00071,0.005797,0.001922
4.012499999999989,0.005887,-0.000365,0.00442
4.014999999999986,0.004513,0.002747,0.005087
4.017499999999984,0.002428,-0.00134,0.00185
4.019999999999982,0.004419,0.000729,0.002348
4.02249999999998,0.004824,-0.001018,0.00421
4.025000000000006,0.00624,0.001451,0.000262
4.027500000000003,3.2e-05,0.00058,0.000925
4.030000000000001,0.001236,0.000649,0.008076
4.032499999999999,0.004259,0.002135,-0.000194
4.034999999999997,0.006796,0.004745,0.001643
4.037499999999994,-0.000423,-0.001964,0.002199
4.039999999999992,0.00333,3.1e-05,0.003454
4.04249999999999,0.003801,0.000659,-0.001171
4.044999999999988,0.001641,0.003529,0.000126
4.047499999999985,0.003534,0.002975,0.003346
4.049999999999983,0.001947,0.002166,0.004079
4.052499999999981,0.000418,0.003213,3.2e-05
4.055000000000007,0.000655,0.001688,0.000357
4.0575000000000045,0.002646,-0.000535,0.001314
4.060000000000002,0.001504,0.003905,0.000199
4.0625,-0.001012,0.002766,-0.001417
4.064999999999998,0.002845,-0.001214,0.000339
4.067499999999996,0.003781,0.002015,0.002446
4.069999999999993,0.004887,0.005459,0.003057
4.072499999999991,0.002214,0.008348,0.003012
4.074999999999989,0.001442,-0.002186,0.001075
4.077499999999986,0.002692,-0.000916,0.002185
4.079999999999984,0.000215,-0.001971,0.000267
4.082499999999982,0.001488,0.00319,0.001975
4.08499999999998,0.004541,-0.002362,-0.000218
4.087500000000006,0.002699,0.001433,0.002853
4.090000000000003,0.00368,-0.001606,-0.000316
4.092500000000001,0.004958,-0.000513,-0.00121
4.094999999999999,0.003857,-0.001459,-0.002322
4.097499999999997,0.000798,0.002425,0.00184
4.099999999999994,0.001314,-0.000265,0.002291
4.102499999999992,-0.000317,-0.001857,0.003443
4.10499999999999,0.001753,-0.001927,0.001509
4.107499999999988,-0.000413,0.003349,0.002158
4.109999999999985,0.001606,0.00105,0.002376
4.112499999999983,-0.001091,0.003805,0.002313
4.114999999999981,0.000984,0.000223,0.003105
4.117500000000007,-0.000127,0.001263,0.000306
4.1200000000000045,0.001613,0.000989,0.002105
4.122500000000002,0.000901,0.002296,0.002971
4.125,0.001686,0.000975,0.001512
4.127499999999998,-0.001025,0.002094,0.00057
4.129999999999996,0.00049,0.000548,-0.002128
4.132499999999993,-0.002311,0.004629,0.00013
4.134999999999991,0.000852,-0.001146,0.001109
4.137499999999989,-4e-06,0.003649,0.003139
4.139999999999986,-0.000666,0.003623,0.000886
4.142499999999984,2.9e-05,-0.000863,0.004186
4.144999999999982,-0.0027,0.002839,0.001083
4.14749999999998,0.002269,-0.002627,0.000874
4.150000000000006,-0.002795,0.001555,0.000791
4.152500000000003,-0.003189,0.003739,0.000585
4.155000000000001,0.001315,-0.002439,0.00147
4.157499999999999,0.001445,0.001664,0.002078
4.159999999999997,0.002163,0.001737,-4.3e-05
4.162499999999994,-0.004873,0.002701,0.002716
4.164999999999992,-0.00158,0.000636,0.000503
4.16749999999999,0.001093,-0.000261,0.002835
4.169999999999988,-0.003441,0.004844,-0.001128
4.172499999999985,-0.002289,-0.000326,-0.002117
4.174999999999983,-0.003831,0.004245,0.000842
4.177499999999981,-0.001836,-6.3e-05,7.2e-05
4.180000000000007,-0.001548,0.002258,0.001379
4.1825000000000045,-0.00322,0.001356,-0.000697
4.185000000000002,-0.002892,0.002225,0.00216
4.1875,-0.0021,0.004619,0.002465
4.189999999999998,-0.005679,0.005556,0.001621
4.192499999999996,-0.001968,0.002066,0.002284
4.194999999999993,-0.005592,0.005748,0.000451
4.197499999999991,-0.003172,-0.000979,0.001092
4.199999999999989,-0.005858,0.000279,0.002155
4.202499999999986,-0.003794,-0.000414,0.001083
4.204999999999984,-0.005309,0.000191,0.000799
4.207499999999982,-0.005145,0.000159,7e-06
4.20999999999998,-0.006127,0.003935,0.000698
4.212500000000006,-0.002356,-0.001638,0.001904
4.215000000000003,-0.003067,0.003786,0.001023
4.217500000000001,-0.005057,0.002401,-0.000559
4.219999999999999,-0.007404,0.001401,0.004218
4.222499999999997,-0.006823,0.000326,1.1e-05
4.224999999999994,-0.005816,-0.002156,0.00171
4.227499999999992,-0.00812,0.000536,0.003187
4.22999999999999,-0.006127,0.001537,0.001297
4.232499999999988,-0.008057,0.001147,0.002568
4.234999999999985,-0.004956,-0.000639,0.001983
4.237499999999983,-0.007939,-0.001293,0.000335
