time,Gyr_X,Gyr_Y,Gyr_Z
0.0,-0.004622,0.005799,0.009043
0.0024999999999977,-0.000365,0.001519,0.011948
0.0050000000000238,0.001649,0.002018,0.007363
0.0075000000000216,0.001252,0.002699,0.009737
0.0100000000000193,-0.000891,-0.001769,0.008581
0.012500000000017,-0.0008,-0.000301,0.005931
0.0150000000000147,0.002832,-0.002074,0.007466
0.0175000000000125,0.001552,0.002635,0.007943
0.0200000000000102,-0.00104,0.001372,0.007427
0.0225000000000079,-8.6e-05,0.002503,0.009476
0.0250000000000056,-0.000498,0.004103,0.010388
0.0275000000000034,0.002778,0.002486,0.009101
0.0300000000000011,0.003984,-0.002386,0.007192
0.0324999999999988,0.002334,0.000506,0.007003
0.035000000000025,-0.000627,0.000579,0.009254
0.0375000000000227,0.002914,0.00303,0.008286
0.0400000000000204,0.001775,0.000102,0.007332
0.0425000000000181,-0.000629,0.00507,0.008016
0.0450000000000159,0.000311,0.003593,0.008617
0.0475000000000136,0.000902,1.9e-05,0.008076
0.0500000000000113,-5.8e-05,0.001178,0.007134
0.052500000000009,0.000601,0.000309,0.00655
0.0550000000000068,0.000427,0.002063,0.01174
0.0575000000000045,0.003924,0.004379,0.008067
0.0600000000000022,0.002033,0.000658,0.00999
0.0625,-0.000659,0.000634,0.008946
0.0649999999999977,0.000785,0.0,0.01002
0.0675000000000238,0.001086,0.001397,0.007471
0.0700000000000216,0.00368,0.00448,0.011262
0.0725000000000193,-0.001261,0.003157,0.005359
0.075000000000017,0.000901,0.001404,0.008144
0.0775000000000147,-0.00387,0.004157,0.007146
0.0800000000000125,-0.001048,0.00312,0.008313
0.0825000000000102,-0.000198,0.003021,0.009228
0.0850000000000079,0.002085,0.008865,0.007562
0.0875000000000056,-0.000204,0.002591,0.008868
0.0900000000000034,-0.001943,0.002163,0.009612
0.0925000000000011,-0.001001,0.00281,0.007973
0.0949999999999988,-7.7e-05,0.001905,0.008374
0.097500000000025,0.002464,0.005089,0.008789
0.1000000000000227,0.003108,0.004335,0.008469
0.1025000000000204,-0.000453,0.000923,0.009211
0.1050000000000181,-0.002408,0.003564,0.010002
0.1075000000000159,0.001938,0.003014,0.008423
0.1100000000000136,0.001246,0.000753,0.011533
0.1125000000000113,0.001574,0.00257,0.007886
0.1150000000000091,-0.000261,0.005496,0.008919
0.1175000000000068,0.00182,0.003497,0.009277
0.1200000000000045,0.001834,0.001957,0.008997
0.1225000000000022,-0.001191,0.003754,0.008222
0.125,0.001127,0.002886,0.007118
0.1274999999999977,0.001923,0.001296,0.00814
0.1300000000000238,0.000981,0.001407,0.009649
0.1325000000000216,0.002984,-0.000665,0.010934
0.1350000000000193,0.001978,0.003662,0.009347
0.137500000000017,4.5e-05,0.001187,0.00563
0.1400000000000147,0.003006,0.000206,0.010607
0.1425000000000125,0.0005,0.00046,0.009976
0.1450000000000102,-0.000638,0.003045,0.008199
0.1475000000000079,0.003742,0.001585,0.009749
0.1500000000000056,-0.000265,0.000484,0.007588
0.1525000000000034,0.000732,0.000214,0.008928
0.1550000000000011,0.000892,0.00293,0.007386
0.1574999999999988,-0.003201,0.004486,0.01049
0.160000000000025,0.003553,0.002898,0.009502
0.1625000000000227,0.002723,0.000887,0.008545
0.1650000000000204,-0.000195,0.003723,0.009222
0.1675000000000182,0.003182,0.000877,0.008202
0.1700000000000159,0.003248,0.000209,0.009411
0.1725000000000136,0.000978,0.001398,0.007496
0.1750000000000113,0.003148,0.002269,0.009768
0.1775000000000091,0.001118,0.004245,0.007544
0.1800000000000068,-0.002567,0.000144,0.008763
0.1825000000000045,-0.002179,0.001488,0.008485
0.1850000000000022,-0.003642,0.001951,0.008916
0.1875,0.002555,0.001287,0.008029
0.1899999999999977,-0.000945,0.003431,0.008131
0.1925000000000238,0.003146,0.00478,0.00902
0.1950000000000216,0.002,0.00175,0.006893
0.1975000000000193,0.000443,-0.000829,0.007344
0.200000000000017,-0.000598,0.002912,0.010029
0.2025000000000147,-0.000118,0.001093,0.008918
0.2050000000000125,0.001384,0.003717,0.008606
0.2075000000000102,0.000375,0.004994,0.011706
0.2100000000000079,0.001592,0.001166,0.00967
0.2125000000000056,-0.000651,0.000993,0.007271
0.2150000000000034,0.002941,0.002474,0.008485
0.2175000000000011,-0.000848,0.002129,0.007481
0.2199999999999988,-0.000763,-9.4e-05,0.007717
0.222500000000025,0.00283,0.000408,0.007554
0.2250000000000227,-0.001033,-0.002231,0.007709
0.2275000000000204,0.000835,0.002975,0.007414
0.2300000000000182,0.00133,0.00254,0.013465
0.2325000000000159,0.001737,0.00103,0.009836
0.2350000000000136,0.001473,-0.001425,0.009724
0.2375000000000113,0.001221,0.003023,0.008836
0.2400000000000091,-0.000663,0.003356,0.007264
0.2425000000000068,0.002062,0.000978,0.010844
0.2450000000000045,-0.000642,0.003607,0.006569
0.2475000000000022,0.000345,0.001545,0.008843
0.25,0.001883,0.002409,0.011124
0.2524999999999977,0.00188,-0.002286,0.00745
0.2550000000000239,-0.001366,-0.000164,0.005052
0.2575000000000216,-0.00094,0.00272,0.009682
0.2600000000000193,0.002114,0.002296,0.008083
0.262500000000017,-0.001788,-0.002913,0.009558
0.2650000000000148,0.001241,0.003219,0.00926
0.2675000000000125,0.001282,0.004473,0.008217
0.2700000000000102,0.002027,0.002711,0.010692
0.2725000000000079,0.0025,0.002091,0.00925
0.2750000000000057,0.002492,0.00327,0.010199
0.2775000000000034,-0.003,0.002902,0.009125
0.2800000000000011,0.000163,-0.000201,0.008171
0.2824999999999988,0.004085,0.001924,0.009944
0.285000000000025,-0.002921,0.00153,0.008411
0.2875000000000227,0.001264,0.000901,0.009637
0.2900000000000204,-0.000347,0.002266,0.010108
0.2925000000000182,0.002401,0.004124,0.011919
0.2950000000000159,0.001449,0.002856,0.008481
0.2975000000000136,0.003535,0.004201,0.00998
0.3000000000000113,0.00203,0.000878,0.009436
0.3025000000000091,0.001621,0.002823,0.008134
0.3050000000000068,0.000191,0.00285,0.009119
0.3075000000000045,-0.001468,0.002701,0.008593
0.3100000000000023,0.00129,0.005174,0.007205
0.3125,0.002607,0.005802,0.008061
0.3149999999999977,0.001837,0.005642,0.009451
0.3175000000000239,0.001032,0.003461,0.011089
0.3200000000000216,-0.001602,0.000911,0.010661
0.3225000000000193,0.00117,0.002604,0.011917
0.325000000000017,0.001726,0.000908,0.008101
0.3275000000000148,0.001433,0.003172,0.00597
0.3300000000000125,-0.002621,0.003139,0.006201
0.3325000000000102,0.001632,0.003269,0.011297
0.3350000000000079,0.003324,0.005349,0.011311
0.3375000000000057,-0.000407,0.000193,0.010323
0.3400000000000034,-0.000158,0.000266,0.009521
0.3425000000000011,0.00171,0.000476,0.008421
0.3449999999999988,-0.0003,0.003255,0.00859
0.347500000000025,-0.000632,0.003389,0.010089
0.3500000000000227,0.00195,0.000165,0.007147
0.3525000000000204,0.000568,0.004228,0.010196
0.3550000000000182,0.002272,-0.000423,0.012117
0.3575000000000159,0.001692,0.001233,0.007749
0.3600000000000136,0.000801,0.004033,0.007678
0.3625000000000113,0.001831,-0.001125,0.007748
0.3650000000000091,0.003419,-0.001246,0.008699
0.3675000000000068,-0.000551,0.001302,0.007742
0.3700000000000045,-0.002173,0.003848,0.009752
0.3725000000000023,-8.5e-05,0.002364,0.009666
0.375,0.001634,0.002245,0.006703
0.3774999999999977,0.00288,0.003753,0.00933
0.3800000000000239,-0.001687,0.001565,0.009979
0.3825000000000216,0.000276,0.004581,0.007325
0.3850000000000193,0.002993,0.002974,0.009247
0.387500000000017,-0.002484,0.001367,0.0066
0.3900000000000148,0.001811,-0.001115,0.008451
0.3925000000000125,0.001099,0.001202,0.007533
0.3950000000000102,-0.000264,0.003117,0.006197
0.3975000000000079,0.00433,0.00395,0.008724
0.4000000000000057,-7e-05,0.003534,0.011105
0.4025000000000034,0.001264,0.003652,0.009785
0.4050000000000011,0.00233,0.004294,0.009496
0.4074999999999988,0.000634,0.001945,0.007131
0.410000000000025,0.003422,0.000627,0.011443
0.4125000000000227,-0.00077,0.004246,0.007836
0.4150000000000204,-0.002198,0.003671,0.010302
0.4175000000000182,0.001564,0.002205,0.005911
0.4200000000000159,0.002076,0.004763,0.009488
0.4225000000000136,0.001951,0.004055,0.006898
0.4250000000000113,0.003397,0.004546,0.008809
0.4275000000000091,0.003202,-3.7e-05,0.009564
0.4300000000000068,0.002296,0.00354,0.009515
0.4325000000000045,0.001872,0.001185,0.010278
0.4350000000000023,0.00116,0.002278,0.008977
0.4375,-0.00149,0.003924,0.009618
0.4399999999999977,0.000175,-4.6e-05,0.007758
0.4425000000000239,-0.000367,0.003485,0.009451
0.4450000000000216,-0.00046,-0.002493,0.010993
0.4475000000000193,0.000478,0.007197,0.01028
0.450000000000017,0.002267,0.0025,0.009479
0.4525000000000148,0.000928,0.002425,0.009557
0.4550000000000125,0.000366,0.006763,0.009044
0.4575000000000102,-0.000244,-4.9e-05,0.009916
0.4600000000000079,0.002011,0.0016,0.006472
0.4625000000000057,0.000867,0.001676,0.008092
0.4650000000000034,-0.000811,0.004751,0.009554
0.4675000000000011,0.003477,0.00217,0.006323
0.4699999999999988,0.001834,0.004096,0.008898
0.472500000000025,0.004076,0.001515,0.009359
0.4750000000000227,0.000551,-0.001182,0.007052
0.4775000000000204,0.00037,0.001822,0.00945
0.4800000000000182,0.005762,0.002446,0.010642
0.4825000000000159,0.005548,0.00195,0.010411
0.4850000000000136,-0.001091,-0.000843,0.009101
0.4875000000000113,0.002671,0.001598,0.008618
0.4900000000000091,0.000762,0.001893,0.008326
0.4925000000000068,0.003571,0.002045,0.006648
0.4950000000000045,-1.2e-05,0.005513,0.00693
0.4975000000000023,0.003213,0.002199,0.006338
0.5,0.003385,0.000215,0.009192
0.5024999999999977,0.001856,0.003354,0.008669
0.5050000000000239,0.001045,0.004261,0.007009
0.5075000000000216,0.001896,0.001598,0.007939
0.5100000000000193,0.003434,0.002871,0.007702
0.512500000000017,0.002646,0.004358,0.006162
0.5150000000000148,-0.00107,-0.00076,0.00984
0.5175000000000125,0.000788,-0.000705,0.011133
0.5200000000000102,0.002623,0.000257,0.005271
0.522500000000008,-0.000143,0.00264,0.001057
0.5250000000000057,0.000263,0.000336,0.003415
0.5275000000000034,-0.000426,-0.000611,0.007462
0.5300000000000011,0.0015,-0.002202,0.010752
0.5324999999999989,-0.004451,0.006124,0.010268
0.535000000000025,-0.006402,0.000788,0.005621
0.5375000000000227,-0.009331,0.005107,0.009396
0.5400000000000205,-0.00658,0.001717,0.011656
0.5425000000000182,-0.0092,0.005297,0.015243
0.5450000000000159,-0.007892,0.001781,0.018703
0.5475000000000136,-0.01086,0.00274,0.013915
0.5500000000000114,-0.012624,0.002303,0.01412
0.5525000000000091,-0.013809,-0.000632,0.013246
0.5550000000000068,-0.014153,0.003625,0.014456
0.5575000000000045,-0.015502,0.001168,0.019247
0.5600000000000023,-0.01598,-0.000761,0.015778
0.5625,-0.017336,0.001942,0.01144
0.5649999999999977,-0.023332,0.00247,0.014105
0.5675000000000239,-0.021109,0.002644,0.019132
0.5700000000000216,-0.02007,-7.9e-05,0.015052
0.5725000000000193,-0.02109,0.00178,0.018083
0.575000000000017,-0.021483,0.002757,0.017456
0.5775000000000148,-0.020793,0.005808,0.014579
0.5800000000000125,-0.021015,0.006375,0.018252
0.5825000000000102,-0.022376,-0.000189,0.020681
0.585000000000008,-0.022885,0.001083,0.018694
0.5875000000000057,-0.019377,0.001154,0.022412
0.5900000000000034,-0.019489,0.002619,0.023728
0.5925000000000011,-0.019053,0.002877,0.020563
0.5949999999999989,-0.017811,0.000755,0.023822
0.597500000000025,-0.021352,0.002176,0.023285
0.6000000000000227,-0.021023,0.000814,0.024273
0.6025000000000205,-0.021134,0.00238,0.02644
0.6050000000000182,-0.023468,0.003534,0.023902
0.6075000000000159,-0.021164,0.002108,0.026239
0.6100000000000136,-0.021672,0.000267,0.025295
0.6125000000000114,-0.024642,0.001276,0.02637
0.6150000000000091,-0.027698,0.002515,0.025357
0.6175000000000068,-0.028177,-0.003123,0.030567
0.6200000000000045,-0.027329,0.000658,0.029696
0.6225000000000023,-0.0285,-0.000183,0.029405
0.625,-0.028719,-0.001048,0.035288
0.6274999999999977,-0.030895,-0.000274,0.033306
0.6300000000000239,-0.036593,0.001241,0.033516
0.6325000000000216,-0.032754,-0.001192,0.035449
0.6350000000000193,-0.039679,-0.001653,0.035398
0.637500000000017,-0.044473,-0.000192,0.037964
0.6400000000000148,-0.044666,0.000434,0.040895
0.6425000000000125,-0.050177,-0.002623,0.040803
0.6450000000000102,-0.053303,0.000488,0.042451
0.647500000000008,-0.056346,0.000913,0.044907
0.6500000000000057,-0.060123,0.00293,0.049395
0.6525000000000034,-0.060521,0.003379,0.051535
0.6550000000000011,-0.067034,0.002965,0.05394
0.6574999999999989,-0.070976,0.001992,0.055846
0.660000000000025,-0.074707,0.005477,0.054813
0.6625000000000227,-0.078236,0.00054,0.057862
0.6650000000000205,-0.08374,0.003091,0.06034
0.6675000000000182,-0.086705,0.003677,0.064959
0.6700000000000159,-0.09283,0.003789,0.067476
0.6725000000000136,-0.096926,0.000738,0.070881
0.6750000000000114,-0.099061,0.002982,0.072706
0.6775000000000091,-0.103445,0.005334,0.077493
0.6800000000000068,-0.107504,0.004237,0.082179
0.6825000000000045,-0.109608,0.004164,0.081829
0.6850000000000023,-0.117156,0.001902,0.085524
0.6875,-0.120382,0.006574,0.088226
0.6899999999999977,-0.131041,0.00628,0.090785
0.6925000000000239,-0.135456,0.006937,0.095513
0.6950000000000216,-0.136958,0.00704,0.099998
0.6975000000000193,-0.142625,0.006639,0.099144
0.700000000000017,-0.1463,0.007505,0.10323
0.7025000000000148,-0.152293,0.006811,0.107145
0.7050000000000125,-0.157417,0.008122,0.110807
0.7075000000000102,-0.163169,0.006028,0.110707
0.710000000000008,-0.170363,0.007755,0.10901
0.7125000000000057,-0.175418,0.004715,0.110181
0.7150000000000034,-0.177407,0.003342,0.116181
0.7175000000000011,-0.185135,0.004303,0.123212
0.7199999999999989,-0.19141,0.004437,0.127935
0.722500000000025,-0.194685,0.002258,0.1266
0.7250000000000227,-0.198187,0.004581,0.13224
0.7275000000000205,-0.203283,0.003334,0.133703
0.7300000000000182,-0.206795,0.003602,0.136057
0.7325000000000159,-0.212477,0.001321,0.141787
0.7350000000000136,-0.215766,0.003698,0.148711
0.7375000000000114,-0.21566,0.003801,0.152398
0.7400000000000091,-0.222898,0.004181,0.155867
0.7425000000000068,-0.228925,0.001792,0.158084
0.7450000000000045,-0.231828,-0.000507,0.163291
0.7475000000000023,-0.23858,0.002068,0.165158
0.75,-0.24309,0.004824,0.168147
0.7524999999999977,-0.246637,0.000567,0.168359
0.7550000000000239,-0.252736,0.00274,0.174316
0.7575000000000216,-0.260489,0.00376,0.177122
0.7600000000000193,-0.264199,0.005921,0.178527
0.762500000000017,-0.271221,0.0015,0.180695
0.7650000000000148,-0.275388,0.003592,0.185051
0.7675000000000125,-0.279863,0.001781,0.192492
0.7700000000000102,-0.288765,0.002522,0.19429
0.772500000000008,-0.287165,0.002278,0.195327
0.7750000000000057,-0.293309,-0.001846,0.201144
0.7775000000000034,-0.300305,0.002352,0.204497
0.7800000000000011,-0.306006,0.001661,0.208487
0.7824999999999989,-0.312243,-0.001943,0.211381
0.785000000000025,-0.317827,-0.000939,0.217772
0.7875000000000227,-0.324862,0.00139,0.21972
0.7900000000000205,-0.32825,0.001463,0.223806
0.7925000000000182,-0.333118,-0.001554,0.229464
0.7950000000000159,-0.339532,-0.001192,0.236277
0.7975000000000136,-0.348012,0.002272,0.238033
0.8000000000000114,-0.353645,0.004179,0.242663
0.8025000000000091,-0.358985,0.000311,0.244675
0.8050000000000068,-0.367719,0.000241,0.248531
0.8075000000000045,-0.373775,0.002625,0.251632
0.8100000000000023,-0.382417,0.000513,0.258826
0.8125,-0.388208,0.00172,0.260893
0.8149999999999977,-0.394739,0.002169,0.269587
0.8175000000000239,-0.402284,0.002686,0.271825
0.8200000000000216,-0.411776,0.000719,0.277049
0.8225000000000193,-0.416201,0.002495,0.2795
0.825000000000017,-0.42574,0.005174,0.288162
0.8275000000000148,-0.432873,0.004297,0.291086
0.8300000000000125,-0.438023,0.006712,0.295594
0.8325000000000102,-0.444651,0.002453,0.300216
0.835000000000008,-0.446864,0.002614,0.306476
0.8375000000000057,-0.457843,0.004514,0.308339
0.8400000000000034,-0.463668,0.00234,0.314549
0.8425000000000011,-0.471108,0.00103,0.324003
0.8449999999999989,-0.472549,0.000209,0.329562
0.847500000000025,-0.479017,0.000926,0.33355
0.8500000000000227,-0.482278,0.000789,0.341918
0.8525000000000205,-0.484085,-0.001705,0.339557
0.8550000000000182,-0.483194,-0.011459,0.347165
0.8575000000000159,-0.488403,-0.007395,0.350683
0.8600000000000136,-0.489313,-0.009051,0.355502
0.8625000000000114,-0.489661,-0.011979,0.358201
0.8650000000000091,-0.493002,-0.014256,0.361321
0.8675000000000068,-0.492457,-0.012083,0.36486
0.8700000000000045,-0.493685,-0.014295,0.36298
0.8725000000000023,-0.4913,-0.017804,0.367326
0.875,-0.49246,-0.016999,0.368237
0.8774999999999977,-0.490555,-0.018184,0.368846
0.8800000000000239,-0.492267,-0.020567,0.371499
0.8825000000000216,-0.49164,-0.019151,0.374357
0.8850000000000193,-0.489666,-0.020839,0.371171
0.887500000000017,-0.491853,-0.02068,0.366897
0.8900000000000148,-0.485486,-0.019352,0.371724
0.8925000000000125,-0.482598,-0.020863,0.368597
0.8950000000000102,-0.485544,-0.018832,0.366556
0.897500000000008,-0.482261,-0.019291,0.36645
0.9000000000000057,-0.476086,-0.01552,0.360575
0.9025000000000034,-0.470117,-0.01795,0.358457
0.9050000000000012,-0.467275,-0.011998,0.359488
0.9074999999999988,-0.466211,-0.010392,0.353823
0.910000000000025,-0.45674,-0.007161,0.349412
0.9125000000000228,-0.449292,-0.003575,0.348001
0.9150000000000204,-0.443114,0.000932,0.340991
0.9175000000000182,-0.436109,0.004982,0.334888
0.920000000000016,-0.426309,0.011516,0.33034
0.9225000000000136,-0.409403,0.009305,0.326639
0.9250000000000114,-0.401388,0.014863,0.319076
0.9275000000000092,-0.393076,0.020242,0.3136
0.9300000000000068,-0.379695,0.02067,0.306148
0.9325000000000044,-0.364949,0.0228,0.299022
0.9350000000000024,-0.349753,0.030205,0.292737
0.9375,-0.33652,0.03167,0.282945
0.9399999999999976,-0.316048,0.031992,0.275721
0.942500000000024,-0.301594,0.034015,0.263172
0.9450000000000216,-0.289276,0.034852,0.256076
0.9475000000000192,-0.264879,0.039262,0.247576
0.950000000000017,-0.247541,0.037222,0.236311
0.9525000000000148,-0.226492,0.043813,0.225156
0.9550000000000124,-0.208338,0.044421,0.216224
0.9575000000000102,-0.188841,0.048108,0.204501
0.960000000000008,-0.167547,0.050678,0.195038
0.9625000000000056,-0.148186,0.057573,0.181807
0.9650000000000034,-0.119354,0.064576,0.171634
0.9675000000000012,-0.103292,0.067303,0.158384
0.9699999999999988,-0.080858,0.0675,0.145697
0.972500000000025,-0.061977,0.07296,0.132773
0.9750000000000228,-0.043218,0.075874,0.124935
0.9775000000000204,-0.021499,0.07536,0.112947
0.9800000000000182,-0.005534,0.076031,0.10033
0.982500000000016,0.012056,0.075979,0.089119
0.9850000000000136,0.024848,0.074481,0.07424
0.9875000000000114,0.03837,0.066898,0.062632
0.9900000000000092,0.049286,0.066129,0.051231
0.9925000000000068,0.057539,0.058057,0.040808
0.9950000000000044,0.066122,0.048154,0.029544
0.9975000000000024,0.069233,0.041079,0.018049
1.0,0.07515,0.029748,0.006732
1.0024999999999975,0.075982,0.025453,-0.004296
1.005000000000024,0.080279,0.014607,-0.015385
1.0075000000000216,0.08089,0.005502,-0.026003
1.010000000000019,0.085493,-0.001094,-0.032884
1.012500000000017,0.085164,-0.009388,-0.04286
1.0150000000000148,0.084398,-0.014904,-0.051679
1.0175000000000125,0.081117,-0.017664,-0.061162
1.0200000000000102,0.083026,-0.024949,-0.067197
1.022500000000008,0.085399,-0.022943,-0.076328
1.0250000000000057,0.083914,-0.025585,-0.085627
1.0275000000000034,0.083872,-0.029942,-0.092228
1.0300000000000011,0.081827,-0.029553,-0.095727
1.0324999999999989,0.080415,-0.029758,-0.10376
1.035000000000025,0.081446,-0.03348,-0.11231
1.0375000000000227,0.083902,-0.031126,-0.115567
1.0400000000000205,0.085077,-0.03482,-0.117178
1.0425000000000182,0.082204,-0.031734,-0.120744
1.045000000000016,0.079889,-0.035687,-0.121872
1.0475000000000136,0.07985,-0.036527,-0.124492
1.0500000000000114,0.078767,-0.037111,-0.121619
1.052500000000009,0.083896,-0.039779,-0.124033
1.0550000000000068,0.080835,-0.040956,-0.12116
1.0575000000000043,0.078758,-0.041994,-0.12197
1.0600000000000025,0.079723,-0.043359,-0.116222
1.0625,0.08269,-0.04226,-0.110753
1.0649999999999975,0.078664,-0.042716,-0.105168
1.067500000000024,0.081443,-0.043824,-0.099273
1.0700000000000216,0.080433,-0.038491,-0.095575
1.072500000000019,0.080363,-0.04053,-0.092378
1.075000000000017,0.084902,-0.040659,-0.081857
1.0775000000000148,0.082194,-0.041406,-0.073615
1.0800000000000125,0.08119,-0.041087,-0.068092
1.0825000000000102,0.076801,-0.037289,-0.06115
1.085000000000008,0.081489,-0.034729,-0.051765
1.0875000000000057,0.079887,-0.034325,-0.046608
1.0900000000000034,0.076502,-0.032718,-0.037432
1.0925000000000011,0.076927,-0.032578,-0.031352
1.0949999999999989,0.073967,-0.029303,-0.026552
1.097500000000025,0.065767,-0.02737,-0.020789
1.1000000000000227,0.05936,-0.026494,-0.016518
1.1025000000000205,0.055621,-0.027663,-0.009105
1.1050000000000182,0.051925,-0.026631,-0.004466
1.107500000000016,0.044946,-0.028804,0.000837
1.1100000000000136,0.037987,-0.022127,0.004699
1.1125000000000114,0.033182,-0.021617,0.00671
1.115000000000009,0.023708,-0.019716,0.010598
1.1175000000000068,0.017547,-0.020757,0.015057
1.1200000000000043,0.007553,-0.01945,0.017677
1.1225000000000025,0.002677,-0.016811,0.020284
1.125,-0.005344,-0.014216,0.024433
1.1274999999999975,-0.006905,-0.011919,0.028145
1.130000000000024,-0.016548,-0.009492,0.035324
1.1325000000000216,-0.022121,-0.005481,0.038395
1.135000000000019,-0.026159,-0.002454,0.042022
1.137500000000017,-0.031462,-0.002055,0.045382
1.1400000000000148,-0.035395,0.001398,0.052837
1.1425000000000125,-0.038473,0.004163,0.057399
1.1450000000000102,-0.044437,0.007596,0.063249
1.147500000000008,-0.051294,0.011051,0.069609
1.1500000000000057,-0.056188,0.012284,0.078499
1.1525000000000034,-0.056157,0.011329,0.080109
1.1550000000000011,-0.061622,0.012011,0.08769
1.1574999999999989,-0.064284,0.015274,0.096709
1.160000000000025,-0.073208,0.019113,0.101275
1.1625000000000227,-0.07793,0.016829,0.105605
1.1650000000000205,-0.078984,0.014221,0.111333
1.1675000000000182,-0.082649,0.017173,0.117572
1.170000000000016,-0.08435,0.017316,0.124756
1.1725000000000136,-0.086553,0.017261,0.12882
1.1750000000000114,-0.091402,0.015494,0.137153
1.177500000000009,-0.093348,0.015185,0.143477
1.1800000000000068,-0.094768,0.016973,0.145777
1.1825000000000043,-0.094937,0.017733,0.15206
1.1850000000000025,-0.093225,0.017766,0.154049
1.1875,-0.093466,0.018784,0.16178
1.1899999999999975,-0.09329,0.020712,0.165308
1.192500000000024,-0.092524,0.018594,0.170713
1.1950000000000216,-0.088529,0.02332,0.17672
1.197500000000019,-0.08835,0.026808,0.183236
1.200000000000017,-0.086734,0.030089,0.188851
1.2025000000000148,-0.083619,0.032032,0.19113
1.2050000000000125,-0.079077,0.032023,0.197586
1.2075000000000102,-0.073621,0.03588,0.200052
1.210000000000008,-0.071122,0.040098,0.207033
1.2125000000000057,-0.066741,0.041107,0.210629
1.2150000000000034,-0.05971,0.038106,0.21463
1.2175000000000011,-0.056742,0.046297,0.217255
1.2199999999999989,-0.047579,0.048543,0.22055
1.222500000000025,-0.041485,0.052726,0.225184
1.2250000000000227,-0.033192,0.053162,0.229044
1.2275000000000205,-0.031216,0.057221,0.233785
1.2300000000000182,-0.026029,0.060143,0.237194
1.232500000000016,-0.016627,0.061447,0.240999
1.2350000000000136,-0.010952,0.061876,0.243907
1.2375000000000114,-0.005199,0.065053,0.247135
1.240000000000009,0.000816,0.065627,0.246773
1.2425000000000068,0.007739,0.061379,0.254918
1.2450000000000043,0.017766,0.062966,0.258165
1.2475000000000025,0.017994,0.059178,0.264538
1.25,0.022057,0.062346,0.265523
1.2524999999999975,0.028152,0.053801,0.270092
1.255000000000024,0.03709,0.053447,0.272647
1.2575000000000216,0.040302,0.05075,0.280284
1.260000000000019,0.040603,0.048577,0.288653
1.262500000000017,0.045056,0.044381,0.289228
1.2650000000000148,0.050703,0.034278,0.295035
1.2675000000000125,0.05083,0.03571,0.301745
1.2700000000000102,0.053262,0.032596,0.302751
1.272500000000008,0.055715,0.034077,0.313164
1.2750000000000057,0.064192,0.028471,0.31885
1.2775000000000034,0.062969,0.021236,0.325172
1.2800000000000011,0.064411,0.017149,0.32827
1.2824999999999989,0.06622,0.01814,0.337387
1.285000000000025,0.072417,0.019117,0.346116
1.2875000000000227,0.076097,0.012415,0.351696
1.2900000000000205,0.079239,0.010187,0.358663
1.2925000000000182,0.079999,0.008703,0.365443
1.295000000000016,0.083735,0.005531,0.374446
1.2975000000000136,0.084239,0.002114,0.382855
1.3000000000000114,0.087605,0.001059,0.390788
1.302500000000009,0.086796,0.002482,0.397605
1.3050000000000068,0.086362,-0.000961,0.402357
1.3075000000000043,0.088563,-0.002427,0.411155
1.3100000000000025,0.09285,-0.00208,0.418601
1.3125,0.095112,-0.004674,0.425055
1.3149999999999975,0.094881,-0.00287,0.43366
1.317500000000024,0.094087,-0.000617,0.439093
1.3200000000000216,0.097784,-0.002614,0.445605
1.322500000000019,0.099015,-0.003165,0.450616
1.325000000000017,0.09947,-0.001831,0.458596
1.3275000000000148,0.100724,0.000388,0.467976
1.3300000000000125,0.102999,-0.000355,0.471281
1.3325000000000102,0.101355,0.00244,0.480212
1.335000000000008,0.102285,0.006804,0.488763
1.3375000000000057,0.098258,0.010147,0.49099
1.3400000000000034,0.10171,0.01144,0.496804
1.3425000000000011,0.099733,0.015607,0.505813
1.3449999999999989,0.100061,0.019924,0.511298
1.347500000000025,0.095125,0.02846,0.51717
1.3500000000000227,0.099371,0.032213,0.526305
1.3525000000000205,0.094826,0.033701,0.527709
1.3550000000000182,0.096171,0.039414,0.534938
1.357500000000016,0.091878,0.044977,0.54077
1.3600000000000136,0.090977,0.050559,0.54644
1.3625000000000114,0.090652,0.05176,0.547285
1.365000000000009,0.090367,0.052855,0.552123
1.3675000000000068,0.089005,0.058048,0.562615
1.3700000000000043,0.088129,0.06116,0.565793
1.3725000000000025,0.084678,0.065883,0.572818
1.375,0.086731,0.069541,0.577673
1.3774999999999975,0.088587,0.071875,0.578081
1.380000000000024,0.085249,0.070689,0.586464
1.3825000000000216,0.088351,0.073152,0.592969
1.385000000000019,0.088402,0.075454,0.594715
1.387500000000017,0.092705,0.076903,0.600598
1.3900000000000148,0.090524,0.074548,0.602681
1.3925000000000125,0.09364,0.076551,0.609686
1.3950000000000102,0.093424,0.078546,0.611193
1.397500000000008,0.096374,0.0775,0.616532
1.4000000000000057,0.099293,0.076034,0.61587
1.4025000000000034,0.099846,0.074606,0.61814
1.4050000000000011,0.102454,0.078542,0.621087
1.4074999999999989,0.106057,0.076229,0.625303
1.410000000000025,0.110406,0.072254,0.625896
1.4125000000000227,0.110158,0.066542,0.629344
1.4150000000000205,0.115614,0.063176,0.634558
1.4175000000000182,0.121015,0.060891,0.639125
1.420000000000016,0.123138,0.054664,0.640913
1.4225000000000136,0.126878,0.053611,0.641736
1.4250000000000114,0.128066,0.050057,0.648619
1.427500000000009,0.129517,0.042575,0.649738
1.4300000000000068,0.134977,0.036988,0.65617
1.4325000000000043,0.139431,0.035544,0.661183
1.4350000000000025,0.13592,0.028241,0.666262
1.4375,0.139064,0.025455,0.668202
1.4399999999999975,0.142977,0.018076,0.67591
1.442500000000024,0.146108,0.013823,0.678862
1.4450000000000216,0.145885,0.01171,0.685819
1.447500000000019,0.147732,0.002614,0.685734
1.450000000000017,0.152574,0.001367,0.697246
1.4525000000000148,0.154183,0.004084,0.698551
1.4550000000000125,0.153301,0.002632,0.703386
1.4575000000000102,0.157072,-0.004445,0.707502
1.460000000000008,0.159789,0.000524,0.712904
1.4625000000000057,0.159723,0.001612,0.716544
1.4650000000000034,0.160236,0.003871,0.720211
1.4675000000000011,0.163614,0.002597,0.725866
1.4699999999999989,0.164341,0.005164,0.727884
1.472500000000025,0.163812,0.007469,0.733868
1.4750000000000227,0.163215,0.00794,0.738201
1.4775000000000205,0.164134,0.008199,0.743388
1.4800000000000182,0.162721,0.011811,0.748863
1.482500000000016,0.164185,0.01327,0.750222
1.4850000000000136,0.168412,0.015434,0.758799
1.4875000000000114,0.164526,0.017916,0.765964
1.490000000000009,0.165459,0.016733,0.771395
1.4925000000000068,0.164253,0.015067,0.775904
1.4950000000000043,0.165274,0.021849,0.783426
1.4975000000000025,0.168022,0.018828,0.788527
1.5,0.17086,0.020195,0.792254
1.5024999999999975,0.172082,0.019854,0.797034
1.505000000000024,0.168168,0.014732,0.804455
1.5075000000000216,0.170865,0.019666,0.811056
1.510000000000019,0.174638,0.017764,0.815288
1.512500000000017,0.175027,0.022357,0.819094
1.5150000000000148,0.173975,0.015687,0.828142
1.5175000000000125,0.177143,0.011674,0.830382
1.5200000000000102,0.175358,0.016198,0.835217
1.522500000000008,0.173716,0.01592,0.841437
1.5250000000000057,0.175915,0.014149,0.847551
1.5275000000000034,0.174449,0.013163,0.851361
1.5300000000000011,0.173847,0.015127,0.855933
1.5324999999999989,0.173784,0.016186,0.860375
1.535000000000025,0.171765,0.01419,0.865177
1.5375000000000227,0.173644,0.012856,0.869932
1.5400000000000205,0.170232,0.009616,0.874249
1.5425000000000182,0.173389,0.008541,0.878646
1.545000000000016,0.172801,0.010369,0.880846
1.5475000000000136,0.175398,0.011828,0.883085
1.5500000000000114,0.179429,0.012974,0.888656
1.552500000000009,0.180639,0.01075,0.890827
1.5550000000000068,0.181171,0.011488,0.896729
1.5575000000000043,0.183605,0.013099,0.899277
1.5600000000000025,0.183129,0.016164,0.905109
1.5625,0.188447,0.015544,0.908096
1.5649999999999975,0.187,0.015397,0.912895
1.567500000000024,0.189071,0.016997,0.916871
1.5700000000000216,0.193773,0.017994,0.920541
1.572500000000019,0.193586,0.015353,0.921933
1.575000000000017,0.198744,0.014357,0.924074
1.5775000000000148,0.195938,0.017919,0.930905
1.5800000000000125,0.198721,0.017648,0.932453
1.5825000000000102,0.199016,0.015766,0.938871
1.585000000000008,0.199763,0.016677,0.937578
1.5875000000000057,0.198004,0.014839,0.942674
1.5900000000000034,0.198146,0.018413,0.943984
1.5925000000000011,0.196842,0.01485,0.947827
1.5949999999999989,0.197408,0.014593,0.947114
1.597500000000025,0.197894,0.015611,0.951404
1.6000000000000227,0.197031,0.016095,0.947977
1.6025000000000205,0.193804,0.015648,0.951197
1.6050000000000182,0.199268,0.015856,0.954523
1.607500000000016,0.195286,0.014213,0.956712
1.6100000000000136,0.193279,0.015479,0.958906
1.6125000000000114,0.190131,0.016651,0.957676
1.615000000000009,0.191157,0.014386,0.960233
1.6175000000000068,0.189325,0.014371,0.958448
1.6200000000000043,0.188274,0.017377,0.961518
1.6225000000000025,0.18939,0.010215,0.9617
1.625,0.189703,0.013136,0.961782
1.6274999999999975,0.188936,0.012497,0.963322
1.630000000000024,0.189167,0.014096,0.96779
1.6325000000000216,0.190985,0.013006,0.96663
1.635000000000019,0.194075,0.014941,0.966803
1.637500000000017,0.194808,0.012869,0.969548
1.6400000000000148,0.197201,0.015039,0.967559
1.6425000000000125,0.201624,0.013208,0.971035
1.6450000000000102,0.202087,0.014839,0.972531
1.647500000000008,0.203507,0.015891,0.974965
1.6500000000000057,0.205498,0.010516,0.97762
1.6525000000000034,0.206932,0.015346,0.978103
1.6550000000000011,0.209308,0.014763,0.980798
1.6574999999999989,0.20802,0.014824,0.980608
1.660000000000025,0.208067,0.020709,0.983496
1.6625000000000227,0.212187,0.016294,0.985735
1.6650000000000205,0.212314,0.015422,0.984868
1.6675000000000182,0.211679,0.016525,0.988045
1.670000000000016,0.212028,0.019848,0.986897
1.6725000000000136,0.214926,0.023758,0.989307
1.6750000000000114,0.214491,0.021452,0.98852
1.677500000000009,0.211526,0.020995,0.988839
1.6800000000000068,0.212418,0.021323,0.989568
1.6825000000000043,0.208906,0.020481,0.993073
1.6850000000000025,0.207301,0.01898,0.989986
1.6875,0.204862,0.016595,0.990308
1.6899999999999975,0.20512,0.01998,0.986252
1.692500000000024,0.207474,0.022929,0.988838
1.6950000000000216,0.202083,0.020813,0.9881
1.697500000000019,0.200432,0.024308,0.98648
1.700000000000017,0.202585,0.023753,0.984798
1.7025000000000148,0.200299,0.02312,0.984674
1.7050000000000125,0.198015,0.023598,0.982017
1.7075000000000102,0.202354,0.024725,0.981089
1.710000000000008,0.206811,0.024901,0.978761
1.7125000000000057,0.207146,0.026575,0.979101
1.7150000000000034,0.206586,0.022868,0.975222
1.7175000000000011,0.211334,0.025324,0.976094
1.7199999999999989,0.211831,0.020883,0.970517
1.722500000000025,0.209383,0.022388,0.96984
1.7250000000000227,0.217316,0.020393,0.96388
1.7275000000000205,0.217544,0.021224,0.955943
1.7300000000000182,0.225974,0.019252,0.951898
1.732500000000016,0.229456,0.018612,0.947678
1.7350000000000136,0.236207,0.01676,0.938671
1.7375000000000114,0.239923,0.022156,0.925621
1.740000000000009,0.250531,0.019336,0.910603
1.7425000000000068,0.259049,0.020405,0.897665
1.7450000000000043,0.264346,0.020688,0.88482
1.7475000000000025,0.279795,0.022104,0.86842
1.75,0.292025,0.01886,0.854213
1.7524999999999975,0.303372,0.025062,0.836169
1.755000000000024,0.317549,0.029834,0.817201
1.7575000000000216,0.331561,0.033645,0.805978
1.760000000000019,0.347553,0.034083,0.790718
1.762500000000017,0.358383,0.028408,0.780419
1.7650000000000148,0.367803,0.025689,0.766311
1.7675000000000125,0.374087,0.021612,0.754022
1.7700000000000102,0.381968,0.016296,0.745788
1.772500000000008,0.385635,0.000193,0.730104
1.7750000000000057,0.388233,-0.006588,0.724553
1.7775000000000034,0.387053,-0.020538,0.713164
1.7800000000000011,0.387899,-0.03335,0.703115
1.7824999999999989,0.388979,-0.046606,0.698199
1.785000000000025,0.384645,-0.061436,0.691118
1.7875000000000227,0.382093,-0.074588,0.68317
1.7900000000000205,0.37861,-0.084431,0.675991
1.7925000000000182,0.377584,-0.096005,0.667932
1.795000000000016,0.367672,-0.103331,0.662004
1.7975000000000136,0.369894,-0.109221,0.652265
1.8000000000000114,0.365693,-0.117613,0.646638
1.802500000000009,0.359338,-0.119469,0.64088
1.8050000000000068,0.36061,-0.122973,0.63031
1.8075000000000043,0.354268,-0.116292,0.624144
1.8100000000000025,0.350326,-0.118326,0.617317
1.8125,0.34707,-0.113225,0.612102
1.8149999999999975,0.346635,-0.110997,0.605971
1.817500000000024,0.339008,-0.110136,0.5975
1.8200000000000216,0.336193,-0.10263,0.589997
1.8225000000000195,0.330252,-0.096753,0.58577
1.825000000000017,0.327636,-0.09532,0.578513
1.8275000000000148,0.323888,-0.09395,0.572849
1.8300000000000125,0.317658,-0.08866,0.567199
1.8325000000000105,0.313737,-0.081885,0.56267
1.835000000000008,0.307744,-0.080681,0.559052
1.8375000000000057,0.305494,-0.0802,0.555495
1.8400000000000036,0.299571,-0.072218,0.550913
1.8425000000000007,0.295555,-0.072004,0.543235
1.8449999999999989,0.287057,-0.06991,0.539704
1.847500000000025,0.286468,-0.06929,0.535113
1.8500000000000227,0.279983,-0.070503,0.530682
1.8525000000000205,0.276668,-0.065219,0.524627
1.8550000000000184,0.269549,-0.063753,0.523713
1.857500000000016,0.262342,-0.064641,0.517014
1.8600000000000136,0.255942,-0.065474,0.512489
1.8625000000000116,0.250905,-0.065365,0.504331
1.865000000000009,0.241555,-0.062864,0.497761
1.8675000000000068,0.236494,-0.061508,0.488672
1.8700000000000043,0.226671,-0.063905,0.479714
1.8725000000000025,0.221858,-0.061342,0.47346
1.875,0.213445,-0.061312,0.462889
1.8774999999999975,0.206538,-0.059703,0.454002
1.880000000000024,0.193352,-0.060287,0.443687
1.8825000000000216,0.18406,-0.056505,0.429348
1.8850000000000195,0.169913,-0.05656,0.417853
1.887500000000017,0.154654,-0.059336,0.402444
1.8900000000000148,0.141574,-0.056176,0.393768
1.8925000000000125,0.126021,-0.054604,0.379843
1.8950000000000105,0.107472,-0.061139,0.369576
1.897500000000008,0.095112,-0.057778,0.354997
1.9000000000000057,0.079846,-0.059469,0.348344
1.9025000000000036,0.065095,-0.060864,0.330179
1.9050000000000007,0.0516,-0.059067,0.318974
1.9074999999999989,0.04062,-0.058363,0.306337
1.910000000000025,0.03046,-0.051184,0.298358
1.9125000000000227,0.018508,-0.052691,0.28507
1.9150000000000205,0.013901,-0.045206,0.275051
1.9175000000000184,0.008317,-0.04143,0.265413
1.920000000000016,0.002352,-0.039509,0.254681
1.9225000000000136,-0.001368,-0.031838,0.241753
1.9250000000000116,-0.003292,-0.029972,0.228869
1.927500000000009,-0.002706,-0.021559,0.22129
1.9300000000000068,-0.00179,-0.0148,0.209641
1.9325000000000043,-0.002734,-0.013424,0.200076
1.9350000000000025,-0.002426,-0.007123,0.192343
1.9375,-0.002097,-0.004384,0.182476
1.9399999999999975,-0.002049,-0.002298,0.173139
1.942500000000024,-0.001898,-0.000726,0.161558
1.9450000000000216,-0.005028,0.004039,0.155879
1.9475000000000195,-0.004177,0.004942,0.14751
1.950000000000017,0.002701,0.003595,0.136962
1.9525000000000148,0.000135,0.002883,0.1283
1.9550000000000125,-0.001062,0.006538,0.121809
1.9575000000000105,-0.001495,0.006976,0.112457
1.960000000000008,-0.001155,0.012901,0.10507
1.9625000000000057,0.00539,0.008888,0.098857
1.9650000000000036,0.002765,0.007492,0.091583
1.9675000000000007,0.006919,0.0006,0.088904
1.9699999999999989,0.003051,0.002658,0.078852
1.972500000000025,0.008229,0.004639,0.07258
1.9750000000000227,0.00891,0.001035,0.066207
1.9775000000000205,0.00769,-0.001308,0.064436
1.9800000000000184,0.006815,-0.003895,0.058831
1.982500000000016,0.00929,-0.003183,0.054679
1.9850000000000136,0.006399,-0.004876,0.050955
1.9875000000000116,0.006928,-0.006324,0.043558
1.990000000000009,0.004246,-0.010902,0.0443
1.9925000000000068,0.004535,-0.010391,0.042046
1.9950000000000043,0.002002,-0.011352,0.040614
1.9975000000000025,0.002418,-0.013123,0.040636
2.0,-0.000307,-0.011101,0.037753
2.0024999999999977,0.001196,-0.009421,0.037277
2.005000000000024,-0.001635,-0.008696,0.041138
2.0075000000000216,0.001677,-0.00968,0.037702
2.0100000000000198,-0.002445,-0.007871,0.03941
2.012500000000017,4.5e-05,-0.006306,0.03984
2.015000000000015,0.002182,-0.005783,0.041284
2.0175000000000125,6.5e-05,-0.007127,0.041725
2.0200000000000102,-0.003928,-0.001647,0.047681
2.022500000000008,-0.000113,-0.003693,0.048598
2.0250000000000057,-0.000149,-0.000913,0.052852
2.0275000000000034,0.001437,-0.000654,0.051693
2.030000000000001,-7e-06,0.002935,0.056771
2.032499999999999,-0.000705,0.004349,0.059564
2.035000000000025,-5.2e-05,-0.000298,0.065725
2.0375000000000227,0.001971,0.003096,0.069142
2.0400000000000205,-0.003356,0.006761,0.073647
2.042500000000018,0.000118,0.004809,0.077996
2.045000000000016,0.004474,0.005535,0.083994
2.0475000000000136,0.000144,0.008149,0.089508
2.050000000000012,0.002719,0.011525,0.095133
2.052500000000009,0.001385,0.011589,0.101388
2.055000000000007,0.003507,0.009584,0.111089
2.0575000000000045,0.001547,0.011384,0.115963
2.0600000000000023,0.002382,0.005799,0.122542
2.0625,0.008323,0.010362,0.131003
2.0649999999999977,0.006998,0.010649,0.139695
2.067500000000024,0.008415,0.009326,0.14522
2.0700000000000216,0.009314,0.010445,0.154377
2.0725000000000198,0.013263,0.010251,0.16273
2.075000000000017,0.014285,0.010095,0.174467
2.077500000000015,0.016011,0.009634,0.182126
2.0800000000000125,0.016677,0.009846,0.19147
2.0825000000000102,0.018855,0.008466,0.20436
2.085000000000008,0.019162,0.006498,0.212436
2.0875000000000057,0.022603,0.009332,0.224961
2.0900000000000034,0.019857,0.014252,0.235385
2.092500000000001,0.021271,0.009582,0.245977
2.094999999999999,0.024991,0.01174,0.257624
2.097500000000025,0.020515,0.012998,0.270071
2.1000000000000227,0.027276,0.014827,0.279275
2.1025000000000205,0.027061,0.01663,0.289588
2.105000000000018,0.030003,0.017693,0.300769
2.107500000000016,0.031089,0.018413,0.312614
2.1100000000000136,0.028186,0.019171,0.326134
2.112500000000012,0.029362,0.026698,0.33974
2.115000000000009,0.032731,0.02728,0.35085
2.117500000000007,0.034184,0.028024,0.364209
2.1200000000000045,0.036357,0.029577,0.376994
2.1225000000000023,0.036276,0.038249,0.390188
2.125,0.037649,0.032366,0.401805
2.1274999999999977,0.034799,0.036906,0.414663
2.130000000000024,0.04062,0.041481,0.431439
2.1325000000000216,0.040606,0.040666,0.443196
2.1350000000000198,0.042474,0.042922,0.458349
2.137500000000017,0.042624,0.042274,0.474069
2.140000000000015,0.041936,0.047617,0.484522
2.1425000000000125,0.043923,0.044844,0.495169
2.1450000000000102,0.046977,0.046607,0.5104
2.147500000000008,0.044651,0.0472,0.525601
2.1500000000000057,0.040505,0.048695,0.538158
2.1525000000000034,0.04584,0.052138,0.547669
2.155000000000001,0.045986,0.054046,0.560582
2.157499999999999,0.048792,0.057834,0.57571
2.160000000000025,0.048409,0.055481,0.587181
2.1625000000000227,0.048956,0.05581,0.599206
2.1650000000000205,0.050484,0.06121,0.609063
2.167500000000018,0.048994,0.063659,0.62421
2.170000000000016,0.051244,0.064302,0.634701
2.1725000000000136,0.054096,0.06708,0.644512
2.175000000000012,0.057942,0.070073,0.653828
2.177500000000009,0.05592,0.069801,0.667619
2.180000000000007,0.057363,0.070677,0.677369
2.1825000000000045,0.059939,0.076864,0.681884
2.1850000000000023,0.06172,0.075562,0.690983
2.1875,0.060155,0.077312,0.70305
2.1899999999999977,0.068336,0.080153,0.71222
2.192500000000024,0.067825,0.078116,0.722464
2.1950000000000216,0.068987,0.081223,0.730253
2.1975000000000198,0.073233,0.07738,0.742052
2.200000000000017,0.073151,0.078923,0.749003
2.202500000000015,0.077633,0.081617,0.757895
2.2050000000000125,0.07535,0.083066,0.765292
2.2075000000000102,0.075606,0.080054,0.780151
2.210000000000008,0.075798,0.082708,0.784934
2.2125000000000057,0.075176,0.082008,0.794777
2.2150000000000034,0.073182,0.081048,0.801756
2.217500000000001,0.07196,0.078528,0.811451
2.219999999999999,0.073115,0.077883,0.818081
2.222500000000025,0.072665,0.084139,0.827109
2.2250000000000227,0.071884,0.084391,0.836437
2.2275000000000205,0.077169,0.090636,0.84529
2.230000000000018,0.079379,0.088056,0.847344
2.232500000000016,0.078612,0.091349,0.853711
2.2350000000000136,0.082558,0.094073,0.858919
2.237500000000012,0.084706,0.093303,0.863242
2.240000000000009,0.082988,0.094985,0.871916
2.242500000000007,0.081094,0.098038,0.877714
2.2450000000000045,0.081227,0.098579,0.879296
2.2475000000000023,0.083528,0.099523,0.884161
2.25,0.081252,0.097988,0.88801
2.2524999999999977,0.085265,0.095753,0.889266
2.255000000000024,0.085299,0.097927,0.894477
2.2575000000000216,0.08449,0.10206,0.901232
2.2600000000000198,0.086226,0.096642,0.901609
2.262500000000017,0.086915,0.101271,0.904454
2.265000000000015,0.089435,0.099815,0.90364
2.2675000000000125,0.089397,0.099405,0.910329
2.2700000000000102,0.089996,0.102239,0.907599
2.272500000000008,0.092157,0.102314,0.911471
2.2750000000000057,0.096334,0.100599,0.914382
2.2775000000000034,0.096489,0.101211,0.911746
2.280000000000001,0.096931,0.101987,0.91423
2.282499999999999,0.095373,0.104923,0.913251
2.285000000000025,0.095434,0.102375,0.911478
2.2875000000000227,0.094425,0.10109,0.91637
2.2900000000000205,0.096268,0.098359,0.913782
2.292500000000018,0.093634,0.096783,0.914906
2.295000000000016,0.092646,0.099991,0.915917
2.2975000000000136,0.093161,0.097261,0.914125
2.300000000000012,0.094963,0.097441,0.912576
2.302500000000009,0.097176,0.099086,0.914092
2.305000000000007,0.095936,0.103206,0.911228
2.3075000000000045,0.097099,0.097328,0.910419
2.3100000000000023,0.095613,0.098536,0.905024
2.3125,0.095544,0.106519,0.907453
2.3149999999999977,0.093196,0.101627,0.903762
2.317500000000024,0.091597,0.099518,0.900605
2.3200000000000216,0.090656,0.100837,0.900292
2.3225000000000198,0.089037,0.099242,0.894765
2.325000000000017,0.088682,0.100672,0.896431
2.327500000000015,0.084189,0.09746,0.896203
2.3300000000000125,0.086864,0.098241,0.891072
2.3325000000000102,0.083301,0.099016,0.888666
2.335000000000008,0.083592,0.098529,0.890542
2.3375000000000057,0.08589,0.097019,0.882896
2.3400000000000034,0.087967,0.100289,0.87926
2.342500000000001,0.084657,0.097988,0.874957
2.344999999999999,0.083477,0.099202,0.871579
2.347500000000025,0.085837,0.099377,0.867693
2.3500000000000227,0.085793,0.095766,0.865235
2.3525000000000205,0.085834,0.099122,0.860786
2.355000000000018,0.087853,0.094076,0.861898
2.357500000000016,0.084583,0.095933,0.853642
2.3600000000000136,0.082225,0.09106,0.849248
2.362500000000012,0.087019,0.093748,0.845564
2.365000000000009,0.086587,0.090917,0.841376
2.367500000000007,0.085443,0.090217,0.842478
2.3700000000000045,0.084469,0.091257,0.835232
2.3725000000000023,0.084911,0.087503,0.833976
2.375,0.082871,0.084639,0.830827
2.3774999999999977,0.0821,0.084645,0.82802
2.380000000000024,0.081935,0.083964,0.821627
2.3825000000000216,0.082616,0.08375,0.820296
2.3850000000000198,0.080674,0.08389,0.817806
2.387500000000017,0.082419,0.085305,0.815607
2.390000000000015,0.079603,0.08349,0.812692
2.3925000000000125,0.082063,0.081251,0.807215
2.3950000000000102,0.082854,0.080019,0.805121
2.397500000000008,0.081443,0.080428,0.798869
2.4000000000000057,0.079944,0.085106,0.794672
2.4025000000000034,0.080559,0.081868,0.788074
2.405000000000001,0.087512,0.085411,0.788272
2.407499999999999,0.083352,0.083595,0.782285
2.410000000000025,0.080699,0.08233,0.777163
2.4125000000000227,0.08115,0.081617,0.773449
2.4150000000000205,0.082903,0.080506,0.767937
2.417500000000018,0.081848,0.087247,0.765134
2.420000000000016,0.083224,0.083242,0.757226
2.4225000000000136,0.081093,0.07901,0.75688
2.425000000000012,0.07738,0.076192,0.75245
2.427500000000009,0.078241,0.07657,0.74561
2.430000000000007,0.077759,0.080482,0.742691
2.4325000000000045,0.073697,0.079245,0.737036
2.4350000000000023,0.07362,0.079583,0.73381
2.4375,0.076354,0.076544,0.731414
2.4399999999999977,0.073301,0.078841,0.722931
2.442500000000024,0.074505,0.079445,0.721886
2.4450000000000216,0.073969,0.076783,0.719128
2.4475000000000198,0.072486,0.078382,0.710116
2.450000000000017,0.068919,0.075667,0.704914
2.452500000000015,0.070993,0.078537,0.702746
2.4550000000000125,0.071654,0.074986,0.700875
2.4575000000000102,0.070935,0.079495,0.693097
2.460000000000008,0.071698,0.078449,0.69155
2.4625000000000057,0.073669,0.073051,0.686746
2.4650000000000034,0.069929,0.077776,0.678862
2.467500000000001,0.07041,0.074969,0.673708
2.469999999999999,0.06808,0.077174,0.671176
2.472500000000025,0.068254,0.073769,0.666861
2.4750000000000227,0.063919,0.07052,0.66013
2.4775000000000205,0.066722,0.071657,0.653837
2.480000000000018,0.067765,0.071003,0.652235
2.482500000000016,0.065245,0.07116,0.648332
2.4850000000000136,0.064186,0.067059,0.64035
2.487500000000012,0.061718,0.07012,0.634957
2.490000000000009,0.063109,0.067907,0.634373
2.492500000000007,0.061525,0.067607,0.631043
2.4950000000000045,0.063602,0.066801,0.619926
2.4975000000000023,0.061592,0.066113,0.617508
2.5,0.06138,0.065189,0.609415
2.5024999999999977,0.063596,0.065558,0.606804
2.505000000000024,0.065508,0.065763,0.602347
2.5075000000000216,0.065622,0.062764,0.599668
2.5100000000000198,0.061538,0.064551,0.597926
2.512500000000017,0.064494,0.062426,0.589802
2.515000000000015,0.066606,0.060894,0.586762
2.5175000000000125,0.064188,0.060754,0.583553
2.5200000000000102,0.06425,0.062431,0.584652
2.522500000000008,0.065541,0.058358,0.580128
2.5250000000000057,0.063722,0.05821,0.576156
2.5275000000000034,0.065843,0.057561,0.575408
2.530000000000001,0.058822,0.055855,0.570307
2.532499999999999,0.064795,0.056528,0.570007
2.535000000000025,0.064353,0.054377,0.569015
2.5375000000000227,0.060796,0.053433,0.565705
2.5400000000000205,0.060039,0.057179,0.566375
2.542500000000018,0.061082,0.056893,0.562648
2.545000000000016,0.060251,0.057562,0.563776
2.5475000000000136,0.060374,0.060111,0.557677
2.550000000000012,0.055446,0.061133,0.557838
2.552500000000009,0.058646,0.058221,0.554024
2.555000000000007,0.057193,0.05955,0.553402
2.5575000000000045,0.056142,0.059659,0.549487
2.5600000000000023,0.060195,0.060721,0.547894
2.5625,0.057799,0.06253,0.547013
2.5649999999999977,0.056381,0.058646,0.542798
2.567500000000024,0.054687,0.063495,0.540229
2.5700000000000216,0.057808,0.064348,0.537618
2.5725000000000198,0.057288,0.062257,0.532034
2.575000000000017,0.054628,0.062614,0.52622
2.577500000000015,0.053786,0.062452,0.527153
2.5800000000000125,0.054526,0.060802,0.518312
2.5825000000000102,0.052106,0.063903,0.515545
2.585000000000008,0.0526,0.062523,0.509464
2.5875000000000057,0.051994,0.064301,0.50687
2.5900000000000034,0.048377,0.065433,0.501034
2.592500000000001,0.049617,0.062291,0.492219
2.594999999999999,0.048497,0.060957,0.492769
2.597500000000025,0.04467,0.062881,0.485749
2.6000000000000227,0.042143,0.06604,0.481706
2.6025000000000205,0.040887,0.061812,0.475501
2.605000000000018,0.044549,0.06436,0.468539
2.607500000000016,0.039393,0.064275,0.459751
2.6100000000000136,0.036333,0.064554,0.449867
2.612500000000012,0.038113,0.062279,0.441613
2.615000000000009,0.033192,0.062925,0.435998
2.617500000000007,0.032429,0.065478,0.42244
2.6200000000000045,0.021156,0.063667,0.415254
2.6225000000000023,0.018463,0.062744,0.405394
2.625,0.014863,0.064366,0.389125
2.6274999999999977,0.007667,0.066871,0.375336
2.630000000000024,-0.001597,0.066457,0.361461
2.6325000000000216,-0.015086,0.067314,0.349431
2.6350000000000198,-0.020413,0.06924,0.333948
2.637500000000017,-0.031537,0.068534,0.32021
2.640000000000015,-0.042012,0.074566,0.307826
2.6425000000000125,-0.051926,0.072827,0.290654
2.6450000000000102,-0.061397,0.071881,0.274196
2.647500000000008,-0.067449,0.0719,0.260823
2.6500000000000057,-0.072193,0.079536,0.2457
2.6525000000000034,-0.078569,0.080257,0.235013
2.655000000000001,-0.081235,0.08393,0.221767
2.657499999999999,-0.079484,0.087481,0.211728
2.660000000000025,-0.076567,0.088698,0.196675
2.6625000000000227,-0.074783,0.09171,0.188816
2.6650000000000205,-0.07195,0.095568,0.177722
2.667500000000018,-0.068678,0.093091,0.169796
2.670000000000016,-0.061741,0.098982,0.158776
2.6725000000000136,-0.060406,0.09504,0.151575
2.675000000000012,-0.056556,0.096307,0.146554
2.677500000000009,-0.054434,0.093559,0.140058
2.680000000000007,-0.050139,0.091032,0.131265
2.6825000000000045,-0.047643,0.088864,0.129295
2.6850000000000023,-0.047685,0.084201,0.122031
2.6875,-0.04437,0.076389,0.117173
2.6899999999999977,-0.041559,0.070076,0.118675
2.692500000000024,-0.040089,0.069217,0.114015
2.6950000000000216,-0.03819,0.05754,0.109889
2.6975000000000198,-0.039373,0.056771,0.104278
2.700000000000017,-0.037882,0.049006,0.10336
2.702500000000015,-0.034732,0.045841,0.100393
2.7050000000000125,-0.032689,0.042351,0.097343
2.7075000000000102,-0.028604,0.034354,0.096978
2.710000000000008,-0.024566,0.031918,0.092555
2.7125000000000057,-0.023113,0.026856,0.091273
2.7150000000000034,-0.017326,0.024294,0.088545
2.717500000000001,-0.016412,0.017943,0.08719
2.719999999999999,-0.012313,0.014742,0.084887
2.722500000000025,-0.009768,0.014514,0.08148
2.7250000000000227,-0.008376,0.011063,0.079317
2.7275000000000205,-0.006481,0.00929,0.078806
2.730000000000018,-0.006071,0.004967,0.071991
2.732500000000016,-0.009951,0.009345,0.071759
2.7350000000000136,-0.00817,0.004391,0.062273
2.737500000000012,-0.007536,0.002956,0.058597
2.740000000000009,-0.008239,0.000852,0.060072
2.742500000000007,-0.007357,5.4e-05,0.055666
2.7450000000000045,-0.009853,0.005019,0.048945
2.7475000000000023,-0.009242,0.002248,0.047711
2.75,-0.009204,0.002039,0.045267
2.7524999999999977,-0.007705,0.006176,0.040131
2.755000000000024,-0.009899,0.004693,0.035156
2.7575000000000216,-0.008324,0.00755,0.031716
2.7600000000000198,-0.005241,0.004414,0.030638
2.762500000000017,-0.006048,0.004943,0.026102
2.765000000000015,-0.004588,0.005261,0.022092
2.7675000000000125,-0.003418,0.001373,0.019299
2.7700000000000102,-0.001089,0.004546,0.019883
2.772500000000008,0.000592,0.000954,0.014897
2.7750000000000057,0.002453,0.004172,0.014078
2.7775000000000034,0.004212,-0.00055,0.013057
2.780000000000001,0.00379,-0.001624,0.009536
2.782499999999999,0.006378,0.00053,0.005137
2.785000000000025,0.005608,-0.004479,0.003953
2.7875000000000227,0.005601,-0.009558,0.001935
2.7900000000000205,0.004799,-0.01068,-0.00401
2.792500000000018,0.006778,-0.014904,-0.001356
2.795000000000016,0.005107,-0.016138,-0.004604
2.7975000000000136,0.010297,-0.016867,-0.007097
2.800000000000012,0.010201,-0.015545,-0.008738
2.802500000000009,0.010165,-0.017077,-0.011401
2.805000000000007,0.010749,-0.021434,-0.011173
2.8075000000000045,0.009569,-0.020432,-0.01651
2.8100000000000023,0.014054,-0.020765,-0.018674
2.8125,0.015403,-0.020398,-0.021337
2.8149999999999977,0.012261,-0.024766,-0.023554
2.817500000000024,0.010066,-0.021018,-0.029695
2.8200000000000216,0.014054,-0.024621,-0.03071
2.8225000000000198,0.013303,-0.024918,-0.036608
2.825000000000017,0.01277,-0.022349,-0.037023
2.827500000000015,0.011701,-0.023954,-0.039971
2.8300000000000125,0.011539,-0.026301,-0.04559
2.8325000000000102,0.011542,-0.025098,-0.049752
2.835000000000008,0.013732,-0.029872,-0.054207
2.8375000000000057,0.01573,-0.029272,-0.055805
2.8400000000000034,0.015097,-0.028645,-0.059077
2.842500000000001,0.014467,-0.032149,-0.064179
2.844999999999999,0.016046,-0.034992,-0.066221
2.847500000000025,0.016569,-0.034249,-0.070766
2.8500000000000227,0.013823,-0.036588,-0.072521
2.8525000000000205,0.015021,-0.036331,-0.078268
2.855000000000018,0.016815,-0.040609,-0.080073
2.857500000000016,0.013398,-0.042875,-0.081699
2.8600000000000136,0.017094,-0.047165,-0.082849
2.862500000000012,0.019533,-0.04435,-0.087363
2.865000000000009,0.017313,-0.045937,-0.091098
2.867500000000007,0.020703,-0.046751,-0.089432
2.8700000000000045,0.017237,-0.047879,-0.091729
2.8725000000000023,0.020724,-0.052108,-0.091787
2.875,0.017912,-0.053284,-0.09277
2.8774999999999977,0.018948,-0.052927,-0.094385
2.880000000000024,0.01973,-0.055428,-0.094534
2.8825000000000216,0.01924,-0.055891,-0.096403
2.8850000000000198,0.020332,-0.053787,-0.097878
2.887500000000017,0.021639,-0.051691,-0.098953
2.890000000000015,0.020711,-0.055718,-0.098453
2.8925000000000125,0.021263,-0.054821,-0.097369
2.8950000000000102,0.023676,-0.051038,-0.095472
2.897500000000008,0.019992,-0.054957,-0.094667
2.9000000000000057,0.021968,-0.049397,-0.09872
2.9025000000000034,0.023689,-0.046454,-0.09931
2.905000000000001,0.024519,-0.05013,-0.09231
2.907499999999999,0.023814,-0.047565,-0.090165
2.910000000000025,0.019515,-0.047089,-0.087687
2.9125000000000227,0.020737,-0.048344,-0.088812
2.9150000000000205,0.018028,-0.048672,-0.087786
2.917500000000018,0.016426,-0.047363,-0.085273
2.920000000000016,0.01036,-0.045142,-0.082448
2.9225000000000136,0.009062,-0.041535,-0.083394
2.925000000000012,0.010987,-0.042185,-0.078395
2.927500000000009,0.011941,-0.041711,-0.07413
2.930000000000007,0.006016,-0.039217,-0.07471
2.9325000000000045,0.005262,-0.035246,-0.066134
2.9350000000000023,0.002743,-0.034307,-0.064729
2.9375,0.006639,-0.032565,-0.059438
2.9399999999999977,0.002734,-0.029375,-0.051482
2.942500000000024,0.003719,-0.028247,-0.049476
2.9450000000000216,0.002816,-0.023726,-0.044109
2.9475000000000198,0.002979,-0.017412,-0.036556
2.950000000000017,0.003748,-0.015447,-0.032678
2.952500000000015,0.003853,-0.016539,-0.027396
2.9550000000000125,0.0032,-0.015497,-0.023399
2.9575000000000102,0.005881,-0.008565,-0.016257
2.960000000000008,0.001424,-0.005785,-0.010002
2.9625000000000057,0.002611,-0.002983,-0.009236
2.9650000000000034,0.002671,-0.004451,-0.000316
2.967500000000001,0.005997,-0.000729,0.008056
2.969999999999999,0.002345,0.002,0.00856
2.972500000000025,0.003547,0.004116,0.016811
2.9750000000000227,0.004267,0.005462,0.020427
2.9775000000000205,-0.000913,0.007645,0.022493
2.980000000000018,0.000938,0.010463,0.028471
2.982500000000016,0.001063,0.013448,0.032399
2.9850000000000136,0.000434,0.009709,0.037909
2.987500000000012,0.001241,0.01144,0.03679
2.990000000000009,0.000244,0.014729,0.0427
2.992500000000007,0.001398,0.015735,0.044274
2.9950000000000045,0.001179,0.017177,0.046676
2.9975000000000023,0.002073,0.011829,0.04696
3.0,0.001321,0.014587,0.050699
3.0024999999999977,0.000168,0.015704,0.04927
3.005000000000024,0.00112,0.016361,0.051593
3.0075000000000216,0.002178,0.015793,0.050468
3.0100000000000198,-0.000529,0.014462,0.047915
3.012500000000017,-0.002612,0.01727,0.050011
3.015000000000015,-0.00158,0.016565,0.052696
3.0175000000000125,-0.001042,0.015078,0.048967
3.0200000000000102,-0.001685,0.014973,0.046325
3.022500000000008,0.001008,0.019643,0.047808
3.0250000000000057,0.001203,0.017377,0.046671
3.0275000000000034,-0.003007,0.017194,0.045454
3.030000000000001,-0.001003,0.016726,0.043418
3.032499999999999,-0.001681,0.015896,0.041903
3.035000000000025,-0.005999,0.013318,0.040323
3.0375000000000227,-0.001676,0.016693,0.037026
3.0400000000000205,-0.004058,0.017347,0.033896
3.042500000000018,-0.006035,0.015842,0.030953
3.045000000000016,-0.003715,0.015029,0.033844
3.0475000000000136,-0.001249,0.015267,0.029818
3.050000000000012,0.000278,0.011051,0.029268
3.052500000000009,-0.001836,0.006825,0.026677
3.055000000000007,-0.001596,0.011256,0.022977
3.0575000000000045,-0.001876,0.007849,0.019933
3.0600000000000023,-0.003132,0.004705,0.017183
3.0625,0.00088,0.004224,0.015026
3.0649999999999977,0.00117,0.005051,0.016614
3.067500000000024,0.000466,0.004815,0.010955
3.0700000000000216,0.00143,0.000321,0.011113
3.0725000000000198,0.000853,0.002473,0.006016
3.075000000000017,0.000177,0.003601,0.004376
3.077500000000015,0.000548,0.000104,0.000701
3.0800000000000125,0.000568,-0.00089,0.000363
3.0825000000000102,0.003023,-0.004396,-0.000896
3.085000000000008,0.001065,-0.00295,-0.002775
3.0875000000000057,6.3e-05,-0.006038,-0.004622
3.0900000000000034,0.001087,-0.007614,-0.006899
3.092500000000001,0.004489,-0.006895,-0.009967
3.094999999999999,0.004806,-0.006595,-0.008973
3.097500000000025,0.002939,-0.005057,-0.010081
3.1000000000000227,0.002522,-0.004198,-0.011517
3.1025000000000205,0.002512,-0.002667,-0.014621
3.105000000000018,0.004517,-0.006904,-0.011715
3.107500000000016,0.003179,-0.009221,-0.016703
3.1100000000000136,0.002987,-0.003463,-0.015397
3.112500000000012,0.005076,-0.004613,-0.016466
3.115000000000009,0.007253,-0.000335,-0.013776
3.117500000000007,0.003246,-0.004467,-0.014041
3.1200000000000045,0.005504,-0.006348,-0.012989
3.1225000000000023,0.003675,-0.006004,-0.016257
3.125,0.003377,-0.007361,-0.016285
3.1274999999999977,0.00317,-0.009057,-0.014882
3.130000000000024,0.005335,-0.009166,-0.013807
3.1325000000000216,0.004006,-0.008087,-0.010572
3.1350000000000198,0.004803,-0.008316,-0.014213
3.137500000000017,0.004717,-0.009401,-0.013155
3.140000000000015,0.005298,-0.011259,-0.011599
3.1425000000000125,0.007106,-0.007124,-0.013663
3.1450000000000102,0.005617,-0.007696,-0.011948
3.147500000000008,0.006122,-0.005862,-0.010811
3.1500000000000057,0.003707,-0.00629,-0.010505
3.1525000000000034,-0.002024,-0.002892,-0.009198
3.155000000000001,0.001236,-0.006777,-0.008924
3.157499999999999,0.002009,-0.00367,-0.007357
3.160000000000025,0.002413,-0.005496,-0.005338
3.1625000000000227,0.000893,-0.003351,-0.006442
3.1650000000000205,-0.001396,-0.001843,-0.002266
3.167500000000018,0.001066,-0.002348,-0.00037
3.170000000000016,0.000452,-0.002189,-0.001499
3.1725000000000136,0.000314,-0.000721,0.002267
3.175000000000012,0.001688,-0.000118,0.005489
3.177500000000009,0.001746,-0.001343,0.001057
3.180000000000007,0.000212,-0.002769,0.001467
3.1825000000000045,-0.001444,0.001072,0.004929
3.1850000000000023,-0.000434,0.004318,0.005011
3.1875,0.000336,-9.8e-05,0.012491
3.1899999999999977,0.001568,0.001325,0.004316
3.192500000000024,0.002109,0.002532,0.008377
3.1950000000000216,0.000764,0.003571,0.010564
3.1975000000000198,0.003126,0.000369,0.010184
3.200000000000017,0.000144,8.4e-05,0.00864
3.202500000000015,0.001516,0.002251,0.010186
3.2050000000000125,0.001503,0.005414,0.009771
3.2075000000000102,0.003084,0.002406,0.009873
3.210000000000008,-0.00032,0.003619,0.012646
3.2125000000000057,0.001293,0.001632,0.014573
3.2150000000000034,0.001094,0.002301,0.013726
3.217500000000001,0.003772,0.002373,0.002901
3.219999999999999,0.00027,0.003459,0.007132
3.222500000000025,-0.002931,0.003401,0.009885
3.2250000000000227,0.000321,0.001395,0.012351
3.2275000000000205,-0.000703,0.003377,0.008849
3.230000000000018,0.001248,0.002744,0.008436
3.232500000000016,-0.001639,0.002845,0.006478
3.2350000000000136,0.002906,-0.000986,0.008454
3.237500000000012,0.001385,0.002647,0.009552
3.240000000000009,0.001771,-0.00128,0.0069
3.242500000000007,-0.001097,0.004027,0.009205
3.2450000000000045,2e-06,-0.000644,0.004724
3.2475000000000023,0.00154,-2.4e-05,0.009433
3.25,0.001181,0.001337,0.007991
3.2524999999999977,0.0,0.004766,0.007189
3.255000000000024,-0.002532,0.002839,0.00608
3.2575000000000216,-0.001647,0.001099,0.008485
3.2600000000000198,-0.001621,0.000996,0.006042
3.262500000000017,0.003206,0.002994,0.006574
3.265000000000015,0.000813,0.001802,0.006854
3.2675000000000125,0.006377,0.001737,0.006414
3.2700000000000102,0.001148,-0.000124,0.005805
3.272500000000008,0.00521,-0.004165,0.005961
3.2750000000000057,0.000244,0.00036,0.005767
3.2775000000000034,-0.000161,0.001545,0.008439
3.280000000000001,0.003321,0.004173,0.008228
3.282499999999999,-0.000641,-1.5e-05,0.009262
3.285000000000025,0.001261,-0.000864,0.00973
3.2875000000000227,0.000397,0.000577,0.011422
3.2900000000000205,-0.000626,-0.00219,0.009527
3.292500000000018,-0.001463,0.003751,0.011156
3.295000000000016,0.00229,0.004143,0.011336
3.2975000000000136,0.000169,0.006349,0.010266
3.300000000000012,0.001148,0.00442,0.014726
3.302500000000009,0.001807,0.004152,0.012933
3.305000000000007,0.002953,0.0051,0.012382
3.3075000000000045,0.000747,0.003562,0.015046
3.3100000000000023,0.00177,0.002947,0.016863
3.3125,0.001847,0.002407,0.015617
3.3149999999999977,0.000926,0.005092,0.016134
3.317500000000024,0.002991,0.00303,0.016307
3.3200000000000216,0.000342,0.003248,0.016171
3.3225000000000198,0.0049,0.004847,0.016076
3.325000000000017,0.001147,0.002032,0.016976
3.327500000000015,0.003152,0.002859,0.017571
3.3300000000000125,0.002819,0.00324,0.017897
3.3325000000000102,-0.000854,0.007046,0.018886
3.335000000000008,0.003602,0.008123,0.021105
3.3375000000000057,0.000224,0.004715,0.018344
3.3400000000000034,0.001887,0.005574,0.017362
3.342500000000001,-0.000586,0.005122,0.019825
3.344999999999999,0.002872,0.003105,0.01461
3.347500000000025,0.001469,0.006219,0.018952
3.3500000000000227,0.001066,0.002911,0.018302
3.3525000000000205,0.000621,0.004204,0.018071
3.355000000000018,0.001859,0.004137,0.014435
3.357500000000016,0.004067,0.005137,0.016471
3.3600000000000136,0.002774,0.00282,0.016171
3.362500000000012,0.003601,0.001628,0.014275
3.365000000000009,0.002208,0.00268,0.013608
3.367500000000007,0.0034,0.002002,0.017755
3.3700000000000045,0.000752,-0.00041,0.011867
3.3725000000000023,0.003376,0.001485,0.017337
3.375,0.001667,0.00389,0.012323
3.3774999999999977,0.001081,0.000883,0.010917
3.380000000000024,0.000443,0.003351,0.013044
3.3825000000000216,-9.1e-05,-0.000896,0.014285
3.3850000000000198,0.00077,0.002281,0.011619
3.387500000000017,0.001163,0.003751,0.011856
3.390000000000015,0.000436,0.003841,0.015237
3.3925000000000125,0.000498,0.003592,0.012701
3.3950000000000102,-0.000292,0.002456,0.014069
3.397500000000008,0.002543,0.003233,0.011975
3.4000000000000057,0.001491,0.002114,0.015553
3.4025000000000034,4e-06,0.001992,0.011825
3.405000000000001,0.001649,0.000124,0.008125
3.407499999999999,0.001194,0.004417,0.009368
3.410000000000025,-0.000463,0.002391,0.013009
3.4125000000000227,-0.00145,0.001188,0.010847
3.4150000000000205,0.000962,0.001127,0.010555
3.417500000000018,-0.00014,0.003282,0.010321
3.420000000000016,-0.000609,-0.000338,0.01348
3.4225000000000136,0.001404,-0.000928,0.011504
3.425000000000012,-0.001071,0.001059,0.011323
3.427500000000009,0.000813,0.001419,0.011318
3.430000000000007,0.000649,0.000636,0.013476
