time,Gyr_X,Gyr_Y,Gyr_Z
0.0,0.001826,0.000129,0.00039
0.0024999999999977,0.001828,-0.001135,-5.1e-05
0.0049999999999954,0.000934,0.000984,0.000597
0.0074999999999931,0.000701,-0.001848,0.000966
0.0099999999999909,0.00065,0.000773,0.00361
0.0124999999999886,0.000972,0.004285,-0.000949
0.0149999999999863,-0.000638,0.004644,0.00133
0.017499999999984,0.001479,0.003918,0.001759
0.0199999999999818,0.002008,0.000126,0.000275
0.0224999999999795,-0.000654,-0.000817,-0.001097
0.0249999999999772,0.001021,0.002412,0.002515
0.0274999999999749,0.003087,6.5e-05,-0.000174
0.0299999999999727,0.001701,0.002673,0.002017
0.0324999999999704,0.001187,0.001366,0.001369
0.0349999999999681,-0.001609,7.7e-05,0.002124
0.0374999999999658,0.000272,0.000403,0.001382
0.0399999999999636,0.003817,-0.000282,-0.000843
0.0424999999999613,0.001938,0.002525,0.002763
0.044999999999959,-0.001608,-0.000413,-0.001469
0.0474999999999568,0.004154,0.000209,0.000442
0.0499999999999545,0.00077,0.000425,0.001606
0.0524999999999522,0.001509,0.000819,1e-05
0.0550000000000068,0.000467,0.002375,0.00231
0.0575000000000045,-0.000307,0.003336,0.001506
0.0600000000000022,0.002261,0.001866,0.00191
0.0625,0.00116,-0.000629,-0.001627
0.0649999999999977,0.003127,0.003193,-0.001371
0.0674999999999954,0.003838,-0.000368,0.002865
0.0699999999999931,0.001142,-9.2e-05,0.001023
0.0724999999999909,-0.000209,0.003935,0.000352
0.0749999999999886,0.000308,0.001711,0.002212
0.0774999999999863,0.000811,-0.00044,-0.002101
0.079999999999984,0.002608,0.00212,-0.000408
0.0824999999999818,-0.000393,0.001059,0.000601
0.0849999999999795,-4e-05,-0.000349,0.001038
0.0874999999999772,-0.000188,0.003535,0.002367
0.0899999999999749,-0.000982,0.000113,-0.001487
0.0924999999999727,0.001723,-0.00049,0.002413
0.0949999999999704,0.002069,0.003355,0.001717
0.0974999999999681,0.002042,3.8e-05,0.000183
0.0999999999999659,0.006197,0.002743,0.001993
0.1024999999999636,0.003802,0.001153,0.001978
0.1049999999999613,-0.002277,-0.000541,0.001065
0.107499999999959,0.003592,0.002045,-0.000845
0.1099999999999568,0.003282,-0.001642,0.001196
0.1124999999999545,-0.001712,0.000425,0.00092
0.1149999999999522,0.000901,-0.002643,0.000995
0.1175000000000068,0.002288,0.003081,0.003711
0.1200000000000045,0.001728,-0.000226,0.001252
0.1225000000000022,-0.000848,0.00164,0.000771
0.125,0.003032,0.000792,0.000658
0.1274999999999977,0.001981,0.000121,-0.000621
0.1299999999999954,0.001755,0.002839,0.001093
0.1324999999999931,-0.00042,0.004788,-0.001973
0.1349999999999909,-0.002444,-0.001897,0.005231
0.1374999999999886,-0.002004,0.0044,0.001504
0.1399999999999863,0.001299,-4.2e-05,-3.1e-05
0.142499999999984,0.001494,0.000932,-0.00169
0.1449999999999818,0.000825,0.001217,0.002968
0.1474999999999795,0.001743,0.00071,0.0014
0.1499999999999772,0.001297,-0.000776,0.003729
0.152499999999975,0.001188,-0.001325,0.001491
0.1549999999999727,0.000637,-0.000483,0.001658
0.1574999999999704,-0.000289,0.000683,0.001789
0.1599999999999681,-0.001104,0.000449,-0.000367
0.1624999999999659,0.000728,0.001922,0.002875
0.1649999999999636,0.001197,0.001008,0.000907
0.1674999999999613,0.001385,0.000644,0.002416
0.169999999999959,0.003655,0.002339,0.003561
0.1724999999999568,0.006627,-0.001773,0.001562
0.1749999999999545,-0.000532,0.000311,0.001244
0.1774999999999522,0.00096,0.00282,0.004157
0.1800000000000068,0.002212,-0.002302,-0.001143
0.1825000000000045,-0.000964,0.000358,-0.000501
0.1850000000000022,0.004479,-2.1e-05,6.5e-05
0.1875,-0.000781,-0.000705,0.000776
0.1899999999999977,-0.002353,0.002179,0.003264
0.1924999999999954,0.000373,0.003909,0.003243
0.1949999999999931,0.004249,0.003155,-0.001809
0.1974999999999909,0.000983,-0.001574,0.001613
0.1999999999999886,-0.001208,-0.00076,0.002296
0.2024999999999863,0.000677,0.002996,-0.00111
0.204999999999984,0.004657,0.002483,0.001156
0.2074999999999818,-0.000942,0.00134,0.002898
0.2099999999999795,0.001811,0.002896,0.001236
0.2124999999999772,0.002404,0.002063,0.000138
0.214999999999975,0.000697,0.002178,0.001738
0.2174999999999727,0.004516,-0.000995,-0.000742
0.2199999999999704,0.002974,0.001401,5.4e-05
0.2224999999999681,0.001045,0.000373,0.000625
0.2249999999999659,0.003047,0.002391,-0.00065
0.2274999999999636,0.004473,0.001664,0.001168
0.2299999999999613,-0.001396,0.002963,0.001233
0.232499999999959,0.000698,0.002042,0.002805
0.2349999999999568,0.004909,-0.001727,0.00143
0.2374999999999545,0.000302,0.003181,0.00229
0.2399999999999522,0.003573,0.003762,0.001373
0.2425000000000068,0.001267,0.003264,0.003148
0.2450000000000045,0.001162,0.001434,0.005608
0.2475000000000022,0.003605,0.003546,0.000503
0.25,0.000361,0.003565,0.001574
0.2524999999999977,0.000914,0.002318,0.001768
0.2549999999999954,0.00103,0.000872,0.000485
0.2574999999999932,0.002528,0.002,8.4e-05
0.2599999999999909,0.001482,0.003394,-0.001538
0.2624999999999886,-0.000307,-0.000148,-0.000447
0.2649999999999863,0.000586,0.003574,0.000186
0.2674999999999841,0.000476,0.001126,-0.000203
0.2699999999999818,0.000682,-0.001843,0.003199
0.2724999999999795,0.002735,0.00068,-0.000419
0.2749999999999772,0.001746,0.003224,0.001075
0.277499999999975,0.002169,-0.002246,0.003088
0.2799999999999727,-0.000656,0.00075,0.001723
0.2824999999999704,0.001464,0.005398,-0.002049
0.2849999999999681,0.003058,0.001093,-3.7e-05
0.2874999999999659,0.003871,0.000849,0.000746
0.2899999999999636,-0.001363,0.003057,-0.00025
0.2924999999999613,0.002775,0.001844,-0.000305
0.2949999999999591,-0.000739,0.001804,0.00247
0.2974999999999568,0.00164,0.000491,-0.000155
0.2999999999999545,0.001255,0.001692,0.002865
0.3024999999999522,0.000656,-0.001861,0.000619
0.3050000000000068,-0.00114,0.003719,-0.000963
0.3075000000000045,0.001127,-0.000156,-0.001079
0.3100000000000023,-0.00165,0.003614,-0.002638
0.3125,0.002139,0.002225,-0.000975
0.3149999999999977,0.003139,0.00241,0.001561
0.3174999999999954,0.003322,0.002375,0.000262
0.3199999999999932,0.001241,0.001781,-0.0003
0.3224999999999909,0.001415,0.004702,0.000306
0.3249999999999886,-0.001842,0.002072,-0.002572
0.3274999999999863,0.001129,-0.002117,-0.000834
0.3299999999999841,0.000841,0.000415,0.001504
0.3324999999999818,0.000239,0.001518,-0.000563
0.3349999999999795,0.000835,0.002677,0.00027
0.3374999999999772,0.001531,-0.000736,0.000245
0.339999999999975,0.000162,0.002163,-0.000595
0.3424999999999727,0.000715,-0.0016,-0.000879
0.3449999999999704,0.003073,-0.003621,0.001017
0.3474999999999681,0.001957,-0.001499,0.00084
0.3499999999999659,0.000813,-5.1e-05,0.000995
0.3524999999999636,0.001278,0.001843,-0.002746
0.3549999999999613,0.003254,0.003735,0.000452
0.3574999999999591,0.001625,-0.000116,0.001695
0.3599999999999568,0.00141,-0.000413,0.000416
0.3624999999999545,0.000211,0.000798,0.001476
0.3649999999999522,0.001518,0.002346,0.000735
0.3675000000000068,0.002863,0.005039,-0.000963
0.3700000000000045,0.00044,0.004127,0.000753
0.3725000000000023,0.001215,0.00127,0.001422
0.375,0.002911,0.00165,0.002814
0.3774999999999977,0.000166,0.001875,-0.003071
0.3799999999999954,-0.002398,0.001887,0.001489
0.3824999999999932,0.002974,0.001761,5e-05
0.3849999999999909,0.001084,-0.000431,-0.000823
0.3874999999999886,0.005367,-0.000967,0.00033
0.3899999999999863,0.002997,-0.000915,-5.7e-05
0.3924999999999841,0.003826,0.00372,-0.001296
0.3949999999999818,0.003383,9.8e-05,0.001238
0.3974999999999795,0.00357,-0.000286,0.001537
0.3999999999999772,-0.000866,8.6e-05,-0.000894
0.402499999999975,0.002951,0.001069,-0.001217
0.4049999999999727,0.001986,0.000305,-0.001211
0.4074999999999704,0.002825,0.000403,0.000774
0.4099999999999681,-0.000398,-0.000115,0.000831
0.4124999999999659,0.004216,-0.000958,0.002009
0.4149999999999636,7.2e-05,0.000126,0.001452
0.4174999999999613,0.001528,0.005365,0.000148
0.4199999999999591,-0.000581,-0.001763,0.000983
0.4224999999999568,0.001851,0.003362,0.000232
0.4249999999999545,0.002434,0.001376,9e-05
0.4274999999999522,0.001339,0.000837,0.001093
0.4300000000000068,-0.000271,0.001822,0.000333
0.4325000000000045,0.002531,-0.00059,1.6e-05
0.4350000000000023,0.000324,0.000767,0.002522
0.4375,0.002409,0.000856,0.001094
0.4399999999999977,0.001592,0.005712,0.000153
0.4424999999999954,-0.001293,0.003055,0.000494
0.4449999999999932,0.002012,-6.3e-05,0.002202
0.4474999999999909,0.002418,0.000574,-0.000863
0.4499999999999886,0.002071,0.002175,0.000251
0.4524999999999863,0.003401,0.001358,0.002583
0.4549999999999841,0.00362,-0.000723,-0.000571
0.4574999999999818,0.002984,0.000425,0.000779
0.4599999999999795,0.002531,-0.000277,0.001771
0.4624999999999772,0.001783,-0.000152,0.001758
0.464999999999975,0.000495,0.003297,0.00147
0.4674999999999727,0.004409,0.004891,0.001513
0.4699999999999704,0.004903,1.1e-05,-0.001432
0.4724999999999681,0.000999,-3.3e-05,0.000129
0.4749999999999659,0.000959,-3.6e-05,0.001249
0.4774999999999636,0.001944,-0.000909,0.001922
0.4799999999999613,-0.000264,0.002632,0.001927
0.4824999999999591,0.002881,-0.000806,0.002656
0.4849999999999568,0.003027,0.002972,0.00068
0.4874999999999545,-0.000243,0.000747,0.002147
0.4899999999999522,-0.003543,0.000737,0.001349
0.4925000000000068,-0.001459,0.000965,0.000205
0.4950000000000045,0.000594,0.001804,-0.000669
0.4975000000000023,-0.001831,0.006232,-0.000802
0.5,-0.002176,-0.000922,-0.000116
0.5024999999999977,-0.003026,-0.000948,-0.000119
0.5049999999999955,-0.003086,0.000527,0.002006
0.5074999999999932,-0.004996,0.002638,0.000704
0.5099999999999909,-0.008951,0.000929,-0.001444
0.5124999999999886,-0.007446,0.00371,0.000262
0.5149999999999864,-0.010441,-0.001761,0.001087
0.5174999999999841,-0.011812,-0.000989,-0.000308
0.5199999999999818,-0.013061,-0.000234,-0.000653
0.5224999999999795,-0.015146,0.003172,0.002486
0.5249999999999773,-0.016618,0.001328,-0.000508
0.527499999999975,-0.016284,0.002304,0.000524
0.5299999999999727,-0.01789,-0.00027,0.00015
0.5324999999999704,-0.021496,-0.002377,0.002082
0.5349999999999682,-0.019187,-0.00066,0.001616
0.5374999999999659,-0.022949,-0.000867,0.001217
0.5399999999999636,-0.023979,0.001427,0.003438
0.5424999999999613,-0.028418,0.001214,-0.002246
0.5449999999999591,-0.028042,0.001929,0.001916
0.5474999999999568,-0.031666,0.002807,0.001209
0.5499999999999545,-0.034672,0.000817,0.003245
0.5524999999999523,-0.035264,0.002597,0.002696
0.5550000000000068,-0.036702,0.00223,0.005531
0.5575000000000045,-0.038497,0.000782,0.001008
0.5600000000000023,-0.041527,0.000838,0.005036
0.5625,-0.040489,-0.001717,0.002227
0.5649999999999977,-0.043982,0.00115,0.001916
0.5674999999999955,-0.047201,-0.002804,0.000765
0.5699999999999932,-0.045587,-0.002702,0.004033
0.5724999999999909,-0.0524,0.0012,0.001148
0.5749999999999886,-0.051774,0.001097,-0.001866
0.5774999999999864,-0.0562,-0.000118,0.000194
0.5799999999999841,-0.05376,-0.000189,-0.002027
0.5824999999999818,-0.059333,-0.000757,-0.001873
0.5849999999999795,-0.059997,0.002337,-0.000645
0.5874999999999773,-0.0645,-0.002168,-0.000529
0.589999999999975,-0.06737,0.000954,-0.000313
0.5924999999999727,-0.065368,0.000424,-0.004034
0.5949999999999704,-0.069311,0.000183,0.001412
0.5974999999999682,-0.06752,0.001603,0.002151
0.5999999999999659,-0.07332,0.005447,0.001705
0.6024999999999636,-0.075261,-0.000921,-0.000806
0.6049999999999613,-0.076228,-0.001179,0.00143
0.6074999999999591,-0.079185,0.001606,0.001765
0.6099999999999568,-0.077742,-0.00069,0.000393
0.6124999999999545,-0.076707,0.001853,-0.0009
0.6149999999999523,-0.081617,-0.002126,0.001455
0.6175000000000068,-0.07993,0.002802,0.001071
0.6200000000000045,-0.081913,0.001023,0.000461
0.6225000000000023,-0.080137,0.002243,-0.001185
0.625,-0.080897,0.004735,0.000159
0.6274999999999977,-0.084302,0.004344,0.000911
0.6299999999999955,-0.085141,0.003081,0.000132
0.6324999999999932,-0.081542,0.007706,-0.001124
0.6349999999999909,-0.081302,0.002114,-0.001535
0.6374999999999886,-0.080992,0.000251,0.000819
0.6399999999999864,-0.082055,0.002538,-0.002047
0.6424999999999841,-0.078106,0.003035,-0.000265
0.6449999999999818,-0.076884,0.003261,-0.000612
0.6474999999999795,-0.071338,0.004638,-0.000632
0.6499999999999773,-0.07167,0.002595,0.000266
0.652499999999975,-0.060268,0.00203,-0.001824
0.6549999999999727,-0.055844,0.003972,0.000749
0.6574999999999704,-0.053531,0.002771,0.000312
0.6599999999999682,-0.047636,0.003905,0.001923
0.6624999999999659,-0.038061,0.004888,0.001097
0.6649999999999636,-0.031458,-0.001536,0.00189
0.6674999999999613,-0.025249,0.006225,0.002351
0.6699999999999591,-0.018045,0.003824,0.000405
0.6724999999999568,-0.006582,0.012759,0.001312
0.6749999999999545,-0.000583,0.006171,0.001775
0.6774999999999523,0.013196,0.006821,-0.000553
0.6800000000000068,0.021029,0.001315,0.001062
0.6825000000000045,0.031481,0.003014,0.003336
0.6850000000000023,0.045317,0.001711,0.002246
0.6875,0.056588,0.004119,0.001279
0.6899999999999977,0.067493,0.001704,0.00212
0.6924999999999955,0.079476,0.004349,0.004544
0.6949999999999932,0.099742,0.007705,0.002968
0.6974999999999909,0.113203,0.00555,0.002109
0.6999999999999886,0.129025,0.007518,0.00157
0.7024999999999864,0.142377,0.004827,0.000565
0.7049999999999841,0.158542,0.006878,0.003668
0.7074999999999818,0.178251,0.005888,0.001625
0.7099999999999795,0.193348,0.011498,0.002367
0.7124999999999773,0.21292,0.00991,0.003134
0.714999999999975,0.226236,0.006215,0.003655
0.7174999999999727,0.247204,0.011399,0.005098
0.7199999999999704,0.263184,0.011145,0.004394
0.7224999999999682,0.279557,0.009836,0.001793
0.7249999999999659,0.297641,0.009457,0.001534
0.7274999999999636,0.313083,0.006316,0.000753
0.7299999999999613,0.330316,0.007948,0.002963
0.7324999999999591,0.34835,0.010166,0.002565
0.7349999999999568,0.358439,0.007076,-0.001295
0.7374999999999545,0.372975,0.00691,-0.002511
0.7399999999999523,0.388484,0.008937,-0.002676
0.7425000000000068,0.400748,0.011339,0.001547
0.7450000000000045,0.413334,0.013088,-0.003992
0.7475000000000023,0.422271,0.010598,-0.002755
0.75,0.433173,0.009636,-0.002231
0.7524999999999977,0.440737,0.01143,-0.005183
0.7549999999999955,0.452294,0.006557,-0.003472
0.7574999999999932,0.453434,0.006089,-0.003293
0.7599999999999909,0.456866,0.004458,-0.000973
0.7624999999999886,0.460222,-0.000171,-0.002921
0.7649999999999864,0.461178,0.00061,-0.003661
0.7674999999999841,0.463221,-0.000234,-0.006294
0.7699999999999818,0.461858,0.003526,-0.003703
0.7724999999999795,0.459907,-0.000171,-0.010371
0.7749999999999773,0.450545,-0.000584,-0.005975
0.777499999999975,0.446939,-0.000335,-0.009154
0.7799999999999727,0.441564,-0.003886,-0.011215
0.7824999999999704,0.431339,-0.004533,-0.011568
0.7849999999999682,0.424153,-0.003979,-0.012372
0.7874999999999659,0.416084,-0.005332,-0.015207
0.7899999999999636,0.405165,-0.008152,-0.016554
0.7924999999999613,0.39703,-0.006735,-0.019026
0.7949999999999591,0.384482,-0.010855,-0.021182
0.7974999999999568,0.374801,-0.010501,-0.024673
0.7999999999999545,0.366522,-0.009266,-0.026366
0.8024999999999523,0.35552,-0.006291,-0.026964
0.8050000000000068,0.345225,-0.003596,-0.029984
0.8075000000000045,0.335165,-0.007026,-0.034703
0.8100000000000023,0.325856,-0.006925,-0.034875
0.8125,0.315682,-0.000665,-0.04088
0.8149999999999977,0.304358,0.000214,-0.038911
0.8174999999999955,0.298851,0.001944,-0.043534
0.8199999999999932,0.2907,0.004681,-0.045483
0.8224999999999909,0.284242,0.01095,-0.044978
0.8249999999999886,0.2788,0.009816,-0.048128
0.8274999999999864,0.273546,0.015185,-0.046985
0.8299999999999841,0.268137,0.018366,-0.047481
0.8324999999999818,0.266371,0.015601,-0.048542
0.8349999999999795,0.266369,0.018302,-0.050846
0.8374999999999773,0.258901,0.019021,-0.048783
0.839999999999975,0.256173,0.023016,-0.048228
0.8424999999999727,0.251759,0.022934,-0.049241
0.8449999999999704,0.253945,0.025576,-0.047819
0.8474999999999682,0.258671,0.027851,-0.042811
0.8499999999999659,0.259706,0.025273,-0.042214
0.8524999999999636,0.259357,0.02378,-0.041167
0.8549999999999613,0.263215,0.027611,-0.034535
0.8574999999999591,0.264392,0.028757,-0.036925
0.8599999999999568,0.263486,0.032955,-0.035168
0.8624999999999545,0.273923,0.028738,-0.033011
0.8649999999999523,0.28005,0.032527,-0.032742
0.8675000000000068,0.28263,0.029282,-0.030936
0.8700000000000045,0.288922,0.032129,-0.030744
0.8725000000000023,0.295339,0.032959,-0.030658
0.875,0.299873,0.040064,-0.029792
0.8774999999999977,0.310306,0.03861,-0.029781
0.8799999999999955,0.319222,0.042041,-0.028709
0.8824999999999932,0.323428,0.042795,-0.029807
0.8849999999999909,0.333535,0.046239,-0.031601
0.8874999999999886,0.340212,0.048304,-0.032516
0.8899999999999864,0.354556,0.048656,-0.030112
0.8924999999999841,0.365282,0.053813,-0.033154
0.8949999999999818,0.377578,0.057001,-0.032297
0.8974999999999795,0.385492,0.05916,-0.033571
0.8999999999999773,0.397346,0.061674,-0.029702
0.902499999999975,0.41363,0.065053,-0.030833
0.9049999999999728,0.421762,0.062928,-0.031219
0.9074999999999704,0.43528,0.063396,-0.026914
0.9099999999999682,0.450837,0.062016,-0.023788
0.912499999999966,0.459171,0.058772,-0.021902
0.9149999999999636,0.472514,0.061532,-0.020486
0.9174999999999612,0.483853,0.058555,-0.015157
0.9199999999999592,0.496202,0.057489,-0.013968
0.9224999999999568,0.507661,0.056867,-0.008816
0.9249999999999544,0.520014,0.05218,-0.011244
0.9274999999999524,0.529782,0.051752,-0.003362
0.9300000000000068,0.539405,0.046512,-0.004998
0.9325000000000044,0.551841,0.047427,-0.005321
0.9350000000000024,0.562447,0.048383,-0.002392
0.9375,0.572211,0.045944,-0.003967
0.9399999999999976,0.581869,0.043301,0.00037
0.9424999999999956,0.593151,0.047221,-0.002803
0.9449999999999932,0.601973,0.045558,-0.003047
0.9474999999999908,0.609123,0.04318,-0.004202
0.9499999999999886,0.61836,0.04428,-0.008686
0.9524999999999864,0.625552,0.046682,-0.004493
0.954999999999984,0.635984,0.044679,-0.011575
0.9574999999999818,0.640308,0.042898,-0.012147
0.9599999999999796,0.646276,0.041748,-0.012647
0.9624999999999772,0.654819,0.042286,-0.0194
0.964999999999975,0.658829,0.047595,-0.022444
0.9674999999999728,0.665929,0.048002,-0.025474
0.9699999999999704,0.669385,0.048443,-0.029336
0.9724999999999682,0.676816,0.048298,-0.033791
0.974999999999966,0.680652,0.048018,-0.034301
0.9774999999999636,0.684079,0.044762,-0.035259
0.9799999999999612,0.686998,0.043453,-0.03977
0.9824999999999592,0.690017,0.041512,-0.041834
0.9849999999999568,0.690446,0.039462,-0.041936
0.9874999999999544,0.69975,0.036588,-0.046974
0.9899999999999524,0.695963,0.028307,-0.045738
0.9925000000000068,0.698253,0.028887,-0.052227
0.9950000000000044,0.700168,0.025972,-0.052206
0.9975000000000024,0.700381,0.019639,-0.054318
1.0,0.702229,0.014395,-0.056112
1.0024999999999975,0.699883,0.010423,-0.057364
1.0049999999999957,0.697718,0.00753,-0.054736
1.0074999999999932,0.695115,-0.000831,-0.057192
1.009999999999991,0.694873,-0.00563,-0.058816
1.0124999999999886,0.688978,-0.009604,-0.059132
1.0149999999999864,0.686043,-0.008218,-0.060411
1.017499999999984,0.687001,-0.011,-0.061637
1.0199999999999818,0.681151,-0.018854,-0.059934
1.0224999999999795,0.676494,-0.0172,-0.059982
1.0249999999999773,0.672569,-0.017221,-0.063372
1.027499999999975,0.667939,-0.022796,-0.064668
1.0299999999999727,0.66411,-0.022812,-0.063501
1.0324999999999704,0.657534,-0.023077,-0.06495
1.0349999999999682,0.656258,-0.019161,-0.06644
1.037499999999966,0.649538,-0.020903,-0.065634
1.0399999999999636,0.643457,-0.020196,-0.067924
1.0424999999999611,0.635756,-0.020562,-0.065793
1.044999999999959,0.633218,-0.019254,-0.064339
1.0474999999999568,0.627435,-0.0193,-0.065538
1.0499999999999543,0.627708,-0.016336,-0.061581
1.0524999999999525,0.622352,-0.017749,-0.063822
1.0550000000000068,0.616198,-0.015189,-0.061916
1.0575000000000043,0.609306,-0.012508,-0.062129
1.0600000000000025,0.61451,-0.012521,-0.059709
1.0625,0.611761,-0.012466,-0.056967
1.0649999999999975,0.608059,-0.012842,-0.054541
1.0674999999999957,0.609265,-0.007311,-0.053832
1.0699999999999932,0.608147,-0.007515,-0.050074
1.072499999999991,0.608165,-0.00893,-0.046462
1.0749999999999886,0.608929,-0.007731,-0.043511
1.0774999999999864,0.609555,-0.006613,-0.038624
1.079999999999984,0.606916,-0.005062,-0.037125
1.0824999999999818,0.611346,-0.005621,-0.03273
1.0849999999999795,0.614559,-0.004207,-0.02944
1.0874999999999773,0.615881,-0.005832,-0.028461
1.089999999999975,0.619576,-0.008634,-0.022975
1.0924999999999727,0.621414,-0.005123,-0.020446
1.0949999999999704,0.625382,-0.00013,-0.018528
1.0974999999999682,0.629055,-0.002465,-0.013146
1.099999999999966,0.633445,-0.000109,-0.007752
1.1024999999999636,0.636707,0.001594,-0.003546
1.1049999999999611,0.642745,0.001564,-0.004624
1.107499999999959,0.644886,0.003297,-0.002007
1.1099999999999568,0.650888,0.002872,0.003909
1.1124999999999543,0.651743,0.001731,0.003789
1.1149999999999525,0.663268,0.009391,0.003297
1.1175000000000068,0.663089,0.006782,0.008325
1.1200000000000043,0.667729,0.011119,0.00921
1.1225000000000025,0.674138,0.013668,0.008941
1.125,0.677524,0.012621,0.011487
1.1274999999999975,0.681029,0.01187,0.010455
1.1299999999999957,0.690969,0.011658,0.012661
1.1324999999999932,0.693015,0.012907,0.010522
1.134999999999991,0.696033,0.012986,0.009885
1.1374999999999886,0.703525,0.018086,0.010785
1.1399999999999864,0.710177,0.014568,0.011214
1.142499999999984,0.717474,0.018809,0.01029
1.1449999999999818,0.72216,0.017355,0.009077
1.1474999999999795,0.728995,0.019819,0.009147
1.1499999999999773,0.73378,0.018262,0.00594
1.152499999999975,0.742219,0.019526,0.00421
1.1549999999999727,0.741569,0.015228,0.003179
1.1574999999999704,0.749969,0.016696,-0.000402
1.1599999999999682,0.756493,0.023245,-0.002638
1.162499999999966,0.763332,0.019705,-0.006393
1.1649999999999636,0.768986,0.02187,-0.005642
1.1674999999999611,0.775171,0.018836,-0.005582
1.169999999999959,0.781203,0.02278,-0.007401
1.1724999999999568,0.790455,0.022612,-0.013295
1.1749999999999543,0.799347,0.022339,-0.014937
1.1774999999999525,0.80106,0.023839,-0.01968
1.1800000000000068,0.805844,0.024169,-0.019617
1.1825000000000043,0.811652,0.023643,-0.0202
1.1850000000000025,0.820739,0.019226,-0.02147
1.1875,0.826769,0.018745,-0.024806
1.1899999999999975,0.833761,0.021283,-0.024712
1.1924999999999957,0.841519,0.021558,-0.02715
1.1949999999999932,0.844952,0.017267,-0.027139
1.197499999999991,0.8504,0.017307,-0.033157
1.1999999999999886,0.865206,0.012781,-0.033401
1.2024999999999864,0.865109,0.011557,-0.030722
1.204999999999984,0.871296,0.010005,-0.035486
1.2074999999999818,0.881101,0.008871,-0.033914
1.2099999999999795,0.886006,0.004251,-0.033863
1.2124999999999773,0.893184,0.003067,-0.033094
1.214999999999975,0.899697,-0.000504,-0.036785
1.2174999999999727,0.905868,-0.00582,-0.037481
1.2199999999999704,0.912021,-0.003201,-0.036016
1.2224999999999682,0.920066,-0.005145,-0.036551
1.224999999999966,0.922672,-0.008059,-0.037061
1.2274999999999636,0.927546,-0.006232,-0.034407
1.2299999999999611,0.934642,-0.011532,-0.037047
1.232499999999959,0.942653,-0.014587,-0.038718
1.2349999999999568,0.947345,-0.010607,-0.03826
1.2374999999999543,0.950996,-0.015058,-0.032891
1.2399999999999525,0.957629,-0.012493,-0.037716
1.2425000000000068,0.967736,-0.013693,-0.035626
1.2450000000000043,0.969886,-0.015289,-0.036401
1.2475000000000025,0.971938,-0.014824,-0.032929
1.25,0.97638,-0.011845,-0.03594
1.2524999999999975,0.979612,-0.01298,-0.03459
1.2549999999999957,0.984877,-0.012615,-0.033596
1.2574999999999932,0.987666,-0.01148,-0.034523
1.259999999999991,0.994697,-0.009786,-0.030375
1.2624999999999886,0.99408,-0.008371,-0.030802
1.2649999999999864,0.997127,-0.008501,-0.031629
1.267499999999984,1.002571,-0.008321,-0.02792
1.2699999999999818,1.004686,-0.007528,-0.027668
1.2724999999999795,1.006086,-0.005937,-0.025581
1.2749999999999773,1.008993,-0.006941,-0.024122
1.277499999999975,1.004317,-0.001463,-0.025181
1.2799999999999727,1.011861,-0.007243,-0.02328
1.2824999999999704,1.012723,-0.002246,-0.020844
1.2849999999999682,1.015612,-0.003923,-0.019027
1.287499999999966,1.013058,-0.00332,-0.021921
1.2899999999999636,1.016317,-4.3e-05,-0.019661
1.2924999999999611,1.013863,-0.007577,-0.020064
1.294999999999959,1.01713,-0.002125,-0.021264
1.2974999999999568,1.015581,-0.001098,-0.019646
1.2999999999999543,1.01749,-0.002192,-0.020413
1.3024999999999525,1.022118,-0.000191,-0.017565
1.3050000000000068,1.022903,-0.002685,-0.016949
1.3075000000000043,1.025943,-0.001289,-0.021191
1.3100000000000025,1.028682,-0.000113,-0.020064
1.3125,1.025323,0.003379,-0.01937
1.3149999999999975,1.026901,0.000174,-0.020182
1.3174999999999957,1.027493,0.002342,-0.016652
1.3199999999999932,1.025855,-0.000249,-0.015372
1.322499999999991,1.029534,0.000108,-0.015089
1.3249999999999886,1.031808,0.003008,-0.013259
1.3274999999999864,1.03068,0.007363,-0.010958
1.329999999999984,1.021309,0.009199,-0.011383
1.3324999999999818,1.022015,0.009506,-0.002751
1.3349999999999795,1.021598,0.007009,0.000729
1.3374999999999773,1.016147,0.014157,0.009098
1.339999999999975,1.010265,0.016602,0.012902
1.3424999999999727,1.004527,0.022518,0.021062
1.3449999999999704,0.997132,0.026938,0.032657
1.3474999999999682,0.989161,0.027572,0.04111
1.349999999999966,0.97924,0.033768,0.05321
1.3524999999999636,0.972229,0.038699,0.062162
1.3549999999999611,0.961007,0.044005,0.075007
1.357499999999959,0.952547,0.054408,0.087553
1.3599999999999568,0.939068,0.060131,0.10337
1.3624999999999543,0.930422,0.067381,0.118821
1.3649999999999525,0.919146,0.075307,0.129331
1.3675000000000068,0.910483,0.089761,0.147038
1.3700000000000043,0.896915,0.09904,0.155398
1.3725000000000025,0.885345,0.113844,0.169349
1.375,0.874577,0.12548,0.180011
1.3774999999999975,0.865288,0.141727,0.187454
1.3799999999999957,0.853595,0.151407,0.196397
1.3824999999999932,0.842752,0.166441,0.203355
1.384999999999991,0.833499,0.180408,0.215196
1.3874999999999886,0.821621,0.191582,0.223919
1.3899999999999864,0.807471,0.204202,0.227668
1.392499999999984,0.794345,0.211983,0.23384
1.3949999999999818,0.784337,0.217999,0.239513
1.3974999999999795,0.773283,0.227606,0.243316
1.3999999999999773,0.759655,0.231833,0.243621
1.402499999999975,0.748705,0.232797,0.246012
1.4049999999999727,0.730123,0.230115,0.2459
1.4074999999999704,0.717942,0.226475,0.240403
1.4099999999999682,0.705094,0.219815,0.234888
1.412499999999966,0.6915,0.210274,0.225347
1.4149999999999636,0.674857,0.203592,0.212302
1.4174999999999611,0.656281,0.190748,0.194075
1.419999999999959,0.635608,0.178609,0.174657
1.4224999999999568,0.615399,0.1648,0.146272
1.4249999999999543,0.59739,0.146288,0.122301
1.4274999999999525,0.57473,0.131733,0.094942
1.4300000000000068,0.554478,0.113557,0.0703
1.4325000000000043,0.534942,0.095253,0.044254
1.4350000000000025,0.518326,0.079382,0.022916
1.4375,0.496874,0.060705,0.002567
1.4399999999999975,0.479329,0.045846,-0.009137
1.4424999999999957,0.453746,0.033035,-0.019588
1.4449999999999932,0.432258,0.018644,-0.028636
1.447499999999991,0.411701,0.000262,-0.032389
1.4499999999999886,0.389061,-0.00913,-0.03732
1.4524999999999864,0.369825,-0.02341,-0.036839
1.454999999999984,0.351209,-0.032993,-0.037481
1.4574999999999818,0.32898,-0.037122,-0.034438
1.4599999999999795,0.307439,-0.038308,-0.03224
1.4624999999999773,0.288614,-0.039592,-0.027591
1.464999999999975,0.271109,-0.042281,-0.023431
1.4674999999999727,0.252365,-0.033066,-0.023299
1.4699999999999704,0.237081,-0.026564,-0.018302
1.4724999999999682,0.220915,-0.023425,-0.016767
1.474999999999966,0.204193,-0.014821,-0.012426
1.4774999999999636,0.193358,-0.007752,-0.008681
1.4799999999999611,0.182515,-0.004882,-0.005229
1.482499999999959,0.171752,0.000186,-0.005378
1.4849999999999568,0.159688,0.007441,-0.003009
1.4874999999999543,0.149629,0.012404,0.000615
1.4899999999999525,0.137305,0.013811,0.00279
1.4925000000000068,0.127978,0.014032,0.004514
1.4950000000000043,0.122643,0.013671,0.004268
1.4975000000000025,0.113001,0.013167,0.005213
1.5,0.105975,0.012349,0.002336
1.5024999999999975,0.101297,0.011498,0.003911
1.5049999999999957,0.096124,0.004598,-0.004138
1.5074999999999932,0.089199,0.007937,4.4e-05
1.509999999999991,0.086608,0.001553,-0.002848
1.5124999999999886,0.08362,0.002798,-0.003755
1.5149999999999864,0.082581,-0.002845,-0.005122
1.517499999999984,0.077575,-0.000656,-0.0057
1.5199999999999818,0.077165,-0.002937,-0.001687
1.5224999999999795,0.076934,-0.006124,-0.005266
1.5249999999999773,0.075839,0.000348,-0.006573
1.527499999999975,0.078013,-0.003512,-0.004786
1.5299999999999727,0.080595,0.000631,-0.002983
1.5324999999999704,0.082783,-0.001115,-0.000308
1.5349999999999682,0.086317,0.004723,-0.001751
1.537499999999966,0.08832,0.004961,-0.000893
1.5399999999999636,0.091594,0.00831,-0.002807
1.5424999999999611,0.09886,0.00833,-0.002334
1.544999999999959,0.102083,0.00752,-0.001059
1.5474999999999568,0.108362,0.008229,0.001105
1.5499999999999543,0.11292,0.006659,-0.002778
1.5524999999999525,0.116118,0.007766,-0.002007
1.5550000000000068,0.125327,0.007845,-0.000377
1.5575000000000043,0.12553,0.006054,-0.001748
1.5600000000000025,0.132122,0.007752,-0.002699
1.5625,0.141764,0.005338,-0.002778
1.5649999999999975,0.145889,0.007337,-0.004916
1.5674999999999957,0.15106,0.005379,-0.00363
1.5699999999999932,0.160476,0.005955,-0.002322
1.572499999999991,0.164431,0.005751,-0.001433
1.5749999999999886,0.166383,0.007261,-0.003459
1.5774999999999864,0.175676,0.008351,-0.004458
1.579999999999984,0.181193,0.008903,-0.002238
1.5824999999999818,0.185832,0.009712,-0.00141
1.5849999999999795,0.192512,0.009064,-0.001052
1.5874999999999773,0.197055,0.007769,-0.005278
1.589999999999975,0.201754,0.008325,-0.000682
1.5924999999999727,0.205631,0.007982,-0.001378
1.5949999999999704,0.20809,0.010342,-0.00404
1.5974999999999682,0.210462,0.010916,0.000676
1.599999999999966,0.215734,0.014602,-0.000614
1.6024999999999636,0.220101,0.013121,-0.000259
1.6049999999999611,0.216826,0.01537,-0.0008
1.607499999999959,0.219572,0.011636,-5.5e-05
1.6099999999999568,0.220475,0.012118,0.000558
1.6124999999999543,0.222934,0.012992,-0.001583
1.6149999999999525,0.223982,0.012017,-0.00211
1.6175000000000068,0.228065,0.013036,-0.001703
1.6200000000000043,0.229672,0.008453,-0.002109
1.6225000000000025,0.229225,0.005826,-0.001781
1.625,0.23044,0.00545,-0.003934
1.6274999999999975,0.23196,0.003559,-0.0043
1.6299999999999957,0.232809,0.004203,-0.002906
1.6324999999999932,0.235669,0.002632,-0.001517
1.634999999999991,0.238926,-0.000118,-0.00248
1.6374999999999886,0.239963,0.004522,-0.003478
1.6399999999999864,0.239026,0.001811,-0.002781
1.642499999999984,0.245101,-0.001852,-0.000204
1.6449999999999818,0.247733,-0.001545,-0.001536
1.6474999999999795,0.250254,0.002227,-0.001018
1.6499999999999773,0.252657,0.002901,-0.000769
1.652499999999975,0.254013,0.002617,-0.00052
1.6549999999999727,0.25922,0.000627,-0.000511
1.6574999999999704,0.268165,0.001349,-0.00191
1.6599999999999682,0.271391,0.000154,-0.000992
1.662499999999966,0.277311,-0.000735,0.00191
1.6649999999999636,0.274954,0.004051,-0.001158
1.6674999999999611,0.283354,0.000378,-0.000347
1.669999999999959,0.288784,0.004039,0.002056
1.6724999999999568,0.293779,0.009007,0.000691
1.6749999999999543,0.299836,0.00047,0.004431
1.6774999999999525,0.305528,-0.000495,0.001771
1.6800000000000068,0.312079,0.001646,0.003397
1.6825000000000043,0.318258,0.005928,0.003339
1.6850000000000025,0.323103,0.003872,0.002905
1.6875,0.332903,0.002331,0.003705
1.6899999999999975,0.34016,0.002474,-0.000945
1.6924999999999957,0.347788,0.003218,0.005164
1.6949999999999932,0.357289,0.003346,0.004318
1.697499999999991,0.361349,0.003632,0.002568
1.6999999999999886,0.363951,0.005331,0.004677
1.7024999999999864,0.374187,0.006414,0.004084
1.704999999999984,0.375085,0.007097,0.005286
1.7074999999999818,0.382384,0.008879,0.003178
1.7099999999999795,0.387707,0.007316,0.003963
1.7124999999999773,0.39408,0.008097,0.004623
1.714999999999975,0.398115,0.006939,0.003653
1.7174999999999727,0.406615,0.003339,0.005003
1.7199999999999704,0.415332,0.006124,0.00493
1.7224999999999682,0.417758,0.008189,0.00608
1.724999999999966,0.421933,0.005599,0.002594
1.7274999999999636,0.428208,0.005031,0.002437
1.7299999999999611,0.435982,0.005765,0.003744
1.732499999999959,0.441896,0.003666,0.004864
1.7349999999999568,0.443386,0.00123,0.003833
1.7374999999999543,0.451661,0.005559,0.001325
1.7399999999999525,0.457675,0.000551,0.000223
1.7425000000000068,0.462154,-0.000593,0.003121
1.7450000000000043,0.470466,0.003158,0.002275
1.7475000000000025,0.473396,0.001515,0.002766
1.75,0.481064,0.003194,0.002026
1.7524999999999975,0.48912,0.001731,0.003854
1.7549999999999957,0.491092,0.004049,0.002248
1.7574999999999932,0.502078,0.002406,0.000355
1.759999999999991,0.509942,0.004547,0.005298
1.7624999999999886,0.520759,0.005125,0.003166
1.7649999999999864,0.521515,0.00445,0.00427
1.767499999999984,0.530478,0.003289,0.00334
1.7699999999999818,0.538971,0.000987,0.008718
1.7724999999999795,0.547626,0.001802,0.004182
1.7749999999999773,0.556732,0.001303,0.004932
1.777499999999975,0.561886,0.001865,0.004428
1.7799999999999727,0.572734,0.002059,0.003875
1.7824999999999704,0.582395,0.003945,0.006645
1.7849999999999682,0.588562,0.002264,0.004996
1.787499999999966,0.600726,0.005978,0.005706
1.7899999999999636,0.609916,0.002766,0.006325
1.7924999999999611,0.618262,0.005721,0.00299
1.794999999999959,0.627656,0.008372,0.004124
1.7974999999999568,0.636638,0.00659,0.0057
1.7999999999999543,0.646777,0.009827,0.004097
1.8024999999999525,0.653061,0.007959,0.003599
1.8050000000000068,0.665253,0.009505,0.005127
1.8075000000000043,0.67522,0.007693,0.004975
1.8100000000000025,0.685146,0.007869,0.005757
1.8125,0.696801,0.00824,0.004005
1.8149999999999975,0.705203,0.011308,0.004382
1.8174999999999957,0.717769,0.008751,0.002389
1.8199999999999927,0.725677,0.013549,0.005033
1.822499999999991,0.733375,0.011823,0.002965
1.8249999999999889,0.747482,0.009131,-0.00032
1.8274999999999864,0.757951,0.010436,0.006334
1.829999999999984,0.765101,0.009284,0.002921
1.8324999999999816,0.777616,0.01277,0.002345
1.8349999999999795,0.78553,0.011971,0.003947
1.8374999999999773,0.798259,0.011217,-0.000581
1.839999999999975,0.806517,0.011779,0.00247
1.8424999999999727,0.817374,0.00797,0.002506
1.8449999999999704,0.832264,0.009681,0.003498
1.847499999999968,0.835792,0.010008,0.000962
1.849999999999966,0.848743,0.012549,0.00617
1.852499999999964,0.862201,0.013221,0.003264
1.8549999999999611,0.870163,0.012716,0.004356
1.857499999999959,0.880008,0.012708,0.001989
1.8599999999999568,0.892965,0.012911,-0.00013
1.8624999999999543,0.900068,0.011485,0.001525
1.8649999999999525,0.908781,0.014991,0.002489
1.8675000000000068,0.919753,0.014152,0.002234
1.8700000000000043,0.932165,0.011746,0.00286
1.8725000000000025,0.938935,0.009995,2.6e-05
1.875,0.947949,0.010938,0.001944
1.8774999999999975,0.9568,0.014415,0.001702
1.8799999999999957,0.96679,0.012801,-0.000443
1.8824999999999927,0.976866,0.013704,0.002827
1.884999999999991,0.986725,0.009381,0.001863
1.8874999999999889,0.996154,0.007816,0.002662
1.8899999999999864,1.000651,0.011466,0.002923
1.892499999999984,1.013337,0.012416,-0.000151
1.8949999999999816,1.020619,0.011175,0.000612
1.8974999999999795,1.030801,0.010253,-0.00013
1.8999999999999773,1.035088,0.007238,-0.000367
1.902499999999975,1.04381,0.009453,-0.000907
1.9049999999999727,1.052865,0.009064,0.000467
1.9074999999999704,1.058632,0.007708,6.3e-05
1.909999999999968,1.069884,0.004923,-0.002521
1.912499999999966,1.073758,0.007121,-0.000329
1.914999999999964,1.083284,0.008709,0.001285
1.9174999999999611,1.088161,0.006495,0.00261
1.919999999999959,1.097029,0.004017,-0.001195
1.9224999999999568,1.106014,0.004645,-0.000699
1.9249999999999543,1.110659,0.007831,0.001217
1.9274999999999525,1.120333,0.008955,0.001914
1.9300000000000068,1.12119,0.009727,0.002237
1.9325000000000043,1.127976,0.008938,0.000637
1.9350000000000025,1.129822,0.010378,0.001001
1.9375,1.138553,0.010502,0.002665
1.9399999999999975,1.139326,0.005602,0.001354
1.9424999999999957,1.14419,0.011288,0.005914
1.9449999999999927,1.150673,0.008162,0.003863
1.947499999999991,1.151058,0.008062,0.006812
1.9499999999999889,1.155388,0.011487,0.005094
1.9524999999999864,1.158949,0.010275,0.004294
1.954999999999984,1.158972,0.013333,0.004496
1.9574999999999816,1.163292,0.010746,0.005043
1.9599999999999795,1.166193,0.012475,0.004721
1.9624999999999773,1.163526,0.010257,0.007074
1.964999999999975,1.166152,0.011262,0.005111
1.9674999999999727,1.163196,0.009554,0.006943
1.9699999999999704,1.165268,0.010594,0.008846
1.972499999999968,1.161338,0.015118,0.006539
1.974999999999966,1.159507,0.007995,0.007724
1.977499999999964,1.155403,0.008539,0.008564
1.9799999999999611,1.156488,0.010746,0.005629
1.982499999999959,1.150299,0.010597,0.009442
1.9849999999999568,1.144238,0.004607,0.007095
1.9874999999999543,1.138925,0.010435,0.006693
1.9899999999999525,1.135383,0.011005,0.00794
1.9925000000000068,1.133279,0.010698,0.004583
1.9950000000000043,1.127425,0.013649,0.006763
1.9975000000000025,1.117499,0.011926,0.00503
2.0,1.110618,0.010347,0.006797
2.0024999999999977,1.105107,0.013796,0.004723
2.0049999999999955,1.095803,0.013334,0.003751
2.007499999999993,1.088065,0.015331,0.004537
2.009999999999991,1.080255,0.016566,0.005659
2.0124999999999886,1.072137,0.012542,0.007036
2.0149999999999864,1.060378,0.015732,0.005355
2.017499999999984,1.049739,0.015365,0.005821
2.019999999999982,1.041662,0.015088,0.005094
2.0224999999999795,1.037091,0.014039,0.005225
2.0249999999999773,1.030146,0.013074,0.004993
2.027499999999975,1.018278,0.010362,0.006805
2.0299999999999727,1.008686,0.009472,0.007523
2.0324999999999704,0.999142,0.008474,0.007636
2.034999999999968,0.989157,0.008423,0.007425
2.037499999999966,0.975881,0.007866,0.005027
2.039999999999964,0.966946,0.010367,0.008974
2.0424999999999613,0.957573,0.009131,0.006715
2.044999999999959,0.946718,0.006922,0.0052
2.047499999999957,0.939514,0.007492,0.002612
2.0499999999999545,0.934047,0.007773,0.002215
2.0524999999999523,0.919564,0.006726,0.002945
2.055000000000007,0.911605,0.009156,0.001594
2.0575000000000045,0.899863,0.006459,0.003906
2.0600000000000023,0.889532,0.007463,0.002822
2.0625,0.879652,0.008272,0.002571
2.0649999999999977,0.870867,0.004833,0.002836
2.0674999999999955,0.862824,0.002774,0.000223
2.069999999999993,0.851763,0.006226,0.002772
2.072499999999991,0.84227,0.008833,0.002963
2.0749999999999886,0.835198,0.005921,-0.00079
2.0774999999999864,0.827789,0.007688,0.003
2.079999999999984,0.819031,0.007247,0.004319
2.082499999999982,0.806783,0.0078,0.002436
2.0849999999999795,0.799158,0.004757,-0.000611
2.0874999999999773,0.794246,0.007711,-0.000812
2.089999999999975,0.78338,0.009236,0.000412
2.0924999999999727,0.775858,0.006609,-0.000334
2.0949999999999704,0.766455,0.009035,-0.000525
2.097499999999968,0.759872,0.00753,-0.00215
2.099999999999966,0.75366,0.006735,7.5e-05
2.102499999999964,0.748084,0.005593,-0.001548
2.1049999999999613,0.73647,0.003643,-0.002454
2.107499999999959,0.729592,0.005347,-0.00288
2.109999999999957,0.723396,0.004558,-0.000733
2.1124999999999545,0.714149,0.006438,-0.002842
2.1149999999999523,0.709749,0.006744,-0.003022
2.117500000000007,0.700035,0.005808,-0.000356
2.1200000000000045,0.693307,0.005396,-0.002035
2.1225000000000023,0.687126,0.003766,-0.001951
2.125,0.681277,0.001132,-0.000532
2.1274999999999977,0.673158,0.009058,0.001553
2.1299999999999955,0.671791,0.005236,0.000401
2.132499999999993,0.661223,0.004068,-0.000854
2.134999999999991,0.656363,0.004489,-0.001717
2.1374999999999886,0.648394,0.005483,0.001972
2.1399999999999864,0.645457,0.004426,-0.000632
2.142499999999984,0.63859,0.006183,0.00085
2.144999999999982,0.633542,0.003207,-0.001067
2.1474999999999795,0.626689,0.004972,0.002409
2.1499999999999773,0.62006,0.002218,0.00309
2.152499999999975,0.615991,0.003249,0.001947
2.1549999999999727,0.611972,0.001902,0.000689
2.1574999999999704,0.606755,0.00234,0.002605
2.159999999999968,0.599868,0.004845,0.001255
2.162499999999966,0.595536,0.003422,0.002516
2.164999999999964,0.592614,2.9e-05,0.003032
2.1674999999999613,0.590708,0.001471,0.002552
2.169999999999959,0.583152,-0.000173,0.003859
2.172499999999957,0.578985,0.001001,0.002084
2.1749999999999545,0.578382,-0.004603,0.00146
2.1774999999999523,0.575123,0.003112,0.003945
2.180000000000007,0.573827,0.005233,0.001792
2.1825000000000045,0.568838,0.002908,0.003291
2.1850000000000023,0.566993,0.006182,-0.001125
2.1875,0.565589,0.005465,0.004526
2.1899999999999977,0.565704,0.004841,0.001629
2.1924999999999955,0.562153,0.005377,0.002698
2.194999999999993,0.564831,0.00219,0.000592
2.197499999999991,0.565466,0.001379,0.002857
2.1999999999999886,0.558614,0.005854,0.001922
2.2024999999999864,0.560502,0.00337,0.004188
2.204999999999984,0.560371,0.005072,0.002108
2.207499999999982,0.561539,0.004273,0.001327
2.2099999999999795,0.566513,0.003091,0.001954
2.2124999999999773,0.560998,0.001939,0.001729
2.214999999999975,0.562266,0.004434,0.003157
2.2174999999999727,0.562846,0.005738,0.002199
2.2199999999999704,0.565486,0.001945,0.001066
2.222499999999968,0.5645,0.00352,2.8e-05
2.224999999999966,0.566437,0.002932,0.00395
2.227499999999964,0.571076,0.001036,0.002865
2.2299999999999613,0.56641,0.004963,0.004218
2.232499999999959,0.574321,0.003908,0.004659
2.234999999999957,0.575819,0.005583,0.004726
2.2374999999999545,0.57573,0.003649,0.003164
2.2399999999999523,0.577805,0.003961,0.002394
2.242500000000007,0.580389,0.005085,0.003485
2.2450000000000045,0.583475,0.006906,0.002471
2.2475000000000023,0.586083,0.004295,0.003312
2.25,0.588418,0.005024,0.002182
2.2524999999999977,0.592781,0.005712,0.001965
2.2549999999999955,0.593788,0.007819,0.002835
2.257499999999993,0.597588,0.003766,0.006103
2.259999999999991,0.600886,0.006349,0.006524
2.2624999999999886,0.604554,0.004015,0.00286
2.2649999999999864,0.604776,0.001874,0.003969
2.267499999999984,0.609427,0.005048,0.002521
2.269999999999982,0.609679,0.007362,-0.00028
2.2724999999999795,0.615686,0.003677,0.005216
2.2749999999999773,0.616404,0.008105,0.005389
2.277499999999975,0.620131,0.004525,0.000568
2.2799999999999727,0.620719,0.004315,0.004747
2.2824999999999704,0.626277,0.005754,0.003191
2.284999999999968,0.624595,0.003723,0.005151
2.287499999999966,0.627751,0.000694,0.003462
2.289999999999964,0.630564,0.005775,0.003479
2.2924999999999613,0.631071,0.00698,0.003173
2.294999999999959,0.634345,0.004853,0.004514
2.297499999999957,0.634527,0.006329,0.003027
2.2999999999999545,0.639721,0.004221,0.005984
2.3024999999999523,0.638115,0.005839,0.002734
2.305000000000007,0.63547,0.002844,0.003972
2.3075000000000045,0.640646,0.007089,0.003422
2.3100000000000023,0.644105,0.005255,0.001114
2.3125,0.643543,0.005167,0.001284
2.3149999999999977,0.643935,0.004608,0.003942
2.3174999999999955,0.645184,0.005531,0.001917
2.319999999999993,0.651395,0.006863,-0.001869
2.322499999999991,0.649665,0.008195,0.001476
2.3249999999999886,0.649942,0.001609,0.002617
2.3274999999999864,0.649498,0.005081,0.002276
2.329999999999984,0.651614,0.004158,0.002804
2.332499999999982,0.653329,0.006,-0.00011
2.3349999999999795,0.65772,0.006857,0.000253
2.3374999999999773,0.659602,0.007064,0.002078
2.339999999999975,0.65871,0.004455,-0.001051
2.3424999999999727,0.658678,0.009095,0.001042
2.3449999999999704,0.663058,0.002549,-0.001293
2.347499999999968,0.663204,0.006474,-0.003254
2.349999999999966,0.659634,0.009777,-0.000972
2.352499999999964,0.662605,0.006952,-0.001341
2.3549999999999613,0.665877,0.00919,-0.001569
2.357499999999959,0.665709,0.005702,-0.004041
2.359999999999957,0.664521,0.005599,-0.003658
2.3624999999999545,0.667153,0.003705,-0.001417
2.3649999999999523,0.665934,0.003631,-0.005972
2.367500000000007,0.664281,0.007736,-0.003056
2.3700000000000045,0.669816,0.005012,-0.004803
2.3725000000000023,0.667047,0.007278,-0.002466
2.375,0.668686,0.006009,-0.007764
2.3774999999999977,0.664859,0.006973,-0.005664
2.3799999999999955,0.66585,0.005765,-0.007124
2.382499999999993,0.666706,0.007606,-0.006218
2.384999999999991,0.665962,0.008631,-0.00582
2.3874999999999886,0.665631,0.008901,-0.006196
2.3899999999999864,0.667917,0.002249,-0.008868
2.392499999999984,0.664624,0.004198,-0.011407
2.394999999999982,0.665885,0.005767,-0.008589
2.3974999999999795,0.663943,0.003032,-0.006351
2.3999999999999773,0.660224,0.007708,-0.007814
2.402499999999975,0.661058,0.004018,-0.005753
2.4049999999999727,0.659078,0.004462,-0.005519
2.4074999999999704,0.659316,0.004832,-0.006445
2.409999999999968,0.657427,0.003615,-0.006135
2.412499999999966,0.653546,0.00506,-0.005533
2.414999999999964,0.654992,0.004391,-0.005263
2.4174999999999613,0.652526,0.002608,-0.004445
2.419999999999959,0.654139,0.005179,-0.004959
2.422499999999957,0.65027,0.003206,-0.005579
2.4249999999999545,0.647634,0.006426,-0.004506
2.4274999999999523,0.648461,0.007332,-0.004916
2.430000000000007,0.645813,0.005949,-0.006782
2.4325000000000045,0.645416,0.006973,-0.003049
2.4350000000000023,0.644157,0.005468,-0.00404
2.4375,0.641369,0.004067,-0.005077
2.4399999999999977,0.641202,0.001781,-0.007828
2.4424999999999955,0.63953,0.00521,-0.003332
2.444999999999993,0.639052,0.004108,-0.004007
2.447499999999991,0.640418,0.005563,-0.002101
2.4499999999999886,0.636453,0.00805,-0.004803
2.4524999999999864,0.638402,0.006735,-0.000405
2.454999999999984,0.634322,0.002197,0.000351
2.457499999999982,0.632449,0.004902,-0.003017
2.4599999999999795,0.634927,0.004969,-0.001249
2.4624999999999773,0.630457,0.006474,-0.002909
2.464999999999975,0.631086,0.001504,0.000893
2.4674999999999727,0.631464,0.003559,-9.7e-05
2.4699999999999704,0.62904,0.002814,-0.000887
2.472499999999968,0.632269,0.004639,0.00016
2.474999999999966,0.630842,0.003623,0.00106
2.477499999999964,0.63184,-0.000241,0.002209
2.4799999999999613,0.628097,0.002599,0.00439
2.482499999999959,0.63002,0.006101,0.00486
2.484999999999957,0.62974,0.002349,0.007281
2.4874999999999545,0.626471,0.002379,0.002817
2.4899999999999523,0.627916,0.004537,0.00307
2.492500000000007,0.62924,0.006262,0.004486
2.4950000000000045,0.627992,0.003905,0.002631
2.4975000000000023,0.62713,0.004616,0.004449
2.5,0.631373,0.005252,0.003221
2.5024999999999977,0.627548,0.009807,0.003348
2.5049999999999955,0.628818,0.004182,0.000262
2.507499999999993,0.62845,0.005972,0.003628
2.509999999999991,0.627016,0.007918,0.003234
2.5124999999999886,0.632342,0.007584,0.001871
2.5149999999999864,0.629223,0.00264,0.001412
2.517499999999984,0.63278,0.005675,0.004182
2.519999999999982,0.63282,0.003176,0.003345
2.5224999999999795,0.634975,0.005709,0.002237
2.5249999999999773,0.637388,0.003702,0.00126
2.527499999999975,0.639775,0.005097,-0.002134
2.5299999999999727,0.642898,0.002419,-0.000145
2.5324999999999704,0.643391,0.004255,0.000251
2.534999999999968,0.643148,0.0051,0.000142
2.537499999999966,0.643707,0.002282,-0.000313
2.539999999999964,0.642716,0.003158,-0.002113
2.5424999999999613,0.647835,6e-05,0.001288
2.544999999999959,0.648306,0.001978,-0.001974
2.547499999999957,0.650891,0.002285,-0.002323
2.5499999999999545,0.647696,-0.000192,0.000157
2.5524999999999523,0.652387,0.000157,-0.00295
2.555000000000007,0.651447,-0.000152,-0.002107
2.5575000000000045,0.655364,0.002115,-0.000639
2.5600000000000023,0.658216,-0.001051,-0.003706
2.5625,0.655764,0.002534,-0.002605
2.5649999999999977,0.659757,0.002081,0.001676
2.5674999999999955,0.659251,-0.000963,0.001585
2.569999999999993,0.663851,0.000293,-5.8e-05
2.572499999999991,0.661174,-0.000593,-1e-06
2.5749999999999886,0.662369,0.002757,0.00117
2.5774999999999864,0.663123,8.7e-05,0.000706
2.579999999999984,0.6672,-0.001028,0.000217
2.582499999999982,0.669649,-0.000432,4.5e-05
2.5849999999999795,0.672364,0.003112,0.005207
2.5874999999999773,0.671005,0.002695,0.002079
2.589999999999975,0.673697,0.002375,0.004052
2.5924999999999727,0.673225,0.00049,0.001683
2.5949999999999704,0.675406,0.002941,0.000373
2.597499999999968,0.673808,0.002366,0.000896
2.599999999999966,0.674894,0.00328,-0.000529
2.602499999999964,0.675974,0.003573,0.006156
2.6049999999999613,0.679012,0.006375,0.004793
2.607499999999959,0.676932,0.003713,0.002047
2.609999999999957,0.677479,0.001296,0.003407
2.6124999999999545,0.680298,0.001097,0.003422
2.6149999999999523,0.680281,0.005998,0.003593
2.617500000000007,0.680233,0.006942,0.000552
2.6200000000000045,0.676846,0.007344,0.006337
2.6225000000000023,0.681608,0.006426,0.003254
2.625,0.682216,0.002734,0.007746
2.6274999999999977,0.685267,0.003373,0.002184
2.6299999999999955,0.684656,0.004714,0.003882
2.632499999999993,0.683294,0.007135,0.003379
2.634999999999991,0.682684,0.004224,0.003169
2.6374999999999886,0.680385,0.006054,0.004832
2.6399999999999864,0.686423,0.002062,0.00144
2.642499999999984,0.68586,0.00763,0.008094
2.644999999999982,0.688072,0.006673,0.005393
2.6474999999999795,0.687105,0.000257,0.003063
2.6499999999999773,0.690267,0.00328,0.007727
2.652499999999975,0.684961,0.002218,0.007579
2.6549999999999727,0.688436,0.000387,0.005809
2.6574999999999704,0.68759,-0.000332,0.005525
2.659999999999968,0.687325,-0.002979,0.006308
2.662499999999966,0.684681,-0.004067,0.006615
2.664999999999964,0.686746,-0.003067,0.005866
2.6674999999999613,0.687797,0.000694,0.006159
2.669999999999959,0.684356,-0.002728,0.003447
2.672499999999957,0.683598,-0.004029,0.001745
2.6749999999999545,0.681835,-0.003321,0.003838
2.6774999999999523,0.681802,-0.000328,0.000548
2.680000000000007,0.682593,0.000137,0.004208
2.6825000000000045,0.679047,0.002188,0.001825
2.6850000000000023,0.680197,-0.00221,0.004106
2.6875,0.676527,-0.000986,0.002918
2.6899999999999977,0.677438,0.003377,0.004776
2.6924999999999955,0.673575,0.000749,0.006863
2.694999999999993,0.673712,0.001707,0.005121
2.697499999999991,0.671532,0.00061,0.004265
2.6999999999999886,0.667275,0.002377,0.004926
2.7024999999999864,0.663311,-4.9e-05,0.00655
2.704999999999984,0.664058,0.000442,0.003386
2.707499999999982,0.664195,0.002753,0.006711
2.7099999999999795,0.6644,0.000264,0.009014
2.7124999999999773,0.659255,-0.001356,0.006028
2.714999999999975,0.65785,0.002827,0.005273
2.7174999999999727,0.65696,3e-05,0.004153
2.7199999999999704,0.65166,0.005516,0.002385
2.722499999999968,0.652162,0.00313,0.006657
2.724999999999966,0.651529,0.00202,0.000218
2.727499999999964,0.649681,1e-05,0.004325
2.7299999999999613,0.647315,0.001618,0.005349
2.732499999999959,0.645966,0.002611,0.00582
2.734999999999957,0.644613,0.000606,0.00476
2.7374999999999545,0.642973,0.000349,0.002494
2.7399999999999523,0.644127,-0.001174,0.00708
2.742500000000007,0.640375,-8e-05,0.006279
2.7450000000000045,0.635944,0.001445,0.006407
2.7475000000000023,0.63645,0.001799,0.005876
2.75,0.637115,0.001932,0.008871
2.7524999999999977,0.635637,0.003996,0.0042
2.7549999999999955,0.634586,-0.001882,0.005188
2.757499999999993,0.628538,0.001765,0.006571
2.759999999999991,0.630327,0.002966,0.005015
2.7624999999999886,0.625647,0.002379,0.004222
2.7649999999999864,0.622068,0.003459,0.002696
2.767499999999984,0.623938,0.005081,0.002145
2.769999999999982,0.622053,0.004508,0.004634
2.7724999999999795,0.619132,0.006134,0.007582
2.7749999999999773,0.615125,0.00489,0.002714
2.777499999999975,0.615039,0.005781,0.005811
2.7799999999999727,0.613811,0.001181,0.002871
2.7824999999999704,0.611027,0.00275,0.003197
2.784999999999968,0.61133,0.001945,0.005697
2.787499999999966,0.608758,6.8e-05,0.003945
2.789999999999964,0.607223,0.003389,0.004108
2.7924999999999613,0.603507,0.002836,0.007152
2.794999999999959,0.601336,0.004014,0.00272
2.797499999999957,0.598713,0.000576,0.00326
2.7999999999999545,0.599354,0.002716,0.002532
2.8024999999999523,0.598387,-0.000241,0.002026
2.805000000000007,0.596904,0.002079,0.003498
2.8075000000000045,0.596584,0.000726,0.002254
2.8100000000000023,0.595903,0.001071,0.006007
2.8125,0.5914,0.004164,0.00122
2.8149999999999977,0.587002,0.005139,0.00525
2.8174999999999955,0.586962,0.000269,0.006961
2.819999999999993,0.583699,0.000412,0.005726
2.822499999999991,0.584089,-0.002168,0.005857
2.8249999999999886,0.581796,-0.00021,0.004249
2.8274999999999864,0.579833,0.000361,0.003713
2.829999999999984,0.575499,-0.000437,0.002865
2.832499999999982,0.574721,0.001579,0.003473
2.8349999999999795,0.573979,-0.001119,0.004966
2.8374999999999773,0.570773,0.001191,0.003464
2.839999999999975,0.570806,-0.001915,0.003398
2.8424999999999727,0.56855,0.000259,0.005714
2.8449999999999704,0.566035,-0.00049,0.008699
2.847499999999968,0.56821,0.001784,0.007146
2.849999999999966,0.564162,0.001908,0.004252
2.852499999999964,0.559615,0.004429,0.005998
2.8549999999999613,0.55848,0.002059,0.002442
2.857499999999959,0.557414,0.002463,0.004201
2.859999999999957,0.553414,0.00289,0.003033
2.8624999999999545,0.55465,-0.000483,0.004215
2.8649999999999523,0.551499,-0.000131,0.003054
2.867500000000007,0.547252,0.003075,0.000935
2.8700000000000045,0.547274,0.001384,0.00158
2.8725000000000023,0.544081,0.000935,0.002594
2.875,0.540824,0.006197,0.001878
2.8774999999999977,0.537915,-0.001806,0.001384
2.8799999999999955,0.537353,-0.001153,-0.001068
2.882499999999993,0.535499,-0.000572,0.001391
2.884999999999991,0.530388,-0.002152,0.001139
2.8874999999999886,0.52985,-0.000551,-0.001355
2.8899999999999864,0.529256,-0.000982,6.9e-05
2.892499999999984,0.52496,-0.000238,-0.001554
2.894999999999982,0.522147,-9.7e-05,0.001353
2.8974999999999795,0.517698,-0.002241,-0.000654
2.8999999999999773,0.516141,0.00037,0.000908
2.902499999999975,0.511967,0.000102,0.0004
2.9049999999999727,0.50725,0.001148,0.002737
2.9074999999999704,0.507932,0.003394,0.002705
2.909999999999968,0.502465,0.000908,-0.00307
2.912499999999966,0.500112,-0.000159,-0.000557
2.914999999999964,0.497326,0.001743,0.000254
2.9174999999999613,0.496119,0.00357,0.001848
2.919999999999959,0.488668,0.001112,0.000932
2.922499999999957,0.48925,0.001319,-0.000624
2.9249999999999545,0.485545,0.003815,-0.001451
2.9274999999999523,0.480824,0.003233,0.000831
2.930000000000007,0.477288,0.003017,0.001609
2.9325000000000045,0.477799,0.002242,0.00326
2.9350000000000023,0.473864,0.006559,0.002653
2.9375,0.471259,0.002017,0.001764
2.9399999999999977,0.469898,0.002455,0.00307
2.9424999999999955,0.469994,0.001764,-0.000356
2.944999999999993,0.463566,0.003023,-0.000244
2.947499999999991,0.46374,0.002991,0.002747
2.9499999999999886,0.462043,0.002553,0.003394
2.9524999999999864,0.460581,0.00756,0.004353
2.954999999999984,0.454307,0.0103,0.000142
2.957499999999982,0.451694,0.006769,0.003523
2.9599999999999795,0.440262,0.010286,0.002193
2.9624999999999773,0.423894,0.012698,-0.003196
2.964999999999975,0.403107,0.014449,-0.006793
2.9674999999999727,0.372404,0.018314,-0.010189
2.9699999999999704,0.33218,0.021359,-0.016123
2.972499999999968,0.285413,0.017794,-0.022331
2.974999999999966,0.231522,0.025182,-0.029448
2.977499999999964,0.176387,0.02025,-0.034291
2.9799999999999613,0.127634,0.013825,-0.039257
2.982499999999959,0.08515,0.012846,-0.039344
2.984999999999957,0.044232,0.012263,-0.039636
2.9874999999999545,0.016629,0.006314,-0.040963
2.9899999999999523,-0.013898,0.003203,-0.033075
2.992500000000007,-0.034259,0.002144,-0.024796
2.9950000000000045,-0.056642,-0.002934,-0.017259
2.9975000000000023,-0.079265,-0.00145,-0.00331
3.0,-0.098951,-0.002585,0.006153
3.0024999999999977,-0.111298,-0.005254,0.011887
3.0049999999999955,-0.117417,-0.005521,0.017326
3.007499999999993,-0.118878,-0.002883,0.019134
3.009999999999991,-0.122091,-0.004204,0.020514
3.0124999999999886,-0.118108,-0.003597,0.022908
3.0149999999999864,-0.119741,-0.004038,0.02121
3.017499999999984,-0.116877,-0.001664,0.021598
3.019999999999982,-0.111806,-0.00315,0.020707
3.0224999999999795,-0.10778,0.002744,0.021657
3.0249999999999773,-0.093922,0.001375,0.02422
3.027499999999975,-0.080881,0.003573,0.023776
3.0299999999999727,-0.072193,0.005288,0.019322
3.0324999999999704,-0.061667,0.003035,0.018672
3.034999999999968,-0.042698,0.005835,0.018371
3.037499999999966,-0.030495,0.008518,0.017142
3.039999999999964,-0.017066,0.005435,0.018019
3.0424999999999613,-0.003387,0.006645,0.015561
3.044999999999959,0.007635,0.003397,0.011519
3.047499999999957,0.018456,0.006024,0.013643
3.0499999999999545,0.030161,0.010536,0.008637
3.0524999999999523,0.038426,0.004771,0.001488
3.055000000000007,0.045373,0.002249,0.002389
3.0575000000000045,0.056121,0.003973,-0.002033
3.0600000000000023,0.062209,0.005867,-0.001971
3.0625,0.06446,0.002491,-0.003791
3.0649999999999977,0.071009,0.000777,-0.004637
3.0674999999999955,0.068413,0.001263,-0.004207
3.069999999999993,0.07078,0.001895,-0.00495
3.072499999999991,0.065912,0.004012,-0.007112
3.0749999999999886,0.063811,0.002921,-0.006112
3.0774999999999864,0.059692,0.002945,-0.008017
3.079999999999984,0.051314,0.003002,-0.0076
3.082499999999982,0.044765,0.001227,-0.008482
3.0849999999999795,0.038186,0.000846,-0.004382
3.0874999999999773,0.034747,0.004799,-0.008325
3.089999999999975,0.027131,0.000579,-0.004412
3.0924999999999727,0.019804,0.002626,-0.003003
3.0949999999999704,0.013302,-3e-05,-0.001599
3.097499999999968,0.00891,0.006198,-0.000906
3.099999999999966,0.003172,0.000977,0.002071
3.102499999999964,-0.0017,0.002345,0.00161
3.1049999999999613,-0.003682,0.000324,0.002953
3.107499999999959,-0.006986,0.002486,0.001951
3.109999999999957,-0.00682,0.003571,0.004081
3.1124999999999545,-0.003956,0.00573,0.002512
3.1149999999999523,-0.004441,0.00624,0.002678
3.117500000000007,-0.000821,0.00516,0.002947
3.1200000000000045,0.0044,0.005165,0.002641
3.1225000000000023,0.003917,0.007816,0.002862
3.125,0.009725,0.003181,0.003532
3.1274999999999977,0.011358,0.004136,0.002723
3.1299999999999955,0.019244,0.002845,0.003872
3.132499999999993,0.021017,0.001908,0.000661
3.134999999999991,0.024817,0.001694,0.002257
3.1374999999999886,0.024579,0.002617,0.004882
3.1399999999999864,0.027809,0.000695,0.00355
3.142499999999984,0.029457,0.000424,0.0052
3.144999999999982,0.032172,0.002346,0.005365
3.1474999999999795,0.036041,0.001808,0.005648
3.1499999999999773,0.034877,0.00188,0.002719
3.152499999999975,0.0319,0.001792,0.003322
3.1549999999999727,0.031317,0.004216,0.001708
3.1574999999999704,0.031542,0.004981,0.003482
3.159999999999968,0.030503,0.003204,-0.000347
3.162499999999966,0.03257,0.004155,0.002224
3.164999999999964,0.029092,0.002769,0.003471
3.1674999999999613,0.032248,0.005072,0.001124
3.169999999999959,0.026207,0.003438,0.003652
3.172499999999957,0.028023,-0.000393,0.002445
3.1749999999999545,0.025637,0.000649,0.00319
3.1774999999999523,0.02509,-0.002894,0.000552
3.180000000000007,0.021999,-0.002827,-0.000586
3.1825000000000045,0.023129,-0.00041,-0.000136
3.1850000000000023,0.018414,0.000321,0.000643
3.1875,0.018363,0.001305,0.002649
3.1899999999999977,0.013845,0.000242,-0.001666
3.1924999999999955,0.01825,0.002316,-0.001176
3.194999999999993,0.012454,0.001418,0.00047
3.197499999999991,0.013375,-0.001973,0.002811
3.1999999999999886,0.01067,0.001191,0.001215
3.2024999999999864,0.012258,0.001424,0.001886
3.204999999999984,0.014897,0.000737,-0.000119
3.207499999999982,0.012825,0.00354,0.003018
3.2099999999999795,0.012862,0.003431,0.005115
3.2124999999999773,0.012466,0.00213,0.002747
3.214999999999975,0.012424,0.003155,0.006466
3.2174999999999727,0.01562,0.001904,0.001938
3.2199999999999704,0.01378,0.00155,0.001708
3.222499999999968,0.014285,0.005185,0.001747
3.224999999999966,0.01102,0.003336,0.001798
3.227499999999964,0.013351,0.004353,0.003987
3.2299999999999613,0.012151,0.000811,0.001634
3.232499999999959,0.015757,0.002041,-0.00037
3.234999999999957,0.009615,-0.000839,0.00063
3.2374999999999545,0.011954,0.001616,-3.6e-05
3.2399999999999523,0.012108,0.000314,0.000473
3.242500000000007,0.010679,0.000531,0.001935
3.2450000000000045,0.010552,0.001273,0.001698
3.2475000000000023,0.011887,0.001273,0.001583
3.25,0.014361,0.002795,0.000431
3.2524999999999977,0.015577,0.002769,-0.000153
3.2549999999999955,0.010616,0.000564,-0.001019
3.257499999999993,0.0105,0.003638,0.003003
3.259999999999991,0.011786,0.000479,0.000281
3.2624999999999886,0.010022,0.000634,-0.000559
3.2649999999999864,0.007794,0.003809,-0.002387
3.267499999999984,0.009757,0.005259,0.001606
3.269999999999982,0.010567,0.002971,-0.000934
3.2724999999999795,0.008471,0.003768,0.000627
3.2749999999999773,0.010755,0.004823,0.001857
3.277499999999975,0.005215,5.1e-05,-0.000179
3.2799999999999727,0.008682,0.001419,-0.000267
3.2824999999999704,0.006267,5.3e-05,0.004248
3.284999999999968,0.006022,0.002926,0.001166
3.287499999999966,0.006106,0.002909,0.002299
3.289999999999964,0.005385,-0.000295,0.001363
3.2924999999999613,0.004444,-0.001229,0.00257
3.294999999999959,0.008497,0.000264,0.00254
3.297499999999957,0.007617,0.005042,0.002631
3.2999999999999545,0.004783,0.001096,0.001653
3.3024999999999523,0.00444,0.000473,0.002181
3.305000000000007,0.005472,0.001026,0.003687
3.3075000000000045,0.003042,-0.000468,0.000808
3.3100000000000023,0.00334,0.003075,0.002285
3.3125,0.003328,0.00345,0.001016
3.3149999999999977,0.006545,0.000609,-0.001146
3.3174999999999955,0.005432,0.001519,0.003176
3.319999999999993,0.004008,8.7e-05,0.003047
3.322499999999991,0.003382,0.002559,-0.000204
3.3249999999999886,0.003602,0.002987,0.002421
3.3274999999999864,0.006736,0.000624,0.000573
3.329999999999984,0.002194,0.004739,0.001804
3.332499999999982,0.001644,0.000779,0.000959
3.3349999999999795,0.005119,0.00296,-9.7e-05
3.3374999999999773,0.004735,0.002124,0.000731
3.339999999999975,0.00328,0.0023,0.003231
3.3424999999999727,0.002477,0.000488,0.002409
3.3449999999999704,0.006527,-0.000675,0.000819
3.347499999999968,0.003923,0.002588,-0.000969
3.349999999999966,0.003505,-0.000659,0.001579
3.352499999999964,0.003441,0.005812,0.000656
3.3549999999999613,0.003126,-0.003138,0.006684
3.357499999999959,0.002801,0.001061,0.003169
3.359999999999957,0.004575,0.001883,0.001886
3.3624999999999545,0.000463,0.002155,0.003257
3.3649999999999523,0.004717,0.001337,0.001813
3.367500000000007,0.001802,0.002293,0.002585
3.3700000000000045,0.000802,-0.000136,0.000956
3.3725000000000023,0.002053,-0.001661,-2.5e-05
3.375,0.005301,0.001719,-0.000168
3.3774999999999977,0.002085,0.000968,0.000333
3.3799999999999955,8e-05,0.005292,0.004027
3.382499999999993,0.001713,-0.000548,0.00262
3.384999999999991,0.010637,-0.000608,0.001419
3.3874999999999886,0.005912,0.00313,0.000826
3.3899999999999864,0.005273,0.000589,-0.000513
3.392499999999984,0.003611,0.001734,0.004945
3.394999999999982,0.004178,-0.003697,0.001986
3.3974999999999795,0.005846,-0.000751,0.003401
3.3999999999999773,0.001939,-0.00086,0.000738
3.402499999999975,0.000342,-1.3e-05,9.3e-05
3.4049999999999727,0.002631,0.000716,0.002883
3.4074999999999704,0.002826,-0.00053,0.002935
3.409999999999968,0.001527,9.5e-05,-9.2e-05
3.412499999999966,0.00362,0.002075,0.001747
3.414999999999964,0.003768,-0.002253,0.002313
3.4174999999999613,-0.000559,-0.000694,0.001266
3.419999999999959,0.001501,0.002659,-0.001712
3.422499999999957,0.000658,0.001695,0.001007
3.4249999999999545,0.000177,0.000861,0.003845
3.4274999999999523,0.004236,-0.000297,0.003716
3.430000000000007,0.001418,0.000777,0.001381
3.4325000000000045,0.001124,-0.000679,0.000598
3.4350000000000023,-0.00069,0.000551,0.002144
3.4375,-0.000961,0.000317,0.003562
3.4399999999999977,0.002757,0.000901,0.003987
3.4424999999999955,-1.8e-05,0.002784,0.000239
3.444999999999993,0.003073,0.001872,-7.6e-05
3.447499999999991,0.002892,0.000451,0.001746
3.4499999999999886,0.000935,0.002248,0.002546
3.4524999999999864,0.00126,0.003175,0.001433
3.454999999999984,0.000196,0.00071,-0.000608
3.457499999999982,0.004158,0.000805,0.000919
3.4599999999999795,0.004392,0.001813,0.002908
3.4624999999999773,0.004923,0.002029,0.003275
3.464999999999975,0.002969,0.002155,0.00129
3.4674999999999727,0.004432,-0.000294,0.003649
3.4699999999999704,0.004549,0.003595,0.001777
3.472499999999968,0.003579,0.001735,0.001568
3.474999999999966,0.001303,0.003014,0.003419
3.477499999999964,0.003932,0.000375,0.00072
3.4799999999999613,0.000445,0.000831,0.001176
3.482499999999959,0.002604,0.0007,0.002936
3.484999999999957,0.001726,-0.003091,0.002923
3.4874999999999545,0.000868,0.002906,0.005309
3.4899999999999523,0.00352,0.001126,0.003346
3.492500000000007,0.002199,-0.001262,0.001893
3.4950000000000045,0.002938,0.001175,0.000521
3.4975000000000023,0.002686,0.002132,-0.000197
3.5,0.003306,-0.000565,0.002377
3.5024999999999977,0.001716,0.000124,0.001731
3.5049999999999955,0.002909,0.00063,-0.000156
3.507499999999993,-4.9e-05,0.006957,0.004678
3.509999999999991,0.003292,0.003467,0.001913
3.5124999999999886,0.000966,-0.000581,7.1e-05
3.5149999999999864,0.003358,-0.000371,0.002474
3.517499999999984,0.003979,0.000147,0.000317
3.519999999999982,0.002836,0.000402,0.0023
3.5224999999999795,0.004216,0.0007,0.006928
3.5249999999999773,0.00584,-0.002724,0.004174
3.527499999999975,-0.001052,-0.002211,-0.000566
3.5299999999999727,0.000816,-0.001632,0.000835
3.5324999999999704,0.002839,-0.002857,0.001875
3.534999999999968,0.002117,-0.000286,0.002111
3.537499999999966,0.001325,-0.00065,-0.000548
3.539999999999964,0.002553,0.001543,0.000932
3.5424999999999613,0.00037,0.001871,0.00299
3.544999999999959,0.00403,-0.001502,-0.00101
3.547499999999957,0.001083,-0.00125,0.001081
3.5499999999999545,0.002296,0.00205,0.002686
3.5524999999999523,0.002029,0.001655,0.002141
3.555000000000007,0.005356,0.000704,-0.000271
3.5575000000000045,0.002771,0.002227,0.000942
3.5600000000000023,0.002878,-0.000188,0.003634
3.5625,0.003053,0.000262,0.002892
3.5649999999999977,0.004563,0.000476,0.002637
3.5674999999999955,0.001264,0.001065,0.002887
3.569999999999993,0.002802,-0.001597,0.00044
3.572499999999991,0.001018,-0.001641,0.002327
3.5749999999999886,0.001291,-0.000179,0.001473
3.5774999999999864,-0.000632,0.000425,0.001233
3.579999999999984,0.001464,0.001013,0.000674
3.582499999999982,0.002564,-0.000645,0.001348
3.5849999999999795,0.002315,0.000226,0.002301
3.5874999999999773,0.001413,-0.000817,0.002191
3.589999999999975,-0.000229,-0.000963,0.002994
3.5924999999999727,0.002537,0.002869,0.000576
3.5949999999999704,0.001588,-0.001228,0.001051
3.597499999999968,0.001559,-0.001344,0.00216
3.599999999999966,0.001156,0.001601,0.001618
3.602499999999964,0.000908,0.001869,4.5e-05
3.604999999999961,0.000653,-0.001177,0.001847
3.607499999999959,0.002063,0.002762,0.001956
3.609999999999957,0.000674,0.001682,0.001771
3.6124999999999545,0.003,0.001649,0.002236
3.614999999999952,0.002436,0.006232,0.000297
3.617500000000007,0.001878,-0.000352,0.002948
3.620000000000005,0.00196,0.000244,0.005189
3.6225000000000014,0.001466,-0.000909,0.00143
3.625,0.000348,0.003888,0.004774
3.6274999999999977,0.002051,0.001178,0.001874
3.629999999999996,0.003449,0.00137,0.002993
3.632499999999993,0.002856,0.001153,0.00274
3.634999999999991,0.000466,0.002969,0.001339
3.6374999999999886,-0.000983,0.00327,0.003407
3.6399999999999855,0.002081,0.000808,0.002437
3.642499999999984,0.004771,-0.000404,0.003763
3.644999999999982,0.002597,-0.00013,0.004712
3.64749999999998,0.002428,-0.001815,0.00147
3.649999999999977,0.000628,0.000181,0.001425
3.652499999999975,0.000145,-0.000419,0.002376
3.6549999999999727,6.5e-05,0.002635,0.004283
3.6574999999999696,0.004079,0.002175,0.002199
3.659999999999968,0.00167,-0.002412,0.004864
3.662499999999966,0.001468,0.000839,0.001232
3.664999999999964,-7.2e-05,0.001461,0.002442
3.667499999999961,0.004288,0.000522,0.001096
3.669999999999959,0.00514,-0.001732,0.002667
3.672499999999957,0.002056,-0.000757,-0.000884
3.6749999999999545,0.000118,0.002103,0.004216
3.677499999999952,0.002006,-0.000824,-0.000182
3.680000000000007,0.004124,-0.001507,0.001181
3.682500000000005,0.001333,0.000308,-0.001287
3.6850000000000014,0.00052,0.003311,0.001639
3.6875,0.003221,0.003337,0.004662
3.6899999999999977,0.001036,-0.001965,0.002793
3.692499999999996,0.002531,-0.001429,0.002768
3.694999999999993,0.004915,-0.003111,7.4e-05
