time,Gyr_X,Gyr_Y,Gyr_Z
0.0,-0.005537,0.021967,0.031929
0.0024999999999977,-0.005989,0.018986,0.034305
0.0049999999999954,-0.006852,0.017393,0.032952
0.0074999999999931,-0.004438,0.018456,0.03368
0.0099999999999909,-0.005451,0.019307,0.030533
0.0124999999999886,-0.004631,0.019018,0.031354
0.0150000000000147,-0.007603,0.018,0.033671
0.0175000000000125,-0.007467,0.01859,0.033397
0.0200000000000102,-0.007045,0.022205,0.037373
0.0225000000000079,-0.00744,0.019672,0.034883
0.0250000000000056,-0.008997,0.018083,0.033391
0.0275000000000034,-0.009447,0.019846,0.034661
0.0300000000000011,-0.006539,0.018527,0.033142
0.0324999999999988,-0.008892,0.016791,0.035685
0.0349999999999965,-0.005946,0.01828,0.033458
0.0374999999999943,-0.008278,0.017817,0.035501
0.039999999999992,-0.00526,0.019076,0.036255
0.0424999999999897,-0.008601,0.020661,0.035884
0.0450000000000159,-0.007829,0.01897,0.035097
0.0475000000000136,-0.005956,0.019237,0.034554
0.0500000000000113,-0.006142,0.019708,0.033235
0.052500000000009,-0.008588,0.017131,0.034969
0.0550000000000068,-0.008698,0.017572,0.031031
0.0575000000000045,-0.009641,0.018162,0.031948
0.0600000000000022,-0.010227,0.018977,0.033367
0.0625,-0.009543,0.020263,0.031892
0.0649999999999977,-0.008801,0.022715,0.03522
0.0674999999999954,-0.007962,0.02122,0.031983
0.0699999999999931,-0.005448,0.021689,0.034346
0.0724999999999909,-0.006145,0.022145,0.034169
0.0749999999999886,-0.007336,0.0224,0.030493
0.0775000000000147,-0.005759,0.024673,0.035474
0.0800000000000125,-0.004558,0.023036,0.033695
0.0825000000000102,-0.004897,0.017717,0.033686
0.0850000000000079,-0.009467,0.014371,0.03301
0.0875000000000056,-0.005962,0.020549,0.036583
0.0900000000000034,-0.009163,0.02154,0.031611
0.0925000000000011,-0.004034,0.018147,0.032514
0.0949999999999988,-0.002462,0.016797,0.030161
0.0974999999999965,0.000871,0.026903,0.029264
0.0999999999999943,0.007579,0.027298,0.026605
0.102499999999992,0.012299,0.024117,0.027253
0.1049999999999897,0.011801,0.019213,0.016049
0.1075000000000159,0.010937,0.019855,0.020406
0.1100000000000136,0.002725,0.016866,0.018951
0.1125000000000113,0.001744,0.014513,0.022753
0.1150000000000091,-0.002548,0.011001,0.016838
0.1175000000000068,-0.009409,0.008482,0.010068
0.1200000000000045,-0.012317,0.005407,0.01182
0.1225000000000022,-0.013338,0.005985,0.006718
0.125,-0.01222,0.007989,0.005681
0.1274999999999977,-0.008211,0.007703,0.007556
0.1299999999999954,-0.009193,0.009807,0.00492
0.1324999999999931,-0.004555,0.011713,0.005627
0.1349999999999909,-0.002092,0.010992,0.001932
0.1374999999999886,0.000188,0.010281,-0.002533
0.1400000000000147,0.004632,0.010783,-0.001416
0.1425000000000125,0.001331,0.001278,0.001582
0.1450000000000102,0.000671,0.001187,0.001936
0.1475000000000079,0.000183,0.002394,-0.002562
0.1500000000000056,-0.001717,0.002316,-0.001931
0.1525000000000034,-0.003409,-0.005171,-0.002766
0.1550000000000011,-0.002202,-0.005017,-0.004874
0.1574999999999988,-0.003159,-0.002831,-0.004038
0.1599999999999966,-0.001632,-0.007087,-0.004873
0.1624999999999943,0.001835,-0.005299,-0.006384
0.164999999999992,0.000303,-0.01138,-0.008382
0.1674999999999897,0.005209,-0.006802,-0.007583
0.1700000000000159,0.003646,-0.008854,-0.006117
0.1725000000000136,0.005234,-0.004132,-0.005685
0.1750000000000113,0.005706,-0.006871,-0.012593
0.1775000000000091,0.003239,-0.007431,-0.013308
0.1800000000000068,0.00344,-0.007257,-0.011007
0.1825000000000045,0.001804,-0.006425,-0.01041
0.1850000000000022,0.003313,-0.006275,-0.014019
0.1875,0.000336,-0.003187,-0.010313
0.1899999999999977,-0.001763,-0.009519,-0.012809
0.1924999999999954,0.003249,-0.003274,-0.011389
0.1949999999999931,0.004127,-0.006337,-0.015076
0.1974999999999909,0.002172,-0.004168,-0.015476
0.1999999999999886,0.001963,-0.007987,-0.014997
0.2025000000000147,0.002236,-0.0063,-0.014718
0.2050000000000125,0.003522,-0.007084,-0.015311
0.2075000000000102,0.004049,-0.007242,-0.014377
0.2100000000000079,0.005957,-0.009923,-0.01314
0.2125000000000056,0.00404,-0.007112,-0.017163
0.2150000000000034,0.004434,-0.006396,-0.015734
0.2175000000000011,0.003505,-0.009325,-0.015008
0.2199999999999988,0.006013,-0.006218,-0.014849
0.2224999999999966,0.005064,-0.005268,-0.016119
0.2249999999999943,0.005554,-0.007069,-0.017163
0.227499999999992,0.003042,-0.005867,-0.01521
0.2299999999999897,0.000701,-0.008593,-0.016911
0.2325000000000159,0.004185,-0.008859,-0.017446
0.2350000000000136,0.004014,-0.009012,-0.012717
0.2375000000000113,0.003987,-0.007321,-0.014381
0.2400000000000091,0.001865,-0.004598,-0.017145
0.2425000000000068,0.001586,-0.003915,-0.015549
0.2450000000000045,0.003976,-0.006059,-0.016324
0.2475000000000022,0.005969,-0.009939,-0.015625
0.25,0.004787,-0.007232,-0.017309
0.2524999999999977,0.002363,-0.00809,-0.016482
0.2549999999999954,0.004246,-0.00636,-0.015868
0.2574999999999932,0.007477,-0.007318,-0.01798
0.2599999999999909,0.004575,-0.012298,-0.016612
0.2624999999999886,0.00545,-0.006478,-0.014196
0.2650000000000148,0.004796,-0.009546,-0.013694
0.2675000000000125,0.00617,-0.006193,-0.021486
0.2700000000000102,0.007101,-0.009476,-0.017852
0.2725000000000079,0.004345,-0.007251,-0.017925
0.2750000000000057,0.001132,-0.005136,-0.019167
0.2775000000000034,0.003342,-0.007668,-0.019294
0.2800000000000011,0.006052,-0.008403,-0.018288
0.2824999999999988,0.000233,-0.011212,-0.015368
0.2849999999999966,0.004306,-0.007308,-0.01854
0.2874999999999943,0.002513,-0.00729,-0.018249
0.289999999999992,-0.001276,-0.007954,-0.015733
0.2924999999999897,0.004173,-0.005472,-0.015788
0.2950000000000159,0.00375,-0.004794,-0.014207
0.2975000000000136,0.002433,-0.011045,-0.016782
0.3000000000000113,0.002121,-0.010224,-0.016455
0.3025000000000091,0.001632,-0.010972,-0.011565
0.3050000000000068,0.004428,-0.006041,-0.013535
0.3075000000000045,0.004552,-0.008729,-0.015354
0.3100000000000023,0.004037,-0.008468,-0.012128
0.3125,0.002272,-0.006828,-0.01419
0.3149999999999977,0.004061,-0.011621,-0.012019
0.3174999999999954,0.003497,-0.004116,-0.011851
0.3199999999999932,0.004082,-0.00595,-0.013891
0.3224999999999909,-0.000624,-0.006637,-0.012161
0.3249999999999886,0.003723,-0.003149,-0.013454
0.3275000000000148,0.00236,0.001495,-0.011332
0.3300000000000125,-0.000966,-0.000522,-0.007476
0.3325000000000102,0.000543,-0.002596,-0.00802
0.3350000000000079,0.000272,-0.002648,-0.007488
0.3375000000000057,0.00269,-0.002456,-0.003687
0.3400000000000034,-0.001253,-0.000933,-0.003962
0.3425000000000011,-0.000225,5.3e-05,-0.002943
0.3449999999999988,-0.000344,0.00192,-0.000727
0.3474999999999966,-2.5e-05,0.005501,0.001713
0.3499999999999943,-0.001679,0.004145,0.002448
0.352499999999992,-0.003013,-0.002144,0.007368
0.3549999999999897,-0.00219,0.003626,0.002874
0.3575000000000159,-0.001831,0.005466,0.003768
0.3600000000000136,-0.003754,0.003182,0.008059
0.3625000000000113,-0.003335,0.004043,0.010658
0.3650000000000091,-0.00255,0.005483,0.011208
0.3675000000000068,-0.002488,-0.000197,0.010122
0.3700000000000045,-0.00148,0.0032,0.007961
0.3725000000000023,-0.005496,0.006587,0.011771
0.375,-0.001056,0.006749,0.012776
0.3774999999999977,-0.003541,0.005727,0.012893
0.3799999999999954,-0.0003,0.009061,0.011966
0.3824999999999932,-0.001444,0.007813,0.01526
0.3849999999999909,-0.002354,0.007465,0.014663
0.3874999999999886,-0.003751,0.005499,0.017548
0.3900000000000148,-0.00312,0.010362,0.016379
0.3925000000000125,-0.002106,0.009923,0.014082
0.3950000000000102,-0.00461,0.00926,0.016508
0.3975000000000079,-0.003682,0.012415,0.017244
0.4000000000000057,-0.003321,0.0142,0.021134
0.4025000000000034,-0.006478,0.009502,0.016198
0.4050000000000011,-0.004247,0.009561,0.0206
0.4074999999999988,-0.004491,0.015094,0.018492
0.4099999999999966,-0.005081,0.01448,0.022649
0.4124999999999943,-0.002867,0.015915,0.019769
0.414999999999992,-0.005081,0.014008,0.019268
0.4174999999999897,-0.005361,0.012238,0.021791
0.4200000000000159,-0.004977,0.008342,0.022506
0.4225000000000136,-0.003272,0.014507,0.023676
0.4250000000000113,-0.005232,0.007486,0.022372
0.4275000000000091,-0.006394,0.009403,0.021834
0.4300000000000068,-0.003068,0.007597,0.02213
0.4325000000000045,-0.003952,0.010172,0.021077
0.4350000000000023,-0.002278,0.01163,0.021666
0.4375,-0.006054,0.008709,0.019849
0.4399999999999977,-0.002816,0.010938,0.018323
0.4424999999999954,-0.003852,0.013974,0.022986
0.4449999999999932,-0.001629,0.010516,0.019931
0.4474999999999909,-0.001733,0.008991,0.017344
0.4499999999999886,-0.00495,0.009727,0.01461
0.4525000000000148,-0.000824,0.009108,0.011461
0.4550000000000125,-0.003266,0.006866,0.013255
0.4575000000000102,-0.002345,0.005179,0.012401
0.4600000000000079,-0.002901,0.006894,0.010753
0.4625000000000057,0.000829,0.008193,0.01164
0.4650000000000034,0.001831,0.002847,0.00985
0.4675000000000011,0.000175,0.007262,0.011355
0.4699999999999988,0.001705,0.005616,0.006837
0.4724999999999966,-7.6e-05,0.005286,0.010668
0.4749999999999943,-0.000109,0.002944,0.008973
0.477499999999992,-0.001775,0.004657,0.005815
0.4799999999999897,0.000545,0.001871,0.008623
0.4825000000000159,-0.002196,-0.002801,0.002765
0.4850000000000136,-0.003152,-0.001283,0.005772
0.4875000000000113,-0.000268,-0.001208,0.002714
0.4900000000000091,-0.001064,0.000308,0.000174
0.4925000000000068,-0.002211,-0.000188,-0.003228
0.4950000000000045,0.000229,0.001638,-0.002772
0.4975000000000023,-0.000341,-0.002204,-0.002475
0.5,-0.002049,-0.001186,-0.007713
0.5024999999999977,0.001996,-0.0049,-0.008507
0.5049999999999955,-0.000444,-0.001544,-0.010987
0.5074999999999932,-0.001544,-0.004497,-0.01225
0.5099999999999909,0.002349,-0.005692,-0.01308
0.5124999999999886,0.002899,-0.005755,-0.012933
0.5150000000000148,0.001275,-0.008738,-0.014679
0.5175000000000125,0.003207,-0.010306,-0.014459
0.5200000000000102,0.000561,-0.01355,-0.015157
0.522500000000008,0.002529,-0.0149,-0.016516
0.5250000000000057,0.005011,-0.010164,-0.019321
0.5275000000000034,0.000363,-0.015475,-0.020154
0.5300000000000011,-9.8e-05,-0.014696,-0.021683
0.5324999999999989,0.005019,-0.014581,-0.02162
0.5349999999999966,0.006283,-0.018188,-0.026599
0.5374999999999943,0.002567,-0.017416,-0.02663
0.539999999999992,0.004692,-0.017357,-0.02891
0.5424999999999898,0.006374,-0.016451,-0.028735
0.5450000000000159,0.006392,-0.022812,-0.032754
0.5475000000000136,0.009006,-0.020778,-0.033301
0.5500000000000114,0.005794,-0.0232,-0.036111
0.5525000000000091,0.007207,-0.02573,-0.034747
0.5550000000000068,0.005285,-0.025871,-0.038995
0.5575000000000045,0.003632,-0.028826,-0.038391
0.5600000000000023,0.005264,-0.026579,-0.042273
0.5625,0.007036,-0.031862,-0.041558
0.5649999999999977,0.005748,-0.033663,-0.04061
0.5674999999999955,0.007422,-0.029245,-0.043748
0.5699999999999932,0.005765,-0.031777,-0.046082
0.5724999999999909,0.010038,-0.037113,-0.048813
0.5749999999999886,0.005757,-0.037766,-0.051962
0.5775000000000148,0.006724,-0.041124,-0.050673
0.5800000000000125,0.00651,-0.04264,-0.051211
0.5825000000000102,0.005121,-0.039309,-0.051959
0.585000000000008,0.007009,-0.042102,-0.053136
0.5875000000000057,0.007059,-0.041857,-0.055146
0.5900000000000034,0.011034,-0.044905,-0.057709
0.5925000000000011,0.006216,-0.049004,-0.056051
0.5949999999999989,0.009003,-0.04904,-0.057159
0.5974999999999966,0.008617,-0.050241,-0.061217
0.5999999999999943,0.009059,-0.049953,-0.062042
0.602499999999992,0.008751,-0.052044,-0.059809
0.6049999999999898,0.005356,-0.056615,-0.063394
0.6075000000000159,0.010218,-0.057071,-0.062037
0.6100000000000136,0.009883,-0.060733,-0.064526
0.6125000000000114,0.009102,-0.0624,-0.062904
0.6150000000000091,0.004546,-0.062166,-0.0627
0.6175000000000068,0.004872,-0.064957,-0.064747
0.6200000000000045,0.0034,-0.06066,-0.066593
0.6225000000000023,0.002795,-0.062457,-0.063439
0.625,0.002203,-0.06616,-0.063159
0.6274999999999977,-0.004952,-0.068139,-0.06433
0.6299999999999955,-0.003216,-0.070599,-0.065053
0.6324999999999932,-0.006078,-0.07261,-0.062372
0.6349999999999909,-0.007282,-0.071608,-0.061187
0.6374999999999886,-0.00886,-0.074084,-0.059332
0.6400000000000148,-0.015414,-0.07567,-0.060819
0.6425000000000125,-0.017792,-0.075337,-0.057769
0.6450000000000102,-0.022644,-0.073557,-0.055887
0.647500000000008,-0.025432,-0.078946,-0.053224
0.6500000000000057,-0.028633,-0.080141,-0.052667
0.6525000000000034,-0.030953,-0.079557,-0.051814
0.6550000000000011,-0.034948,-0.081709,-0.051636
0.6574999999999989,-0.040478,-0.079858,-0.04909
0.6599999999999966,-0.044875,-0.084269,-0.048834
0.6624999999999943,-0.04444,-0.084686,-0.044598
0.664999999999992,-0.049052,-0.083156,-0.04693
0.6674999999999898,-0.052904,-0.08212,-0.040138
0.6700000000000159,-0.056298,-0.082214,-0.039996
0.6725000000000136,-0.0572,-0.084119,-0.035438
0.6750000000000114,-0.059682,-0.088178,-0.037304
0.6775000000000091,-0.062521,-0.087331,-0.038563
0.6800000000000068,-0.059876,-0.087085,-0.031631
0.6825000000000045,-0.063112,-0.08945,-0.031066
0.6850000000000023,-0.069566,-0.093381,-0.031419
0.6875,-0.065991,-0.08958,-0.027566
0.6899999999999977,-0.067647,-0.091647,-0.02539
0.6924999999999955,-0.072083,-0.090152,-0.022133
0.6949999999999932,-0.073867,-0.096157,-0.021541
0.6974999999999909,-0.074042,-0.0937,-0.019521
0.6999999999999886,-0.069499,-0.091229,-0.016358
0.7025000000000148,-0.078277,-0.093774,-0.009331
0.7050000000000125,-0.074588,-0.100105,-0.008719
0.7075000000000102,-0.077008,-0.094567,-0.006893
0.710000000000008,-0.082175,-0.099254,0.000309
0.7125000000000057,-0.082077,-0.10033,0.005534
0.7150000000000034,-0.085783,-0.097363,0.005025
0.7175000000000011,-0.092012,-0.098382,0.010537
0.7199999999999989,-0.088274,-0.10009,0.014443
0.7224999999999966,-0.091989,-0.099899,0.01973
0.7249999999999943,-0.091405,-0.103079,0.021269
0.727499999999992,-0.098333,-0.100902,0.024379
0.7299999999999898,-0.094293,-0.098616,0.029957
0.7325000000000159,-0.101925,-0.101756,0.032502
0.7350000000000136,-0.100538,-0.102076,0.033001
0.7375000000000114,-0.100031,-0.103673,0.034127
0.7400000000000091,-0.102066,-0.099817,0.037745
0.7425000000000068,-0.103569,-0.103672,0.040407
0.7450000000000045,-0.102995,-0.098273,0.03887
0.7475000000000023,-0.108431,-0.100832,0.037915
0.75,-0.10684,-0.098033,0.040748
0.7524999999999977,-0.108117,-0.096937,0.040966
0.7549999999999955,-0.10722,-0.098157,0.039974
0.7574999999999932,-0.107603,-0.09755,0.042718
0.7599999999999909,-0.110336,-0.096826,0.043813
0.7624999999999886,-0.108179,-0.096707,0.041237
0.7650000000000148,-0.108506,-0.098421,0.045267
0.7675000000000125,-0.111106,-0.097215,0.042877
0.7700000000000102,-0.113472,-0.100668,0.042409
0.772500000000008,-0.113773,-0.098902,0.043297
0.7750000000000057,-0.115605,-0.09827,0.045288
0.7775000000000034,-0.118439,-0.099583,0.041851
0.7800000000000011,-0.120851,-0.097656,0.044242
0.7824999999999989,-0.124873,-0.095214,0.044779
0.7849999999999966,-0.127289,-0.09563,0.046236
0.7874999999999943,-0.12224,-0.095551,0.045814
0.789999999999992,-0.12742,-0.090592,0.04312
0.7924999999999898,-0.12643,-0.09376,0.040468
0.7950000000000159,-0.129777,-0.093746,0.04152
0.7975000000000136,-0.127149,-0.092053,0.041609
0.8000000000000114,-0.130221,-0.094402,0.038127
0.8025000000000091,-0.125955,-0.099009,0.038243
0.8050000000000068,-0.132358,-0.096901,0.03548
0.8075000000000045,-0.133929,-0.097351,0.035063
0.8100000000000023,-0.136563,-0.096926,0.033123
0.8125,-0.138435,-0.096306,0.031782
0.8149999999999977,-0.140615,-0.095813,0.030334
0.8174999999999955,-0.141466,-0.095552,0.030968
0.8199999999999932,-0.143026,-0.095129,0.025151
0.8224999999999909,-0.144547,-0.092547,0.024318
0.8249999999999886,-0.147165,-0.092165,0.020549
0.8275000000000148,-0.152464,-0.092435,0.022101
0.8300000000000125,-0.153816,-0.089113,0.016773
0.8325000000000102,-0.155434,-0.088635,0.016149
0.835000000000008,-0.158259,-0.088167,0.015979
0.8375000000000057,-0.160456,-0.082934,0.014954
0.8400000000000034,-0.16035,-0.077748,0.018129
0.8425000000000011,-0.16377,-0.07187,0.016982
0.8449999999999989,-0.167949,-0.068866,0.013629
0.8474999999999966,-0.168324,-0.067692,0.019462
0.8499999999999943,-0.172895,-0.060749,0.02256
0.852499999999992,-0.176695,-0.057575,0.025947
0.8549999999999898,-0.179847,-0.055632,0.027505
0.8575000000000159,-0.181173,-0.045975,0.030614
0.8600000000000136,-0.181545,-0.04396,0.030471
0.8625000000000114,-0.18615,-0.036028,0.031411
0.8650000000000091,-0.183776,-0.028801,0.031797
0.8675000000000068,-0.18312,-0.021444,0.033484
0.8700000000000045,-0.183576,-0.019892,0.035273
0.8725000000000023,-0.182003,-0.013393,0.039071
0.875,-0.185724,-0.014699,0.039595
0.8774999999999977,-0.186969,-0.009431,0.041773
0.8799999999999955,-0.185405,-0.005728,0.042015
0.8824999999999932,-0.187688,0.001469,0.042889
0.8849999999999909,-0.187074,-0.001577,0.048245
0.8874999999999886,-0.183088,0.00532,0.053128
0.8900000000000148,-0.186652,0.007632,0.058172
0.8925000000000125,-0.185657,0.009557,0.059208
0.8950000000000102,-0.18207,0.011571,0.064006
0.897500000000008,-0.177416,0.015422,0.069574
0.9000000000000057,-0.176919,0.01827,0.075043
0.9025000000000034,-0.171839,0.020994,0.077335
0.9050000000000012,-0.167166,0.018232,0.084154
0.9074999999999988,-0.167483,0.024522,0.089578
0.9099999999999966,-0.166176,0.027653,0.093181
0.9124999999999944,-0.160694,0.032721,0.100525
0.914999999999992,-0.155091,0.034557,0.108185
0.9174999999999898,-0.151356,0.041508,0.112393
0.920000000000016,-0.14613,0.039323,0.117678
0.9225000000000136,-0.137225,0.045481,0.119508
0.9250000000000114,-0.134288,0.051398,0.122737
0.9275000000000092,-0.129625,0.052349,0.127885
0.9300000000000068,-0.130837,0.059099,0.132271
0.9325000000000044,-0.125458,0.058082,0.137621
0.9350000000000024,-0.120661,0.064864,0.145309
0.9375,-0.117829,0.07438,0.151905
0.9399999999999976,-0.112963,0.078716,0.159275
0.9424999999999956,-0.106457,0.087177,0.16466
0.9449999999999932,-0.101104,0.091534,0.169698
0.9474999999999908,-0.098725,0.094887,0.175575
0.9499999999999886,-0.0982,0.098924,0.181288
0.9525000000000148,-0.092395,0.10874,0.186265
0.9550000000000124,-0.082678,0.109606,0.194497
0.9575000000000102,-0.079091,0.113887,0.201554
0.960000000000008,-0.073078,0.115211,0.204998
0.9625000000000056,-0.068077,0.12222,0.213318
0.9650000000000034,-0.060509,0.120165,0.216679
0.9675000000000012,-0.056113,0.121904,0.224219
0.9699999999999988,-0.055443,0.11716,0.226776
0.9724999999999966,-0.044914,0.115616,0.233272
0.9749999999999944,-0.039573,0.117479,0.237695
0.977499999999992,-0.034009,0.111998,0.241529
0.9799999999999898,-0.028358,0.112376,0.24763
0.982500000000016,-0.023963,0.109606,0.250875
0.9850000000000136,-0.016734,0.103248,0.257804
0.9875000000000114,-0.014389,0.101832,0.263745
0.9900000000000092,-0.006819,0.095057,0.26544
0.9925000000000068,-0.002676,0.084572,0.272935
0.9950000000000044,0.007107,0.08539,0.2742
0.9975000000000024,0.015319,0.075703,0.279627
1.0,0.026429,0.068464,0.283764
1.0024999999999975,0.030018,0.061892,0.287017
1.0049999999999957,0.034077,0.053691,0.294047
1.0074999999999932,0.040904,0.037801,0.293686
1.009999999999991,0.04776,0.025331,0.297651
1.0124999999999886,0.053144,0.019685,0.301541
1.0150000000000148,0.058744,0.012549,0.305668
1.0175000000000125,0.062054,-0.001,0.306203
1.0200000000000102,0.065666,-0.010653,0.307741
1.022500000000008,0.072532,-0.022046,0.308607
1.0250000000000057,0.081273,-0.033857,0.308295
1.0275000000000034,0.084696,-0.042208,0.30461
1.0300000000000011,0.090597,-0.051844,0.306795
1.0324999999999989,0.095793,-0.060289,0.309084
1.0349999999999966,0.095094,-0.067209,0.308117
1.0374999999999943,0.098368,-0.080606,0.309023
1.039999999999992,0.099664,-0.091055,0.310975
1.0424999999999898,0.100326,-0.096093,0.309246
1.045000000000016,0.097699,-0.101301,0.310423
1.0475000000000136,0.099958,-0.104328,0.314602
1.0500000000000114,0.098071,-0.11382,0.315506
1.052500000000009,0.102151,-0.119618,0.322541
1.0550000000000068,0.095683,-0.123198,0.323292
1.0575000000000043,0.094505,-0.122698,0.326195
1.0600000000000025,0.087585,-0.127177,0.335909
1.0625,0.088844,-0.131761,0.337064
1.0649999999999975,0.087365,-0.134863,0.345015
1.0674999999999957,0.084045,-0.132275,0.348244
1.0699999999999932,0.076086,-0.140204,0.352343
1.072499999999991,0.072818,-0.14247,0.359914
1.0749999999999886,0.070313,-0.145532,0.365321
1.0775000000000148,0.063706,-0.147013,0.37333
1.0800000000000125,0.058074,-0.146368,0.378537
1.0825000000000102,0.054719,-0.154144,0.387453
1.085000000000008,0.05016,-0.155832,0.393807
1.0875000000000057,0.044402,-0.158769,0.399867
1.0900000000000034,0.037805,-0.158456,0.40433
1.0925000000000011,0.0328,-0.162894,0.417786
1.0949999999999989,0.022732,-0.15537,0.421401
1.0974999999999966,0.018357,-0.158723,0.429671
1.0999999999999943,0.015033,-0.156832,0.432233
1.102499999999992,0.011616,-0.161803,0.440582
1.1049999999999898,0.005215,-0.162397,0.444999
1.107500000000016,0.000574,-0.159851,0.452668
1.1100000000000136,-0.002858,-0.154771,0.459193
1.1125000000000114,-0.004648,-0.149077,0.465339
1.115000000000009,-0.007433,-0.15792,0.471561
1.1175000000000068,-0.010253,-0.153691,0.48187
1.1200000000000043,-0.01274,-0.156403,0.484998
1.1225000000000025,-0.016823,-0.155632,0.494605
1.125,-0.016628,-0.152536,0.497923
1.1274999999999975,-0.022672,-0.15112,0.50396
1.1299999999999957,-0.023894,-0.148498,0.511367
1.1324999999999932,-0.027616,-0.149848,0.51555
1.134999999999991,-0.026916,-0.145406,0.522509
1.1374999999999886,-0.029944,-0.145344,0.528904
1.1400000000000148,-0.033127,-0.144541,0.528988
1.1425000000000125,-0.035165,-0.143798,0.539162
1.1450000000000102,-0.034168,-0.143872,0.547435
1.147500000000008,-0.03638,-0.143546,0.551202
1.1500000000000057,-0.037396,-0.143111,0.552375
1.1525000000000034,-0.040282,-0.140846,0.560228
1.1550000000000011,-0.042893,-0.141968,0.563256
1.1574999999999989,-0.039242,-0.136022,0.567132
1.1599999999999966,-0.041772,-0.137202,0.572049
1.1624999999999943,-0.047506,-0.134979,0.576276
1.164999999999992,-0.047649,-0.133488,0.57817
1.1674999999999898,-0.050867,-0.132875,0.577027
1.170000000000016,-0.048326,-0.132447,0.584128
1.1725000000000136,-0.04871,-0.129519,0.587323
1.1750000000000114,-0.05217,-0.127472,0.58885
1.177500000000009,-0.050488,-0.123519,0.590622
1.1800000000000068,-0.051206,-0.126819,0.597165
1.1825000000000043,-0.050889,-0.122088,0.602184
1.1850000000000025,-0.050651,-0.116502,0.602806
1.1875,-0.049502,-0.115007,0.612766
1.1899999999999975,-0.048465,-0.107722,0.618807
1.1924999999999957,-0.046478,-0.112225,0.626472
1.1949999999999932,-0.0438,-0.105599,0.634141
1.197499999999991,-0.045696,-0.101249,0.636982
1.1999999999999886,-0.043117,-0.099129,0.644619
1.2025000000000148,-0.039223,-0.095725,0.655767
1.2050000000000125,-0.035839,-0.091261,0.660711
1.2075000000000102,-0.030553,-0.086848,0.670583
1.210000000000008,-0.036214,-0.084478,0.677954
1.2125000000000057,-0.032758,-0.083575,0.684759
1.2150000000000034,-0.033686,-0.077689,0.690994
1.2175000000000011,-0.029808,-0.07814,0.698873
1.2199999999999989,-0.0306,-0.078204,0.709071
1.2224999999999966,-0.02635,-0.070615,0.713603
1.2249999999999943,-0.024776,-0.068459,0.719484
1.227499999999992,-0.020798,-0.069155,0.724412
1.2299999999999898,-0.014818,-0.062847,0.72787
1.232500000000016,-0.011757,-0.064789,0.733665
1.2350000000000136,-0.009626,-0.062259,0.735808
1.2375000000000114,-0.008914,-0.061849,0.740882
1.240000000000009,-0.002097,-0.059762,0.744405
1.2425000000000068,0.000715,-0.054289,0.749196
1.2450000000000043,0.002464,-0.054936,0.752124
1.2475000000000025,0.007664,-0.053124,0.755059
1.25,0.007366,-0.05164,0.759714
1.2524999999999975,0.011799,-0.055651,0.760164
1.2549999999999957,0.014638,-0.051978,0.765295
1.2574999999999932,0.014985,-0.047448,0.766087
1.259999999999991,0.016274,-0.044128,0.772046
1.2624999999999886,0.020478,-0.043571,0.776818
1.2650000000000148,0.018879,-0.042248,0.776456
1.2675000000000125,0.019365,-0.04313,0.77722
1.2700000000000102,0.023838,-0.037932,0.781662
1.272500000000008,0.022979,-0.037782,0.784272
1.2750000000000057,0.020763,-0.034013,0.787685
1.2775000000000034,0.02105,-0.027847,0.790284
1.2800000000000011,0.023583,-0.033833,0.793258
1.2824999999999989,0.02253,-0.029825,0.789998
1.2849999999999966,0.021649,-0.024882,0.795274
1.2874999999999943,0.021074,-0.026888,0.796021
1.289999999999992,0.02236,-0.027031,0.799211
1.2924999999999898,0.025053,-0.020239,0.803181
1.295000000000016,0.021171,-0.010495,0.80377
1.2975000000000136,0.019733,-0.014606,0.806864
1.3000000000000114,0.01865,-0.01622,0.813653
1.302500000000009,0.020579,-0.011975,0.814821
1.3050000000000068,0.015507,-0.01384,0.821666
1.3075000000000043,0.01642,-0.009981,0.826494
1.3100000000000025,0.010052,-0.011018,0.825936
1.3125,0.012321,-0.009735,0.824496
1.3149999999999975,0.01009,-0.010201,0.831869
1.3174999999999957,0.005334,-0.012189,0.834377
1.3199999999999932,0.00206,-0.012039,0.83715
1.322499999999991,-0.00264,-0.013256,0.844137
1.3249999999999886,-0.005865,-0.012511,0.843869
1.3275000000000148,-0.012952,-0.018071,0.845861
1.3300000000000125,-0.016938,-0.01772,0.848883
1.3325000000000102,-0.020026,-0.01962,0.848099
1.335000000000008,-0.024751,-0.022149,0.849708
1.3375000000000057,-0.027561,-0.02739,0.85224
1.3400000000000034,-0.034714,-0.02653,0.854167
1.3425000000000011,-0.040931,-0.029263,0.854808
1.3449999999999989,-0.046788,-0.033221,0.854734
1.3474999999999966,-0.048165,-0.038879,0.857175
1.3499999999999943,-0.053604,-0.041981,0.857162
1.352499999999992,-0.058167,-0.043799,0.857357
1.3549999999999898,-0.060047,-0.05036,0.860516
1.357500000000016,-0.06751,-0.053959,0.85833
1.3600000000000136,-0.071505,-0.056589,0.86113
1.3625000000000114,-0.075339,-0.057779,0.860179
1.365000000000009,-0.076856,-0.06332,0.856564
1.3675000000000068,-0.08001,-0.067548,0.858926
1.3700000000000043,-0.083952,-0.069305,0.85941
1.3725000000000025,-0.087053,-0.071524,0.859929
1.375,-0.090043,-0.074811,0.860787
1.3774999999999975,-0.093618,-0.080252,0.859884
1.3799999999999957,-0.090943,-0.081094,0.859755
1.3824999999999932,-0.088909,-0.083798,0.863583
1.384999999999991,-0.092113,-0.082022,0.861038
1.3874999999999886,-0.097027,-0.086004,0.8604
1.3900000000000148,-0.099364,-0.089802,0.857372
1.3925000000000125,-0.100869,-0.093988,0.855544
1.3950000000000102,-0.098297,-0.094533,0.85483
1.397500000000008,-0.10387,-0.097665,0.85376
1.4000000000000057,-0.102887,-0.097947,0.855879
1.4025000000000034,-0.105618,-0.100277,0.851966
1.4050000000000011,-0.10446,-0.100441,0.850973
1.4074999999999989,-0.10861,-0.101651,0.846399
1.4099999999999966,-0.10837,-0.100231,0.842446
1.4124999999999943,-0.10816,-0.10197,0.840751
1.414999999999992,-0.111887,-0.101265,0.836791
1.4174999999999898,-0.113167,-0.100006,0.833579
1.420000000000016,-0.113776,-0.103557,0.830405
1.4225000000000136,-0.120142,-0.098427,0.825866
1.4250000000000114,-0.120749,-0.101082,0.825232
1.427500000000009,-0.121169,-0.099593,0.818512
1.4300000000000068,-0.121065,-0.098844,0.813564
1.4325000000000043,-0.128362,-0.09954,0.81274
1.4350000000000025,-0.12719,-0.095843,0.811505
1.4375,-0.129655,-0.096519,0.804868
1.4399999999999975,-0.130323,-0.096852,0.804675
1.4424999999999957,-0.132689,-0.096196,0.802029
1.4449999999999932,-0.13727,-0.092565,0.801627
1.447499999999991,-0.142211,-0.090735,0.796793
1.4499999999999886,-0.143561,-0.089885,0.795559
1.4525000000000148,-0.149858,-0.088403,0.795914
1.4550000000000125,-0.153516,-0.083855,0.795195
1.4575000000000102,-0.157146,-0.081982,0.794769
1.460000000000008,-0.160573,-0.082305,0.799031
1.4625000000000057,-0.170779,-0.079831,0.796382
1.4650000000000034,-0.176343,-0.074671,0.798696
1.4675000000000011,-0.18609,-0.075296,0.802649
1.4699999999999989,-0.191173,-0.070937,0.804921
1.4724999999999966,-0.196254,-0.062679,0.809273
1.4749999999999943,-0.203216,-0.061619,0.809609
1.477499999999992,-0.206985,-0.059144,0.816941
1.4799999999999898,-0.213416,-0.052975,0.822083
1.482500000000016,-0.218979,-0.047545,0.826127
1.4850000000000136,-0.222966,-0.043316,0.828398
1.4875000000000114,-0.225717,-0.039953,0.834587
1.490000000000009,-0.230643,-0.030978,0.841072
1.4925000000000068,-0.23468,-0.024684,0.838556
1.4950000000000043,-0.239481,-0.019704,0.84259
1.4975000000000025,-0.239322,-0.017399,0.847864
1.5,-0.248382,-0.010796,0.850322
1.5024999999999975,-0.246681,-0.006384,0.852836
1.5049999999999957,-0.243858,-0.003254,0.850307
1.5074999999999932,-0.247985,-0.000651,0.855176
1.509999999999991,-0.246264,0.004034,0.851944
1.5124999999999886,-0.246394,0.008211,0.850746
1.5150000000000148,-0.248654,0.013451,0.848932
1.5175000000000125,-0.244246,0.014461,0.848306
1.5200000000000102,-0.247139,0.020108,0.843972
1.522500000000008,-0.244309,0.025613,0.839891
1.5250000000000057,-0.238645,0.026318,0.835305
1.5275000000000034,-0.234097,0.029945,0.829002
1.5300000000000011,-0.238331,0.037261,0.820831
1.5324999999999989,-0.229785,0.038359,0.82025
1.5349999999999966,-0.230776,0.037972,0.815984
1.5374999999999943,-0.228339,0.044022,0.809873
1.539999999999992,-0.226419,0.049832,0.808925
1.5424999999999898,-0.228374,0.050103,0.80278
1.545000000000016,-0.22442,0.055381,0.795796
1.5475000000000136,-0.21738,0.062024,0.792695
1.5500000000000114,-0.217195,0.062633,0.790665
1.552500000000009,-0.219938,0.070844,0.788657
1.5550000000000068,-0.217977,0.070869,0.785119
1.5575000000000043,-0.214596,0.078816,0.784674
1.5600000000000025,-0.217521,0.081933,0.782944
1.5625,-0.215517,0.088721,0.780697
1.5649999999999975,-0.21299,0.090473,0.779364
1.5674999999999957,-0.2095,0.091489,0.780245
1.5699999999999932,-0.208612,0.093911,0.775408
1.572499999999991,-0.206812,0.102418,0.773475
1.5749999999999886,-0.209071,0.102339,0.775423
1.5775000000000148,-0.207132,0.104224,0.773471
1.5800000000000125,-0.207725,0.108268,0.768518
1.5825000000000102,-0.209695,0.110152,0.766986
1.585000000000008,-0.207564,0.116427,0.768341
1.5875000000000057,-0.208321,0.11434,0.763596
1.5900000000000034,-0.208856,0.114877,0.760418
1.5925000000000011,-0.212178,0.118212,0.757982
1.5949999999999989,-0.212966,0.119562,0.755189
1.5974999999999966,-0.205815,0.118224,0.752547
1.5999999999999943,-0.209238,0.122689,0.748386
1.602499999999992,-0.211623,0.12256,0.743836
1.6049999999999898,-0.207947,0.117276,0.741401
1.607500000000016,-0.212473,0.122622,0.734555
1.6100000000000136,-0.211756,0.118636,0.734539
1.6125000000000114,-0.212015,0.11799,0.724762
1.615000000000009,-0.212008,0.119139,0.724366
1.6175000000000068,-0.20431,0.121338,0.716239
1.6200000000000043,-0.208488,0.116501,0.713978
1.6225000000000025,-0.209752,0.119209,0.708749
1.625,-0.207633,0.115638,0.704078
1.6274999999999975,-0.207445,0.115483,0.699347
1.6299999999999957,-0.209229,0.121235,0.687861
1.6324999999999932,-0.207473,0.116194,0.684255
1.634999999999991,-0.203165,0.111473,0.677913
1.6374999999999886,-0.203328,0.112581,0.674205
1.6400000000000148,-0.195859,0.113482,0.662451
1.6425000000000125,-0.20016,0.114355,0.659826
1.6450000000000102,-0.19089,0.112885,0.655235
1.647500000000008,-0.186525,0.115266,0.648987
1.6500000000000057,-0.183666,0.11804,0.643271
1.6525000000000034,-0.179796,0.112914,0.638854
1.6550000000000011,-0.178574,0.11583,0.634442
1.6574999999999989,-0.17485,0.114832,0.627434
1.6599999999999966,-0.173323,0.116409,0.626298
1.6624999999999943,-0.168629,0.113954,0.617731
1.664999999999992,-0.163092,0.114695,0.614692
1.6674999999999898,-0.160468,0.116215,0.60982
1.670000000000016,-0.156608,0.114871,0.601619
1.6725000000000136,-0.154431,0.113515,0.59896
1.6750000000000114,-0.153895,0.112217,0.592076
1.677500000000009,-0.145903,0.117024,0.586318
1.6800000000000068,-0.148064,0.116009,0.583399
1.6825000000000043,-0.139499,0.112032,0.576522
1.6850000000000025,-0.141738,0.115558,0.567717
1.6875,-0.140506,0.109988,0.56171
1.6899999999999975,-0.138947,0.11266,0.554597
1.6924999999999957,-0.136046,0.111011,0.548431
1.6949999999999932,-0.136255,0.11399,0.539876
1.697499999999991,-0.134678,0.114261,0.533059
1.6999999999999886,-0.13767,0.112733,0.527815
1.7025000000000148,-0.132814,0.116264,0.522558
1.7050000000000125,-0.133011,0.1165,0.515443
1.7075000000000102,-0.137918,0.122631,0.505485
1.710000000000008,-0.133647,0.118823,0.497662
1.7125000000000057,-0.131577,0.124148,0.494847
1.7150000000000034,-0.13591,0.124976,0.480033
1.7175000000000011,-0.134614,0.123841,0.471558
1.7199999999999989,-0.133942,0.124308,0.464245
1.7224999999999966,-0.140569,0.126981,0.458992
1.7249999999999943,-0.140293,0.128824,0.452464
1.727499999999992,-0.14309,0.128644,0.442507
1.7299999999999898,-0.14229,0.128842,0.43804
1.732500000000016,-0.147221,0.129081,0.430048
1.7350000000000136,-0.147554,0.129593,0.422835
1.7375000000000114,-0.149949,0.13698,0.415111
1.740000000000009,-0.151497,0.138002,0.407822
1.7425000000000068,-0.157735,0.140814,0.397144
1.7450000000000043,-0.157817,0.137689,0.392892
1.7475000000000025,-0.161935,0.146047,0.389666
1.75,-0.163794,0.145029,0.380851
1.7524999999999975,-0.167866,0.143922,0.374944
1.7549999999999957,-0.171581,0.143491,0.370315
1.7574999999999932,-0.175308,0.142931,0.363059
1.759999999999991,-0.179307,0.146762,0.353672
1.7624999999999886,-0.183555,0.149202,0.348727
1.7650000000000148,-0.186986,0.14771,0.337856
1.7675000000000125,-0.18879,0.146066,0.329491
1.7700000000000102,-0.192586,0.149816,0.323061
1.772500000000008,-0.196376,0.146116,0.315262
1.7750000000000057,-0.203045,0.147703,0.303831
1.7775000000000034,-0.203422,0.149391,0.299584
1.7800000000000011,-0.212166,0.152267,0.287733
1.7824999999999989,-0.216118,0.147592,0.281218
1.7849999999999966,-0.22012,0.146287,0.273482
1.7874999999999943,-0.22583,0.145588,0.263938
1.789999999999992,-0.231192,0.146309,0.257281
1.7924999999999898,-0.232303,0.14699,0.248861
1.795000000000016,-0.239295,0.146434,0.239883
1.7975000000000136,-0.240609,0.149279,0.234937
1.8000000000000114,-0.243664,0.144423,0.225889
1.802500000000009,-0.251473,0.142958,0.220058
1.8050000000000068,-0.255333,0.144311,0.214051
1.8075000000000043,-0.256482,0.141288,0.20603
1.8100000000000025,-0.258802,0.145083,0.207197
1.8125,-0.261043,0.140808,0.197492
1.8149999999999975,-0.267048,0.141232,0.190131
1.8174999999999957,-0.270045,0.14076,0.183996
1.8199999999999927,-0.274278,0.138841,0.181215
1.822499999999991,-0.271435,0.138175,0.176349
1.8249999999999889,-0.277895,0.134597,0.173289
1.8275000000000148,-0.275384,0.134418,0.164294
1.8300000000000125,-0.274225,0.134415,0.16044
1.8325000000000105,-0.275952,0.138017,0.157755
1.835000000000008,-0.27696,0.137054,0.155237
1.8375000000000057,-0.276496,0.13443,0.152548
1.8400000000000036,-0.274488,0.128966,0.145824
1.8425000000000007,-0.274456,0.130283,0.144499
1.8449999999999989,-0.269982,0.134825,0.141225
1.8474999999999968,-0.2684,0.12993,0.135448
1.8499999999999943,-0.267226,0.129395,0.131213
1.852499999999992,-0.265688,0.124509,0.129933
1.8549999999999895,-0.262164,0.125619,0.124086
1.857500000000016,-0.259551,0.124631,0.121184
1.8600000000000136,-0.257924,0.124999,0.121068
1.8625000000000116,-0.254834,0.123111,0.118785
1.865000000000009,-0.252098,0.122624,0.110602
1.8675000000000068,-0.253482,0.121889,0.111032
1.8700000000000043,-0.250536,0.117605,0.107477
1.8725000000000025,-0.249943,0.117103,0.103515
1.875,-0.245275,0.116589,0.099035
1.8774999999999975,-0.242883,0.115512,0.095508
1.8799999999999957,-0.241123,0.11277,0.09556
1.8824999999999927,-0.239414,0.109691,0.094236
1.884999999999991,-0.23703,0.108709,0.089974
1.8874999999999889,-0.234692,0.107899,0.087043
1.8900000000000148,-0.229667,0.104824,0.086071
1.8925000000000125,-0.228736,0.107094,0.08468
1.8950000000000105,-0.227901,0.102074,0.083046
1.897500000000008,-0.22115,0.100774,0.082756
1.9000000000000057,-0.218092,0.100837,0.080728
1.9025000000000036,-0.214785,0.101428,0.084419
1.9050000000000007,-0.209422,0.099885,0.08262
1.9074999999999989,-0.210226,0.098958,0.081936
1.9099999999999968,-0.203364,0.098421,0.079948
1.9124999999999943,-0.198387,0.099703,0.082295
1.914999999999992,-0.194588,0.098755,0.085292
1.9174999999999895,-0.188957,0.097106,0.084568
1.920000000000016,-0.182815,0.094437,0.089025
1.9225000000000136,-0.179553,0.090831,0.088953
1.9250000000000116,-0.174651,0.098214,0.08933
1.927500000000009,-0.167443,0.098463,0.089487
1.9300000000000068,-0.1645,0.097785,0.091206
1.9325000000000043,-0.155866,0.101244,0.094081
1.9350000000000025,-0.151199,0.09652,0.093108
1.9375,-0.147063,0.097135,0.094912
1.9399999999999975,-0.141625,0.100768,0.092169
1.9424999999999957,-0.135072,0.099231,0.092629
1.9449999999999927,-0.128099,0.097335,0.093959
1.947499999999991,-0.123368,0.103367,0.094717
1.9499999999999889,-0.113775,0.103126,0.094402
1.9525000000000148,-0.104015,0.103603,0.093859
1.9550000000000125,-0.098971,0.101101,0.096156
1.9575000000000105,-0.092836,0.099578,0.094686
1.960000000000008,-0.091778,0.104211,0.095641
1.9625000000000057,-0.081173,0.105291,0.097903
1.9650000000000036,-0.073481,0.103896,0.097693
1.9675000000000007,-0.06447,0.107727,0.101086
1.9699999999999989,-0.060287,0.105906,0.10807
1.9724999999999968,-0.053294,0.103583,0.105377
1.9749999999999943,-0.042899,0.107992,0.11154
1.977499999999992,-0.040399,0.104112,0.112364
1.9799999999999895,-0.029339,0.103457,0.116508
1.982500000000016,-0.023246,0.104702,0.119846
1.9850000000000136,-0.018036,0.10329,0.119946
1.9875000000000116,-0.01168,0.10724,0.12311
1.990000000000009,-0.00315,0.104881,0.128558
1.9925000000000068,0.005127,0.1061,0.135335
1.9950000000000043,0.009095,0.106638,0.137942
1.9975000000000025,0.014616,0.118164,0.14547
2.0,0.021089,0.112762,0.145758
2.0024999999999977,0.02413,0.112274,0.150258
2.0049999999999955,0.032049,0.113093,0.153086
2.007499999999993,0.038268,0.113919,0.16116
2.009999999999991,0.040384,0.114761,0.163864
2.0124999999999886,0.045247,0.11357,0.166859
2.015000000000015,0.051195,0.11593,0.170577
2.0175000000000125,0.053481,0.118328,0.171391
2.0200000000000102,0.060689,0.118408,0.17518
2.022500000000008,0.062325,0.117239,0.174118
2.0250000000000057,0.061366,0.11781,0.177661
2.0275000000000034,0.063803,0.119358,0.175742
2.030000000000001,0.068913,0.118179,0.172607
2.032499999999999,0.070948,0.123491,0.174486
2.0349999999999966,0.078367,0.120568,0.173449
2.0374999999999943,0.079475,0.122968,0.175821
2.039999999999992,0.081664,0.120924,0.174361
2.0424999999999898,0.087377,0.122476,0.168983
2.045000000000016,0.087508,0.120214,0.169512
2.0475000000000136,0.089456,0.119597,0.171638
2.050000000000012,0.094242,0.119238,0.168446
2.052500000000009,0.094298,0.119183,0.168026
2.055000000000007,0.093136,0.112868,0.168436
2.0575000000000045,0.096244,0.118019,0.165229
2.0600000000000023,0.098161,0.118826,0.164149
2.0625,0.100184,0.113141,0.159297
2.0649999999999977,0.097491,0.114326,0.163628
2.0674999999999955,0.098773,0.11529,0.165037
2.069999999999993,0.098827,0.113978,0.160287
2.072499999999991,0.098517,0.115793,0.160541
2.0749999999999886,0.098033,0.115841,0.157175
2.077500000000015,0.094991,0.114986,0.157566
2.0800000000000125,0.094836,0.118465,0.15346
2.0825000000000102,0.088827,0.119288,0.147965
2.085000000000008,0.091057,0.116663,0.148939
2.0875000000000057,0.088636,0.116695,0.146315
2.0900000000000034,0.083279,0.123047,0.141292
2.092500000000001,0.083164,0.122825,0.139577
2.094999999999999,0.079889,0.12472,0.134935
2.0974999999999966,0.078247,0.122317,0.130305
2.0999999999999943,0.075371,0.127345,0.122549
2.102499999999992,0.070973,0.128563,0.118057
2.1049999999999898,0.064989,0.127614,0.113849
2.107500000000016,0.06325,0.125159,0.104567
2.1100000000000136,0.058138,0.126473,0.099794
2.112500000000012,0.05307,0.127362,0.092155
2.115000000000009,0.053313,0.129322,0.084684
2.117500000000007,0.050687,0.127055,0.077885
2.1200000000000045,0.041252,0.131919,0.068941
2.1225000000000023,0.036786,0.130671,0.064909
2.125,0.028051,0.126577,0.055047
2.1274999999999977,0.027465,0.12826,0.051593
2.1299999999999955,0.020636,0.127371,0.04256
2.132499999999993,0.018222,0.126866,0.037266
2.134999999999991,0.013416,0.12593,0.033385
2.1374999999999886,0.008362,0.125168,0.027791
2.140000000000015,0.003064,0.127799,0.026774
2.1425000000000125,0.000628,0.122447,0.018205
2.1450000000000102,-0.004406,0.123624,0.014143
2.147500000000008,-0.008351,0.120338,0.010594
2.1500000000000057,-0.011544,0.117526,0.004735
2.1525000000000034,-0.014412,0.119194,0.000321
2.155000000000001,-0.01196,0.119547,-0.000641
2.157499999999999,-0.017488,0.118927,-0.00136
2.1599999999999966,-0.019734,0.117724,-0.004195
2.1624999999999943,-0.028643,0.11346,-0.008169
2.164999999999992,-0.037077,0.113595,-0.006911
2.1674999999999898,-0.034525,0.114956,-0.006902
2.170000000000016,-0.035249,0.116479,-0.009903
2.1725000000000136,-0.041221,0.115225,-0.004993
2.175000000000012,-0.045022,0.114975,-0.006486
2.177500000000009,-0.049025,0.112364,-0.003967
2.180000000000007,-0.050558,0.11499,-0.00367
2.1825000000000045,-0.054754,0.111634,-0.002916
2.1850000000000023,-0.058331,0.111429,-0.000741
2.1875,-0.060596,0.112065,-0.000851
2.1899999999999977,-0.063537,0.107592,-0.000457
2.1924999999999955,-0.067914,0.108141,-0.004289
2.194999999999993,-0.06981,0.104528,-0.001714
2.197499999999991,-0.073856,0.102396,-0.000583
2.1999999999999886,-0.079042,0.101783,-0.00428
2.202500000000015,-0.082108,0.099088,-0.005268
2.2050000000000125,-0.085291,0.096453,-0.006917
2.2075000000000102,-0.086682,0.094042,-0.005428
2.210000000000008,-0.088649,0.093389,-0.009689
2.2125000000000057,-0.086631,0.094952,-0.010528
2.2150000000000034,-0.093721,0.094255,-0.012989
2.217500000000001,-0.092703,0.090791,-0.015326
2.219999999999999,-0.092012,0.08764,-0.015976
2.2224999999999966,-0.092112,0.0849,-0.017405
2.2249999999999943,-0.091331,0.087839,-0.014576
2.227499999999992,-0.094503,0.087503,-0.016053
2.2299999999999898,-0.092997,0.084878,-0.020644
2.232500000000016,-0.089535,0.087716,-0.018074
2.2350000000000136,-0.088476,0.088356,-0.014615
2.237500000000012,-0.089633,0.083869,-0.019048
2.240000000000009,-0.088508,0.084867,-0.015263
2.242500000000007,-0.089116,0.082586,-0.013176
2.2450000000000045,-0.086291,0.083103,-0.011547
2.2475000000000023,-0.08243,0.078092,-0.01357
2.25,-0.082891,0.08257,-0.011463
2.2524999999999977,-0.079815,0.081272,-0.009082
2.2549999999999955,-0.07773,0.08239,-0.005223
2.257499999999993,-0.073981,0.076478,-0.007617
2.259999999999991,-0.071749,0.070622,-0.003792
2.2624999999999886,-0.06969,0.074642,-0.001636
2.265000000000015,-0.064467,0.075651,-0.003675
2.2675000000000125,-0.065687,0.074666,0.001883
2.2700000000000102,-0.059448,0.071647,0.004538
2.272500000000008,-0.057349,0.074961,0.0053
2.2750000000000057,-0.0517,0.069327,0.004508
2.2775000000000034,-0.051819,0.072318,0.004415
2.280000000000001,-0.046669,0.074086,0.007343
2.282499999999999,-0.040826,0.070832,0.005683
2.2849999999999966,-0.037299,0.072169,0.006554
2.2874999999999943,-0.035055,0.072805,0.00362
2.289999999999992,-0.032827,0.071978,0.008105
2.2924999999999898,-0.024652,0.074477,0.006586
2.295000000000016,-0.022963,0.072309,0.005565
2.2975000000000136,-0.017929,0.071319,0.008399
2.300000000000012,-0.018224,0.072034,0.009821
2.302500000000009,-0.015208,0.067347,0.006359
2.305000000000007,-0.012128,0.071182,0.007927
2.3075000000000045,-0.010066,0.069059,0.009487
2.3100000000000023,-0.004978,0.065524,0.008441
2.3125,-0.004023,0.068662,0.007614
2.3149999999999977,0.00312,0.069269,0.007438
2.3174999999999955,0.005668,0.064873,0.010335
2.319999999999993,0.008672,0.064432,0.010278
2.322499999999991,0.012723,0.062602,0.010335
2.3249999999999886,0.018514,0.054974,0.011971
2.327500000000015,0.01811,0.054712,0.013021
2.3300000000000125,0.021841,0.059275,0.015172
2.3325000000000102,0.026286,0.055233,0.018551
2.335000000000008,0.02838,0.053448,0.017821
2.3375000000000057,0.030604,0.053704,0.02362
2.3400000000000034,0.035451,0.05189,0.026163
2.342500000000001,0.037203,0.04872,0.029045
2.344999999999999,0.041706,0.053077,0.026744
2.3474999999999966,0.046929,0.047246,0.027681
2.3499999999999943,0.046357,0.05196,0.032567
2.352499999999992,0.053533,0.049516,0.030544
2.3549999999999898,0.05184,0.048242,0.034332
2.357500000000016,0.051316,0.050398,0.035474
2.3600000000000136,0.051508,0.048921,0.036474
2.362500000000012,0.056019,0.04945,0.040688
2.365000000000009,0.058333,0.05281,0.038973
2.367500000000007,0.056209,0.049608,0.038411
2.3700000000000045,0.059081,0.048602,0.036969
2.3725000000000023,0.057409,0.053812,0.039455
2.375,0.059823,0.055639,0.038997
2.3774999999999977,0.058124,0.056408,0.041638
2.3799999999999955,0.059757,0.056363,0.036146
2.382499999999993,0.057802,0.061519,0.038975
2.384999999999991,0.059953,0.061039,0.034774
2.3874999999999886,0.053924,0.066887,0.033118
2.390000000000015,0.055978,0.069445,0.035218
2.3925000000000125,0.057677,0.071714,0.032813
2.3950000000000102,0.059544,0.070656,0.030749
2.397500000000008,0.054901,0.077427,0.030477
2.4000000000000057,0.056406,0.081382,0.027547
2.4025000000000034,0.057017,0.085617,0.029499
2.405000000000001,0.056592,0.089955,0.025056
2.407499999999999,0.055117,0.095851,0.029921
2.4099999999999966,0.054903,0.095385,0.027115
2.4124999999999943,0.056251,0.100931,0.025698
2.414999999999992,0.055834,0.105879,0.02595
2.4174999999999898,0.054575,0.109861,0.023203
2.420000000000016,0.052019,0.116805,0.024702
2.4225000000000136,0.047962,0.119399,0.022239
2.425000000000012,0.052353,0.123902,0.023664
2.427500000000009,0.04904,0.12834,0.024954
2.430000000000007,0.045136,0.130261,0.024495
2.4325000000000045,0.04602,0.13641,0.023911
2.4350000000000023,0.041964,0.135098,0.022755
2.4375,0.038178,0.144712,0.019329
2.4399999999999977,0.037075,0.146284,0.021229
2.4424999999999955,0.031652,0.151863,0.02038
2.444999999999993,0.027121,0.156569,0.017171
2.447499999999991,0.025288,0.159026,0.012585
2.4499999999999886,0.019964,0.156056,0.007669
2.452500000000015,0.016286,0.165134,0.004775
2.4550000000000125,0.014731,0.163082,0.004693
2.4575000000000102,0.012588,0.165904,0.003172
2.460000000000008,0.010065,0.17172,0.001781
2.4625000000000057,0.005493,0.178056,0.003291
2.4650000000000034,-0.00121,0.184072,0.005703
2.467500000000001,-0.003384,0.192989,0.010214
2.469999999999999,-0.01156,0.205728,0.016657
2.4724999999999966,-0.012255,0.222603,0.021855
2.4749999999999943,-0.021727,0.231995,0.035845
2.477499999999992,-0.022067,0.244094,0.046899
2.4799999999999898,-0.020081,0.252046,0.064463
2.482500000000016,-0.019757,0.260887,0.083469
2.4850000000000136,-0.017329,0.262599,0.103005
2.487500000000012,-0.014696,0.264756,0.120781
2.490000000000009,-0.007658,0.26074,0.135823
2.492500000000007,-0.004874,0.263191,0.152551
2.4950000000000045,0.00039,0.255432,0.160769
2.4975000000000023,0.008401,0.24661,0.166921
2.5,0.012351,0.232213,0.172841
2.5024999999999977,0.020131,0.218787,0.179256
2.5049999999999955,0.023935,0.20576,0.182698
2.507499999999993,0.027939,0.186176,0.179069
2.509999999999991,0.03256,0.173102,0.180147
2.5124999999999886,0.035463,0.153911,0.176865
2.515000000000015,0.045619,0.143821,0.171309
2.5175000000000125,0.052113,0.12527,0.165721
2.5200000000000102,0.057358,0.117012,0.159612
2.522500000000008,0.064074,0.100838,0.158151
2.5250000000000057,0.069536,0.083535,0.148719
2.5275000000000034,0.071988,0.073578,0.146016
2.530000000000001,0.073963,0.064527,0.138391
2.532499999999999,0.075711,0.057026,0.130873
2.5349999999999966,0.077058,0.050285,0.122342
2.5374999999999943,0.077545,0.042412,0.115103
2.539999999999992,0.072735,0.036819,0.110037
2.5424999999999898,0.07036,0.035123,0.101336
2.545000000000016,0.069887,0.034443,0.088859
2.5475000000000136,0.065807,0.037424,0.080951
2.550000000000012,0.059025,0.040349,0.074582
2.552500000000009,0.050255,0.046863,0.06704
2.555000000000007,0.049163,0.051115,0.061903
2.5575000000000045,0.034847,0.060622,0.056032
2.5600000000000023,0.033797,0.073794,0.050219
2.5625,0.024026,0.076229,0.041529
2.5649999999999977,0.012688,0.091376,0.039304
2.5674999999999955,0.000539,0.099634,0.032764
2.569999999999993,-0.007266,0.113934,0.027353
2.572499999999991,-0.016761,0.122897,0.021958
2.5749999999999886,-0.025563,0.12667,0.015572
2.577500000000015,-0.034997,0.13575,0.017626
2.5800000000000125,-0.040786,0.136461,0.014073
2.5825000000000102,-0.045438,0.138744,0.011329
2.585000000000008,-0.045565,0.137445,0.00697
2.5875000000000057,-0.046632,0.137012,0.01149
2.5900000000000034,-0.048256,0.133192,0.011835
2.592500000000001,-0.046539,0.131696,0.009318
2.594999999999999,-0.046,0.13165,0.003625
2.5974999999999966,-0.047436,0.127938,0.010172
2.5999999999999943,-0.04774,0.125893,0.012598
2.602499999999992,-0.041378,0.130255,0.01482
2.6049999999999898,-0.041622,0.131271,0.012844
2.607500000000016,-0.039846,0.129249,0.016577
2.6100000000000136,-0.036451,0.132736,0.01914
2.612500000000012,-0.036106,0.127742,0.021999
2.615000000000009,-0.031736,0.131763,0.024761
2.617500000000007,-0.030881,0.130927,0.03055
2.6200000000000045,-0.034112,0.129869,0.026036
2.6225000000000023,-0.029206,0.129721,0.029363
2.625,-0.027384,0.129826,0.02761
2.6274999999999977,-0.025596,0.126948,0.02789
2.6299999999999955,-0.023589,0.126117,0.03038
2.632499999999993,-0.024593,0.123466,0.032613
2.634999999999991,-0.020839,0.122731,0.029913
2.6374999999999886,-0.018026,0.117233,0.033016
2.640000000000015,-0.016622,0.120265,0.036538
2.6425000000000125,-0.018558,0.117805,0.037248
2.6450000000000102,-0.013874,0.114901,0.040945
2.647500000000008,-0.018577,0.115792,0.039787
2.6500000000000057,-0.013383,0.112904,0.045172
2.6525000000000034,-0.014166,0.111192,0.046413
2.655000000000001,-0.015536,0.108939,0.046501
2.657499999999999,-0.009115,0.108265,0.054232
2.6599999999999966,-0.009984,0.106787,0.048857
2.6624999999999943,-0.009793,0.105039,0.056721
2.664999999999992,-0.00806,0.1058,0.057124
2.6674999999999898,-0.006868,0.104009,0.05878
2.670000000000016,-0.002645,0.100484,0.059938
2.6725000000000136,0.000744,0.101656,0.060251
2.675000000000012,-8.3e-05,0.098228,0.066222
2.677500000000009,0.003482,0.10161,0.0655
2.680000000000007,0.007021,0.094255,0.064374
2.6825000000000045,0.008401,0.096647,0.068309
2.6850000000000023,0.012027,0.093228,0.069376
2.6875,0.013188,0.089254,0.070023
2.6899999999999977,0.021494,0.085338,0.073367
2.6924999999999955,0.020994,0.086451,0.074714
2.694999999999993,0.023537,0.080115,0.075469
2.697499999999991,0.027565,0.07833,0.076308
2.6999999999999886,0.033907,0.077894,0.07549
2.702500000000015,0.037227,0.071649,0.074641
2.7050000000000125,0.042834,0.075983,0.073122
2.7075000000000102,0.042744,0.070506,0.074261
2.710000000000008,0.050858,0.071149,0.073233
2.7125000000000057,0.052647,0.07168,0.072985
2.7150000000000034,0.060423,0.063699,0.070324
2.717500000000001,0.065073,0.064496,0.068875
2.719999999999999,0.073057,0.058796,0.068918
2.7224999999999966,0.075058,0.059993,0.068849
2.7249999999999943,0.08167,0.061613,0.069272
2.727499999999992,0.084913,0.058001,0.063013
2.7299999999999898,0.091596,0.055471,0.064178
2.732500000000016,0.095586,0.048903,0.062033
2.7350000000000136,0.099791,0.049945,0.063119
2.737500000000012,0.102992,0.046217,0.061502
2.740000000000009,0.105279,0.047898,0.064116
2.742500000000007,0.110777,0.04892,0.061283
2.7450000000000045,0.112268,0.047009,0.057735
2.7475000000000023,0.115622,0.047461,0.063968
2.75,0.11821,0.044642,0.062539
2.7524999999999977,0.122555,0.049161,0.062222
2.7549999999999955,0.119527,0.047026,0.061183
2.757499999999993,0.118113,0.052971,0.063435
2.759999999999991,0.115595,0.053475,0.065445
2.7624999999999886,0.121275,0.056779,0.064772
2.765000000000015,0.118906,0.06072,0.066454
2.7675000000000125,0.123549,0.063273,0.066773
2.7700000000000102,0.116665,0.067688,0.067682
2.772500000000008,0.117191,0.066266,0.07134
2.7750000000000057,0.116298,0.069799,0.072918
2.7775000000000034,0.117189,0.072192,0.074207
2.780000000000001,0.116303,0.079443,0.073615
2.782499999999999,0.11664,0.082562,0.075025
2.7849999999999966,0.114147,0.086073,0.07787
2.7874999999999943,0.112227,0.088371,0.077001
2.789999999999992,0.106981,0.088383,0.080786
2.7924999999999898,0.110938,0.09177,0.082015
2.795000000000016,0.101756,0.098573,0.078607
2.7975000000000136,0.099514,0.102224,0.081155
2.800000000000012,0.095782,0.103948,0.083553
2.802500000000009,0.095756,0.10711,0.086329
2.805000000000007,0.091884,0.111798,0.086404
2.8075000000000045,0.088803,0.113193,0.089336
2.8100000000000023,0.083359,0.119894,0.086986
2.8125,0.082947,0.125558,0.091783
2.8149999999999977,0.076953,0.126549,0.090624
2.8174999999999955,0.07158,0.131807,0.089767
2.819999999999993,0.06912,0.137455,0.092071
2.822499999999991,0.066584,0.144529,0.094456
2.8249999999999886,0.059576,0.14592,0.092886
2.827500000000015,0.054248,0.151526,0.096867
2.8300000000000125,0.049608,0.153942,0.100488
2.8325000000000102,0.047006,0.158942,0.100604
2.835000000000008,0.038832,0.165039,0.10386
2.8375000000000057,0.041252,0.165761,0.100388
2.8400000000000034,0.034336,0.173252,0.103264
2.842500000000001,0.023498,0.17395,0.105856
2.844999999999999,0.022004,0.178174,0.10562
2.8474999999999966,0.018861,0.184689,0.106033
2.8499999999999943,0.013607,0.186875,0.106653
2.852499999999992,0.008767,0.190381,0.107283
2.8549999999999898,0.004614,0.192716,0.106481
2.857500000000016,0.000317,0.198466,0.10817
2.8600000000000136,-0.004929,0.200609,0.107607
2.862500000000012,-0.00632,0.205528,0.110126
2.865000000000009,-0.006731,0.206388,0.110816
2.867500000000007,-0.015728,0.209794,0.112922
2.8700000000000045,-0.014076,0.213166,0.108939
2.8725000000000023,-0.014694,0.218268,0.10832
2.875,-0.020054,0.219645,0.106876
2.8774999999999977,-0.019895,0.229365,0.102923
2.8799999999999955,-0.024396,0.229613,0.105359
2.882499999999993,-0.021291,0.232192,0.102931
2.884999999999991,-0.024518,0.235393,0.102014
2.8874999999999886,-0.0282,0.239737,0.097016
2.890000000000015,-0.029857,0.238501,0.096602
2.8925000000000125,-0.027242,0.243854,0.096255
2.8950000000000102,-0.031318,0.250448,0.093623
2.897500000000008,-0.035389,0.250446,0.092859
2.9000000000000057,-0.03394,0.25311,0.091073
2.9025000000000034,-0.035693,0.253852,0.091306
2.905000000000001,-0.036478,0.257196,0.088858
2.907499999999999,-0.037046,0.256429,0.083735
2.9099999999999966,-0.033318,0.260394,0.08095
2.9124999999999943,-0.036788,0.263279,0.077338
2.914999999999992,-0.037003,0.262339,0.074383
2.9174999999999898,-0.035335,0.265544,0.074858
2.920000000000016,-0.034103,0.268037,0.071696
2.9225000000000136,-0.032273,0.270466,0.068761
2.925000000000012,-0.033635,0.266937,0.065043
2.927500000000009,-0.032021,0.269983,0.061583
2.930000000000007,-0.029694,0.271039,0.057467
2.9325000000000045,-0.029798,0.274325,0.05716
2.9350000000000023,-0.031716,0.275231,0.053722
2.9375,-0.030802,0.272349,0.052556
2.9399999999999977,-0.028323,0.278214,0.048632
2.9424999999999955,-0.027822,0.274617,0.048346
2.944999999999993,-0.030465,0.276842,0.044329
2.947499999999991,-0.031354,0.276972,0.047884
2.9499999999999886,-0.028905,0.278904,0.041837
2.952500000000015,-0.026412,0.27942,0.038191
2.9550000000000125,-0.028142,0.278334,0.03675
2.9575000000000102,-0.026868,0.280286,0.032801
2.960000000000008,-0.02348,0.281467,0.03084
2.9625000000000057,-0.019383,0.283682,0.027806
2.9650000000000034,-0.019374,0.284734,0.026191
2.967500000000001,-0.021809,0.283546,0.024042
2.969999999999999,-0.025731,0.28347,0.023649
2.9724999999999966,-0.029635,0.281452,0.021156
2.9749999999999943,-0.027987,0.280664,0.021895
2.977499999999992,-0.02695,0.280169,0.014137
2.9799999999999898,-0.031348,0.278618,0.01634
2.982500000000016,-0.025702,0.274812,0.012995
2.9850000000000136,-0.026664,0.272407,0.011434
2.987500000000012,-0.026202,0.273912,0.007836
2.990000000000009,-0.030498,0.269388,0.008809
2.992500000000007,-0.030804,0.269938,0.008642
2.9950000000000045,-0.030622,0.261075,0.009202
2.9975000000000023,-0.027531,0.260038,0.002866
3.0,-0.030425,0.257454,0.006507
3.0024999999999977,-0.030051,0.260516,0.005534
3.0049999999999955,-0.031379,0.255618,0.005857
3.007499999999993,-0.027937,0.25071,0.007176
3.009999999999991,-0.029415,0.250607,0.007192
3.0124999999999886,-0.025858,0.250512,0.006109
3.015000000000015,-0.032179,0.24276,0.008609
3.0175000000000125,-0.028196,0.247548,0.009232
3.0200000000000102,-0.035757,0.240912,0.003391
3.022500000000008,-0.035375,0.237072,0.012421
3.0250000000000057,-0.036128,0.240258,0.011662
3.0275000000000034,-0.040932,0.237858,0.012275
3.030000000000001,-0.042015,0.238425,0.014596
3.032499999999999,-0.043529,0.235396,0.014775
3.0349999999999966,-0.048418,0.233669,0.015929
3.0374999999999943,-0.052705,0.232907,0.017888
3.039999999999992,-0.053084,0.228872,0.020171
3.0424999999999898,-0.060502,0.223336,0.022461
3.045000000000016,-0.061224,0.227981,0.02195
3.0475000000000136,-0.064607,0.219796,0.02318
3.050000000000012,-0.070113,0.219239,0.023784
3.052500000000009,-0.071909,0.215923,0.023929
3.055000000000007,-0.079113,0.217824,0.027522
3.0575000000000045,-0.079817,0.218194,0.027522
3.0600000000000023,-0.083645,0.208735,0.028022
3.0625,-0.086236,0.215579,0.028452
3.0649999999999977,-0.088559,0.209793,0.031578
3.0674999999999955,-0.092813,0.205789,0.03274
3.069999999999993,-0.09408,0.2063,0.029593
3.072499999999991,-0.096565,0.207026,0.033989
3.0749999999999886,-0.096552,0.212056,0.036912
3.077500000000015,-0.100391,0.201198,0.036692
3.0800000000000125,-0.107296,0.202154,0.036354
3.0825000000000102,-0.106622,0.200409,0.042286
3.085000000000008,-0.10782,0.201536,0.043132
3.0875000000000057,-0.108302,0.196484,0.04357
3.0900000000000034,-0.113718,0.19635,0.046798
3.092500000000001,-0.116326,0.197718,0.044809
3.094999999999999,-0.117488,0.191975,0.050981
3.0974999999999966,-0.118555,0.197528,0.053287
3.0999999999999943,-0.123659,0.195907,0.053783
3.102499999999992,-0.130121,0.196772,0.052311
3.1049999999999898,-0.129314,0.188529,0.058836
3.107500000000016,-0.129516,0.190227,0.056825
3.1100000000000136,-0.131202,0.19112,0.057112
3.112500000000012,-0.13714,0.193668,0.056685
3.115000000000009,-0.137623,0.192603,0.059441
3.117500000000007,-0.138895,0.195359,0.060507
3.1200000000000045,-0.140774,0.19635,0.060793
3.1225000000000023,-0.143145,0.199401,0.063089
3.125,-0.14412,0.195388,0.065707
3.1274999999999977,-0.147705,0.199241,0.06463
3.1299999999999955,-0.14641,0.197642,0.067902
3.132499999999993,-0.150837,0.20081,0.067698
3.134999999999991,-0.152758,0.197988,0.066904
3.1374999999999886,-0.154094,0.202059,0.067288
3.140000000000015,-0.152797,0.201262,0.064466
3.1425000000000125,-0.151955,0.199569,0.06352
3.1450000000000102,-0.148605,0.201725,0.062286
3.147500000000008,-0.150964,0.201527,0.0593
3.1500000000000057,-0.155962,0.20193,0.059405
3.1525000000000034,-0.154144,0.208957,0.056035
3.155000000000001,-0.150637,0.205316,0.054348
3.157499999999999,-0.152627,0.206289,0.053384
3.1599999999999966,-0.148591,0.207555,0.054591
3.1624999999999943,-0.149341,0.209636,0.050334
3.164999999999992,-0.145648,0.210174,0.050511
3.1674999999999898,-0.145994,0.208526,0.050982
3.170000000000016,-0.147063,0.209109,0.050841
3.1725000000000136,-0.143634,0.204527,0.045522
3.175000000000012,-0.142115,0.210866,0.045454
3.177500000000009,-0.139652,0.212797,0.04184
3.180000000000007,-0.139949,0.212324,0.040372
3.1825000000000045,-0.137609,0.208444,0.036607
3.1850000000000023,-0.134566,0.209224,0.035139
3.1875,-0.137459,0.21416,0.037571
3.1899999999999977,-0.136419,0.209453,0.039176
3.1924999999999955,-0.130706,0.212678,0.035117
3.194999999999993,-0.13282,0.20854,0.035482
3.197499999999991,-0.130622,0.212998,0.036318
3.1999999999999886,-0.128022,0.210243,0.035202
3.202500000000015,-0.125612,0.206485,0.030798
3.2050000000000125,-0.119556,0.20524,0.030112
3.2075000000000102,-0.11647,0.202049,0.026669
3.210000000000008,-0.112526,0.210806,0.025418
3.2125000000000057,-0.108384,0.203998,0.023472
3.2150000000000034,-0.11109,0.205369,0.0191
3.217500000000001,-0.10073,0.20454,0.019839
3.219999999999999,-0.096148,0.203467,0.01526
3.2224999999999966,-0.090979,0.198866,0.015376
3.2249999999999943,-0.086103,0.199156,0.00787
3.227499999999992,-0.080118,0.194537,0.006671
3.2299999999999898,-0.077119,0.200174,0.006006
3.232500000000016,-0.070766,0.199766,0.003354
3.2350000000000136,-0.064096,0.201919,0.005456
3.237500000000012,-0.059022,0.199678,-0.001803
3.240000000000009,-0.053124,0.196754,-0.000156
3.242500000000007,-0.050125,0.202487,-1.8e-05
3.2450000000000045,-0.043602,0.200117,-0.003281
3.2475000000000023,-0.040509,0.199176,-0.00511
3.25,-0.032707,0.200094,-0.005268
3.2524999999999977,-0.031896,0.202464,-0.005579
3.2549999999999955,-0.028528,0.201603,-0.002304
3.257499999999993,-0.023608,0.203752,-0.00719
3.259999999999991,-0.023532,0.20152,-0.005834
3.2624999999999886,-0.018229,0.201938,-0.008175
3.265000000000015,-0.013736,0.202604,-0.006874
3.2675000000000125,-0.010893,0.199851,-0.004302
3.2700000000000102,-0.009438,0.197158,-0.005737
3.272500000000008,-0.009479,0.19873,-0.008918
3.2750000000000057,-0.004551,0.198493,-0.006168
3.2775000000000034,-0.000328,0.199001,-0.005779
3.280000000000001,0.000561,0.198457,-0.004433
3.282499999999999,0.002783,0.200851,-0.006466
3.2849999999999966,0.005973,0.199731,-0.00657
3.2874999999999943,0.006218,0.203226,-0.002056
3.289999999999992,0.010294,0.202487,0.002059
3.2924999999999898,0.013394,0.202736,-0.001632
3.295000000000016,0.012972,0.207561,0.001224
3.2975000000000136,0.009043,0.203065,0.001916
3.300000000000012,0.011314,0.20315,0.000849
3.302500000000009,0.018346,0.199898,0.003331
3.305000000000007,0.015324,0.203242,0.004909
3.3075000000000045,0.013884,0.203367,0.006896
3.3100000000000023,0.017894,0.202715,0.006058
3.3125,0.018037,0.205434,0.0039
3.3149999999999977,0.020499,0.203495,0.004572
3.3174999999999955,0.019614,0.204112,0.008049
3.319999999999993,0.021224,0.199898,0.007699
3.322499999999991,0.019542,0.205771,0.011108
3.3249999999999886,0.020958,0.203574,0.010338
3.327500000000015,0.024495,0.204893,0.014087
3.3300000000000125,0.025394,0.204284,0.013123
3.3325000000000102,0.027006,0.205978,0.013506
3.335000000000008,0.024683,0.200915,0.014753
3.3375000000000057,0.026365,0.200494,0.014874
3.3400000000000034,0.027085,0.205014,0.015505
3.342500000000001,0.027104,0.202287,0.019815
3.344999999999999,0.030259,0.204613,0.016216
3.3474999999999966,0.031046,0.19755,0.020497
3.3499999999999943,0.031566,0.205297,0.020581
3.352499999999992,0.030526,0.201591,0.024409
3.3549999999999898,0.037532,0.200454,0.026556
3.357500000000016,0.034872,0.199351,0.027997
3.3600000000000136,0.034859,0.202697,0.023753
3.362500000000012,0.03343,0.201494,0.027398
3.365000000000009,0.036145,0.201472,0.029453
3.367500000000007,0.03512,0.206632,0.028469
3.3700000000000045,0.033889,0.203366,0.030152
3.3725000000000023,0.035106,0.203782,0.033887
3.375,0.03479,0.206519,0.034512
3.3774999999999977,0.034758,0.205619,0.035008
3.3799999999999955,0.031326,0.208882,0.034397
3.382499999999993,0.03,0.209076,0.03748
3.384999999999991,0.029879,0.210433,0.0355
3.3874999999999886,0.027025,0.213083,0.035479
3.390000000000015,0.02734,0.212007,0.038496
3.3925000000000125,0.024804,0.21298,0.040074
3.3950000000000102,0.02382,0.215823,0.043144
3.397500000000008,0.027249,0.215472,0.045154
3.4000000000000057,0.024434,0.214287,0.04022
3.4025000000000034,0.022081,0.220913,0.040897
3.405000000000001,0.022393,0.217687,0.043689
3.407499999999999,0.020471,0.221214,0.044464
3.4099999999999966,0.019627,0.222089,0.047051
3.4124999999999943,0.021883,0.223883,0.045184
3.414999999999992,0.022414,0.220083,0.048072
3.4174999999999898,0.02268,0.219727,0.043475
3.420000000000016,0.020433,0.222715,0.044563
3.4225000000000136,0.021779,0.226536,0.044573
3.425000000000012,0.024115,0.225466,0.046795
3.427500000000009,0.020088,0.225361,0.046235
3.430000000000007,0.025851,0.227324,0.047969
3.4325000000000045,0.025441,0.2253,0.045981
3.4350000000000023,0.029484,0.233576,0.046944
3.4375,0.027937,0.232958,0.044165
3.4399999999999977,0.028039,0.236215,0.046609
3.4424999999999955,0.027423,0.230885,0.046296
3.444999999999993,0.027292,0.235016,0.046027
3.447499999999991,0.024473,0.228206,0.045199
3.4499999999999886,0.026337,0.229058,0.044449
3.452500000000015,0.02319,0.229067,0.044703
3.4550000000000125,0.020225,0.228447,0.044616
3.4575000000000102,0.020625,0.225148,0.045838
3.460000000000008,0.014085,0.235023,0.04475
3.4625000000000057,0.016574,0.226062,0.044545
3.4650000000000034,0.011756,0.228135,0.049359
3.467500000000001,0.013062,0.227936,0.047766
3.469999999999999,0.006905,0.226301,0.046489
3.4724999999999966,0.009404,0.227655,0.046438
3.4749999999999943,0.004036,0.230774,0.045975
3.477499999999992,0.006837,0.233785,0.0445
3.4799999999999898,0.002245,0.231566,0.043558
3.482500000000016,0.003017,0.235034,0.042962
3.4850000000000136,0.000214,0.232493,0.040438
3.487500000000012,-0.001839,0.235259,0.038815
3.490000000000009,-0.003785,0.23294,0.037516
3.492500000000007,-0.004998,0.236525,0.039504
3.4950000000000045,-0.008884,0.235663,0.036391
3.4975000000000023,-0.007522,0.234141,0.035772
3.5,-0.008407,0.232206,0.033098
3.5024999999999977,-0.006551,0.22895,0.033502
3.5049999999999955,-0.009924,0.230593,0.029885
3.507499999999993,-0.007415,0.233566,0.027978
3.509999999999991,-0.008927,0.227939,0.024087
3.5124999999999886,-0.008793,0.229625,0.026176
3.515000000000015,-0.008906,0.232115,0.021743
3.5175000000000125,-0.008343,0.229254,0.018967
3.5200000000000102,-0.012015,0.231414,0.020283
3.522500000000008,-0.011382,0.230449,0.017869
3.5250000000000057,-0.007696,0.230036,0.017338
3.5275000000000034,-0.00868,0.22978,0.019855
3.530000000000001,-0.007683,0.231106,0.013388
3.532499999999999,-0.009191,0.23134,0.014225
3.5349999999999966,-0.011644,0.230939,0.014406
3.5374999999999943,-0.010504,0.224564,0.012217
3.539999999999992,-0.015274,0.230659,0.013471
3.5424999999999898,-0.016814,0.232003,0.010545
3.545000000000016,-0.015534,0.230692,0.008916
3.5475000000000136,-0.020446,0.228439,0.012537
3.550000000000012,-0.023665,0.227184,0.011968
3.552500000000009,-0.02549,0.227367,0.008439
3.555000000000007,-0.027288,0.224923,0.011861
3.5575000000000045,-0.030166,0.224001,0.010438
3.5600000000000023,-0.030446,0.227379,0.011034
3.5625,-0.031501,0.224596,0.009119
3.5649999999999977,-0.034145,0.2201,0.010461
3.5674999999999955,-0.036624,0.219183,0.0094
3.569999999999993,-0.039367,0.219957,0.00611
3.572499999999991,-0.038035,0.219067,0.00849
3.5749999999999886,-0.044732,0.217827,0.007016
3.577500000000015,-0.045991,0.22128,0.010165
3.5800000000000125,-0.051486,0.222649,0.011747
3.5825000000000102,-0.051156,0.223295,0.013908
3.585000000000008,-0.052974,0.218054,0.008791
3.5875000000000057,-0.05458,0.21979,0.01016
3.5900000000000034,-0.055438,0.223192,0.010031
3.592500000000001,-0.059827,0.222016,0.011007
3.594999999999999,-0.062905,0.223135,0.010029
3.5974999999999966,-0.064717,0.222065,0.008317
3.5999999999999943,-0.063816,0.219851,0.011995
3.602499999999992,-0.070034,0.219668,0.010767
3.6049999999999898,-0.071763,0.221891,0.009765
3.607500000000016,-0.074184,0.219405,0.010348
3.6100000000000136,-0.079753,0.218792,0.010454
3.6125000000000114,-0.079852,0.214145,0.009076
3.615000000000009,-0.089276,0.217675,0.010736
3.617500000000007,-0.086306,0.214536,0.013339
3.620000000000005,-0.085634,0.211868,0.009132
3.6225000000000014,-0.085896,0.212794,0.011571
3.625,-0.083621,0.209536,0.008171
3.6274999999999977,-0.087899,0.211153,0.004836
3.629999999999996,-0.085497,0.209982,0.009418
3.632499999999993,-0.087896,0.210214,0.004455
3.634999999999991,-0.086901,0.209432,0.004365
3.6374999999999886,-0.082695,0.207938,0.005115
3.640000000000015,-0.089745,0.205152,0.002442
3.642500000000013,-0.085408,0.205051,0.005687
3.64500000000001,-0.087126,0.205048,0.003947
3.647500000000008,-0.084792,0.208967,0.004316
3.6500000000000057,-0.083752,0.204279,0.002021
3.6525000000000034,-0.088289,0.21081,0.001053
3.655000000000001,-0.085099,0.204504,0.003224
3.657499999999999,-0.086382,0.207549,0.004198
3.6599999999999966,-0.085995,0.205729,0.002771
3.6624999999999934,-0.085406,0.203394,0.000934
3.664999999999992,-0.085582,0.203631,0.001413
3.6674999999999898,-0.083321,0.203275,0.001749
3.670000000000016,-0.083286,0.201216,-1e-06
3.6725000000000136,-0.081098,0.200751,-0.000897
3.6750000000000114,-0.083217,0.204555,0.000393
3.677500000000009,-0.085449,0.202919,-0.001088
3.680000000000007,-0.085941,0.203637,0.003514
3.682500000000005,-0.089638,0.203679,0.006018
3.6850000000000014,-0.085884,0.204597,0.001342
3.6875,-0.08797,0.209291,0.004121
3.6899999999999977,-0.088486,0.208188,0.0043
3.692499999999996,-0.087632,0.206556,0.005078
3.694999999999993,-0.087215,0.206948,0.005636
3.697499999999991,-0.089082,0.208955,0.005398
3.6999999999999886,-0.092749,0.207802,0.004039
3.702500000000015,-0.090103,0.215244,0.007979
3.705000000000013,-0.091422,0.21591,0.010719
3.70750000000001,-0.092353,0.211067,0.011257
3.710000000000008,-0.093928,0.214983,0.012497
3.7125000000000057,-0.096916,0.21707,0.009327
3.7150000000000034,-0.098185,0.215676,0.011341
3.717500000000001,-0.093651,0.217807,0.012833
3.719999999999999,-0.096856,0.220256,0.017401
3.7224999999999966,-0.097249,0.221495,0.014865
3.7249999999999934,-0.098105,0.218665,0.01777
3.727499999999992,-0.095937,0.225205,0.01828
3.7299999999999898,-0.095321,0.221399,0.018019
3.732500000000016,-0.091435,0.222745,0.018919
3.7350000000000136,-0.089145,0.228133,0.016359
3.7375000000000114,-0.087908,0.228893,0.017301
3.740000000000009,-0.08329,0.227492,0.017763
3.742500000000007,-0.083536,0.227802,0.016516
3.745000000000005,-0.085151,0.228507,0.016289
3.7475000000000014,-0.087702,0.227878,0.020198
3.75,-0.08807,0.226501,0.016385
3.7524999999999977,-0.088966,0.229558,0.017679
3.754999999999996,-0.084901,0.227817,0.019359
3.757499999999993,-0.084072,0.231304,0.020462
3.759999999999991,-0.083791,0.230401,0.020967
3.7624999999999886,-0.085884,0.234932,0.020217
3.765000000000015,-0.079852,0.226612,0.022133
3.767500000000013,-0.081176,0.229185,0.019077
3.77000000000001,-0.081493,0.226755,0.021217
3.772500000000008,-0.077401,0.23286,0.016429
3.7750000000000057,-0.079671,0.230855,0.021902
3.7775000000000034,-0.078757,0.231786,0.017831
3.780000000000001,-0.072598,0.232545,0.017598
3.782499999999999,-0.073166,0.233967,0.017352
3.7849999999999966,-0.07083,0.236086,0.017173
3.7874999999999934,-0.066784,0.229193,0.018462
3.789999999999992,-0.06468,0.232229,0.017188
3.7924999999999898,-0.062174,0.230987,0.013424
3.795000000000016,-0.063036,0.232718,0.016955
3.7975000000000136,-0.058013,0.22847,0.015675
3.8000000000000114,-0.054027,0.234019,0.012336
3.802500000000009,-0.055079,0.231121,0.015842
3.805000000000007,-0.051081,0.228196,0.013455
3.807500000000005,-0.051264,0.230905,0.010384
3.8100000000000014,-0.04822,0.227031,0.011398
3.8125,-0.042619,0.230026,0.007122
3.8149999999999977,-0.039563,0.227159,0.010198
3.817499999999996,-0.036043,0.228737,0.00862
3.819999999999993,-0.03449,0.227905,0.005766
3.822499999999991,-0.032884,0.222804,0.007128
3.8249999999999886,-0.031812,0.223137,0.006448
3.827500000000015,-0.030422,0.220301,0.005654
3.830000000000013,-0.02293,0.22284,0.006142
3.83250000000001,-0.023882,0.220554,0.004839
3.835000000000008,-0.020793,0.220477,0.006758
3.8375000000000057,-0.019436,0.219809,0.007952
3.8400000000000034,-0.015894,0.220459,0.004787
3.842500000000001,-0.016297,0.216997,0.005507
3.844999999999999,-0.013064,0.215156,0.004847
3.8474999999999966,-0.012285,0.212535,0.003532
3.8499999999999934,-0.006951,0.214893,0.00554
3.852499999999992,-0.002421,0.213256,0.00219
3.8549999999999898,-0.003572,0.212134,0.001579
3.857500000000016,-0.00014,0.210869,0.004252
3.8600000000000136,0.004575,0.214826,0.002857
3.8625000000000114,0.007955,0.211071,0.002963
3.865000000000009,0.007019,0.213071,0.002264
3.867500000000007,0.008554,0.210484,0.005624
3.870000000000005,0.012156,0.213801,0.005711
3.8725000000000014,0.012843,0.209492,0.006113
3.875,0.011691,0.213366,0.00985
3.8774999999999977,0.014815,0.213534,0.007432
3.879999999999996,0.014503,0.211724,0.010113
3.882499999999993,0.016449,0.210591,0.011072
3.884999999999991,0.013032,0.213746,0.010934
3.8874999999999886,0.012434,0.214373,0.010151
3.890000000000015,0.013948,0.213874,0.016602
3.892500000000013,0.01579,0.212649,0.016495
3.89500000000001,0.013686,0.217939,0.015955
3.897500000000008,0.018429,0.212846,0.016431
3.9000000000000057,0.017057,0.21582,0.015395
3.9025000000000034,0.022415,0.215154,0.017919
3.905000000000001,0.0213,0.212162,0.017513
3.907499999999999,0.020894,0.210317,0.016946
3.9099999999999966,0.022828,0.20776,0.014921
3.9124999999999934,0.023886,0.205509,0.013626
3.914999999999992,0.027203,0.198817,0.012825
3.9174999999999898,0.030053,0.191251,0.012083
3.920000000000016,0.027741,0.183261,0.009086
3.9225000000000136,0.03291,0.178447,0.011218
3.9250000000000114,0.044536,0.169086,0.007216
3.927500000000009,0.04316,0.163165,0.005221
3.930000000000007,0.048719,0.154444,0.004501
3.932500000000005,0.051468,0.142341,0.002507
3.9350000000000014,0.055818,0.132821,0.001168
3.9375,0.061316,0.118048,0.002418
3.9399999999999977,0.066928,0.110818,-0.001168
3.942499999999996,0.061598,0.102671,-0.002833
3.944999999999993,0.069339,0.089619,-0.001806
3.947499999999991,0.065533,0.075973,-0.00284
3.9499999999999886,0.066901,0.069086,0.000211
3.952500000000015,0.062615,0.055385,-0.00069
3.955000000000013,0.060342,0.045542,-0.002329
3.95750000000001,0.054932,0.038988,0.00034
3.960000000000008,0.05329,0.031618,0.00085
3.9625000000000057,0.045321,0.017909,0.001477
3.9650000000000034,0.03942,0.014963,0.001124
3.967500000000001,0.035416,0.006575,0.003255
3.969999999999999,0.027894,0.003029,0.004946
3.9724999999999966,0.020007,-0.003211,0.002294
3.9749999999999934,0.019693,-0.00957,0.006949
3.977499999999992,0.007937,-0.013976,0.007968
3.9799999999999898,0.00314,-0.016421,0.002844
3.982500000000016,5e-06,-0.021227,0.007278
3.9850000000000136,-0.002317,-0.021534,0.004961
3.9875000000000114,-0.00551,-0.026375,0.007778
3.990000000000009,-0.006908,-0.028192,0.006618
3.992500000000007,-0.008741,-0.028424,0.006644
3.995000000000005,-0.008704,-0.027399,0.001293
3.9975000000000014,-0.010607,-0.019649,0.003868
4.0,-0.011846,-0.027946,0.004026
4.002499999999998,-0.012042,-0.023454,0.003914
4.004999999999996,-0.013632,-0.023949,0.004645
4.007499999999993,-0.012878,-0.025316,0.003951
4.009999999999991,-0.013515,-0.021762,0.002148
4.012499999999989,-0.01176,-0.018771,0.003243
4.015000000000015,-0.014444,-0.017996,0.001474
4.0175000000000125,-0.014491,-0.019369,0.000597
4.02000000000001,-0.014868,-0.015776,0.003002
4.022500000000008,-0.012404,-0.011359,0.001714
4.025000000000006,-0.013904,-0.006971,0.003646
4.027500000000003,-0.014266,-0.00688,0.003328
4.030000000000001,-0.010698,-0.000937,0.001877
4.032499999999999,-0.00897,0.00027,0.002003
4.034999999999997,-0.010283,0.005249,0.005732
4.037499999999994,-0.006106,0.007213,0.005157
4.039999999999992,-0.005482,0.006547,0.003897
4.04249999999999,-0.005868,0.00772,0.00369
4.045000000000016,-0.006163,0.007925,0.003319
4.047500000000014,0.000817,0.008928,0.004157
4.050000000000011,-0.000267,0.010891,0.005294
4.052500000000009,0.000412,0.012424,0.007085
4.055000000000007,-0.000633,0.014114,0.006569
4.0575000000000045,0.000171,0.009943,0.008278
4.060000000000002,0.000737,0.010302,0.009816
4.0625,-0.00138,0.013498,0.009202
4.064999999999998,-4e-05,0.01253,0.004176
4.067499999999996,0.002917,0.009622,0.005598
4.069999999999993,-0.002819,0.00883,0.007423
4.072499999999991,-0.001018,0.006915,0.009847
4.074999999999989,0.000744,0.006849,0.00832
4.077500000000015,-0.002193,0.007076,0.008649
4.0800000000000125,0.002848,0.011706,0.005691
4.08250000000001,0.004508,0.010081,0.004102
4.085000000000008,0.001059,0.009473,0.004918
4.087500000000006,0.001601,0.007985,0.005627
4.090000000000003,-0.001411,0.008016,0.001427
4.092500000000001,0.000814,0.007702,-0.000942
4.094999999999999,0.000466,0.005556,-0.000672
4.097499999999997,-0.001161,0.007128,-0.003494
4.099999999999994,0.002363,0.002866,0.000373
4.102499999999992,-0.000554,0.006109,-0.003392
4.10499999999999,0.000525,0.002625,-0.003935
4.107500000000016,-0.006072,0.001317,-0.007129
4.110000000000014,-0.000189,0.004985,-0.004618
4.112500000000011,-0.004292,0.00471,-0.006606
4.115000000000009,-0.001299,0.006563,-0.006767
4.117500000000007,-0.000556,0.0049,-0.0044
4.1200000000000045,-0.004539,0.004179,-0.00481
4.122500000000002,-0.002313,0.005681,-0.008871
4.125,-0.001268,0.009257,-0.00495
4.127499999999998,0.001676,0.006507,-0.005196
4.129999999999996,-0.000533,0.008301,-0.001788
4.132499999999993,-0.003508,0.007435,-0.003441
4.134999999999991,-0.003561,0.011574,-0.001876
4.137499999999989,-0.0038,0.011737,0.001027
4.140000000000015,-0.005242,0.008576,-6.4e-05
4.1425000000000125,-0.002991,0.0095,-0.002319
4.14500000000001,-0.008671,0.013553,-0.001039
4.147500000000008,-0.004138,0.012698,0.000628
4.150000000000006,-0.003079,0.013608,0.006581
4.152500000000003,-0.005388,0.010764,0.004037
4.155000000000001,-0.003523,0.017472,0.003981
4.157499999999999,-0.006023,0.017623,0.007031
4.159999999999997,-0.005269,0.015943,0.003632
4.162499999999994,-0.005025,0.016301,0.005437
4.164999999999992,-0.004108,0.019006,0.00575
4.16749999999999,-0.003387,0.015486,0.006769
4.170000000000016,-0.002639,0.016276,0.005687
4.172500000000014,-0.004639,0.02184,0.008693
4.175000000000011,-0.003931,0.020107,0.006007
4.177500000000009,-0.002594,0.022175,0.006286
4.180000000000007,-0.007021,0.020937,0.006326
4.1825000000000045,-0.001791,0.021971,0.00857
4.185000000000002,-0.001922,0.018363,0.008608
4.1875,-0.001477,0.020588,0.009837
4.189999999999998,-0.00264,0.029058,0.006253
4.192499999999996,-0.002058,0.028369,0.008418
4.194999999999993,0.002972,0.026149,0.006054
4.197499999999991,0.002471,0.027371,0.007351
4.199999999999989,0.000416,0.029337,0.009205
4.202500000000015,-0.002174,0.028551,0.006213
4.2050000000000125,-7.7e-05,0.028666,0.006845
4.20750000000001,-0.001779,0.031438,0.005616
4.210000000000008,2.9e-05,0.029684,0.003447
4.212500000000006,-0.001271,0.035191,0.003128
4.215000000000003,-0.002438,0.026684,0.003586
4.217500000000001,0.000503,0.026277,0.003684
4.219999999999999,-0.000262,0.028963,0.005095
4.222499999999997,-0.000125,0.030323,0.000245
4.224999999999994,-0.001413,0.02863,0.001792
4.227499999999992,-0.004214,0.031,0.001346
4.22999999999999,-0.002359,0.029343,-0.000224
4.232500000000016,-0.004792,0.02597,7.4e-05
4.235000000000014,-0.001082,0.026856,-0.00132
4.237500000000011,-0.00606,0.028645,0.001735
4.240000000000009,-0.006604,0.026558,-0.002867
4.242500000000007,0.002073,0.025321,0.002504
4.2450000000000045,-0.002432,0.027525,-0.00128
4.247500000000002,0.002155,0.025501,0.000406
4.25,-0.000386,0.027473,-0.001459
4.252499999999998,-0.002111,0.026604,9e-05
4.254999999999996,-0.002375,0.027191,-0.000681
4.257499999999993,0.005975,0.021591,-0.000198
4.259999999999991,0.003041,0.02218,-0.004946
4.262499999999989,0.007655,0.021321,-0.002134
4.265000000000015,0.00648,0.022722,-0.003012
4.2675000000000125,0.006997,0.021196,-0.002863
4.27000000000001,0.007329,0.023722,-0.004913
4.272500000000008,0.009956,0.021999,-0.007033
4.275000000000006,0.010435,0.023349,-0.005129
4.277500000000003,0.009131,0.021825,-0.008555
4.280000000000001,0.006486,0.023181,-0.009629
4.282499999999999,0.00745,0.025202,-0.010248
4.284999999999997,0.00437,0.028005,-0.008887
4.287499999999994,0.003969,0.027052,-0.01121
4.289999999999992,-0.000125,0.022908,-0.008193
4.29249999999999,0.005168,0.029162,-0.009021
4.295000000000016,0.005444,0.030354,-0.013264
4.297500000000014,0.000534,0.031739,-0.011091
4.300000000000011,0.002322,0.033314,-0.008871
4.302500000000009,0.006673,0.03171,-0.012195
4.305000000000007,0.006128,0.032096,-0.012867
4.3075000000000045,0.011878,0.032073,-0.010426
4.310000000000002,0.01158,0.027787,-0.013582
4.3125,0.010066,0.029411,-0.012018
4.314999999999998,0.009284,0.0289,-0.008586
4.317499999999996,0.007335,0.030269,-0.012365
4.319999999999993,0.008274,0.030858,-0.006442
4.322499999999991,0.004684,0.028964,-0.008921
4.324999999999989,0.00525,0.028826,-0.009567
4.327500000000015,0.004398,0.031216,-0.0054
4.3300000000000125,0.002008,0.032658,-0.005031
4.33250000000001,0.00366,0.028918,-0.010028
4.335000000000008,0.001865,0.026848,-0.004697
4.337500000000006,0.00376,0.0278,-0.004517
4.340000000000003,0.00489,0.029967,-0.005418
4.342500000000001,0.008427,0.027553,-0.002776
4.344999999999999,0.008097,0.027233,-0.002348
4.347499999999997,0.006629,0.026076,0.002296
4.349999999999994,0.006133,0.023622,-0.001951
4.352499999999992,0.003325,0.026131,-0.000156
4.35499999999999,0.007532,0.022986,0.003519
4.357500000000016,0.003555,0.023382,0.000945
4.360000000000014,0.0051,0.022837,-0.001703
4.362500000000011,0.006147,0.019524,0.000369
4.365000000000009,0.00345,0.0222,0.001272
4.367500000000007,0.002848,0.019651,0.001251
4.3700000000000045,0.002772,0.024147,0.00468
4.372500000000002,0.003576,0.014477,0.003666
4.375,0.007255,0.014801,0.003438
4.377499999999998,0.005045,0.016198,0.003236
4.379999999999996,0.006319,0.015677,0.003926
4.382499999999993,0.004516,0.016169,0.001817
4.384999999999991,0.008047,0.015376,0.003762
4.387499999999989,0.004461,0.016255,-0.000939
4.390000000000015,0.003593,0.01897,-0.003295
4.3925000000000125,0.009003,0.0136,-0.002874
4.39500000000001,0.003133,0.012252,0.002087
4.397500000000008,0.005398,0.015532,-0.001059
4.400000000000006,0.001159,0.018486,-0.00048
4.402500000000003,0.004666,0.01416,-0.001818
4.405000000000001,0.004428,0.012729,-0.000824
4.407499999999999,0.004163,0.012509,-6.6e-05
4.409999999999997,0.003121,0.01416,-0.001818
4.412499999999994,0.004632,0.01112,-0.001545
4.414999999999992,0.002901,0.015865,-0.002803
4.41749999999999,0.002667,0.013415,-0.003958
4.420000000000016,0.003376,0.012753,-0.003166
4.422500000000014,0.003918,0.012609,-0.003348
4.425000000000011,0.002065,0.01468,-0.003622
4.427500000000009,4.2e-05,0.01497,-0.002216
4.430000000000007,0.002242,0.015856,-0.004612
4.4325000000000045,0.002841,0.010126,-0.004926
4.435000000000002,0.000756,0.014522,-0.0034
4.4375,0.003126,0.015172,-0.001381
4.439999999999998,0.003587,0.012537,-0.002614
4.442499999999996,0.003781,0.013427,-0.002722
4.444999999999993,0.006797,0.010554,-0.003408
4.447499999999991,0.00587,0.011434,-0.004262
4.449999999999989,0.001515,0.013378,-0.004381
4.452500000000015,0.001282,0.010248,-0.001562
4.4550000000000125,0.00449,0.008868,-0.006613
4.45750000000001,0.003447,0.012594,-0.005279
4.460000000000008,0.004005,0.010345,-0.007367
4.462500000000006,0.006499,0.014874,-0.005025
4.465000000000003,0.005204,0.013577,-0.006333
4.467500000000001,0.002181,0.013965,-0.003679
4.469999999999999,0.003924,0.012045,-0.004408
4.472499999999997,0.007889,0.00957,-0.004336
4.474999999999994,0.005067,0.012497,-0.004624
4.477499999999992,-4.2e-05,0.012409,-0.007874
4.47999999999999,0.004492,0.008882,-0.005321
4.482500000000016,0.003812,0.013334,-0.004765
4.485000000000014,0.002424,0.010795,-0.004016
4.487500000000011,0.006372,0.012884,-0.005415
4.490000000000009,0.006289,0.009885,-0.00734
4.492500000000007,0.00722,0.013009,-0.005284
4.4950000000000045,0.003297,0.011108,-0.005579
4.497500000000002,0.005173,0.011721,-0.00596
4.5,0.005644,0.007557,-0.006177
4.502499999999998,0.004574,0.009092,-0.006397
4.504999999999996,0.005933,0.009466,-0.004615
4.507499999999993,0.002944,0.013015,-0.001238
4.509999999999991,0.004498,0.011805,-0.004447
4.512499999999989,0.003874,0.011758,-0.003901
4.515000000000015,0.005212,0.009166,-0.002423
4.5175000000000125,0.003848,0.013868,-0.002353
4.52000000000001,0.006212,0.007553,-0.003828
4.522500000000008,0.002014,0.008246,-0.00452
4.525000000000006,0.005988,0.012038,-0.00158
4.527500000000003,0.005933,0.012029,0.00143
4.530000000000001,0.004064,0.014452,-0.00307
4.532499999999999,0.001094,0.012331,-0.00181
4.534999999999997,0.004566,0.013355,-0.005305
4.537499999999994,0.002567,0.01147,-0.006434
4.539999999999992,0.003868,0.010397,-0.002804
4.54249999999999,0.004489,0.009478,-0.005104
4.545000000000016,0.002506,0.010046,-0.009058
4.547500000000014,0.003999,0.009727,-0.007039
4.550000000000011,0.004824,0.010652,-0.006966
4.552500000000009,0.00272,0.004811,-0.004441
4.555000000000007,0.002734,0.009339,-0.002885
4.5575000000000045,0.003359,0.009254,-0.005154
4.560000000000002,0.001682,0.007217,-0.002961
4.5625,0.003231,0.006358,-0.003217
4.564999999999998,0.003468,0.011811,-0.006017
4.567499999999996,0.006945,0.007059,-0.003485
4.569999999999993,0.001659,0.009311,-0.004476
4.572499999999991,0.004508,0.005346,-0.00402
4.574999999999989,0.005438,0.006669,-0.005026
4.577500000000015,0.003471,0.008146,-0.003062
4.5800000000000125,0.000977,0.006548,-0.003716
4.58250000000001,0.001495,0.004771,-0.002566
4.585000000000008,0.002081,0.007627,-0.002912
4.587500000000006,0.005452,0.00396,0.000138
4.590000000000003,0.005085,0.008462,-0.000378
4.592500000000001,0.005924,0.004882,-0.000207
4.594999999999999,0.006001,0.002005,-0.001492
4.597499999999997,0.001692,0.003288,-0.00276
4.599999999999994,0.000357,0.001252,-0.002354
4.602499999999992,2.2e-05,0.000846,-0.001617
4.60499999999999,0.001384,0.002777,-0.001341
4.607500000000016,-0.000852,0.00614,-6.9e-05
4.610000000000014,0.001649,-0.000401,-0.002953
4.612500000000011,0.001692,0.000385,-0.000329
4.615000000000009,0.000798,0.002199,-0.001657
4.617500000000007,0.000318,-2.4e-05,-0.003184
