time,Gyr_X,Gyr_Y,Gyr_Z
0.0,0.001223,0.000419,0.005738
0.0024999999999977,0.001944,0.000981,0.001722
0.0049999999999954,0.003826,-0.00038,0.004921
0.0074999999999931,0.006004,-0.002411,0.002531
0.0099999999999909,0.002771,0.00092,0.003549
0.0124999999999886,0.003307,-0.001682,0.00025
0.0149999999999863,0.001764,-0.001615,0.004371
0.017499999999984,0.00375,0.001956,0.004
0.0199999999999818,0.004084,-0.001153,0.004234
0.0224999999999795,0.005104,0.00096,0.001491
0.0249999999999772,0.00158,0.002044,0.00461
0.0274999999999749,0.001208,-0.000161,0.002537
0.0299999999999727,0.002015,0.001004,0.005961
0.0324999999999704,0.000598,-0.002383,0.003985
0.0349999999999681,0.000457,-0.006786,0.002425
0.0375000000000227,0.001957,-0.00103,0.002602
0.0400000000000204,0.00184,0.00153,0.007347
0.0425000000000181,0.001008,-0.000146,0.004106
0.0450000000000159,0.002947,0.003431,0.002003
0.0475000000000136,0.003154,-0.000641,0.002722
0.0500000000000113,0.0022,-0.000577,0.002585
0.052500000000009,0.002115,-0.003442,0.006124
0.0550000000000068,0.002807,-0.003314,0.005332
0.0575000000000045,-0.000164,0.001488,0.00143
0.0600000000000022,0.004639,-0.000462,0.002954
0.0625,0.002038,-0.000356,0.0051
0.0649999999999977,0.001676,-0.000602,0.002383
0.0674999999999954,0.000214,0.002397,0.002377
0.0699999999999931,0.002184,-0.000204,0.004115
0.0724999999999909,0.002087,-0.001764,0.003249
0.0749999999999886,0.002151,0.004155,0.000907
0.0774999999999863,0.003631,-0.000675,0.00206
0.079999999999984,0.005125,-0.002931,0.003745
0.0824999999999818,0.004377,-0.003576,0.003002
0.0849999999999795,0.005186,-0.001787,0.003376
0.0874999999999772,0.003753,-0.000437,0.003401
0.0899999999999749,0.002926,-0.002038,0.003432
0.0924999999999727,0.003319,0.001533,0.005851
0.0949999999999704,0.004899,0.000853,0.003903
0.0974999999999681,0.001172,0.00306,0.004258
0.1000000000000227,0.006286,0.000293,0.005633
0.1025000000000204,0.00451,-0.002672,0.002823
0.1050000000000181,0.00427,0.000533,0.003169
0.1075000000000159,0.003747,0.000479,0.001591
0.1100000000000136,0.00267,0.002194,0.003185
0.1125000000000113,0.003158,0.002576,0.006216
0.1150000000000091,0.003076,0.002073,0.003328
0.1175000000000068,0.00355,-0.001292,0.001124
0.1200000000000045,0.004629,-0.002487,0.004188
0.1225000000000022,0.005434,-0.002301,0.0049
0.125,0.003884,-0.001115,0.004122
0.1274999999999977,0.007064,-0.001694,0.005461
0.1299999999999954,0.007618,0.001485,0.005207
0.1324999999999931,0.006037,0.001981,0.006784
0.1349999999999909,0.007727,0.001086,0.004684
0.1374999999999886,0.006377,-0.000717,0.006732
0.1399999999999863,0.005906,0.000941,0.004173
0.142499999999984,0.009323,0.002659,0.004824
0.1449999999999818,0.008143,0.000548,0.002836
0.1474999999999795,0.006311,0.000427,0.00644
0.1499999999999772,0.000595,0.002257,0.005541
0.152499999999975,0.011677,-0.000668,0.007521
0.1549999999999727,0.007559,0.000157,0.006691
0.1574999999999704,0.010424,-0.002863,0.006095
0.1599999999999681,0.00869,-0.005284,0.006219
0.1625000000000227,0.007231,-0.000204,0.006656
0.1650000000000204,0.008287,0.000399,0.002856
0.1675000000000182,0.004912,-0.002263,0.008485
0.1700000000000159,0.004577,0.000749,0.008202
0.1725000000000136,0.007064,4e-06,0.007225
0.1750000000000113,0.004096,-0.001194,0.004441
0.1775000000000091,0.006088,-6.4e-05,0.006232
0.1800000000000068,0.005729,-0.000578,0.008181
0.1825000000000045,0.004569,-0.001386,0.007639
0.1850000000000022,0.003629,-0.006033,0.002026
0.1875,0.00275,-0.003509,0.009114
0.1899999999999977,0.000218,-0.002766,0.003756
0.1924999999999954,0.003316,-0.002226,0.003173
0.1949999999999931,0.000627,-0.002952,0.001975
0.1974999999999909,0.00205,-0.003351,0.00147
0.1999999999999886,0.001431,-0.005719,0.001902
0.2024999999999863,0.003285,-0.007355,0.004614
0.204999999999984,0.001139,-0.002599,0.001814
0.2074999999999818,-0.000258,0.003242,0.003461
0.2099999999999795,0.003848,0.004312,0.002684
0.2124999999999772,0.001682,-0.003175,0.004459
0.214999999999975,0.00103,-0.004581,0.003
0.2174999999999727,0.000817,-0.003605,0.000811
0.2199999999999704,0.004042,0.000454,0.001667
0.2224999999999681,0.003103,-0.000867,0.004528
0.2250000000000227,0.001272,-0.000705,0.000498
0.2275000000000204,-0.001529,0.002553,0.000577
0.2300000000000182,0.000285,-0.000936,-0.000376
0.2325000000000159,0.000254,0.0012,0.000771
0.2350000000000136,-0.001526,-0.000708,0.000823
0.2375000000000113,-0.000624,0.003637,0.00314
0.2400000000000091,-0.001486,0.00267,0.000899
0.2425000000000068,0.000798,0.004762,0.003809
0.2450000000000045,-0.002152,-0.003766,0.004057
0.2475000000000022,0.001741,-0.000905,0.000899
0.25,0.004085,-0.002243,-0.000632
0.2524999999999977,-0.000446,-0.003272,0.003283
0.2549999999999954,-0.001305,-0.000642,0.004377
0.2574999999999932,-0.003134,0.000685,0.003519
0.2599999999999909,-0.002046,0.003318,0.000451
0.2624999999999886,0.000579,0.001203,0.005334
0.2649999999999863,-0.002909,0.003432,0.001668
0.2674999999999841,-0.000417,8.6e-05,0.002516
0.2699999999999818,-0.000773,-0.002624,0.003759
0.2724999999999795,-0.000969,0.001634,0.005216
0.2749999999999772,-0.000745,-0.001132,0.002082
0.277499999999975,-0.000148,0.000126,0.006702
0.2799999999999727,0.00288,-0.000124,0.004228
0.2824999999999704,0.002379,-0.000785,0.002325
0.2849999999999681,0.002079,-0.003007,0.002979
0.2875000000000227,-0.000432,-0.003265,0.003841
0.2900000000000204,9.3e-05,-0.000969,0.006575
0.2925000000000182,0.003951,-0.001702,0.003432
0.2950000000000159,0.001027,-0.004227,0.002425
0.2975000000000136,0.001965,-0.001168,0.004459
0.3000000000000113,0.003486,0.000317,0.003593
0.3025000000000091,0.004434,-0.001526,0.000673
0.3050000000000068,-0.00149,-1.8e-05,0.003947
0.3075000000000045,-0.000595,-0.000249,0.000421
0.3100000000000023,-0.001311,-0.00017,0.001583
0.3125,-0.001046,-0.000882,0.002987
0.3149999999999977,0.000251,0.00148,0.005325
0.3174999999999954,0.001284,0.004489,0.002658
0.3199999999999932,0.002249,0.001753,0.002808
0.3224999999999909,0.000755,0.002091,0.001591
0.3249999999999886,0.001474,0.001686,0.002498
0.3274999999999863,0.004932,-0.003949,0.003093
0.3299999999999841,0.003748,-0.001739,0.003096
0.3324999999999818,0.005399,-0.001131,0.00372
0.3349999999999795,0.003568,-0.002068,0.005095
0.3374999999999772,0.003319,-0.000794,0.005453
0.339999999999975,-0.000659,-0.000572,0.004009
0.3424999999999727,0.001224,0.001877,0.003051
0.3449999999999704,0.003957,0.00507,0.008031
0.3474999999999681,0.002623,0.000126,0.001877
0.3500000000000227,-0.001131,0.003593,0.002737
0.3525000000000204,-9.5e-05,-0.000399,0.004657
0.3550000000000182,0.002673,-0.003944,0.005112
0.3575000000000159,0.002334,-0.002122,0.003584
0.3600000000000136,0.002159,-0.001706,0.00537
0.3625000000000113,0.003321,-0.003473,0.00455
0.3650000000000091,0.001846,-0.002508,0.004517
0.3675000000000068,0.003054,-0.000417,0.00472
0.3700000000000045,0.004818,-4.3e-05,0.00382
0.3725000000000023,0.002005,0.0016,0.001975
0.375,0.000911,0.002218,0.00728
0.3774999999999977,0.004899,-9.1e-05,0.004699
0.3799999999999954,0.007068,-0.000107,0.001469
0.3824999999999932,0.000899,-0.003023,0.004055
0.3849999999999909,0.003053,-0.00484,0.002693
0.3874999999999886,0.005206,0.001351,0.007557
0.3899999999999863,0.00327,0.002895,0.002388
0.3924999999999841,0.002766,0.000585,0.002638
0.3949999999999818,0.003307,-0.001796,0.006566
0.3974999999999795,0.005231,-0.000982,0.000722
0.3999999999999772,0.004391,0.000898,0.005478
0.402499999999975,0.002339,-0.001335,0.00403
0.4049999999999727,0.005186,0.000524,0.005674
0.4074999999999704,0.00437,-0.002062,0.004134
0.4099999999999681,0.005458,-0.000636,0.002918
0.4125000000000227,0.007496,-0.004284,0.002866
0.4150000000000204,0.001469,-0.004961,0.003723
0.4175000000000182,0.002068,0.000691,0.003787
0.4200000000000159,0.004023,0.00016,0.003577
0.4225000000000136,0.003757,0.000662,0.005556
0.4250000000000113,0.001325,-0.000769,0.002231
0.4275000000000091,0.003313,0.001217,0.004487
0.4300000000000068,0.004558,-0.000575,0.004717
0.4325000000000045,0.004705,-0.001486,0.002263
0.4350000000000023,0.006004,-8.5e-05,0.004589
0.4375,0.004786,0.000333,0.00189
0.4399999999999977,0.005058,-0.004819,0.002905
0.4424999999999954,0.005055,-0.001927,0.007316
0.4449999999999932,0.007886,-0.000566,0.005593
0.4474999999999909,0.002197,-0.002873,0.002313
0.4499999999999886,0.004078,0.00044,0.006887
0.4524999999999863,0.002252,-0.000224,0.006349
0.4549999999999841,0.005349,-8e-05,0.004373
0.4574999999999818,0.004204,-0.002229,0.002601
0.4599999999999795,0.002769,0.002944,0.008216
0.4624999999999772,0.002781,0.000433,0.004608
0.464999999999975,0.005222,0.003179,0.00511
0.4674999999999727,0.002784,0.002023,0.003453
0.4699999999999704,0.003953,0.002437,0.004957
0.4724999999999681,0.004066,0.00267,0.004943
0.4750000000000227,0.00555,-0.000915,0.006325
0.4775000000000204,0.005152,-0.003424,0.004862
0.4800000000000182,0.003091,0.003102,0.003243
0.4825000000000159,0.002895,0.000503,0.00724
0.4850000000000136,0.004362,0.000616,0.007979
0.4875000000000113,0.00621,0.001568,0.005246
0.4900000000000091,0.001159,0.001568,0.003646
0.4925000000000068,0.004535,0.001112,0.003532
0.4950000000000045,0.006401,-0.000295,0.009439
0.4975000000000023,0.005288,0.00385,0.002321
0.5,0.002518,0.00146,0.007267
0.5024999999999977,0.002516,0.003863,0.005252
0.5049999999999955,0.004118,0.000431,0.000925
0.5074999999999932,0.001479,0.003356,0.004163
0.5099999999999909,0.004341,0.00804,0.006444
0.5124999999999886,0.003067,0.005823,0.003121
0.5149999999999864,-0.000672,0.010716,0.000549
0.5174999999999841,0.002559,0.005641,-0.002497
0.5199999999999818,0.002149,0.00396,-0.000371
0.5224999999999795,9.5e-05,0.005061,0.004151
0.5249999999999773,-0.002633,0.008234,0.001935
0.527499999999975,0.000823,0.009213,0.002889
0.5299999999999727,-0.002754,0.010807,0.001145
0.5324999999999704,0.002655,0.009397,0.000816
0.5349999999999682,-0.000915,0.010914,-0.000146
0.5375000000000227,-0.001708,0.011731,-0.001173
0.5400000000000205,-0.000493,0.011592,-0.00293
0.5425000000000182,0.001045,0.006775,0.000665
0.5450000000000159,0.000448,0.007399,-0.002001
0.5475000000000136,0.000709,0.013091,-0.002788
0.5500000000000114,-4.3e-05,0.011451,-0.000601
0.5525000000000091,0.002684,0.010263,0.001226
0.5550000000000068,0.00153,0.010168,-0.002284
0.5575000000000045,0.001607,0.014221,-0.000975
0.5600000000000023,0.003875,0.011868,0.001394
0.5625,0.003871,0.014255,0.002422
0.5649999999999977,0.002412,0.013123,0.001209
0.5674999999999955,0.005349,0.016939,0.002306
0.5699999999999932,0.003213,0.017283,0.006201
0.5724999999999909,0.002114,0.020192,0.006216
0.5749999999999886,0.00102,0.015026,0.005069
0.5774999999999864,0.001013,0.016489,0.005341
0.5799999999999841,2.3e-05,0.014236,0.003725
0.5824999999999818,-0.002332,0.014346,0.005978
0.5849999999999795,0.000618,0.014866,0.009745
0.5874999999999773,-0.001965,0.016331,0.00759
0.589999999999975,-0.002083,0.014997,0.006414
0.5924999999999727,-0.004333,0.0159,0.007
0.5949999999999704,-0.003077,0.021679,0.004565
0.5974999999999682,-0.002941,0.018244,0.005334
0.6000000000000227,-0.008141,0.018661,0.00931
0.6025000000000205,-0.007072,0.02386,0.009044
0.6050000000000182,-0.007285,0.027128,0.01161
0.6075000000000159,-0.008574,0.027738,0.006331
0.6100000000000136,-0.011802,0.027334,0.00469
0.6125000000000114,-0.010955,0.025233,0.003713
0.6150000000000091,-0.012897,0.030696,0.00158
0.6175000000000068,-0.012058,0.034659,0.002994
0.6200000000000045,-0.012472,0.032324,0.000372
0.6225000000000023,-0.011007,0.029517,0.004537
0.625,-0.010134,0.029705,0.001206
0.6274999999999977,-0.010139,0.030508,0.002544
0.6299999999999955,-0.008802,0.028903,0.00442
0.6324999999999932,-0.011221,0.032841,0.007353
0.6349999999999909,-0.007752,0.026847,0.01001
0.6374999999999886,-0.00769,0.028988,0.007015
0.6399999999999864,-0.007899,0.032034,0.007982
0.6424999999999841,-0.004236,0.033062,0.009168
0.6449999999999818,-0.004785,0.035527,0.009833
0.6474999999999795,-0.003856,0.034475,0.011136
0.6499999999999773,-0.000989,0.035835,0.00957
0.652499999999975,0.003745,0.038255,0.019009
0.6549999999999727,0.007228,0.041262,0.017468
0.6574999999999704,0.009791,0.041694,0.019755
0.6599999999999682,0.01433,0.046078,0.022205
0.6625000000000227,0.015814,0.046112,0.021911
0.6650000000000205,0.016323,0.055998,0.026991
0.6675000000000182,0.021154,0.057255,0.031779
0.6700000000000159,0.023773,0.060942,0.036634
0.6725000000000136,0.025179,0.071084,0.040748
0.6750000000000114,0.029967,0.072927,0.045698
0.6775000000000091,0.030989,0.085253,0.050349
0.6800000000000068,0.035661,0.092275,0.055598
0.6825000000000045,0.033193,0.099779,0.063369
0.6850000000000023,0.036006,0.106857,0.067491
0.6875,0.038237,0.117783,0.080704
0.6899999999999977,0.037891,0.124399,0.088278
0.6924999999999955,0.039636,0.13114,0.09739
0.6949999999999932,0.043615,0.139122,0.107909
0.6974999999999909,0.048047,0.148182,0.115851
0.6999999999999886,0.052998,0.156964,0.126561
0.7024999999999864,0.058281,0.162027,0.134832
0.7049999999999841,0.061554,0.166281,0.141468
0.7074999999999818,0.066365,0.169615,0.155667
0.7099999999999795,0.073739,0.17814,0.165594
0.7124999999999773,0.083094,0.183099,0.173955
0.714999999999975,0.092117,0.185179,0.183413
0.7174999999999727,0.098201,0.184908,0.191439
0.7199999999999704,0.106681,0.187255,0.202618
0.7224999999999682,0.116179,0.187243,0.211201
0.7250000000000227,0.123828,0.186554,0.223731
0.7275000000000205,0.136841,0.184818,0.227366
0.7300000000000182,0.149127,0.180117,0.24602
0.7325000000000159,0.163474,0.178673,0.255129
0.7350000000000136,0.181258,0.181004,0.262416
0.7375000000000114,0.19198,0.175709,0.273445
0.7400000000000091,0.203174,0.173422,0.284954
0.7425000000000068,0.218508,0.174072,0.291271
0.7450000000000045,0.23646,0.171002,0.299133
0.7475000000000023,0.253921,0.171352,0.306208
0.75,0.270154,0.164489,0.31726
0.7524999999999977,0.284586,0.166544,0.324542
0.7549999999999955,0.302217,0.167655,0.333444
0.7574999999999932,0.314479,0.171822,0.338904
0.7599999999999909,0.331768,0.172456,0.348458
0.7624999999999886,0.34169,0.177271,0.359788
0.7649999999999864,0.348749,0.18285,0.366687
0.7674999999999841,0.363483,0.182591,0.374959
0.7699999999999818,0.378408,0.18683,0.382648
0.7724999999999795,0.389526,0.192318,0.387574
0.7749999999999773,0.396698,0.201055,0.393475
0.777499999999975,0.406312,0.206336,0.402579
0.7799999999999727,0.416079,0.209849,0.408315
0.7824999999999704,0.42501,0.21468,0.416865
0.7849999999999682,0.432067,0.21523,0.426284
0.7875000000000227,0.433563,0.22222,0.430097
0.7900000000000205,0.43985,0.22287,0.440197
0.7925000000000182,0.44482,0.222962,0.445331
0.7950000000000159,0.446432,0.224798,0.448748
0.7975000000000136,0.452293,0.222293,0.459122
0.8000000000000114,0.453208,0.224332,0.461752
0.8025000000000091,0.453005,0.222082,0.46742
0.8050000000000068,0.453373,0.21491,0.470803
0.8075000000000045,0.453649,0.212101,0.474002
0.8100000000000023,0.451123,0.207586,0.478568
0.8125,0.451756,0.198894,0.476684
0.8149999999999977,0.445009,0.194242,0.480894
0.8174999999999955,0.441686,0.186621,0.481651
0.8199999999999932,0.440607,0.170923,0.481132
0.8224999999999909,0.436691,0.16434,0.48345
0.8249999999999886,0.433049,0.155401,0.481597
0.8274999999999864,0.424235,0.14387,0.479741
0.8299999999999841,0.414667,0.130323,0.484263
0.8324999999999818,0.407512,0.124288,0.481143
0.8349999999999795,0.4016,0.114814,0.478938
0.8374999999999773,0.390499,0.11071,0.475309
0.839999999999975,0.381128,0.103327,0.474498
0.8424999999999727,0.37384,0.102142,0.470715
0.8449999999999704,0.363227,0.100753,0.464884
0.8474999999999682,0.34942,0.096963,0.46271
0.8500000000000227,0.338639,0.089408,0.45948
0.8525000000000205,0.323617,0.091491,0.4545
0.8550000000000182,0.311875,0.091314,0.44977
0.8575000000000159,0.297505,0.089445,0.449181
0.8600000000000136,0.287237,0.089332,0.442786
0.8625000000000114,0.269216,0.090452,0.441235
0.8650000000000091,0.253981,0.088453,0.432988
0.8675000000000068,0.242234,0.089548,0.427837
0.8700000000000045,0.227845,0.084508,0.428204
0.8725000000000023,0.20607,0.083672,0.422936
0.875,0.195333,0.080726,0.416936
0.8774999999999977,0.178558,0.076758,0.411739
0.8799999999999955,0.163055,0.07197,0.403935
0.8824999999999932,0.148099,0.067704,0.39876
0.8849999999999909,0.129955,0.064779,0.391131
0.8874999999999886,0.116248,0.061075,0.380187
0.8899999999999864,0.096207,0.052699,0.379535
0.8924999999999841,0.079591,0.045405,0.372598
0.8949999999999818,0.064338,0.036538,0.362695
0.8974999999999795,0.049976,0.029523,0.35662
0.8999999999999773,0.035965,0.019286,0.350062
0.902499999999975,0.017735,0.01227,0.344995
0.9049999999999728,0.001248,0.010074,0.33688
0.9074999999999704,-0.009121,0.000826,0.331748
0.9099999999999682,-0.022165,-0.004649,0.32484
0.9125000000000228,-0.034383,-0.013021,0.316554
0.9150000000000204,-0.04908,-0.017215,0.310338
0.9175000000000182,-0.05914,-0.023258,0.306886
0.920000000000016,-0.068775,-0.030325,0.297915
0.9225000000000136,-0.07958,-0.036317,0.29614
0.9250000000000114,-0.085025,-0.040196,0.288715
0.9275000000000092,-0.096743,-0.046344,0.283777
0.9300000000000068,-0.100255,-0.053528,0.278326
0.9325000000000044,-0.108045,-0.057118,0.272859
0.9350000000000024,-0.110148,-0.068304,0.265999
0.9375,-0.117882,-0.07135,0.262796
0.9399999999999976,-0.12432,-0.074957,0.26033
0.9424999999999956,-0.126514,-0.079845,0.254261
0.9449999999999932,-0.128879,-0.083163,0.246651
0.9474999999999908,-0.129768,-0.090422,0.247263
0.9499999999999886,-0.129952,-0.088021,0.242952
0.9524999999999864,-0.131617,-0.094825,0.237795
0.954999999999984,-0.129706,-0.095464,0.232685
0.9574999999999818,-0.132121,-0.105357,0.230557
0.9599999999999796,-0.130907,-0.10493,0.226999
0.9624999999999772,-0.128943,-0.103867,0.224472
0.964999999999975,-0.127305,-0.111315,0.219489
0.9674999999999728,-0.124134,-0.11443,0.222442
0.9699999999999704,-0.119656,-0.11771,0.217801
0.9724999999999682,-0.116739,-0.120476,0.213281
0.9750000000000228,-0.114447,-0.12352,0.211845
0.9775000000000204,-0.108878,-0.130638,0.205749
0.9800000000000182,-0.110464,-0.128374,0.204351
0.982500000000016,-0.10411,-0.125906,0.199895
0.9850000000000136,-0.095557,-0.127661,0.20112
0.9875000000000114,-0.095941,-0.128096,0.198532
0.9900000000000092,-0.093494,-0.128084,0.193461
0.9925000000000068,-0.092709,-0.128602,0.192332
0.9950000000000044,-0.08904,-0.129442,0.190712
0.9975000000000024,-0.084169,-0.130928,0.188158
1.0,-0.080915,-0.133359,0.193084
1.0024999999999975,-0.079283,-0.133897,0.186228
1.0049999999999957,-0.076826,-0.136022,0.188067
1.0074999999999932,-0.074333,-0.136222,0.183863
1.009999999999991,-0.071895,-0.138357,0.188059
1.0124999999999886,-0.065884,-0.13984,0.186246
1.0149999999999864,-0.068696,-0.14251,0.189856
1.017499999999984,-0.061268,-0.143649,0.188842
1.0199999999999818,-0.058761,-0.14289,0.187082
1.0224999999999795,-0.056794,-0.14171,0.189916
1.0249999999999773,-0.057271,-0.141285,0.187344
1.027499999999975,-0.050358,-0.142342,0.189234
1.0299999999999727,-0.04968,-0.141144,0.191095
1.0324999999999704,-0.046164,-0.139879,0.191955
1.0349999999999682,-0.044517,-0.14967,0.195845
1.0375000000000227,-0.043018,-0.143769,0.19942
1.0400000000000205,-0.042501,-0.139719,0.194492
1.0425000000000182,-0.041264,-0.145036,0.201934
1.045000000000016,-0.041801,-0.141178,0.202424
1.0475000000000136,-0.040652,-0.146237,0.206859
1.0500000000000114,-0.038092,-0.142211,0.212283
1.052500000000009,-0.035486,-0.142001,0.21207
1.0550000000000068,-0.034185,-0.142436,0.216558
1.0575000000000043,-0.037155,-0.140932,0.22179
1.0600000000000025,-0.032564,-0.133722,0.224797
1.0625,-0.034642,-0.133745,0.228783
1.0649999999999975,-0.039116,-0.125647,0.235455
1.0674999999999957,-0.038069,-0.126788,0.239106
1.0699999999999932,-0.038604,-0.123878,0.240547
1.072499999999991,-0.040376,-0.121692,0.24491
1.0749999999999886,-0.042069,-0.11916,0.248752
1.0774999999999864,-0.044599,-0.110529,0.252018
1.079999999999984,-0.050016,-0.109755,0.256171
1.0824999999999818,-0.052576,-0.107358,0.259269
1.0849999999999795,-0.055964,-0.102688,0.262473
1.0874999999999773,-0.059846,-0.103612,0.265137
1.089999999999975,-0.059468,-0.096785,0.263122
1.0924999999999727,-0.068757,-0.093083,0.272111
1.0949999999999704,-0.071844,-0.092331,0.268573
1.0974999999999682,-0.078282,-0.088835,0.274954
1.1000000000000227,-0.079429,-0.087224,0.276416
1.1025000000000205,-0.08693,-0.085457,0.277735
1.1050000000000182,-0.094758,-0.081351,0.279691
1.107500000000016,-0.09761,-0.080384,0.282945
1.1100000000000136,-0.102776,-0.081798,0.284552
1.1125000000000114,-0.107093,-0.076617,0.285614
1.115000000000009,-0.111787,-0.075305,0.284479
1.1175000000000068,-0.11612,-0.0746,0.283328
1.1200000000000043,-0.122374,-0.072609,0.286739
1.1225000000000025,-0.127719,-0.0706,0.288815
1.125,-0.131315,-0.071593,0.290702
1.1274999999999975,-0.135939,-0.070533,0.291505
1.1299999999999957,-0.144006,-0.06765,0.2926
1.1324999999999932,-0.14891,-0.06741,0.294613
1.134999999999991,-0.150199,-0.068079,0.293375
1.1374999999999886,-0.157584,-0.062619,0.295339
1.1399999999999864,-0.160336,-0.064525,0.297231
1.142499999999984,-0.170007,-0.061269,0.298107
1.1449999999999818,-0.175372,-0.058757,0.302469
1.1474999999999795,-0.177784,-0.06126,0.298459
1.1499999999999773,-0.184748,-0.056961,0.304506
1.152499999999975,-0.189939,-0.05521,0.300173
1.1549999999999727,-0.196119,-0.054294,0.302925
1.1574999999999704,-0.199381,-0.051764,0.306638
1.1599999999999682,-0.202338,-0.051507,0.30875
1.1625000000000227,-0.210591,-0.051136,0.307482
1.1650000000000205,-0.217703,-0.049193,0.310514
1.1675000000000182,-0.224137,-0.046878,0.310261
1.170000000000016,-0.225893,-0.04618,0.311653
1.1725000000000136,-0.230745,-0.04769,0.309234
1.1750000000000114,-0.233194,-0.046973,0.305452
1.177500000000009,-0.240196,-0.044477,0.306382
1.1800000000000068,-0.2428,-0.038879,0.304941
1.1825000000000043,-0.246494,-0.045824,0.304795
1.1850000000000025,-0.247052,-0.046702,0.301667
1.1875,-0.252631,-0.043717,0.300581
1.1899999999999975,-0.256133,-0.042525,0.300937
1.1924999999999957,-0.260745,-0.047617,0.296692
1.1949999999999932,-0.26127,-0.046386,0.296889
1.197499999999991,-0.263934,-0.049175,0.293947
1.1999999999999886,-0.264816,-0.050381,0.29052
1.2024999999999864,-0.267014,-0.053023,0.291415
1.204999999999984,-0.271396,-0.053929,0.287079
1.2074999999999818,-0.268199,-0.055568,0.287493
1.2099999999999795,-0.265801,-0.056855,0.28914
1.2124999999999773,-0.267047,-0.058293,0.285848
1.214999999999975,-0.269072,-0.058495,0.28699
1.2174999999999727,-0.266904,-0.063103,0.282968
1.2199999999999704,-0.264458,-0.064218,0.279995
1.2224999999999682,-0.267223,-0.063847,0.274938
1.2250000000000227,-0.262465,-0.067599,0.272775
1.2275000000000205,-0.264996,-0.063913,0.265881
1.2300000000000182,-0.264643,-0.061552,0.259026
1.232500000000016,-0.260076,-0.063358,0.256705
1.2350000000000136,-0.256175,-0.060405,0.253544
1.2375000000000114,-0.262377,-0.056811,0.24804
1.240000000000009,-0.262105,-0.058708,0.246454
1.2425000000000068,-0.261501,-0.057615,0.244043
1.2450000000000043,-0.260972,-0.059627,0.2439
1.2475000000000025,-0.263692,-0.05302,0.241727
1.25,-0.259434,-0.057703,0.238765
1.2524999999999975,-0.263968,-0.05431,0.238735
1.2549999999999957,-0.262354,-0.053023,0.23822
1.2574999999999932,-0.263534,-0.05298,0.237379
1.259999999999991,-0.26757,-0.053196,0.232019
1.2624999999999886,-0.263366,-0.052631,0.229057
1.2649999999999864,-0.273111,-0.053339,0.22807
1.267499999999984,-0.267895,-0.047843,0.227706
1.2699999999999818,-0.269802,-0.050041,0.222617
1.2724999999999795,-0.270507,-0.049941,0.220305
1.2749999999999773,-0.278276,-0.048196,0.221468
1.277499999999975,-0.277747,-0.04328,0.216409
1.2799999999999727,-0.283067,-0.039743,0.215716
1.2824999999999704,-0.284402,-0.036539,0.21076
1.2849999999999682,-0.289291,-0.033812,0.210276
1.2875000000000227,-0.293806,-0.027168,0.205348
1.2900000000000205,-0.297865,-0.026657,0.205102
1.2925000000000182,-0.302987,-0.019807,0.204546
1.295000000000016,-0.310783,-0.016813,0.200251
1.2975000000000136,-0.315362,-0.011639,0.204157
1.3000000000000114,-0.324395,-0.009631,0.19943
1.302500000000009,-0.329925,-0.009826,0.203117
1.3050000000000068,-0.339957,-0.004168,0.200994
1.3075000000000043,-0.347838,-0.004436,0.197268
1.3100000000000025,-0.352408,-0.006136,0.198755
1.3125,-0.359403,-0.004004,0.196212
1.3149999999999975,-0.370252,0.000807,0.20029
1.3174999999999957,-0.377662,-0.000666,0.199636
1.3199999999999932,-0.38289,0.000256,0.199144
1.322499999999991,-0.388308,0.00115,0.201409
1.3249999999999886,-0.39698,0.00227,0.200496
1.3274999999999864,-0.402051,0.001714,0.197499
1.329999999999984,-0.411059,0.005835,0.193688
1.3324999999999818,-0.41611,0.007076,0.189924
1.3349999999999795,-0.422679,0.007147,0.191855
1.3374999999999773,-0.427736,0.008879,0.187386
1.339999999999975,-0.433901,0.010017,0.187352
1.3424999999999727,-0.436798,0.010026,0.185809
1.3449999999999704,-0.446181,0.015869,0.180455
1.3474999999999682,-0.449872,0.014567,0.175119
1.3500000000000227,-0.456406,0.012333,0.173683
1.3525000000000205,-0.464465,0.012565,0.167636
1.3550000000000182,-0.468127,0.016653,0.164669
1.357500000000016,-0.474125,0.012162,0.161933
1.3600000000000136,-0.477487,0.016587,0.151346
1.3625000000000114,-0.477847,0.016395,0.147978
1.365000000000009,-0.486599,0.022612,0.140647
1.3675000000000068,-0.490342,0.021058,0.137716
1.3700000000000043,-0.496395,0.020283,0.12862
1.3725000000000025,-0.500025,0.0216,0.120414
1.375,-0.503269,0.025264,0.114798
1.3774999999999975,-0.505695,0.028511,0.10731
1.3799999999999957,-0.510347,0.029502,0.104795
1.3824999999999932,-0.510284,0.027495,0.093067
1.384999999999991,-0.509295,0.028508,0.08825
1.3874999999999886,-0.51363,0.027899,0.083909
1.3899999999999864,-0.511153,0.025927,0.07669
1.392499999999984,-0.51546,0.023886,0.073599
1.3949999999999818,-0.516768,0.021278,0.069468
1.3974999999999795,-0.517753,0.022254,0.065299
1.3999999999999773,-0.518173,0.016706,0.055606
1.402499999999975,-0.519317,0.014951,0.053052
1.4049999999999727,-0.521532,0.017337,0.051331
1.4074999999999704,-0.520209,0.015498,0.050715
1.4099999999999682,-0.522836,0.012159,0.049574
1.4125000000000227,-0.520513,0.014172,0.048161
1.4150000000000205,-0.523169,0.009342,0.049908
1.4175000000000182,-0.520423,0.008059,0.046936
1.420000000000016,-0.513852,0.002719,0.043
1.4225000000000136,-0.513186,-0.0001,0.042406
1.4250000000000114,-0.505778,-0.00509,0.037799
1.427500000000009,-0.504375,-0.008753,0.040168
1.4300000000000068,-0.497538,-0.011264,0.039066
1.4325000000000043,-0.487827,-0.016832,0.034779
1.4350000000000025,-0.483149,-0.019725,0.036631
1.4375,-0.475185,-0.023596,0.033838
1.4399999999999975,-0.466888,-0.026095,0.034484
1.4424999999999957,-0.459154,-0.028905,0.033998
1.4449999999999932,-0.451887,-0.035222,0.033414
1.447499999999991,-0.442235,-0.042765,0.038377
1.4499999999999886,-0.434302,-0.048332,0.039769
1.4524999999999864,-0.425932,-0.054739,0.039657
1.454999999999984,-0.418863,-0.058986,0.042548
1.4574999999999818,-0.405449,-0.064947,0.0419
1.4599999999999795,-0.393404,-0.072667,0.042141
1.4624999999999773,-0.386624,-0.077869,0.041347
1.464999999999975,-0.380266,-0.08004,0.045047
1.4674999999999727,-0.364642,-0.08271,0.040532
1.4699999999999704,-0.355752,-0.086206,0.039244
1.4724999999999682,-0.344797,-0.092486,0.039039
1.4750000000000227,-0.334078,-0.091383,0.038179
1.4775000000000205,-0.322124,-0.092027,0.034633
1.4800000000000182,-0.311855,-0.095287,0.031165
1.482500000000016,-0.29761,-0.09125,0.02882
1.4850000000000136,-0.289249,-0.09312,0.024516
1.4875000000000114,-0.276387,-0.092289,0.020277
1.490000000000009,-0.268048,-0.091022,0.021217
1.4925000000000068,-0.260188,-0.089607,0.016866
1.4950000000000043,-0.245103,-0.088914,0.020216
1.4975000000000025,-0.235516,-0.087669,0.017115
1.5,-0.226297,-0.082892,0.01558
1.5024999999999975,-0.213535,-0.083609,0.013978
1.5049999999999957,-0.203726,-0.081222,0.011977
1.5074999999999932,-0.192119,-0.080985,0.008985
1.509999999999991,-0.183463,-0.081918,0.011375
1.5124999999999886,-0.173563,-0.080012,0.008979
1.5149999999999864,-0.162907,-0.075758,0.004432
1.517499999999984,-0.153619,-0.07668,0.002845
1.5199999999999818,-0.140883,-0.072458,-0.000882
1.5224999999999795,-0.132026,-0.078419,-0.002626
1.5249999999999773,-0.118208,-0.078386,-0.004093
1.527499999999975,-0.111188,-0.073655,-0.009796
1.5299999999999727,-0.100492,-0.073156,-0.013177
1.5324999999999704,-0.08817,-0.075416,-0.017159
1.5349999999999682,-0.078122,-0.076218,-0.021221
1.5375000000000227,-0.06472,-0.075772,-0.027543
1.5400000000000205,-0.059848,-0.079377,-0.03234
1.5425000000000182,-0.04974,-0.078283,-0.031471
1.545000000000016,-0.040862,-0.077809,-0.035773
1.5475000000000136,-0.032581,-0.082791,-0.0407
1.5500000000000114,-0.019781,-0.079429,-0.03904
1.552500000000009,-0.011174,-0.08073,-0.040466
1.5550000000000068,-0.006811,-0.078981,-0.040777
1.5575000000000043,0.005143,-0.078569,-0.042836
1.5600000000000025,0.010922,-0.07825,-0.041951
1.5625,0.019728,-0.074963,-0.042677
1.5649999999999975,0.023686,-0.069675,-0.046913
1.5674999999999957,0.030337,-0.067995,-0.042447
1.5699999999999932,0.036217,-0.068446,-0.043418
1.572499999999991,0.043482,-0.062589,-0.040506
1.5749999999999886,0.048106,-0.058585,-0.043099
1.5774999999999864,0.052447,-0.055921,-0.046185
1.579999999999984,0.055186,-0.052451,-0.04185
1.5824999999999818,0.062134,-0.051755,-0.044358
1.5849999999999795,0.069533,-0.048779,-0.043862
1.5874999999999773,0.075199,-0.044203,-0.046216
1.589999999999975,0.076488,-0.043556,-0.046165
1.5924999999999727,0.082653,-0.042915,-0.046782
1.5949999999999704,0.08559,-0.035562,-0.043815
1.5974999999999682,0.091102,-0.035411,-0.042389
1.6000000000000227,0.098927,-0.03311,-0.043298
1.6025000000000205,0.098904,-0.032893,-0.042
1.6050000000000182,0.102321,-0.028469,-0.040036
1.607500000000016,0.110314,-0.023572,-0.03648
1.6100000000000136,0.111965,-0.028613,-0.038716
1.6125000000000114,0.113844,-0.022553,-0.037162
1.615000000000009,0.118992,-0.018868,-0.034432
1.6175000000000068,0.123873,-0.017674,-0.029722
1.6200000000000043,0.122102,-0.014938,-0.034149
1.6225000000000025,0.125379,-0.009678,-0.030203
1.625,0.131274,-0.012787,-0.025301
1.6274999999999975,0.130514,-0.006449,-0.029032
1.6299999999999957,0.132743,-0.002982,-0.029568
1.6324999999999932,0.139081,0.00153,-0.030257
1.634999999999991,0.138106,0.002519,-0.025678
1.6374999999999886,0.140072,0.006288,-0.025141
1.6399999999999864,0.141802,0.007122,-0.028688
1.642499999999984,0.139319,0.009023,-0.027901
1.6449999999999818,0.139696,0.013582,-0.028647
1.6474999999999795,0.141931,0.016553,-0.027762
1.6499999999999773,0.140121,0.019088,-0.027695
1.652499999999975,0.136089,0.022279,-0.029673
1.6549999999999727,0.135051,0.022914,-0.028867
1.6574999999999704,0.134384,0.025012,-0.028153
1.6599999999999682,0.12709,0.029165,-0.030826
1.6625000000000227,0.123184,0.02966,-0.030069
1.6650000000000205,0.119438,0.031785,-0.029072
1.6675000000000182,0.116406,0.038285,-0.030389
1.670000000000016,0.110572,0.037668,-0.028908
1.6725000000000136,0.10672,0.039861,-0.029869
1.6750000000000114,0.101329,0.036339,-0.026478
1.677500000000009,0.092833,0.042284,-0.028749
1.6800000000000068,0.088181,0.042046,-0.028878
1.6825000000000043,0.083887,0.043777,-0.025506
1.6850000000000025,0.075921,0.042381,-0.02486
1.6875,0.073033,0.049127,-0.023253
1.6899999999999975,0.066096,0.04563,-0.0245
1.6924999999999957,0.060429,0.052422,-0.023147
1.6949999999999932,0.055296,0.053713,-0.020635
1.697499999999991,0.048456,0.055776,-0.020538
1.6999999999999886,0.046065,0.054485,-0.01864
1.7024999999999864,0.033749,0.058503,-0.022176
1.704999999999984,0.032445,0.060483,-0.015143
1.7074999999999818,0.021412,0.063152,-0.011785
1.7099999999999795,0.013889,0.063279,-0.011688
1.7124999999999773,0.011488,0.061598,-0.010477
1.714999999999975,0.0048,0.061437,-0.007737
1.7174999999999727,-0.000414,0.066435,-0.008439
1.7199999999999704,-0.00276,0.064182,-0.009038
1.7224999999999682,-0.008149,0.069004,-0.008282
1.7250000000000227,-0.010589,0.069203,-0.004086
1.7275000000000205,-0.016701,0.06833,-0.000975
1.7300000000000182,-0.024824,0.069118,0.001789
1.732500000000016,-0.025868,0.073329,0.00019
1.7350000000000136,-0.029409,0.071929,0.002131
1.7375000000000114,-0.030757,0.072738,0.004125
1.740000000000009,-0.033291,0.068412,0.005931
1.7425000000000068,-0.041439,0.069132,0.006365
1.7450000000000043,-0.042787,0.068975,0.01233
1.7475000000000025,-0.043684,0.067654,0.014984
1.75,-0.042585,0.067391,0.013416
1.7524999999999975,-0.043648,0.071336,0.016894
1.7549999999999957,-0.048549,0.066524,0.018968
1.7574999999999932,-0.046255,0.064933,0.020935
1.759999999999991,-0.043811,0.061534,0.022257
1.7624999999999886,-0.043873,0.063323,0.02693
1.7649999999999864,-0.043103,0.058963,0.027897
1.767499999999984,-0.041516,0.062586,0.028985
1.7699999999999818,-0.042602,0.055762,0.031029
1.7724999999999795,-0.041676,0.055764,0.0364
1.7749999999999773,-0.038791,0.055448,0.040153
1.777499999999975,-0.039698,0.051136,0.042539
1.7799999999999727,-0.037691,0.054397,0.043965
1.7824999999999704,-0.035989,0.053855,0.053113
1.7849999999999682,-0.038463,0.059112,0.056838
1.7875000000000227,-0.037263,0.049085,0.059145
1.7900000000000205,-0.03804,0.053095,0.063872
1.7925000000000182,-0.032809,0.055406,0.061513
1.795000000000016,-0.038703,0.053843,0.06805
1.7975000000000136,-0.033687,0.050592,0.075812
1.8000000000000114,-0.029254,0.051752,0.075785
1.802500000000009,-0.02915,0.051213,0.08116
1.8050000000000068,-0.025405,0.049362,0.081574
1.8075000000000043,-0.024486,0.051377,0.086807
1.8100000000000025,-0.021987,0.052252,0.086112
1.8125,-0.020047,0.051158,0.086806
1.8149999999999975,-0.016265,0.051806,0.094584
1.8174999999999957,-0.013103,0.05182,0.09655
1.8199999999999927,-0.008571,0.054648,0.104713
1.822499999999991,-0.006595,0.053176,0.104562
1.8249999999999889,-0.003444,0.053138,0.107817
1.8274999999999864,0.001327,0.050374,0.111146
1.829999999999984,0.006767,0.051769,0.117607
1.8324999999999816,0.008722,0.054299,0.120848
1.8349999999999795,0.011631,0.056133,0.122225
1.8374999999999773,0.017609,0.051688,0.129563
1.839999999999975,0.02478,0.053746,0.12999
1.8424999999999727,0.028562,0.051477,0.134689
1.8449999999999704,0.034877,0.055029,0.135418
1.847499999999968,0.041,0.054819,0.144263
1.8500000000000227,0.045105,0.054506,0.145031
1.8525000000000205,0.050566,0.05575,0.148848
1.8550000000000184,0.051776,0.055977,0.151341
1.857500000000016,0.058682,0.051808,0.154016
1.8600000000000136,0.065912,0.056238,0.156759
1.8625000000000116,0.074751,0.054391,0.158536
1.865000000000009,0.080166,0.058997,0.162295
1.8675000000000068,0.083571,0.062988,0.165353
1.8700000000000043,0.090554,0.062976,0.167865
1.8725000000000025,0.095709,0.065944,0.166438
1.875,0.103598,0.065454,0.168645
1.8774999999999975,0.108463,0.071809,0.170838
1.8799999999999957,0.109141,0.073863,0.171345
1.8824999999999927,0.121527,0.076393,0.171434
1.884999999999991,0.128558,0.07951,0.173605
1.8874999999999889,0.12968,0.083845,0.174101
1.8899999999999864,0.137157,0.088292,0.173297
1.892499999999984,0.143673,0.089481,0.174967
1.8949999999999816,0.148577,0.096489,0.172316
1.8974999999999795,0.157534,0.097069,0.170216
1.8999999999999773,0.164994,0.100427,0.168165
1.902499999999975,0.170014,0.103957,0.159889
1.9049999999999727,0.179096,0.105365,0.162043
1.9074999999999704,0.185343,0.111138,0.154152
1.909999999999968,0.192428,0.109669,0.149963
1.9125000000000227,0.200552,0.11323,0.143439
1.9150000000000205,0.211772,0.112344,0.134196
1.9175000000000184,0.21754,0.113482,0.124284
1.920000000000016,0.226281,0.120134,0.111524
1.9225000000000136,0.233524,0.117102,0.099271
1.9250000000000116,0.24355,0.117152,0.086275
1.927500000000009,0.249494,0.121408,0.07251
1.9300000000000068,0.257707,0.12069,0.062417
1.9325000000000043,0.265112,0.115935,0.046835
1.9350000000000025,0.26997,0.117628,0.027771
1.9375,0.278258,0.118836,0.016224
1.9399999999999975,0.289241,0.113983,-0.00741
1.9424999999999957,0.293285,0.112257,-0.028834
1.9449999999999927,0.299453,0.106602,-0.044423
1.947499999999991,0.306477,0.100965,-0.062422
1.9499999999999889,0.315347,0.098132,-0.085869
1.9524999999999864,0.317764,0.092297,-0.108539
1.954999999999984,0.325836,0.086618,-0.131252
1.9574999999999816,0.333313,0.079837,-0.155206
1.9599999999999795,0.333435,0.071152,-0.177477
1.9624999999999773,0.339287,0.06813,-0.2078
1.964999999999975,0.349108,0.058369,-0.232235
1.9674999999999727,0.34695,0.055195,-0.257392
1.9699999999999704,0.350113,0.045472,-0.285022
1.972499999999968,0.354344,0.036211,-0.31001
1.9750000000000227,0.358803,0.027641,-0.337741
1.9775000000000205,0.356876,0.020646,-0.363679
1.9800000000000184,0.356405,0.008666,-0.389445
1.982500000000016,0.358974,0.001212,-0.417298
1.9850000000000136,0.359294,-0.01132,-0.443201
1.9875000000000116,0.35836,-0.024591,-0.470266
1.990000000000009,0.363117,-0.032754,-0.495312
1.9925000000000068,0.360259,-0.041774,-0.520331
1.9950000000000043,0.357207,-0.054255,-0.545684
1.9975000000000025,0.357195,-0.067236,-0.568505
2.0,0.353123,-0.079665,-0.590535
2.0024999999999977,0.354434,-0.088128,-0.616509
2.0049999999999955,0.349563,-0.101371,-0.637256
2.007499999999993,0.349359,-0.106843,-0.662729
2.009999999999991,0.346715,-0.116289,-0.686039
2.0124999999999886,0.344346,-0.130491,-0.70824
2.0149999999999864,0.342692,-0.143829,-0.728716
2.017499999999984,0.332216,-0.150454,-0.757375
2.019999999999982,0.331209,-0.161871,-0.7779
2.0224999999999795,0.327691,-0.175145,-0.794456
2.0249999999999773,0.325842,-0.181966,-0.820546
2.027499999999975,0.320637,-0.194144,-0.83957
2.0299999999999727,0.316087,-0.201817,-0.863326
2.0324999999999704,0.30672,-0.215219,-0.884339
2.034999999999968,0.30013,-0.222977,-0.899531
2.0375000000000227,0.294791,-0.231151,-0.922008
2.0400000000000205,0.287447,-0.241776,-0.937973
2.042500000000018,0.281356,-0.247584,-0.957752
2.045000000000016,0.271957,-0.250591,-0.975573
2.0475000000000136,0.265852,-0.25985,-0.991039
2.050000000000012,0.260765,-0.265649,-1.009433
2.052500000000009,0.249586,-0.268111,-1.028011
2.055000000000007,0.238486,-0.270435,-1.046542
2.0575000000000045,0.231616,-0.27035,-1.067321
2.0600000000000023,0.220845,-0.273849,-1.08096
2.0625,0.214247,-0.27688,-1.096623
2.0649999999999977,0.204376,-0.276442,-1.110387
2.0674999999999955,0.193446,-0.278705,-1.126679
2.069999999999993,0.181145,-0.276022,-1.141623
2.072499999999991,0.174484,-0.272516,-1.153712
2.0749999999999886,0.161738,-0.270958,-1.168044
2.0774999999999864,0.151151,-0.270407,-1.183549
2.079999999999984,0.138051,-0.269044,-1.192867
2.082499999999982,0.128751,-0.264357,-1.205464
2.0849999999999795,0.118173,-0.259253,-1.220237
2.0874999999999773,0.10921,-0.255479,-1.230018
2.089999999999975,0.096887,-0.252389,-1.239117
2.0924999999999727,0.084599,-0.250937,-1.245553
2.0949999999999704,0.072006,-0.239261,-1.258073
2.097499999999968,0.062994,-0.238246,-1.266981
2.1000000000000227,0.051468,-0.237353,-1.269152
2.1025000000000205,0.039565,-0.229009,-1.283298
2.105000000000018,0.027192,-0.224908,-1.290297
2.107500000000016,0.015192,-0.21852,-1.296774
2.1100000000000136,0.003002,-0.21075,-1.306648
2.112500000000012,-0.00726,-0.202726,-1.31317
2.115000000000009,-0.018622,-0.193645,-1.321236
2.117500000000007,-0.036503,-0.185864,-1.328837
2.1200000000000045,-0.046985,-0.176059,-1.334419
2.1225000000000023,-0.061616,-0.169122,-1.34306
2.125,-0.071418,-0.164595,-1.349527
2.1274999999999977,-0.087132,-0.156148,-1.356325
2.1299999999999955,-0.100944,-0.145541,-1.365151
2.132499999999993,-0.115833,-0.138278,-1.373658
2.134999999999991,-0.127332,-0.129628,-1.379805
2.1374999999999886,-0.139932,-0.119735,-1.381329
2.1399999999999864,-0.150462,-0.110984,-1.393843
2.142499999999984,-0.163771,-0.105988,-1.39701
2.144999999999982,-0.179567,-0.098573,-1.40297
2.1474999999999795,-0.192922,-0.089818,-1.408755
2.1499999999999773,-0.205715,-0.081366,-1.415353
2.152499999999975,-0.21108,-0.069068,-1.418694
2.1549999999999727,-0.222072,-0.059319,-1.423077
2.1574999999999704,-0.234366,-0.045812,-1.426057
2.159999999999968,-0.242643,-0.037448,-1.428478
2.1625000000000227,-0.251247,-0.028265,-1.427289
2.1650000000000205,-0.25715,-0.021166,-1.429514
2.167500000000018,-0.264998,-0.008878,-1.429381
2.170000000000016,-0.27702,0.006072,-1.428133
2.1725000000000136,-0.281011,0.016297,-1.425021
2.175000000000012,-0.284313,0.029888,-1.422646
2.177500000000009,-0.288868,0.037216,-1.422917
2.180000000000007,-0.291607,0.042502,-1.419278
2.1825000000000045,-0.296626,0.054146,-1.414568
2.1850000000000023,-0.300825,0.066073,-1.410199
2.1875,-0.300539,0.071024,-1.406824
2.1899999999999977,-0.297424,0.081503,-1.40167
2.1924999999999955,-0.297634,0.087614,-1.402115
2.194999999999993,-0.300111,0.095492,-1.397514
2.197499999999991,-0.294341,0.099935,-1.391371
2.1999999999999886,-0.290297,0.105461,-1.387503
2.2024999999999864,-0.288196,0.117409,-1.383813
2.204999999999984,-0.284705,0.118529,-1.379584
2.207499999999982,-0.278025,0.126655,-1.377971
2.2099999999999795,-0.272539,0.132462,-1.369264
2.2124999999999773,-0.263901,0.13594,-1.367465
2.214999999999975,-0.257881,0.141064,-1.365895
2.2174999999999727,-0.254168,0.149634,-1.35733
2.2199999999999704,-0.241451,0.154213,-1.355378
2.222499999999968,-0.232968,0.157731,-1.349408
2.2250000000000227,-0.223054,0.163374,-1.34153
2.2275000000000205,-0.215244,0.163188,-1.337226
2.230000000000018,-0.201729,0.165392,-1.326316
2.232500000000016,-0.194591,0.167937,-1.31622
2.2350000000000136,-0.183737,0.163888,-1.30484
2.237500000000012,-0.171946,0.160516,-1.295628
2.240000000000009,-0.160222,0.162134,-1.280319
2.242500000000007,-0.149153,0.164504,-1.27088
2.2450000000000045,-0.140721,0.158765,-1.258544
2.2475000000000023,-0.122885,0.160342,-1.24617
2.25,-0.107394,0.155305,-1.232443
2.2524999999999977,-0.095737,0.152927,-1.216284
2.2549999999999955,-0.085531,0.152572,-1.200772
2.257499999999993,-0.066945,0.145441,-1.191438
2.259999999999991,-0.058195,0.142992,-1.171513
2.2624999999999886,-0.043999,0.142206,-1.157138
2.2649999999999864,-0.029902,0.141393,-1.141993
2.267499999999984,-0.01747,0.13935,-1.125843
2.269999999999982,-0.002261,0.139377,-1.105534
2.2724999999999795,0.012229,0.136118,-1.090992
2.2749999999999773,0.026413,0.13414,-1.071678
2.277499999999975,0.039432,0.136013,-1.057071
2.2799999999999727,0.055318,0.128049,-1.038343
2.2824999999999704,0.065345,0.126604,-1.014042
2.284999999999968,0.082684,0.124682,-0.996235
2.2875000000000227,0.094929,0.121949,-0.978261
2.2900000000000205,0.109997,0.121643,-0.95719
2.292500000000018,0.120138,0.118878,-0.936105
2.295000000000016,0.134147,0.115287,-0.918947
2.2975000000000136,0.149214,0.112068,-0.896661
2.300000000000012,0.15913,0.114549,-0.877036
2.302500000000009,0.17078,0.112923,-0.858037
2.305000000000007,0.180652,0.111818,-0.842087
2.3075000000000045,0.193284,0.112335,-0.818417
2.3100000000000023,0.198997,0.112685,-0.795674
2.3125,0.210505,0.106294,-0.77297
2.3149999999999977,0.221253,0.106143,-0.752568
2.3174999999999955,0.227497,0.108139,-0.733288
2.319999999999993,0.234204,0.107988,-0.710185
2.322499999999991,0.240039,0.106858,-0.685386
2.3249999999999886,0.244276,0.103026,-0.667496
2.3274999999999864,0.250659,0.105869,-0.642394
2.329999999999984,0.254468,0.109919,-0.617109
2.332499999999982,0.256877,0.108402,-0.593203
2.3349999999999795,0.259759,0.109863,-0.573553
2.3374999999999773,0.261577,0.110012,-0.547138
2.339999999999975,0.26717,0.110201,-0.523482
2.3424999999999727,0.267843,0.112645,-0.498596
2.3449999999999704,0.265785,0.111284,-0.474888
2.347499999999968,0.263856,0.108769,-0.449227
2.3500000000000227,0.261622,0.112761,-0.424181
2.3525000000000205,0.261777,0.110049,-0.397365
2.355000000000018,0.263473,0.111336,-0.371675
2.357500000000016,0.256199,0.111984,-0.34837
2.3600000000000136,0.257082,0.111195,-0.321616
2.362500000000012,0.249531,0.111813,-0.297304
2.365000000000009,0.248378,0.111834,-0.269681
2.367500000000007,0.240324,0.112074,-0.246763
2.3700000000000045,0.238871,0.108475,-0.220646
2.3725000000000023,0.231805,0.108359,-0.195698
2.375,0.22584,0.10618,-0.171579
2.3774999999999977,0.219607,0.103242,-0.1443
2.3799999999999955,0.213312,0.10367,-0.122011
2.382499999999993,0.203808,0.099278,-0.095566
2.384999999999991,0.196161,0.097125,-0.071967
2.3874999999999886,0.191376,0.091601,-0.04613
2.3899999999999864,0.18399,0.090177,-0.01782
2.392499999999984,0.174182,0.088989,0.00742
2.394999999999982,0.158519,0.085687,0.032959
2.3974999999999795,0.151985,0.084216,0.060388
2.3999999999999773,0.145143,0.082865,0.085119
2.402499999999975,0.135531,0.081076,0.110143
2.4049999999999727,0.120734,0.076021,0.140607
2.4074999999999704,0.114676,0.074463,0.16327
2.409999999999968,0.104166,0.069544,0.187414
2.4125000000000227,0.094251,0.0683,0.211024
2.4150000000000205,0.083093,0.0668,0.241005
2.417500000000018,0.068787,0.062758,0.262322
2.420000000000016,0.058153,0.062839,0.289441
2.4225000000000136,0.051043,0.059972,0.314379
2.425000000000012,0.0374,0.05622,0.337317
2.427500000000009,0.025829,0.053113,0.366492
2.430000000000007,0.016,0.047133,0.389496
2.4325000000000045,0.010117,0.044457,0.411163
2.4350000000000023,-0.005248,0.043432,0.43555
2.4375,-0.012656,0.038414,0.459958
2.4399999999999977,-0.020416,0.033719,0.482907
2.4424999999999955,-0.03202,0.03038,0.506274
2.444999999999993,-0.04327,0.029407,0.527836
2.447499999999991,-0.049055,0.027408,0.549943
2.4499999999999886,-0.053032,0.025206,0.578583
2.4524999999999864,-0.062966,0.02893,0.598825
2.454999999999984,-0.072314,0.025796,0.618812
2.457499999999982,-0.078492,0.028781,0.640412
2.4599999999999795,-0.090741,0.033567,0.665896
2.4624999999999773,-0.092147,0.032916,0.686085
2.464999999999975,-0.100945,0.037821,0.705925
2.4674999999999727,-0.10733,0.041685,0.728125
2.4699999999999704,-0.114068,0.040687,0.746671
2.472499999999968,-0.116287,0.043745,0.769907
2.4750000000000227,-0.12283,0.048386,0.793895
2.4775000000000205,-0.12401,0.049257,0.811946
2.480000000000018,-0.13102,0.052095,0.833864
2.482500000000016,-0.135559,0.050945,0.853946
2.4850000000000136,-0.144427,0.056144,0.874914
2.487500000000012,-0.145386,0.0549,0.894993
2.490000000000009,-0.146854,0.051809,0.917237
2.492500000000007,-0.152367,0.052205,0.935006
2.4950000000000045,-0.154433,0.051845,0.955075
2.4975000000000023,-0.15533,0.051581,0.974605
2.5,-0.156416,0.049899,0.996042
2.5024999999999977,-0.15453,0.039596,1.016925
2.5049999999999955,-0.155349,0.039106,1.034025
2.507499999999993,-0.157529,0.036091,1.049585
2.509999999999991,-0.156376,0.026748,1.072505
2.5124999999999886,-0.154071,0.025847,1.08957
2.5149999999999864,-0.151727,0.021563,1.105946
2.517499999999984,-0.154489,0.010943,1.127252
2.519999999999982,-0.150541,0.007323,1.147392
2.5224999999999795,-0.147536,0.000378,1.166635
2.5249999999999773,-0.142907,-0.003035,1.184863
2.527499999999975,-0.144054,-0.00663,1.205247
2.5299999999999727,-0.141238,-0.011881,1.218232
2.5324999999999704,-0.138626,-0.018591,1.237051
2.534999999999968,-0.139213,-0.020759,1.255506
2.5375000000000227,-0.132544,-0.02058,1.275411
2.5400000000000205,-0.132868,-0.026457,1.290883
2.542500000000018,-0.129011,-0.025995,1.309825
2.545000000000016,-0.124179,-0.027242,1.324017
2.5475000000000136,-0.118449,-0.02653,1.338114
2.550000000000012,-0.114277,-0.027657,1.356517
2.552500000000009,-0.110301,-0.026676,1.375292
2.555000000000007,-0.103916,-0.023712,1.386498
2.5575000000000045,-0.103045,-0.019833,1.401016
2.5600000000000023,-0.096019,-0.013168,1.416776
2.5625,-0.091659,-0.012468,1.433125
2.5649999999999977,-0.084616,-0.010379,1.440047
2.5674999999999955,-0.081039,-0.004865,1.456282
2.569999999999993,-0.075096,-0.000338,1.466215
2.572499999999991,-0.065641,0.001062,1.477812
2.5749999999999886,-0.06161,0.000369,1.486294
2.5774999999999864,-0.055778,0.005098,1.497617
2.579999999999984,-0.05015,0.010508,1.509427
2.582499999999982,-0.044356,0.008158,1.515031
2.5849999999999795,-0.038442,0.015952,1.525815
2.5874999999999773,-0.027806,0.016386,1.532492
2.589999999999975,-0.021546,0.02157,1.543665
2.5924999999999727,-0.019269,0.023258,1.556933
2.5949999999999704,-0.012437,0.022896,1.565038
2.597499999999968,-0.003946,0.026398,1.574682
2.6000000000000227,0.003072,0.026017,1.583632
2.6025000000000205,0.008398,0.030189,1.590911
2.605000000000018,0.015288,0.030284,1.596688
2.607500000000016,0.021937,0.032014,1.604194
2.6100000000000136,0.025631,0.035281,1.613587
2.612500000000012,0.033126,0.040808,1.619086
2.615000000000009,0.040052,0.041205,1.624407
2.617500000000007,0.045422,0.049184,1.631576
2.6200000000000045,0.052639,0.055235,1.636249
2.6225000000000023,0.05726,0.054786,1.646269
2.625,0.060812,0.061102,1.652159
2.6274999999999977,0.065795,0.065639,1.652781
2.6299999999999955,0.070634,0.072757,1.660429
2.632499999999993,0.081237,0.072952,1.663451
2.634999999999991,0.082036,0.069555,1.664231
2.6374999999999886,0.093234,0.075571,1.666362
2.6399999999999864,0.101862,0.080384,1.669305
2.642499999999984,0.104351,0.082517,1.670495
2.644999999999982,0.109365,0.091561,1.668282
2.6474999999999795,0.122251,0.091451,1.670591
2.6499999999999773,0.125606,0.094644,1.668828
2.652499999999975,0.134427,0.098445,1.672328
2.6549999999999727,0.141009,0.099399,1.668908
2.6574999999999704,0.145999,0.100986,1.66891
2.659999999999968,0.152703,0.107168,1.66903
2.6625000000000227,0.160823,0.104155,1.669901
2.6650000000000205,0.168956,0.104082,1.670112
2.667500000000018,0.172871,0.099932,1.668908
2.670000000000016,0.17891,0.096516,1.670793
2.6725000000000136,0.186815,0.094251,1.674501
2.675000000000012,0.194458,0.088338,1.67442
2.677500000000009,0.201292,0.094136,1.673696
2.680000000000007,0.211352,0.083118,1.673778
2.6825000000000045,0.214018,0.087147,1.672631
2.6850000000000023,0.219061,0.089928,1.674843
2.6875,0.228272,0.088353,1.674237
2.6899999999999977,0.230786,0.084858,1.67268
2.6924999999999955,0.24093,0.090634,1.668814
2.694999999999993,0.245298,0.092495,1.664676
2.697499999999991,0.246304,0.094245,1.660304
2.6999999999999886,0.257009,0.100172,1.658512
2.7024999999999864,0.261597,0.10157,1.653593
2.704999999999984,0.264634,0.10557,1.648494
2.707499999999982,0.269497,0.104677,1.643073
2.7099999999999795,0.274455,0.108976,1.642316
2.7124999999999773,0.275289,0.11204,1.636455
2.714999999999975,0.279492,0.114738,1.633767
2.7174999999999727,0.283142,0.117194,1.631314
2.7199999999999704,0.282925,0.115853,1.62585
2.722499999999968,0.282634,0.118245,1.623835
2.7250000000000227,0.285755,0.123897,1.616623
2.7275000000000205,0.287848,0.130329,1.610706
2.730000000000018,0.290296,0.126215,1.606867
2.732500000000016,0.291591,0.125077,1.605176
2.7350000000000136,0.290025,0.130672,1.598083
2.737500000000012,0.289316,0.135825,1.590023
2.740000000000009,0.296513,0.132405,1.583235
2.742500000000007,0.291234,0.136804,1.574675
2.7450000000000045,0.293804,0.135841,1.566167
2.7475000000000023,0.29551,0.140316,1.559967
2.75,0.294977,0.137735,1.552165
2.7524999999999977,0.293529,0.141097,1.537697
2.7549999999999955,0.28989,0.13857,1.530141
2.757499999999993,0.292672,0.14138,1.518214
2.759999999999991,0.291855,0.137986,1.507443
2.7624999999999886,0.292222,0.13532,1.498977
2.7649999999999864,0.29252,0.134259,1.490691
2.767499999999984,0.289608,0.131133,1.476574
2.769999999999982,0.290219,0.132083,1.46623
2.7724999999999795,0.289916,0.123916,1.453029
2.7749999999999773,0.290182,0.12914,1.438941
2.777499999999975,0.288067,0.124876,1.428384
2.7799999999999727,0.282995,0.124296,1.413648
2.7824999999999704,0.282841,0.123508,1.406121
2.784999999999968,0.279414,0.121524,1.393475
2.7875000000000227,0.276589,0.12281,1.379341
2.7900000000000205,0.274568,0.120539,1.365951
2.792500000000018,0.271437,0.122047,1.356727
2.795000000000016,0.268579,0.118318,1.342708
2.7975000000000136,0.260725,0.118976,1.330149
2.800000000000012,0.261871,0.118019,1.31223
2.802500000000009,0.256138,0.122377,1.297675
2.805000000000007,0.252392,0.121511,1.280916
2.8075000000000045,0.242061,0.122767,1.265107
2.8100000000000023,0.236606,0.123442,1.25073
2.8125,0.233349,0.122929,1.232128
2.8149999999999977,0.229784,0.122417,1.215149
2.8174999999999955,0.219511,0.119082,1.191137
2.819999999999993,0.214478,0.121187,1.175844
2.822499999999991,0.207276,0.121094,1.16067
2.8249999999999886,0.197312,0.120422,1.136644
2.8274999999999864,0.194643,0.117337,1.11493
2.829999999999984,0.188207,0.116275,1.09808
2.832499999999982,0.179844,0.118247,1.076282
2.8349999999999795,0.171255,0.116146,1.054036
2.8374999999999773,0.168512,0.11762,1.034086
2.839999999999975,0.159449,0.116482,1.008079
2.8424999999999727,0.152843,0.118364,0.986181
2.8449999999999704,0.139967,0.115878,0.959916
2.847499999999968,0.137507,0.116376,0.936064
2.8500000000000227,0.129182,0.118902,0.911416
2.8525000000000205,0.120438,0.116768,0.893384
2.855000000000018,0.112966,0.118566,0.869899
2.857500000000016,0.105732,0.121457,0.841481
2.8600000000000136,0.093081,0.117748,0.819273
2.862500000000012,0.085852,0.117631,0.792936
2.865000000000009,0.074213,0.121383,0.772109
2.867500000000007,0.068346,0.122095,0.746931
2.8700000000000045,0.058641,0.120018,0.719384
2.8725000000000023,0.051031,0.121094,0.697542
2.875,0.038034,0.12087,0.67097
2.8774999999999977,0.031521,0.120346,0.645762
2.8799999999999955,0.025528,0.121041,0.620564
2.882499999999993,0.01686,0.116669,0.593922
2.884999999999991,0.004003,0.11517,0.567847
2.8874999999999886,-0.002049,0.115161,0.543097
2.8899999999999864,-0.014158,0.113104,0.514936
2.892499999999984,-0.023985,0.112196,0.489625
2.894999999999982,-0.032172,0.107437,0.462624
2.8974999999999795,-0.040741,0.105903,0.434081
2.8999999999999773,-0.048971,0.100894,0.408158
2.902499999999975,-0.058642,0.096556,0.376559
2.9049999999999727,-0.072874,0.0942,0.348055
2.9074999999999704,-0.078557,0.08819,0.327344
2.909999999999968,-0.088325,0.081635,0.301153
2.9125000000000227,-0.101547,0.077482,0.271965
2.9150000000000205,-0.107008,0.077862,0.243834
2.917500000000018,-0.117701,0.072432,0.216509
2.920000000000016,-0.128341,0.067238,0.189737
2.9225000000000136,-0.136752,0.059982,0.162204
2.925000000000012,-0.146049,0.056926,0.133664
2.927500000000009,-0.156353,0.049039,0.108162
2.930000000000007,-0.164774,0.041144,0.081462
2.9325000000000045,-0.171244,0.03942,0.055318
2.9350000000000023,-0.18075,0.032724,0.029948
2.9375,-0.185411,0.027636,0.00137
2.9399999999999977,-0.192858,0.024799,-0.022931
2.9424999999999955,-0.198464,0.020311,-0.04784
2.944999999999993,-0.214151,0.018575,-0.070074
2.947499999999991,-0.214361,0.007195,-0.098345
2.9499999999999886,-0.223735,0.001582,-0.124818
2.9524999999999864,-0.229481,-0.004525,-0.149979
2.954999999999984,-0.23506,-0.011314,-0.178067
2.957499999999982,-0.240497,-0.016342,-0.204206
2.9599999999999795,-0.246055,-0.025791,-0.229327
2.9624999999999773,-0.248191,-0.032909,-0.256073
2.964999999999975,-0.249697,-0.042354,-0.287059
2.9674999999999727,-0.254045,-0.051615,-0.307395
2.9699999999999704,-0.254613,-0.058237,-0.335012
2.972499999999968,-0.260356,-0.06555,-0.356111
2.9750000000000227,-0.259423,-0.073335,-0.387211
2.9775000000000205,-0.257975,-0.081553,-0.409487
2.980000000000018,-0.262196,-0.090279,-0.435469
2.982500000000016,-0.265043,-0.100777,-0.458559
2.9850000000000136,-0.262702,-0.107217,-0.48535
2.987500000000012,-0.263856,-0.120276,-0.503983
2.990000000000009,-0.262426,-0.128116,-0.530711
2.992500000000007,-0.26326,-0.136837,-0.553553
2.9950000000000045,-0.263038,-0.144982,-0.57984
2.9975000000000023,-0.264651,-0.152421,-0.601582
3.0,-0.259803,-0.161162,-0.625412
3.0024999999999977,-0.261934,-0.170223,-0.644308
3.0049999999999955,-0.25743,-0.176229,-0.670245
3.007499999999993,-0.259027,-0.185436,-0.692281
3.009999999999991,-0.254834,-0.19479,-0.710474
3.0124999999999886,-0.252497,-0.201933,-0.737646
3.0149999999999864,-0.250329,-0.206243,-0.752826
3.017499999999984,-0.245167,-0.216478,-0.776583
3.019999999999982,-0.242426,-0.224966,-0.793922
3.0224999999999795,-0.23838,-0.227045,-0.815994
3.0249999999999773,-0.232413,-0.23423,-0.841306
3.027499999999975,-0.225963,-0.242052,-0.857915
3.0299999999999727,-0.22192,-0.252883,-0.879005
3.0324999999999704,-0.221056,-0.259595,-0.899881
3.034999999999968,-0.213973,-0.261042,-0.919934
3.0375000000000227,-0.209649,-0.268683,-0.938882
3.0400000000000205,-0.203323,-0.279558,-0.958725
3.042500000000018,-0.20141,-0.284521,-0.977756
3.045000000000016,-0.197017,-0.296085,-0.997909
3.0475000000000136,-0.191462,-0.297113,-1.016967
3.050000000000012,-0.186582,-0.304657,-1.039003
3.052500000000009,-0.185062,-0.30812,-1.054375
3.055000000000007,-0.17868,-0.316604,-1.071142
3.0575000000000045,-0.174145,-0.317916,-1.089998
3.0600000000000023,-0.173283,-0.319989,-1.105714
3.0625,-0.166527,-0.325552,-1.12618
3.0649999999999977,-0.164793,-0.323795,-1.144597
3.0674999999999955,-0.161752,-0.333777,-1.161679
3.069999999999993,-0.156958,-0.332277,-1.178949
3.072499999999991,-0.152981,-0.331843,-1.193649
3.0749999999999886,-0.150734,-0.331,-1.215306
3.0774999999999864,-0.145677,-0.332472,-1.229652
3.079999999999984,-0.140517,-0.332759,-1.243994
3.082499999999982,-0.140581,-0.332621,-1.259119
3.0849999999999795,-0.13724,-0.332017,-1.272493
3.0874999999999773,-0.1315,-0.335187,-1.286393
3.089999999999975,-0.131224,-0.333843,-1.297318
3.0924999999999727,-0.128774,-0.336304,-1.31337
3.0949999999999704,-0.123021,-0.334329,-1.326889
3.097499999999968,-0.122127,-0.33817,-1.332686
3.1000000000000227,-0.118192,-0.333145,-1.350263
3.1025000000000205,-0.114535,-0.335783,-1.361481
3.105000000000018,-0.114347,-0.332949,-1.374436
3.107500000000016,-0.114541,-0.332968,-1.385369
3.1100000000000136,-0.11517,-0.333972,-1.392313
3.112500000000012,-0.113563,-0.336191,-1.407035
3.115000000000009,-0.111243,-0.335188,-1.415869
3.117500000000007,-0.109775,-0.336102,-1.429441
3.1200000000000045,-0.108993,-0.330359,-1.435683
3.1225000000000023,-0.109509,-0.333171,-1.444488
3.125,-0.113234,-0.328967,-1.457039
3.1274999999999977,-0.110361,-0.331483,-1.463234
3.1299999999999955,-0.107034,-0.326775,-1.472866
3.132499999999993,-0.109109,-0.329451,-1.479327
3.134999999999991,-0.110182,-0.325491,-1.48701
3.1374999999999886,-0.107941,-0.317954,-1.495762
3.1399999999999864,-0.110288,-0.32451,-1.499767
3.142499999999984,-0.109518,-0.317654,-1.501561
3.144999999999982,-0.114599,-0.313649,-1.512148
3.1474999999999795,-0.112289,-0.313303,-1.514211
3.1499999999999773,-0.112844,-0.311716,-1.518954
3.152499999999975,-0.114408,-0.31008,-1.523692
3.1549999999999727,-0.116918,-0.301886,-1.530002
3.1574999999999704,-0.118467,-0.302156,-1.53262
3.159999999999968,-0.119618,-0.299098,-1.540747
3.1625000000000227,-0.11996,-0.295268,-1.544612
3.1650000000000205,-0.119343,-0.291436,-1.550652
3.167500000000018,-0.119093,-0.284757,-1.55237
3.170000000000016,-0.118004,-0.286091,-1.556879
3.1725000000000136,-0.117743,-0.282447,-1.565112
3.175000000000012,-0.119212,-0.283149,-1.569709
3.177500000000009,-0.114565,-0.27716,-1.576227
3.180000000000007,-0.114642,-0.278551,-1.582202
3.1825000000000045,-0.114141,-0.276028,-1.589019
3.1850000000000023,-0.114532,-0.272455,-1.595436
3.1875,-0.109904,-0.26912,-1.599709
3.1899999999999977,-0.109953,-0.26988,-1.60468
3.1924999999999955,-0.108486,-0.271936,-1.611697
3.194999999999993,-0.109889,-0.268309,-1.611745
3.197499999999991,-0.106579,-0.263846,-1.617084
3.1999999999999886,-0.106305,-0.261186,-1.615551
3.2024999999999864,-0.109345,-0.261329,-1.620578
3.204999999999984,-0.10723,-0.256303,-1.62246
3.207499999999982,-0.106393,-0.255403,-1.624784
3.2099999999999795,-0.105937,-0.253654,-1.627314
3.2124999999999773,-0.105104,-0.251191,-1.629603
3.214999999999975,-0.103277,-0.248142,-1.630035
3.2174999999999727,-0.10199,-0.243478,-1.635076
3.2199999999999704,-0.099956,-0.237827,-1.633389
3.222499999999968,-0.1028,-0.234507,-1.633691
3.2250000000000227,-0.101712,-0.227188,-1.638689
3.2275000000000205,-0.099294,-0.220521,-1.642376
3.230000000000018,-0.09862,-0.216408,-1.644061
3.232500000000016,-0.101164,-0.210834,-1.643964
3.2350000000000136,-0.098883,-0.202985,-1.643948
3.237500000000012,-0.098193,-0.19697,-1.650998
3.240000000000009,-0.095257,-0.191674,-1.652305
3.242500000000007,-0.096773,-0.188621,-1.650501
3.2450000000000045,-0.094411,-0.176789,-1.652391
3.2475000000000023,-0.090338,-0.174585,-1.653412
3.25,-0.090002,-0.165925,-1.650934
3.2524999999999977,-0.088099,-0.161563,-1.652099
3.2549999999999955,-0.083479,-0.157417,-1.652771
3.257499999999993,-0.078633,-0.153455,-1.649612
3.259999999999991,-0.077069,-0.146274,-1.648417
3.2624999999999886,-0.073561,-0.145894,-1.646152
3.2649999999999864,-0.067616,-0.142649,-1.646785
3.267499999999984,-0.064361,-0.138435,-1.645226
3.269999999999982,-0.060356,-0.131899,-1.642581
3.2724999999999795,-0.057851,-0.125446,-1.64105
3.2749999999999773,-0.055447,-0.123626,-1.640701
3.277499999999975,-0.048021,-0.127059,-1.638749
3.2799999999999727,-0.041103,-0.117749,-1.635182
3.2824999999999704,-0.040728,-0.116356,-1.632154
3.284999999999968,-0.038052,-0.119153,-1.629375
3.2875000000000227,-0.028138,-0.114663,-1.631505
3.2900000000000205,-0.025189,-0.111117,-1.626955
3.292500000000018,-0.021274,-0.112924,-1.617235
3.295000000000016,-0.01711,-0.107348,-1.615283
3.2975000000000136,-0.015423,-0.114127,-1.609186
3.300000000000012,-0.010146,-0.112636,-1.602998
3.302500000000009,-0.00812,-0.110431,-1.599265
3.305000000000007,-0.008762,-0.111601,-1.58679
3.3075000000000045,-0.005005,-0.111835,-1.576571
3.3100000000000023,-0.001062,-0.107998,-1.566253
3.3125,-0.002694,-0.104575,-1.55791
3.3149999999999977,-0.00152,-0.104973,-1.547212
3.3174999999999955,0.002157,-0.09914,-1.538452
3.319999999999993,0.002996,-0.095028,-1.522643
3.322499999999991,-0.000539,-0.094788,-1.514744
3.3249999999999886,-0.000104,-0.089648,-1.501689
3.3274999999999864,0.006147,-0.085738,-1.487642
3.329999999999984,0.006705,-0.087431,-1.477461
3.332499999999982,0.00745,-0.084859,-1.464946
3.3349999999999795,0.006046,-0.084916,-1.449525
3.3374999999999773,0.012604,-0.082277,-1.431017
3.339999999999975,0.015172,-0.084554,-1.418746
3.3424999999999727,0.013267,-0.083785,-1.403405
3.3449999999999704,0.014719,-0.08173,-1.386604
3.347499999999968,0.019317,-0.08135,-1.367203
3.3500000000000227,0.016428,-0.083098,-1.347843
3.3525000000000205,0.023436,-0.088273,-1.332226
3.355000000000018,0.022147,-0.086725,-1.314183
3.357500000000016,0.029998,-0.086391,-1.297458
3.3600000000000136,0.027137,-0.086698,-1.274495
3.362500000000012,0.02787,-0.090528,-1.260452
3.365000000000009,0.030769,-0.090757,-1.236219
3.367500000000007,0.030559,-0.091082,-1.215823
3.3700000000000045,0.032952,-0.090373,-1.192801
3.3725000000000023,0.033779,-0.094828,-1.170795
3.375,0.032984,-0.088295,-1.14345
3.3774999999999977,0.03492,-0.0907,-1.116914
3.3799999999999955,0.036683,-0.087714,-1.089862
3.382499999999993,0.036935,-0.087456,-1.06559
3.384999999999991,0.037421,-0.086056,-1.03505
3.3874999999999886,0.037981,-0.087008,-1.005174
3.3899999999999864,0.034712,-0.083874,-0.977288
3.392499999999984,0.038435,-0.086191,-0.944263
3.394999999999982,0.036877,-0.084701,-0.91418
3.3974999999999795,0.03854,-0.078867,-0.883122
3.3999999999999773,0.036971,-0.078438,-0.850737
3.402499999999975,0.037559,-0.076966,-0.819101
3.4049999999999727,0.036597,-0.073767,-0.789027
3.4074999999999704,0.039049,-0.074311,-0.752814
3.409999999999968,0.036445,-0.072175,-0.72472
3.4125000000000227,0.038438,-0.070736,-0.69537
3.4150000000000205,0.040244,-0.069071,-0.659145
3.417500000000018,0.038458,-0.070585,-0.627084
3.420000000000016,0.040249,-0.067981,-0.595246
3.4225000000000136,0.037807,-0.066124,-0.560564
3.425000000000012,0.036813,-0.06502,-0.531422
3.427500000000009,0.038775,-0.063249,-0.496292
3.430000000000007,0.038242,-0.057781,-0.46259
3.4325000000000045,0.038878,-0.055869,-0.427148
3.4350000000000023,0.039312,-0.054955,-0.396182
3.4375,0.034568,-0.049742,-0.358783
3.4399999999999977,0.033278,-0.045566,-0.325219
3.4424999999999955,0.030271,-0.040492,-0.293323
3.444999999999993,0.037885,-0.042419,-0.252646
3.447499999999991,0.03136,-0.032519,-0.219224
3.4499999999999886,0.026038,-0.028737,-0.1846
3.4524999999999864,0.030162,-0.024924,-0.151394
3.454999999999984,0.028496,-0.02161,-0.111911
3.457499999999982,0.022968,-0.02145,-0.077772
3.4599999999999795,0.02115,-0.013447,-0.045019
3.4624999999999773,0.016936,-0.008962,-0.009657
3.464999999999975,0.016364,-0.012416,0.025994
3.4674999999999727,0.016109,-0.00775,0.059213
3.4699999999999704,0.017164,-0.001635,0.090512
3.472499999999968,0.012641,0.004818,0.122579
3.4750000000000227,0.012421,0.004245,0.157268
3.4775000000000205,0.011516,0.010995,0.189855
3.480000000000018,0.008325,0.013617,0.221958
3.482500000000016,0.00653,0.017778,0.25114
3.4850000000000136,0.001689,0.019731,0.280213
3.487500000000012,0.000346,0.021202,0.311098
3.490000000000009,-0.000682,0.029138,0.340337
3.492500000000007,-0.00549,0.031029,0.367402
3.4950000000000045,-0.007513,0.037598,0.397945
3.4975000000000023,-0.006409,0.046303,0.426669
3.5,-0.009075,0.0549,0.455391
3.5024999999999977,-0.011997,0.05957,0.480632
3.5049999999999955,-0.01052,0.065882,0.507543
3.507499999999993,-0.015262,0.070079,0.533196
3.509999999999991,-0.019339,0.08084,0.559988
3.5124999999999886,-0.018927,0.088879,0.588491
3.5149999999999864,-0.021631,0.094622,0.610652
3.517499999999984,-0.02272,0.100922,0.64038
3.519999999999982,-0.020128,0.108237,0.661593
3.5224999999999795,-0.026594,0.118839,0.68435
3.5249999999999773,-0.026603,0.125454,0.710148
3.527499999999975,-0.027731,0.135175,0.732339
3.5299999999999727,-0.024778,0.137746,0.760158
3.5324999999999704,-0.026944,0.146852,0.78012
3.534999999999968,-0.030534,0.156949,0.803105
3.5375000000000227,-0.033511,0.157837,0.827157
3.5400000000000205,-0.03251,0.171875,0.847399
3.542500000000018,-0.034027,0.177727,0.873933
3.545000000000016,-0.0339,0.185192,0.891976
3.5475000000000136,-0.039183,0.191747,0.912974
3.550000000000012,-0.039916,0.204723,0.93334
3.552500000000009,-0.043923,0.212491,0.954574
3.555000000000007,-0.042261,0.215762,0.973737
3.5575000000000045,-0.046267,0.225479,0.995427
3.5600000000000023,-0.04734,0.231066,1.010111
3.5625,-0.050414,0.236587,1.030702
3.5649999999999977,-0.049506,0.249662,1.049412
3.5674999999999955,-0.051318,0.25513,1.064719
3.569999999999993,-0.053407,0.259706,1.083724
3.572499999999991,-0.054063,0.265152,1.101173
3.5749999999999886,-0.055236,0.271209,1.119634
3.5774999999999864,-0.054148,0.276078,1.135178
3.579999999999984,-0.059186,0.277592,1.152134
3.582499999999982,-0.056092,0.281038,1.168975
3.5849999999999795,-0.059781,0.286456,1.186529
3.5874999999999773,-0.06002,0.286947,1.202009
3.589999999999975,-0.057255,0.286255,1.214948
3.5924999999999727,-0.058149,0.28329,1.233664
3.5949999999999704,-0.060052,0.280171,1.24473
3.597499999999968,-0.062178,0.274659,1.258454
3.6000000000000227,-0.061524,0.27575,1.273846
3.6025000000000205,-0.06506,0.269579,1.287234
3.605000000000018,-0.062752,0.270999,1.300691
3.607500000000016,-0.061244,0.269681,1.312408
3.6100000000000136,-0.062273,0.267112,1.326398
3.6125000000000114,-0.06465,0.267584,1.338378
3.615000000000009,-0.067093,0.265335,1.349285
3.617500000000007,-0.065918,0.259819,1.365542
3.620000000000005,-0.066897,0.25997,1.373133
3.6225000000000014,-0.070453,0.258625,1.388909
3.625,-0.073876,0.256697,1.399034
3.6274999999999977,-0.067818,0.253312,1.41041
3.629999999999996,-0.074241,0.252239,1.423128
3.632499999999993,-0.073254,0.25344,1.433761
3.634999999999991,-0.076002,0.251208,1.446919
3.6374999999999886,-0.074032,0.251389,1.452915
3.6399999999999855,-0.073257,0.2465,1.46592
3.642499999999984,-0.073391,0.247579,1.471156
3.644999999999982,-0.073981,0.244715,1.476129
3.64749999999998,-0.072621,0.242541,1.48346
3.649999999999977,-0.072883,0.240941,1.486221
3.652499999999975,-0.071609,0.242835,1.49312
3.6549999999999727,-0.070834,0.238221,1.498932
3.6574999999999696,-0.066069,0.23882,1.502697
3.659999999999968,-0.061213,0.237037,1.503435
3.662500000000023,-0.060952,0.231188,1.512434
3.665000000000021,-0.058667,0.23023,1.517871
3.667500000000018,-0.056337,0.229442,1.525161
3.670000000000016,-0.047986,0.227776,1.530053
3.6725000000000136,-0.046533,0.225604,1.537733
3.6750000000000114,-0.046885,0.219495,1.543901
3.677500000000009,-0.04096,0.217968,1.551955
3.680000000000007,-0.038102,0.21373,1.55703
3.682500000000005,-0.033937,0.209905,1.562667
3.6850000000000014,-0.029038,0.210958,1.57004
3.6875,-0.025715,0.211183,1.576631
3.6899999999999977,-0.019427,0.205513,1.582486
3.692499999999996,-0.013767,0.202013,1.588111
3.694999999999993,-0.007772,0.202327,1.593793
3.697499999999991,-0.002177,0.196975,1.595974
3.6999999999999886,0.000461,0.191585,1.595195
3.7024999999999855,0.008769,0.191813,1.602795
3.704999999999984,0.014204,0.185384,1.603753
3.707499999999982,0.019079,0.181342,1.603282
3.70999999999998,0.025222,0.176557,1.607024
3.712499999999977,0.032859,0.17096,1.605787
3.714999999999975,0.036866,0.169595,1.608467
3.7174999999999727,0.044244,0.165818,1.606588
3.7199999999999696,0.048887,0.159866,1.608596
3.722499999999968,0.052222,0.155508,1.609256
3.725000000000023,0.0558,0.157996,1.612848
3.727500000000021,0.063529,0.149863,1.609905
3.730000000000018,0.06517,0.147022,1.612084
3.732500000000016,0.068472,0.14162,1.613346
3.7350000000000136,0.071391,0.137291,1.616779
3.7375000000000114,0.075886,0.12994,1.618374
3.740000000000009,0.077682,0.132751,1.616961
3.742500000000007,0.088448,0.128285,1.616699
3.745000000000005,0.090615,0.120638,1.62014
3.7475000000000014,0.090399,0.120057,1.618818
3.75,0.095251,0.116382,1.617186
3.7524999999999977,0.103118,0.113177,1.614049
3.754999999999996,0.105286,0.108384,1.611209
3.757499999999993,0.108827,0.106949,1.607491
3.759999999999991,0.118842,0.103135,1.607009
3.7624999999999886,0.122931,0.102846,1.60022
3.7649999999999855,0.128356,0.099097,1.596691
3.767499999999984,0.138868,0.091334,1.592881
3.769999999999982,0.143273,0.090968,1.583626
3.77249999999998,0.151228,0.088041,1.577418
3.774999999999977,0.154453,0.082799,1.573541
3.777499999999975,0.162668,0.087483,1.567829
3.7799999999999727,0.1656,0.084356,1.561301
3.7824999999999696,0.173017,0.082802,1.555449
3.784999999999968,0.18008,0.08224,1.550554
3.787500000000023,0.180482,0.084206,1.543257
3.790000000000021,0.181601,0.082993,1.535061
3.792500000000018,0.188191,0.084711,1.532206
3.795000000000016,0.187782,0.080804,1.527427
3.7975000000000136,0.191721,0.078427,1.519045
3.8000000000000114,0.195626,0.078782,1.51632
3.802500000000009,0.197732,0.073945,1.510182
3.805000000000007,0.202546,0.073367,1.502027
3.807500000000005,0.198374,0.069837,1.495126
3.8100000000000014,0.202718,0.065722,1.493359
3.8125,0.206763,0.065238,1.484858
3.8149999999999977,0.206297,0.063173,1.476286
3.817499999999996,0.210794,0.059553,1.468067
3.819999999999993,0.212682,0.061394,1.458743
3.822499999999991,0.211088,0.061441,1.449946
3.8249999999999886,0.215287,0.057123,1.437047
3.8274999999999855,0.215831,0.055342,1.429497
3.829999999999984,0.21765,0.056989,1.418866
3.832499999999982,0.225505,0.054755,1.407814
3.83499999999998,0.225108,0.04954,1.399042
3.837499999999977,0.230207,0.049899,1.388183
3.839999999999975,0.233353,0.047792,1.376723
3.8424999999999727,0.234925,0.041019,1.368724
3.8449999999999696,0.236853,0.042484,1.358512
3.847499999999968,0.240111,0.041764,1.344401
3.850000000000023,0.242189,0.040684,1.330328
3.852500000000021,0.249397,0.040076,1.31544
3.855000000000018,0.251272,0.038826,1.300114
3.857500000000016,0.251731,0.043329,1.287937
3.8600000000000136,0.256329,0.040873,1.268555
3.8625000000000114,0.253525,0.041857,1.254174
3.865000000000009,0.25112,0.0474,1.240036
3.867500000000007,0.258287,0.046407,1.224911
3.870000000000005,0.260232,0.048567,1.209703
3.8725000000000014,0.256731,0.045409,1.197314
3.875,0.253568,0.050268,1.179373
3.8774999999999977,0.258602,0.048607,1.164895
3.879999999999996,0.253131,0.05635,1.146631
3.882499999999993,0.250847,0.051817,1.130019
3.884999999999991,0.249756,0.055524,1.112344
3.8874999999999886,0.246946,0.061276,1.093098
3.8899999999999855,0.244481,0.06633,1.072871
3.892499999999984,0.244805,0.065085,1.049184
3.894999999999982,0.243766,0.070662,1.025991
3.89749999999998,0.240458,0.070209,1.005107
3.899999999999977,0.242377,0.077293,0.979933
3.902499999999975,0.238926,0.080843,0.958476
3.9049999999999727,0.23699,0.082117,0.930364
3.9074999999999696,0.239841,0.082407,0.907108
3.909999999999968,0.230851,0.083489,0.879466
3.912500000000023,0.226864,0.087542,0.854679
3.915000000000021,0.226794,0.09261,0.826269
3.917500000000018,0.221979,0.097584,0.802352
3.920000000000016,0.219766,0.101497,0.774116
3.9225000000000136,0.213523,0.105809,0.754201
3.9250000000000114,0.213198,0.108596,0.727358
3.927500000000009,0.205339,0.113154,0.703349
3.930000000000007,0.197329,0.111979,0.678746
3.932500000000005,0.197471,0.115321,0.651542
3.9350000000000014,0.190847,0.117122,0.625526
3.9375,0.182214,0.119225,0.59961
3.9399999999999977,0.176416,0.118924,0.573383
3.942499999999996,0.168426,0.124697,0.550564
3.944999999999993,0.165077,0.12499,0.524213
3.947499999999991,0.153191,0.127503,0.496771
3.9499999999999886,0.147683,0.127677,0.466909
3.9524999999999855,0.141188,0.131053,0.439445
3.954999999999984,0.126966,0.129867,0.410468
3.957499999999982,0.119104,0.128829,0.382648
3.95999999999998,0.115576,0.127595,0.354654
3.962499999999977,0.100414,0.129905,0.325541
3.964999999999975,0.091521,0.132877,0.293679
3.9674999999999727,0.079107,0.130665,0.268296
3.9699999999999696,0.068259,0.128024,0.232855
3.972499999999968,0.056275,0.124194,0.208484
3.975000000000023,0.045346,0.125418,0.178409
3.977500000000021,0.033433,0.122967,0.145438
3.980000000000018,0.017656,0.125019,0.115209
3.982500000000016,0.007159,0.121283,0.089689
3.9850000000000136,-0.00703,0.118198,0.058854
3.9875000000000114,-0.018929,0.118876,0.032071
3.990000000000009,-0.033873,0.121256,-0.001781
3.992500000000007,-0.047198,0.115309,-0.027619
3.995000000000005,-0.053789,0.113482,-0.056596
3.9975000000000014,-0.075716,0.11219,-0.088319
4.0,-0.088702,0.11218,-0.115454
4.002499999999998,-0.097686,0.112746,-0.14739
4.004999999999996,-0.11248,0.110013,-0.174838
4.007499999999993,-0.129029,0.109125,-0.204428
4.009999999999991,-0.141467,0.103774,-0.234218
4.012499999999989,-0.151208,0.104732,-0.26315
4.014999999999986,-0.163566,0.106887,-0.290917
4.017499999999984,-0.17157,0.098104,-0.320035
4.019999999999982,-0.185388,0.099465,-0.346364
4.02249999999998,-0.191601,0.097214,-0.375305
4.024999999999977,-0.203744,0.096289,-0.403357
4.027499999999975,-0.21604,0.091869,-0.430104
4.029999999999973,-0.226869,0.08843,-0.457454
4.03249999999997,-0.234796,0.086092,-0.484148
4.034999999999968,-0.242442,0.078928,-0.511293
4.037500000000023,-0.250772,0.075396,-0.534213
4.0400000000000205,-0.261408,0.069108,-0.56459
4.042500000000018,-0.265738,0.067167,-0.590493
4.045000000000016,-0.275259,0.053077,-0.615178
4.047500000000014,-0.283009,0.052614,-0.641711
4.050000000000011,-0.286374,0.045124,-0.664446
4.052500000000009,-0.292103,0.031925,-0.687808
4.055000000000007,-0.300229,0.026429,-0.716004
4.0575000000000045,-0.303276,0.017846,-0.742296
4.060000000000002,-0.308864,0.008295,-0.765944
4.0625,-0.314416,-0.004154,-0.790197
4.064999999999998,-0.318326,-0.010294,-0.81399
4.067499999999996,-0.328218,-0.019528,-0.8405
4.069999999999993,-0.325352,-0.033501,-0.860624
4.072499999999991,-0.329076,-0.038627,-0.88708
4.074999999999989,-0.335023,-0.051683,-0.909953
4.077499999999986,-0.339222,-0.061995,-0.932804
4.079999999999984,-0.342223,-0.067388,-0.956145
4.082499999999982,-0.346466,-0.077948,-0.980076
4.08499999999998,-0.345245,-0.089492,-1.001895
4.087499999999977,-0.350568,-0.097998,-1.024685
4.089999999999975,-0.353502,-0.109308,-1.048312
4.092499999999973,-0.349762,-0.11794,-1.066232
4.09499999999997,-0.352137,-0.12729,-1.089341
4.097499999999968,-0.355491,-0.138015,-1.11236
4.100000000000023,-0.35228,-0.146447,-1.130432
4.1025000000000205,-0.352827,-0.154828,-1.153958
4.105000000000018,-0.352806,-0.167556,-1.173842
4.107500000000016,-0.34928,-0.175874,-1.192661
4.110000000000014,-0.348172,-0.183164,-1.217689
4.112500000000011,-0.34768,-0.194916,-1.234046
4.115000000000009,-0.343309,-0.199445,-1.255541
4.117500000000007,-0.338505,-0.212614,-1.27271
4.1200000000000045,-0.333624,-0.223728,-1.292813
4.122500000000002,-0.327964,-0.229617,-1.311048
4.125,-0.327352,-0.243779,-1.329801
4.127499999999998,-0.323047,-0.252803,-1.345972
4.129999999999996,-0.319793,-0.262046,-1.364224
4.132499999999993,-0.314652,-0.268729,-1.38398
4.134999999999991,-0.305417,-0.283176,-1.396602
4.137499999999989,-0.302482,-0.288291,-1.412583
4.139999999999986,-0.297518,-0.296265,-1.430521
4.142499999999984,-0.291559,-0.305583,-1.445086
4.144999999999982,-0.278688,-0.309301,-1.458676
4.14749999999998,-0.274062,-0.319022,-1.476749
4.149999999999977,-0.264383,-0.323601,-1.492969
4.152499999999975,-0.261063,-0.33152,-1.505854
4.154999999999973,-0.255537,-0.33485,-1.517567
4.15749999999997,-0.245118,-0.345898,-1.5382
4.159999999999968,-0.23582,-0.34926,-1.551204
4.162500000000023,-0.228392,-0.349978,-1.565298
4.1650000000000205,-0.216529,-0.354904,-1.579703
4.167500000000018,-0.207387,-0.357139,-1.594437
4.170000000000016,-0.196473,-0.368063,-1.609689
4.172500000000014,-0.194919,-0.374569,-1.623623
4.175000000000011,-0.18166,-0.378906,-1.634213
4.177500000000009,-0.17184,-0.384541,-1.642801
4.180000000000007,-0.16193,-0.388661,-1.654419
4.1825000000000045,-0.153901,-0.389749,-1.661251
4.185000000000002,-0.143375,-0.397712,-1.672992
4.1875,-0.138691,-0.398878,-1.6857
4.189999999999998,-0.130825,-0.40275,-1.6901
4.192499999999996,-0.119466,-0.40789,-1.700824
4.194999999999993,-0.112593,-0.409349,-1.708236
4.197499999999991,-0.10384,-0.411794,-1.712483
4.199999999999989,-0.095156,-0.415528,-1.717766
4.202499999999986,-0.092997,-0.417181,-1.722972
4.204999999999984,-0.081697,-0.417972,-1.729992
4.207499999999982,-0.074177,-0.422945,-1.736176
4.20999999999998,-0.067148,-0.424481,-1.736519
4.212499999999977,-0.059819,-0.425324,-1.739018
4.214999999999975,-0.054172,-0.426481,-1.747689
4.217499999999973,-0.044473,-0.42314,-1.752678
4.21999999999997,-0.034443,-0.428051,-1.751575
4.222499999999968,-0.030497,-0.429184,-1.759091
4.225000000000023,-0.024748,-0.427416,-1.763713
4.2275000000000205,-0.015919,-0.420812,-1.766297
4.230000000000018,-0.008217,-0.423815,-1.770163
4.232500000000016,-0.006384,-0.422423,-1.770756
4.235000000000014,0.003719,-0.425332,-1.775709
4.237500000000011,0.011336,-0.423156,-1.777844
4.240000000000009,0.014906,-0.421307,-1.781763
4.242500000000007,0.021925,-0.415561,-1.785067
4.2450000000000045,0.024117,-0.40968,-1.785258
4.247500000000002,0.027933,-0.409405,-1.783957
4.25,0.035829,-0.403536,-1.786238
4.252499999999998,0.040256,-0.39725,-1.785579
4.254999999999996,0.044272,-0.38623,-1.782836
4.257499999999993,0.052144,-0.384035,-1.780374
4.259999999999991,0.055892,-0.381561,-1.781815
4.262499999999989,0.059169,-0.375752,-1.77694
4.264999999999986,0.065624,-0.366508,-1.779534
4.267499999999984,0.071753,-0.361187,-1.772626
4.269999999999982,0.076317,-0.354494,-1.769632
4.27249999999998,0.075338,-0.351027,-1.76755
4.274999999999977,0.081583,-0.341599,-1.759896
4.277499999999975,0.083522,-0.333718,-1.758532
4.279999999999973,0.088098,-0.32748,-1.751082
4.28249999999997,0.089818,-0.322065,-1.747468
4.284999999999968,0.091915,-0.314756,-1.737504
4.287500000000023,0.09454,-0.308292,-1.735394
4.2900000000000205,0.097104,-0.301546,-1.724055
4.292500000000018,0.098512,-0.296563,-1.714885
4.295000000000016,0.101995,-0.287283,-1.710352
4.297500000000014,0.098703,-0.279495,-1.702948
4.300000000000011,0.101771,-0.271249,-1.692003
4.302500000000009,0.09973,-0.260958,-1.684995
4.305000000000007,0.101414,-0.253149,-1.675945
4.3075000000000045,0.103299,-0.245172,-1.665237
4.310000000000002,0.10368,-0.231257,-1.654751
4.3125,0.1043,-0.222349,-1.641728
4.314999999999998,0.102811,-0.210755,-1.631187
4.317499999999996,0.100624,-0.200223,-1.622831
4.319999999999993,0.100719,-0.190552,-1.609513
4.322499999999991,0.100911,-0.178181,-1.595529
4.324999999999989,0.097797,-0.163905,-1.580753
4.327499999999986,0.099645,-0.153755,-1.565893
4.329999999999984,0.094489,-0.135109,-1.553675
4.332499999999982,0.098468,-0.127427,-1.537859
4.33499999999998,0.097198,-0.113475,-1.527257
4.337499999999977,0.092917,-0.098969,-1.509374
4.339999999999975,0.088453,-0.089122,-1.492592
4.342499999999973,0.086855,-0.077517,-1.47597
4.34499999999997,0.085639,-0.065336,-1.459292
4.347499999999968,0.083444,-0.048678,-1.441344
4.350000000000023,0.082964,-0.043483,-1.420929
4.3525000000000205,0.078037,-0.028914,-1.39906
4.355000000000018,0.078451,-0.021382,-1.382997
4.357500000000016,0.07701,-0.013016,-1.360152
4.360000000000014,0.079628,0.004985,-1.337612
4.362500000000011,0.07296,0.01388,-1.318482
4.365000000000009,0.073921,0.022583,-1.298343
4.367500000000007,0.072115,0.031272,-1.271879
4.3700000000000045,0.077226,0.040538,-1.248992
4.372500000000002,0.073704,0.049685,-1.223861
4.375,0.073261,0.052976,-1.199089
4.377499999999998,0.070689,0.062873,-1.176914
4.379999999999996,0.072037,0.068883,-1.151534
4.382499999999993,0.076025,0.076527,-1.125937
4.384999999999991,0.07847,0.081866,-1.10291
4.387499999999989,0.076737,0.084279,-1.076313
4.389999999999986,0.074527,0.09552,-1.052407
4.392499999999984,0.075825,0.102354,-1.025361
4.394999999999982,0.0728,0.105874,-0.997503
4.39749999999998,0.073705,0.111824,-0.968163
4.399999999999977,0.075857,0.121588,-0.943595
4.402499999999975,0.074505,0.12468,-0.917255
4.404999999999973,0.073855,0.136391,-0.88834
4.40749999999997,0.072008,0.139524,-0.86304
4.409999999999968,0.072306,0.142647,-0.832896
4.412500000000023,0.076006,0.149225,-0.805855
4.4150000000000205,0.069363,0.155879,-0.771874
4.417500000000018,0.072127,0.1567,-0.743702
4.420000000000016,0.074301,0.163163,-0.712872
4.422500000000014,0.069066,0.164663,-0.683534
4.425000000000011,0.065931,0.169116,-0.651367
4.427500000000009,0.069483,0.171458,-0.618438
4.430000000000007,0.066983,0.178019,-0.589959
4.4325000000000045,0.069844,0.184583,-0.554991
4.435000000000002,0.068217,0.185124,-0.52577
4.4375,0.064882,0.193427,-0.492564
4.439999999999998,0.064933,0.196666,-0.461127
4.442499999999996,0.064407,0.204048,-0.42707
4.444999999999993,0.056272,0.206729,-0.395158
4.447499999999991,0.060134,0.209009,-0.361878
4.449999999999989,0.056381,0.216552,-0.327811
4.452499999999986,0.055217,0.220042,-0.294201
4.454999999999984,0.054307,0.22155,-0.263667
4.457499999999982,0.053599,0.224074,-0.232807
4.45999999999998,0.054566,0.228817,-0.197859
4.462499999999977,0.050517,0.233803,-0.165378
4.464999999999975,0.043719,0.237561,-0.134589
4.467499999999973,0.045756,0.238276,-0.100362
4.46999999999997,0.042128,0.237731,-0.066613
4.472499999999968,0.042922,0.238354,-0.031969
4.475000000000023,0.04437,0.2374,0.000387
4.4775000000000205,0.041606,0.242078,0.029158
4.480000000000018,0.039231,0.24044,0.061693
4.482500000000016,0.040167,0.241614,0.094032
4.485000000000014,0.038292,0.245435,0.130165
4.487500000000011,0.038839,0.244328,0.158244
4.490000000000009,0.038553,0.245074,0.189058
4.492500000000007,0.0353,0.244779,0.22335
4.4950000000000045,0.036616,0.245764,0.24729
4.497500000000002,0.032646,0.242052,0.280757
4.5,0.038009,0.247157,0.311614
4.502499999999998,0.033685,0.24338,0.341829
4.504999999999996,0.035325,0.242887,0.369998
4.507499999999993,0.034399,0.242317,0.399297
4.509999999999991,0.032832,0.240576,0.429039
4.512499999999989,0.028645,0.236637,0.457115
4.514999999999986,0.027122,0.237537,0.485743
4.517499999999984,0.026575,0.235986,0.513677
4.519999999999982,0.023609,0.231942,0.536222
4.52249999999998,0.022314,0.229722,0.569101
4.524999999999977,0.022984,0.227291,0.593626
4.527499999999975,0.019438,0.230963,0.617289
4.529999999999973,0.016063,0.233505,0.644813
4.53249999999997,0.013263,0.229759,0.669739
4.534999999999968,0.014938,0.226726,0.696293
4.537500000000023,0.010731,0.228249,0.716918
4.5400000000000205,0.008085,0.229982,0.739441
4.542500000000018,0.003312,0.234581,0.766582
4.545000000000016,0.001843,0.234925,0.789509
4.547500000000014,-0.000647,0.237217,0.813814
4.550000000000011,-0.001971,0.235478,0.828069
4.552500000000009,-0.003405,0.239647,0.850731
4.555000000000007,-0.00757,0.245348,0.87071
4.5575000000000045,-0.012565,0.247067,0.893183
4.560000000000002,-0.010994,0.249214,0.91117
4.5625,-0.014023,0.247745,0.932823
4.564999999999998,-0.01222,0.250905,0.950758
4.567499999999996,-0.015126,0.250519,0.967624
4.569999999999993,-0.019839,0.248764,0.986734
4.572499999999991,-0.018661,0.251765,1.004235
4.574999999999989,-0.018789,0.250574,1.016762
4.577499999999986,-0.019446,0.248878,1.033174
4.579999999999984,-0.021601,0.249975,1.050414
4.582499999999982,-0.023387,0.249893,1.067131
4.58499999999998,-0.027603,0.251614,1.084551
4.587499999999977,-0.026518,0.253806,1.097267
4.589999999999975,-0.028645,0.249859,1.114244
4.592499999999973,-0.028673,0.2474,1.12983
4.59499999999997,-0.031555,0.250454,1.145157
4.597499999999968,-0.033705,0.250211,1.159575
4.600000000000023,-0.031914,0.250762,1.173027
4.6025000000000205,-0.035286,0.248531,1.191456
4.605000000000018,-0.036936,0.252419,1.203422
4.607500000000016,-0.038141,0.250615,1.214757
4.610000000000014,-0.034781,0.251591,1.233645
4.612500000000011,-0.035529,0.254692,1.247297
4.615000000000009,-0.037967,0.253949,1.255818
4.617500000000007,-0.037442,0.254951,1.270553
4.6200000000000045,-0.03556,0.25418,1.286357
4.622500000000002,-0.037253,0.254084,1.298961
4.625,-0.035994,0.255454,1.309264
4.627499999999998,-0.035848,0.254489,1.318462
4.629999999999996,-0.033791,0.255978,1.335056
4.632499999999993,-0.031787,0.254134,1.346987
4.634999999999991,-0.028843,0.247354,1.356904
4.637499999999989,-0.028792,0.245384,1.372281
4.639999999999986,-0.02805,0.245506,1.382861
4.642499999999984,-0.027566,0.244898,1.397258
4.644999999999982,-0.025922,0.244949,1.412293
4.64749999999998,-0.022854,0.245937,1.423432
4.649999999999977,-0.017838,0.240605,1.43619
4.652499999999975,-0.01623,0.238183,1.448715
4.654999999999973,-0.014715,0.236564,1.46095
4.65749999999997,-0.008062,0.236755,1.472812
4.659999999999968,-0.006971,0.234877,1.486147
4.662500000000023,-0.001287,0.233572,1.494046
4.6650000000000205,0.000111,0.231774,1.503267
4.667500000000018,0.003315,0.230938,1.510686
4.670000000000016,0.008032,0.236631,1.522656
4.672500000000014,0.009001,0.231462,1.530293
4.675000000000011,0.011618,0.233767,1.539088
4.677500000000009,0.015976,0.235247,1.545072
4.680000000000007,0.01734,0.234809,1.558787
4.6825000000000045,0.022887,0.237844,1.564427
4.685000000000002,0.025827,0.237996,1.572573
4.6875,0.025443,0.237643,1.584284
4.689999999999998,0.02848,0.239284,1.593852
4.692499999999996,0.032146,0.236612,1.601397
4.694999999999993,0.034416,0.241415,1.612115
4.697499999999991,0.043071,0.238671,1.6217
4.699999999999989,0.04284,0.241431,1.636552
4.702499999999986,0.048848,0.236675,1.641624
4.704999999999984,0.049416,0.244489,1.652053
4.707499999999982,0.056156,0.24043,1.66238
4.70999999999998,0.058343,0.243319,1.672663
4.712499999999977,0.062063,0.242471,1.685015
4.714999999999975,0.065319,0.243546,1.690168
4.717499999999973,0.069474,0.238884,1.700485
4.71999999999997,0.077417,0.245046,1.70683
4.722499999999968,0.080191,0.248289,1.710573
4.725000000000023,0.083298,0.249552,1.717291
4.7275000000000205,0.087442,0.248512,1.724889
4.730000000000018,0.089481,0.249674,1.727616
4.732500000000016,0.096694,0.252826,1.732627
4.735000000000014,0.099934,0.254735,1.732839
4.737500000000011,0.098974,0.259284,1.734617
4.740000000000009,0.107349,0.25821,1.737916
4.742500000000007,0.110831,0.261653,1.740826
4.7450000000000045,0.112211,0.264875,1.741151
4.747500000000002,0.114744,0.275327,1.743314
4.75,0.121356,0.270147,1.74213
4.752499999999998,0.127526,0.270704,1.739121
4.754999999999996,0.125403,0.272138,1.740987
4.757499999999993,0.132635,0.271841,1.740412
4.759999999999991,0.13701,0.268055,1.74021
4.762499999999989,0.14134,0.269225,1.738166
4.764999999999986,0.14175,0.269585,1.738312
4.767499999999984,0.147409,0.265057,1.739738
4.769999999999982,0.149181,0.265425,1.733959
4.77249999999998,0.153919,0.262375,1.730161
4.774999999999977,0.157877,0.258806,1.729511
4.777499999999975,0.160235,0.263473,1.72554
4.779999999999973,0.156594,0.257439,1.723098
4.78249999999997,0.164528,0.254158,1.715656
4.784999999999968,0.165052,0.250807,1.71533
4.787500000000023,0.16438,0.257959,1.712627
4.7900000000000205,0.166207,0.251211,1.712263
4.792500000000018,0.170186,0.25016,1.706157
4.795000000000016,0.17084,0.247861,1.701496
4.797500000000014,0.174499,0.251109,1.697645
4.800000000000011,0.175732,0.249667,1.695079
4.802500000000009,0.173061,0.244341,1.686852
4.805000000000007,0.178649,0.246696,1.675785
4.8075000000000045,0.178912,0.244893,1.668805
4.810000000000002,0.181019,0.242835,1.657744
4.8125,0.176428,0.238951,1.649458
4.814999999999998,0.178082,0.237573,1.633989
4.817499999999996,0.180493,0.232386,1.626042
4.819999999999993,0.181935,0.229942,1.614942
4.822499999999991,0.182068,0.226837,1.599856
4.824999999999989,0.183476,0.221723,1.586072
4.827499999999986,0.180432,0.216518,1.568662
4.829999999999984,0.180783,0.218097,1.552768
4.832499999999982,0.183278,0.209842,1.536179
4.83499999999998,0.179301,0.207093,1.521002
4.837499999999977,0.182853,0.202119,1.501981
4.839999999999975,0.180888,0.197397,1.487182
4.842499999999973,0.178661,0.195166,1.466981
4.84499999999997,0.175759,0.194597,1.44622
4.847499999999968,0.173234,0.193068,1.429908
4.850000000000023,0.173327,0.191621,1.407956
4.8525000000000205,0.168824,0.185814,1.383796
4.855000000000018,0.164152,0.186222,1.361728
4.857500000000016,0.165904,0.186574,1.337099
4.860000000000014,0.158504,0.179143,1.316143
4.862500000000011,0.155268,0.182668,1.2933
4.865000000000009,0.152452,0.180567,1.269245
4.867500000000007,0.14563,0.176645,1.247726
4.8700000000000045,0.142913,0.173799,1.220903
4.872500000000002,0.139067,0.172495,1.195483
4.875,0.13236,0.173035,1.175202
4.877499999999998,0.126145,0.167473,1.148413
4.879999999999996,0.118888,0.162818,1.122494
4.882499999999993,0.115734,0.161462,1.097649
4.884999999999991,0.110442,0.151333,1.069092
4.887499999999989,0.101154,0.145123,1.038734
4.889999999999986,0.100365,0.143477,1.011195
4.892499999999984,0.087305,0.132368,0.980621
4.894999999999982,0.08203,0.130003,0.949782
4.89749999999998,0.077922,0.12512,0.920216
4.899999999999977,0.067539,0.1137,0.886096
4.902499999999975,0.063712,0.112758,0.853985
4.904999999999973,0.054356,0.103366,0.818067
4.90749999999997,0.048975,0.099782,0.783146
4.909999999999968,0.044469,0.08756,0.751443
4.912500000000023,0.035771,0.083297,0.711394
4.9150000000000205,0.027931,0.074605,0.67674
4.917500000000018,0.020169,0.067913,0.637906
4.920000000000016,0.013172,0.061104,0.601501
4.922500000000014,0.008596,0.056469,0.564832
4.925000000000011,0.001738,0.048167,0.523867
4.927500000000009,-0.005078,0.044722,0.486829
4.930000000000007,-0.012177,0.040581,0.446161
4.9325000000000045,-0.021122,0.031623,0.412747
4.935000000000002,-0.028752,0.026841,0.374829
4.9375,-0.035125,0.01938,0.338656
4.939999999999998,-0.043687,0.012898,0.302651
4.942499999999996,-0.050665,0.0052,0.261284
4.944999999999993,-0.065669,-0.002258,0.22637
4.947499999999991,-0.067408,-0.006633,0.194057
4.949999999999989,-0.075544,-0.013849,0.152143
4.952499999999986,-0.085722,-0.020246,0.117666
4.954999999999984,-0.098978,-0.030515,0.083869
4.957499999999982,-0.10428,-0.037239,0.046689
4.95999999999998,-0.109117,-0.042547,0.008368
4.962499999999977,-0.121331,-0.04821,-0.022618
4.964999999999975,-0.128818,-0.057687,-0.06267
4.967499999999973,-0.139828,-0.061315,-0.096671
4.96999999999997,-0.148451,-0.071719,-0.131564
4.972499999999968,-0.157908,-0.079972,-0.168501
4.975000000000023,-0.169022,-0.085351,-0.201969
4.9775000000000205,-0.179628,-0.088505,-0.237595
4.980000000000018,-0.184332,-0.09734,-0.275388
4.982500000000016,-0.194393,-0.102371,-0.313716
4.985000000000014,-0.202012,-0.105619,-0.347403
4.987500000000011,-0.214456,-0.106995,-0.380303
4.990000000000009,-0.221539,-0.115716,-0.41389
4.992500000000007,-0.231898,-0.11808,-0.447187
4.9950000000000045,-0.240071,-0.124124,-0.482374
4.997500000000002,-0.251333,-0.126773,-0.514469
5.0,-0.25475,-0.132011,-0.543012
5.002499999999998,-0.266162,-0.139552,-0.573181
5.004999999999996,-0.272159,-0.141422,-0.607453
5.007499999999993,-0.279862,-0.151809,-0.632787
5.009999999999991,-0.292619,-0.154001,-0.661616
5.012499999999989,-0.301315,-0.162099,-0.690772
5.014999999999986,-0.306805,-0.168094,-0.718284
5.017499999999984,-0.312851,-0.171091,-0.745306
5.019999999999982,-0.319044,-0.173633,-0.773506
5.02249999999998,-0.324032,-0.183559,-0.800903
5.024999999999977,-0.327213,-0.184877,-0.823255
5.027499999999975,-0.338946,-0.192557,-0.847672
5.029999999999973,-0.343461,-0.196736,-0.875168
5.03249999999997,-0.346492,-0.209658,-0.89684
5.034999999999968,-0.351104,-0.214832,-0.918497
5.037500000000023,-0.358963,-0.220823,-0.945209
5.0400000000000205,-0.359954,-0.223966,-0.966095
5.042500000000018,-0.364299,-0.237367,-0.98995
5.045000000000016,-0.369674,-0.246139,-1.010155
5.047500000000014,-0.376165,-0.251973,-1.033195
5.050000000000011,-0.372353,-0.260358,-1.051793
5.052500000000009,-0.377168,-0.266694,-1.074246
5.055000000000007,-0.378956,-0.27356,-1.093439
5.0575000000000045,-0.381009,-0.282601,-1.1134
5.060000000000002,-0.379726,-0.292836,-1.130304
5.0625,-0.384544,-0.299439,-1.152978
5.064999999999998,-0.380677,-0.307556,-1.170062
5.067499999999996,-0.383875,-0.318355,-1.189451
5.069999999999993,-0.383064,-0.325576,-1.211307
5.072499999999991,-0.385037,-0.3288,-1.229454
5.074999999999989,-0.382263,-0.340927,-1.239974
5.077499999999986,-0.385072,-0.34518,-1.255376
5.079999999999984,-0.385115,-0.348877,-1.273259
5.082499999999982,-0.381822,-0.359266,-1.286884
5.08499999999998,-0.38133,-0.366527,-1.300951
5.087499999999977,-0.381184,-0.374902,-1.313422
5.089999999999975,-0.38057,-0.377287,-1.332044
5.092499999999973,-0.378624,-0.385341,-1.343174
5.09499999999997,-0.379935,-0.388596,-1.35398
5.097499999999968,-0.37591,-0.395265,-1.367871
5.100000000000023,-0.378791,-0.404595,-1.378106
5.1025000000000205,-0.37335,-0.410345,-1.388054
5.105000000000018,-0.374896,-0.413972,-1.39984
5.107500000000016,-0.373274,-0.417532,-1.406548
5.110000000000014,-0.37075,-0.424028,-1.41732
5.112500000000011,-0.365085,-0.429173,-1.429323
5.115000000000009,-0.364195,-0.429175,-1.437868
5.117500000000007,-0.359097,-0.431782,-1.445704
5.1200000000000045,-0.359629,-0.436803,-1.453195
5.122500000000002,-0.3566,-0.439367,-1.46424
5.125,-0.350905,-0.436794,-1.475875
5.127499999999998,-0.348816,-0.437899,-1.479923
5.129999999999996,-0.347968,-0.439976,-1.490254
5.132499999999993,-0.338122,-0.44131,-1.499632
5.134999999999991,-0.335412,-0.447391,-1.505491
5.137499999999989,-0.333606,-0.445357,-1.515659
5.139999999999986,-0.323037,-0.445955,-1.521535
5.142499999999984,-0.318031,-0.447663,-1.530103
5.144999999999982,-0.317964,-0.449202,-1.534752
5.14749999999998,-0.31063,-0.44896,-1.542663
5.149999999999977,-0.302677,-0.450118,-1.550984
5.152499999999975,-0.29646,-0.450811,-1.562914
5.154999999999973,-0.290194,-0.44944,-1.568611
5.15749999999997,-0.279869,-0.450427,-1.572801
5.159999999999968,-0.275219,-0.449951,-1.581879
5.162500000000023,-0.267355,-0.45096,-1.587338
5.1650000000000205,-0.257819,-0.452005,-1.594691
5.167500000000018,-0.253056,-0.450489,-1.595649
5.170000000000016,-0.243208,-0.45204,-1.603101
5.172500000000014,-0.232762,-0.449071,-1.609993
5.175000000000011,-0.223379,-0.451811,-1.614247
5.177500000000009,-0.216879,-0.451067,-1.617594
5.180000000000007,-0.205068,-0.452209,-1.623176
5.1825000000000045,-0.198715,-0.450799,-1.630659
5.185000000000002,-0.189147,-0.449883,-1.633303
5.1875,-0.18324,-0.453572,-1.630376
5.189999999999998,-0.178039,-0.451796,-1.641658
5.192499999999996,-0.16276,-0.450044,-1.644253
5.194999999999993,-0.154285,-0.448025,-1.646666
5.197499999999991,-0.145967,-0.444542,-1.646943
5.199999999999989,-0.138508,-0.450303,-1.650591
5.202499999999986,-0.130299,-0.451537,-1.651476
5.204999999999984,-0.124386,-0.448014,-1.651223
5.207499999999982,-0.113554,-0.442747,-1.655154
5.20999999999998,-0.105698,-0.443401,-1.655563
5.212499999999977,-0.09981,-0.438199,-1.656194
5.214999999999975,-0.096558,-0.43902,-1.658183
5.217499999999973,-0.088316,-0.435196,-1.660597
5.21999999999997,-0.081831,-0.430221,-1.660006
5.222499999999968,-0.074494,-0.428166,-1.65835
5.225000000000023,-0.066182,-0.430181,-1.656888
5.2275000000000205,-0.061537,-0.42391,-1.658705
5.230000000000018,-0.05912,-0.419826,-1.656018
5.232500000000016,-0.052874,-0.41547,-1.652792
5.235000000000014,-0.045875,-0.410886,-1.652197
5.237500000000011,-0.042641,-0.405896,-1.645088
5.240000000000009,-0.036694,-0.403203,-1.640962
5.242500000000007,-0.036354,-0.394737,-1.641714
5.2450000000000045,-0.029369,-0.384996,-1.633882
5.247500000000002,-0.030263,-0.378038,-1.628056
5.25,-0.024201,-0.37262,-1.623855
5.252499999999998,-0.020276,-0.361054,-1.621052
5.254999999999996,-0.01931,-0.352544,-1.612779
5.257499999999993,-0.014594,-0.342247,-1.609243
5.259999999999991,-0.01242,-0.33598,-1.605755
5.262499999999989,-0.007132,-0.32716,-1.600512
5.264999999999986,-0.003579,-0.315875,-1.597002
5.267499999999984,-0.002876,-0.309253,-1.591305
5.269999999999982,0.00046,-0.29922,-1.589311
5.27249999999998,0.004546,-0.289871,-1.585912
5.274999999999977,0.007305,-0.286371,-1.582647
5.277499999999975,0.010284,-0.277803,-1.574899
5.279999999999973,0.012677,-0.266385,-1.571674
5.28249999999997,0.018203,-0.258632,-1.570299
5.284999999999968,0.018945,-0.250672,-1.563711
5.287500000000023,0.018653,-0.245527,-1.560515
5.2900000000000205,0.018507,-0.239742,-1.553067
5.292500000000018,0.020234,-0.23423,-1.548239
5.295000000000016,0.021302,-0.229499,-1.539814
5.297500000000014,0.0208,-0.223626,-1.527534
5.300000000000011,0.018805,-0.214021,-1.520921
5.302500000000009,0.01796,-0.206331,-1.504594
5.305000000000007,0.014447,-0.196575,-1.490118
5.3075000000000045,0.014163,-0.193253,-1.476785
5.310000000000002,0.008594,-0.185612,-1.460611
5.3125,0.004791,-0.178202,-1.443585
5.314999999999998,0.006238,-0.168799,-1.424178
5.317499999999996,-0.002038,-0.161868,-1.411188
5.319999999999993,-0.003725,-0.150879,-1.388427
5.322499999999991,-0.010028,-0.141139,-1.373725
5.324999999999989,-0.012298,-0.132093,-1.35381
5.327499999999986,-0.017864,-0.121243,-1.333479
5.329999999999984,-0.021471,-0.114855,-1.316177
5.332499999999982,-0.025211,-0.102609,-1.29736
5.33499999999998,-0.031115,-0.09286,-1.279136
5.337499999999977,-0.030255,-0.081162,-1.26576
5.339999999999975,-0.036579,-0.07222,-1.249067
5.342499999999973,-0.043094,-0.058484,-1.230735
5.34499999999997,-0.046372,-0.048146,-1.21287
5.347499999999968,-0.048919,-0.034781,-1.194284
5.350000000000023,-0.054237,-0.03327,-1.179986
5.3525000000000205,-0.061227,-0.025976,-1.158865
5.355000000000018,-0.066105,-0.010815,-1.138069
5.357500000000016,-0.067407,-0.00284,-1.122824
5.360000000000014,-0.073542,0.011732,-1.102756
5.362500000000011,-0.077848,0.020307,-1.081592
5.365000000000009,-0.083578,0.027988,-1.059394
5.367500000000007,-0.087905,0.037242,-1.046145
5.3700000000000045,-0.091106,0.049839,-1.016981
5.372500000000002,-0.097159,0.055463,-0.998679
5.375,-0.101201,0.061209,-0.973539
5.377499999999998,-0.10649,0.072622,-0.94506
5.379999999999996,-0.109857,0.084317,-0.922694
5.382499999999993,-0.115596,0.089542,-0.893618
5.384999999999991,-0.117953,0.098173,-0.871794
5.387499999999989,-0.121854,0.103182,-0.834793
5.389999999999986,-0.126042,0.109742,-0.812702
5.392499999999984,-0.129348,0.113519,-0.786801
5.394999999999982,-0.135836,0.119896,-0.760381
5.39749999999998,-0.138018,0.124862,-0.728658
5.399999999999977,-0.13946,0.129347,-0.701976
5.402499999999975,-0.143842,0.134822,-0.672157
5.404999999999973,-0.14839,0.140309,-0.641103
5.40749999999997,-0.149289,0.14149,-0.609832
5.409999999999968,-0.152332,0.14321,-0.581794
5.412500000000023,-0.153434,0.148176,-0.549626
5.4150000000000205,-0.154749,0.150675,-0.521335
5.417500000000018,-0.15617,0.151687,-0.487092
5.420000000000016,-0.15642,0.155456,-0.458646
5.422500000000014,-0.156757,0.15166,-0.426014
5.425000000000011,-0.156254,0.158171,-0.391524
5.427500000000009,-0.159232,0.156025,-0.360927
5.430000000000007,-0.160025,0.155909,-0.329795
5.4325000000000045,-0.15441,0.152392,-0.295478
5.435000000000002,-0.154419,0.151112,-0.263646
5.4375,-0.155765,0.153235,-0.231788
5.439999999999998,-0.149737,0.150865,-0.196652
5.442499999999996,-0.14863,0.146502,-0.165072
5.444999999999993,-0.148606,0.144383,-0.131705
5.447499999999991,-0.141148,0.14038,-0.097065
5.449999999999989,-0.137888,0.139803,-0.063042
5.452499999999986,-0.13217,0.135625,-0.035554
5.454999999999984,-0.130226,0.133651,0.003906
5.457499999999982,-0.124273,0.129015,0.032974
5.45999999999998,-0.119407,0.123725,0.066075
5.462499999999977,-0.115712,0.123308,0.098561
5.464999999999975,-0.110886,0.116641,0.130498
5.467499999999973,-0.110295,0.113004,0.16268
5.46999999999997,-0.105147,0.108366,0.196572
5.472499999999968,-0.098689,0.106769,0.233219
5.475000000000023,-0.093654,0.106084,0.261191
5.4775000000000205,-0.091681,0.099286,0.295842
5.480000000000018,-0.086042,0.09794,0.32605
5.482500000000016,-0.08212,0.095721,0.359801
5.485000000000014,-0.077406,0.091461,0.389769
5.487500000000011,-0.07364,0.090223,0.42452
5.490000000000009,-0.070642,0.085752,0.45437
5.492500000000007,-0.065774,0.08566,0.483333
5.4950000000000045,-0.064701,0.082956,0.515517
5.497500000000002,-0.060378,0.08026,0.544722
5.5,-0.058082,0.079266,0.576619
5.502499999999998,-0.053336,0.081904,0.602358
5.504999999999996,-0.050874,0.082793,0.633202
5.507499999999993,-0.048934,0.084292,0.664046
5.509999999999991,-0.048582,0.087763,0.69167
5.512499999999989,-0.044701,0.088393,0.720701
5.514999999999986,-0.04179,0.092932,0.747218
5.517499999999984,-0.03935,0.097711,0.77784
5.519999999999982,-0.040819,0.1041,0.798277
5.52249999999998,-0.040168,0.112296,0.827011
5.524999999999977,-0.042552,0.123396,0.850161
5.527499999999975,-0.041598,0.125501,0.879539
5.529999999999973,-0.04003,0.131912,0.904469
5.53249999999997,-0.0441,0.145406,0.927808
5.534999999999968,-0.046064,0.153338,0.950361
5.537500000000023,-0.043039,0.158016,0.97332
5.5400000000000205,-0.046358,0.165551,0.994557
5.542500000000018,-0.046161,0.17919,1.020352
5.545000000000016,-0.049825,0.182223,1.043088
5.547500000000014,-0.044766,0.188275,1.059544
5.550000000000011,-0.051008,0.196993,1.081788
5.552500000000009,-0.050208,0.202852,1.101113
5.555000000000007,-0.051987,0.205606,1.118675
5.5575000000000045,-0.050896,0.213131,1.143111
5.560000000000002,-0.052461,0.215989,1.160189
5.5625,-0.053944,0.219203,1.177808
5.564999999999998,-0.052105,0.224749,1.191976
5.567499999999996,-0.051899,0.225487,1.208056
5.569999999999993,-0.053482,0.228723,1.223801
5.572499999999991,-0.052299,0.228021,1.240468
5.574999999999989,-0.04859,0.231468,1.258641
5.577499999999986,-0.049749,0.231657,1.272659
5.579999999999984,-0.04656,0.231107,1.281434
5.582499999999982,-0.045072,0.231476,1.293079
5.58499999999998,-0.041822,0.233995,1.31017
5.587499999999977,-0.035787,0.231623,1.320279
5.589999999999975,-0.033398,0.229294,1.330691
5.592499999999973,-0.031362,0.22826,1.339258
5.59499999999997,-0.030406,0.227564,1.350088
5.597499999999968,-0.02545,0.226375,1.361853
5.600000000000023,-0.023517,0.225283,1.368105
5.6025000000000205,-0.019634,0.225747,1.379205
5.605000000000018,-0.013623,0.226448,1.389565
5.607500000000016,-0.009534,0.226756,1.389348
5.610000000000014,-0.006709,0.224454,1.394083
5.612500000000011,-0.003454,0.226448,1.398119
5.615000000000009,0.002945,0.224134,1.410101
5.617500000000007,0.005404,0.226734,1.410401
5.6200000000000045,0.006322,0.230181,1.411326
5.622500000000002,0.009785,0.228901,1.414758
5.625,0.013048,0.227753,1.415826
5.627499999999998,0.014595,0.230137,1.418458
5.629999999999996,0.016797,0.230689,1.41905
5.632499999999993,0.019651,0.228887,1.420058
5.634999999999991,0.02361,0.231863,1.420504
5.637499999999989,0.027292,0.231675,1.415823
5.639999999999986,0.030451,0.232805,1.414858
5.642499999999984,0.03034,0.235126,1.414058
5.644999999999982,0.035494,0.233788,1.41211
5.64749999999998,0.037625,0.233931,1.406038
5.649999999999977,0.042654,0.234772,1.407273
5.652499999999975,0.043922,0.236448,1.40229
5.654999999999973,0.044661,0.235344,1.399401
5.65749999999997,0.050404,0.241467,1.393038
5.659999999999968,0.052325,0.241428,1.387858
5.662500000000023,0.055467,0.245939,1.383632
5.6650000000000205,0.057631,0.253124,1.376376
5.667500000000018,0.059295,0.253946,1.368044
5.670000000000016,0.06118,0.255022,1.360804
5.672500000000014,0.06723,0.260639,1.354876
5.675000000000011,0.069261,0.26302,1.34348
5.677500000000009,0.071696,0.262515,1.333061
5.680000000000007,0.07296,0.266523,1.322508
5.6825000000000045,0.076629,0.265738,1.316739
5.685000000000002,0.077919,0.268417,1.300761
5.6875,0.079941,0.269812,1.289324
5.689999999999998,0.078105,0.2706,1.275983
5.692499999999996,0.082136,0.26897,1.263347
5.694999999999993,0.086355,0.270102,1.2511
5.697499999999991,0.084879,0.268715,1.23447
5.699999999999989,0.08417,0.26925,1.216493
5.702499999999986,0.086103,0.265659,1.196627
5.704999999999984,0.088993,0.264353,1.180999
5.707499999999982,0.082589,0.265024,1.161942
5.70999999999998,0.086052,0.263589,1.138015
5.712499999999977,0.086933,0.263121,1.119008
5.714999999999975,0.086752,0.260089,1.105135
5.717499999999973,0.084152,0.256731,1.081517
5.71999999999997,0.08842,0.254388,1.063972
5.722499999999968,0.085295,0.251164,1.040564
5.725000000000023,0.085161,0.251789,1.021306
5.7275000000000205,0.082835,0.247201,0.998953
5.730000000000018,0.08048,0.241541,0.976538
5.732500000000016,0.079048,0.240893,0.956141
5.735000000000014,0.077628,0.236153,0.930467
5.737500000000011,0.076834,0.232644,0.906842
5.740000000000009,0.074402,0.227686,0.883266
5.742500000000007,0.071134,0.22504,0.860677
5.7450000000000045,0.066301,0.221147,0.834451
5.747500000000002,0.062475,0.216001,0.810727
5.75,0.062028,0.207879,0.782608
5.752499999999998,0.057302,0.200134,0.760811
5.754999999999996,0.053459,0.195286,0.733509
5.757499999999993,0.0472,0.191098,0.7081
5.759999999999991,0.04361,0.182373,0.683519
5.762499999999989,0.03721,0.180022,0.656148
5.764999999999986,0.034269,0.17181,0.633193
5.767499999999984,0.02557,0.166985,0.60621
5.769999999999982,0.022452,0.160254,0.579972
5.77249999999998,0.016674,0.155889,0.554056
5.774999999999977,0.006276,0.148591,0.52988
5.777499999999975,-0.001657,0.143314,0.50466
5.779999999999973,-0.009924,0.13657,0.483298
5.78249999999997,-0.012998,0.132629,0.458156
5.784999999999968,-0.021042,0.12575,0.435597
5.787500000000023,-0.029314,0.117695,0.412523
5.7900000000000205,-0.035174,0.110549,0.386059
5.792500000000018,-0.045095,0.106636,0.364745
5.795000000000016,-0.053144,0.099304,0.341956
5.797500000000014,-0.056647,0.094532,0.32076
5.800000000000011,-0.066586,0.085335,0.295705
5.802500000000009,-0.078577,0.082669,0.274641
5.805000000000007,-0.086033,0.074878,0.25088
5.8075000000000045,-0.093943,0.072841,0.231189
5.810000000000002,-0.107461,0.073796,0.204692
5.8125,-0.112438,0.063512,0.18908
5.814999999999998,-0.119211,0.061556,0.165255
5.817499999999996,-0.132777,0.059275,0.14592
5.819999999999993,-0.14431,0.054137,0.12457
5.822499999999991,-0.150639,0.052092,0.105429
5.824999999999989,-0.162722,0.041031,0.086873
5.827499999999986,-0.172696,0.042439,0.068093
5.829999999999984,-0.184026,0.034382,0.052922
5.832499999999982,-0.190322,0.031633,0.037349
5.83499999999998,-0.201944,0.026434,0.019918
5.837499999999977,-0.211243,0.021981,0.002248
5.839999999999975,-0.221021,0.016872,-0.012578
5.842499999999973,-0.233147,0.01488,-0.027098
5.84499999999997,-0.239109,0.010372,-0.044028
5.847499999999968,-0.250286,0.005601,-0.055192
5.850000000000023,-0.261231,0.002439,-0.065926
5.8525000000000205,-0.267753,0.001454,-0.074831
5.855000000000018,-0.273611,-0.006799,-0.090985
5.857500000000016,-0.285986,-0.006832,-0.103472
5.860000000000014,-0.292045,-0.012439,-0.114819
5.862500000000011,-0.300327,-0.020312,-0.12266
5.865000000000009,-0.307181,-0.023255,-0.136328
5.867500000000007,-0.320166,-0.025125,-0.147629
5.8700000000000045,-0.327723,-0.028917,-0.155099
5.872500000000002,-0.327826,-0.036356,-0.161019
5.875,-0.335127,-0.038493,-0.175418
5.877499999999998,-0.338341,-0.046422,-0.181735
5.879999999999996,-0.346006,-0.059089,-0.191094
5.882499999999993,-0.351249,-0.058161,-0.196798
5.884999999999991,-0.357822,-0.064085,-0.207184
5.887499999999989,-0.363117,-0.067073,-0.216441
5.889999999999986,-0.364897,-0.072549,-0.2213
5.892499999999984,-0.36514,-0.082165,-0.230935
5.894999999999982,-0.373335,-0.086831,-0.239432
5.89749999999998,-0.375037,-0.093836,-0.248538
5.899999999999977,-0.378718,-0.096166,-0.252388
5.902499999999975,-0.381494,-0.100172,-0.260399
5.904999999999973,-0.380467,-0.109063,-0.261395
5.90749999999997,-0.382878,-0.118253,-0.268452
5.909999999999968,-0.385508,-0.121447,-0.27211
5.912500000000023,-0.383022,-0.125235,-0.278315
5.9150000000000205,-0.38079,-0.133513,-0.282332
5.917500000000018,-0.383163,-0.138022,-0.28687
5.920000000000016,-0.377721,-0.142835,-0.292508
5.922500000000014,-0.375055,-0.150792,-0.295891
5.925000000000011,-0.368923,-0.153439,-0.299177
5.927500000000009,-0.363739,-0.159785,-0.301074
5.930000000000007,-0.358596,-0.164676,-0.305513
5.9325000000000045,-0.356005,-0.167753,-0.305574
5.935000000000002,-0.351919,-0.172085,-0.30877
5.9375,-0.341831,-0.179461,-0.308542
5.939999999999998,-0.332692,-0.185831,-0.314707
5.942499999999996,-0.325133,-0.185828,-0.31565
5.944999999999993,-0.315279,-0.193475,-0.318173
5.947499999999991,-0.302386,-0.197916,-0.320528
5.949999999999989,-0.294736,-0.202014,-0.318578
5.952499999999986,-0.282477,-0.208996,-0.321107
5.954999999999984,-0.27218,-0.212081,-0.318365
5.957499999999982,-0.259937,-0.215569,-0.320596
5.95999999999998,-0.243469,-0.220156,-0.319193
5.962499999999977,-0.227559,-0.224856,-0.320071
5.964999999999975,-0.213356,-0.229807,-0.320981
5.967499999999973,-0.202081,-0.232418,-0.316262
5.96999999999997,-0.188547,-0.236766,-0.322509
5.972499999999968,-0.168188,-0.240676,-0.320022
5.975000000000023,-0.152206,-0.248852,-0.317538
5.9775000000000205,-0.133777,-0.24817,-0.315216
5.980000000000018,-0.116417,-0.251667,-0.31845
5.982500000000016,-0.094704,-0.25519,-0.314736
5.985000000000014,-0.077344,-0.260679,-0.314489
5.987500000000011,-0.058846,-0.263046,-0.310713
5.990000000000009,-0.036618,-0.268054,-0.307433
5.992500000000007,-0.01545,-0.272544,-0.308375
5.9950000000000045,0.003939,-0.272998,-0.30295
5.997500000000002,0.027465,-0.274614,-0.301583
6.0,0.049657,-0.274724,-0.299525
6.002499999999998,0.069652,-0.274171,-0.300278
6.004999999999996,0.094026,-0.277528,-0.295763
6.007499999999993,0.115903,-0.278552,-0.290488
6.009999999999991,0.137936,-0.273843,-0.289255
6.012499999999989,0.162189,-0.276349,-0.279143
6.014999999999986,0.183537,-0.277147,-0.279941
6.017499999999984,0.198936,-0.275001,-0.272982
6.019999999999982,0.229202,-0.273992,-0.267245
6.02249999999998,0.248776,-0.273417,-0.261542
6.024999999999977,0.26908,-0.268692,-0.256218
6.027499999999975,0.292336,-0.268854,-0.25209
6.029999999999973,0.316871,-0.264861,-0.246881
6.03249999999997,0.340357,-0.264743,-0.239378
6.034999999999968,0.362643,-0.261466,-0.235954
6.037500000000023,0.384385,-0.263237,-0.230092
6.0400000000000205,0.406843,-0.256537,-0.225025
6.042500000000018,0.426956,-0.252074,-0.22487
6.045000000000016,0.450043,-0.24906,-0.216849
6.047500000000014,0.469219,-0.246513,-0.209799
6.050000000000011,0.492211,-0.241898,-0.204836
6.052500000000009,0.515836,-0.238669,-0.200677
6.055000000000007,0.536884,-0.237581,-0.195648
6.0575000000000045,0.556444,-0.230922,-0.187923
6.060000000000002,0.574986,-0.225018,-0.186214
6.0625,0.593022,-0.220363,-0.182533
6.064999999999998,0.613085,-0.210618,-0.176446
6.067499999999996,0.634674,-0.202258,-0.172327
6.069999999999993,0.649642,-0.193721,-0.168183
6.072499999999991,0.667451,-0.186166,-0.163153
6.074999999999989,0.687314,-0.182179,-0.152577
6.077499999999986,0.705045,-0.174421,-0.146271
6.079999999999984,0.723628,-0.16679,-0.140369
6.082499999999982,0.737635,-0.157818,-0.132903
6.08499999999998,0.754065,-0.154695,-0.126579
6.087499999999977,0.769919,-0.146875,-0.12151
6.089999999999975,0.786022,-0.139014,-0.11806
6.092499999999973,0.799995,-0.127192,-0.110038
6.09499999999997,0.813376,-0.118816,-0.105529
6.097499999999968,0.829964,-0.109039,-0.098334
6.100000000000023,0.845979,-0.098759,-0.08948
6.1025000000000205,0.863087,-0.090165,-0.084157
6.105000000000018,0.875099,-0.081402,-0.081578
6.107500000000016,0.88973,-0.072788,-0.07308
6.110000000000014,0.900964,-0.065534,-0.070235
6.112500000000011,0.913919,-0.056973,-0.065373
6.115000000000009,0.930502,-0.046654,-0.056732
6.117500000000007,0.942495,-0.037077,-0.049679
6.1200000000000045,0.955791,-0.029475,-0.048761
6.122500000000002,0.968326,-0.022134,-0.039691
6.125,0.981877,-0.01241,-0.036012
6.127499999999998,0.993898,-0.004737,-0.031891
6.129999999999996,1.008498,0.00161,-0.025055
6.132499999999993,1.021459,0.00632,-0.017245
6.134999999999991,1.031489,0.012893,-0.016455
6.137499999999989,1.044489,0.022993,-0.01065
6.139999999999986,1.056878,0.029331,-0.006001
6.142499999999984,1.067487,0.036792,-0.002456
6.144999999999982,1.081854,0.041796,0.001294
6.14749999999998,1.093036,0.048242,0.003234
6.149999999999977,1.108113,0.058762,0.005526
6.152499999999975,1.118688,0.06612,0.006791
6.154999999999973,1.132945,0.069778,0.009685
6.15749999999997,1.144671,0.079318,0.011557
6.159999999999968,1.157757,0.087491,0.018815
6.162500000000023,1.167758,0.091604,0.020566
6.1650000000000205,1.179184,0.09967,0.024412
6.167500000000018,1.188262,0.1088,0.027084
6.170000000000016,1.196784,0.115512,0.026628
6.172500000000014,1.205414,0.126451,0.029162
6.175000000000011,1.21451,0.136916,0.034653
6.177500000000009,1.22249,0.143712,0.03316
6.180000000000007,1.233102,0.150206,0.040843
6.1825000000000045,1.238568,0.159725,0.041644
6.185000000000002,1.242774,0.171816,0.046574
6.1875,1.245621,0.179116,0.049322
6.189999999999998,1.251837,0.184281,0.05155
6.192499999999996,1.256248,0.190551,0.056102
6.194999999999993,1.264258,0.198443,0.058531
6.197499999999991,1.265423,0.202882,0.057567
6.199999999999989,1.268042,0.207857,0.06044
6.202499999999986,1.272716,0.217579,0.062253
6.204999999999984,1.27747,0.221924,0.061449
6.207499999999982,1.278701,0.226956,0.05608
6.20999999999998,1.278193,0.231504,0.054755
6.212499999999977,1.284154,0.230452,0.059371
6.214999999999975,1.288412,0.240874,0.054897
6.217499999999973,1.290642,0.246399,0.054697
6.21999999999997,1.296128,0.248232,0.049279
6.222499999999968,1.295929,0.25909,0.05366
6.225000000000023,1.295106,0.262711,0.052417
6.2275000000000205,1.295032,0.268243,0.051966
6.230000000000018,1.301184,0.275201,0.055563
6.232500000000016,1.297377,0.282089,0.054588
6.235000000000014,1.30419,0.282634,0.063597
6.237500000000011,1.298068,0.28869,0.061842
6.240000000000009,1.295847,0.292158,0.067141
6.242500000000007,1.294769,0.293762,0.068275
6.2450000000000045,1.290186,0.297552,0.071316
6.247500000000002,1.287621,0.30506,0.070179
6.25,1.281984,0.3075,0.073659
6.252499999999998,1.274602,0.309,0.0777
6.254999999999996,1.273396,0.308297,0.08085
6.257499999999993,1.268196,0.304953,0.083927
6.259999999999991,1.26144,0.310002,0.080531
6.262499999999989,1.255098,0.310465,0.084747
6.264999999999986,1.245826,0.309175,0.086049
6.267499999999984,1.234937,0.309611,0.084471
6.269999999999982,1.226057,0.310109,0.086767
6.27249999999998,1.215145,0.3091,0.089633
6.274999999999977,1.205452,0.3081,0.086226
6.277499999999975,1.19196,0.308538,0.083622
6.279999999999973,1.179726,0.305379,0.080907
6.28249999999997,1.167766,0.305002,0.0804
6.284999999999968,1.15481,0.30668,0.075825
6.287500000000023,1.136084,0.299475,0.077238
6.2900000000000205,1.127104,0.297632,0.074454
6.292500000000018,1.11359,0.300489,0.073744
6.295000000000016,1.097536,0.295471,0.072347
6.297500000000014,1.081359,0.297045,0.075611
6.300000000000011,1.065197,0.288407,0.072185
6.302500000000009,1.049666,0.286654,0.071456
6.305000000000007,1.032857,0.27977,0.070281
6.3075000000000045,1.013727,0.279809,0.068706
6.310000000000002,0.997422,0.271837,0.070415
6.3125,0.977005,0.267162,0.072669
6.314999999999998,0.960436,0.266583,0.068846
6.317499999999996,0.942406,0.259633,0.068996
6.319999999999993,0.922708,0.252054,0.066284
6.322499999999991,0.907096,0.253404,0.068035
6.324999999999989,0.885549,0.241581,0.06587
6.327499999999986,0.864271,0.239062,0.062067
6.329999999999984,0.847749,0.229608,0.063274
6.332499999999982,0.829109,0.226107,0.064874
6.33499999999998,0.808662,0.221253,0.061709
6.337499999999977,0.78638,0.217187,0.061727
6.339999999999975,0.764976,0.207041,0.060766
6.342499999999973,0.742058,0.19949,0.060039
6.34499999999997,0.721272,0.191642,0.057606
6.347499999999968,0.703799,0.191706,0.056475
6.350000000000023,0.682809,0.181273,0.057899
6.3525000000000205,0.660873,0.169762,0.057533
6.355000000000018,0.638131,0.161276,0.055913
6.357500000000016,0.614896,0.163097,0.052085
6.360000000000014,0.59494,0.152633,0.057735
6.362500000000011,0.57567,0.145719,0.05612
6.365000000000009,0.555258,0.139826,0.055752
6.367500000000007,0.526238,0.133929,0.053503
6.3700000000000045,0.503496,0.125431,0.051492
6.372500000000002,0.486774,0.122816,0.05162
6.375,0.460944,0.117517,0.051539
6.377499999999998,0.440782,0.109588,0.049227
6.379999999999996,0.418136,0.105795,0.050465
6.382499999999993,0.397088,0.102787,0.045007
6.384999999999991,0.371253,0.093547,0.047388
6.387499999999989,0.349014,0.087532,0.046922
6.389999999999986,0.326551,0.083641,0.040885
6.392499999999984,0.304952,0.076809,0.045944
6.394999999999982,0.281114,0.070678,0.043467
6.39749999999998,0.259057,0.069479,0.037519
6.399999999999977,0.240042,0.058258,0.03816
6.402499999999975,0.219221,0.061967,0.039347
6.404999999999973,0.192716,0.0545,0.036477
6.40749999999997,0.168762,0.051405,0.034276
6.409999999999968,0.1455,0.044215,0.028744
6.412500000000023,0.123624,0.043385,0.030921
6.4150000000000205,0.102819,0.043147,0.029681
6.417500000000018,0.081588,0.03574,0.025884
6.420000000000016,0.057717,0.03138,0.025705
6.422500000000014,0.036029,0.025535,0.022859
6.425000000000011,0.016453,0.024644,0.020749
6.427500000000009,-0.00608,0.022114,0.018638
6.430000000000007,-0.028878,0.018045,0.017909
6.4325000000000045,-0.048037,0.015352,0.012345
6.435000000000002,-0.069369,0.013091,0.010549
6.4375,-0.085039,0.007711,0.00909
6.439999999999998,-0.105475,0.008022,0.007091
6.442499999999996,-0.127546,0.004118,0.004283
6.444999999999993,-0.146264,0.004482,-0.001869
6.447499999999991,-0.167915,0.001758,-0.004423
6.449999999999989,-0.185543,0.000633,-0.005926
6.452499999999986,-0.205962,-0.002098,-0.008956
6.454999999999984,-0.225008,-0.002475,-0.010164
6.457499999999982,-0.24316,-0.002483,-0.017783
6.45999999999998,-0.261609,-0.003974,-0.014891
6.462499999999977,-0.27826,-0.005028,-0.014873
6.464999999999975,-0.293954,-0.001919,-0.015692
6.467499999999973,-0.315967,-0.003241,-0.01798
6.46999999999997,-0.327598,-0.00422,-0.02024
6.472499999999968,-0.348407,-0.000496,-0.024103
6.475000000000023,-0.363807,-0.003053,-0.026439
6.4775000000000205,-0.381844,-0.004362,-0.025634
6.480000000000018,-0.394866,-0.006673,-0.030278
6.482500000000016,-0.411233,-0.00633,-0.030451
6.485000000000014,-0.425869,-0.009355,-0.032605
6.487500000000011,-0.441308,-0.004852,-0.033513
6.490000000000009,-0.45787,-0.00723,-0.041816
6.492500000000007,-0.469343,-0.009434,-0.036389
6.4950000000000045,-0.489724,-0.008847,-0.045151
6.497500000000002,-0.505111,-0.011545,-0.045991
6.5,-0.515547,-0.011577,-0.046192
6.502499999999998,-0.532074,-0.011157,-0.050329
6.504999999999996,-0.542568,-0.011627,-0.052705
6.507499999999993,-0.557458,-0.014143,-0.060047
6.509999999999991,-0.574137,-0.010529,-0.060108
6.512499999999989,-0.586844,-0.009388,-0.05888
6.514999999999986,-0.600138,-0.014615,-0.062668
6.517499999999984,-0.61357,-0.014193,-0.066037
6.519999999999982,-0.630787,-0.014269,-0.067148
6.52249999999998,-0.637278,-0.016306,-0.068027
6.524999999999977,-0.652264,-0.016278,-0.070155
6.527499999999975,-0.664675,-0.01657,-0.070906
6.529999999999973,-0.67887,-0.019474,-0.076951
6.53249999999997,-0.690112,-0.017667,-0.071771
