time,Gyr_X,Gyr_Y,Gyr_Z
0.0,0.000508,0.002915,0.003782
0.0024999999999977,0.005852,0.002121,0.000586
0.0049999999999954,0.002327,-0.003131,0.004754
0.0074999999999931,0.000843,0.002252,0.005411
0.0099999999999909,0.002048,0.000528,0.007536
0.0124999999999886,0.001111,0.002704,0.0043
0.0149999999999863,0.001628,0.004599,0.003467
0.017499999999984,0.002224,0.00109,0.006168
0.0199999999999818,0.002987,-0.000207,0.005195
0.0224999999999795,0.00343,0.001346,0.004988
0.0249999999999772,0.002602,0.001546,0.006864
0.0274999999999749,0.002823,0.001257,0.000668
0.0299999999999727,0.005225,-0.003667,0.001331
0.0324999999999704,0.00275,-0.003155,0.005563
0.0349999999999681,0.004513,-0.001226,0.000534
0.0374999999999658,0.00013,0.000543,0.001883
0.0399999999999636,-0.001597,0.000475,0.003394
0.0424999999999613,0.000342,0.000411,0.002977
0.044999999999959,-0.00037,0.000276,0.001822
0.0474999999999568,0.001156,0.001953,0.003266
0.0499999999999545,-0.001436,-0.000191,0.001701
0.0524999999999522,0.002553,-0.001077,0.004008
0.0550000000000068,0.002418,-0.000836,0.004875
0.0575000000000045,0.003607,0.00151,0.003331
0.0600000000000022,-0.001387,0.001188,0.002929
0.0625,0.000573,0.002637,0.004662
0.0649999999999977,0.000582,0.002565,0.001495
0.0674999999999954,0.002702,0.001238,0.004501
0.0699999999999931,0.000832,0.00392,0.002114
0.0724999999999909,0.005201,-0.000107,0.005496
0.0749999999999886,0.004794,0.002717,0.004186
0.0774999999999863,0.000469,0.001591,0.002452
0.079999999999984,0.002157,0.003199,0.001844
0.0824999999999818,0.004006,0.0025,0.002567
0.0849999999999795,0.007879,0.000197,0.004787
0.0874999999999772,0.001509,0.001212,0.005203
0.0899999999999749,1.6e-05,0.002598,0.004984
0.0924999999999727,0.002224,0.001226,0.003489
0.0949999999999704,0.006326,0.001068,0.004765
0.0974999999999681,0.004964,-0.002567,0.004812
0.0999999999999659,-0.001387,0.001992,0.005876
0.1024999999999636,0.002483,0.00082,0.003505
0.1049999999999613,0.004972,-0.001293,0.00203
0.107499999999959,0.00364,0.002202,0.003516
0.1099999999999568,0.001792,-0.000127,0.00202
0.1124999999999545,0.004952,0.002158,0.000731
0.1149999999999522,0.000847,-0.000508,0.001981
0.1175000000000068,0.002369,-0.003627,0.004884
0.1200000000000045,0.006127,-0.002624,0.008381
0.1225000000000022,0.001317,1e-05,0.00572
0.125,0.000491,0.002409,0.005231
0.1274999999999977,0.000819,-0.000104,0.004359
0.1299999999999954,0.001854,0.000144,0.003704
0.1324999999999931,0.004896,0.001817,0.000205
0.1349999999999909,0.00399,0.001767,-0.001021
0.1374999999999886,0.003938,0.000336,0.003868
0.1399999999999863,0.001992,0.001278,0.001311
0.142499999999984,0.006074,-0.000395,0.004009
0.1449999999999818,0.003629,-0.003946,0.004815
0.1474999999999795,0.002574,0.002114,0.00431
0.1499999999999772,0.005231,0.00146,0.002825
0.152499999999975,0.003224,0.003851,0.002729
0.1549999999999727,0.001267,0.003964,0.010102
0.1574999999999704,0.000905,0.00157,0.00309
0.1599999999999681,0.001959,0.00139,0.003723
0.1624999999999659,0.002659,0.001138,0.004572
0.1649999999999636,0.00088,0.003939,0.001291
0.1674999999999613,0.002129,0.001844,0.004426
0.169999999999959,0.001914,0.001598,0.004029
0.1724999999999568,0.002449,-0.001568,0.004805
0.1749999999999545,-0.002229,-0.000781,0.004286
0.1774999999999522,0.002477,-4e-06,0.002373
0.1800000000000068,0.003188,0.00136,0.000825
0.1825000000000045,0.002525,-0.003403,0.001314
0.1850000000000022,0.002427,0.003328,0.004139
0.1875,0.00053,0.002868,0.003747
0.1899999999999977,0.003041,0.001248,0.00597
0.1924999999999954,0.003798,0.004079,0.0051
0.1949999999999931,0.003328,0.000925,0.00303
0.1974999999999909,0.001035,0.001583,0.006209
0.1999999999999886,-0.001048,0.002887,0.005629
0.2024999999999863,0.002403,0.000561,0.003437
0.204999999999984,-0.001583,-0.00343,0.003216
0.2074999999999818,0.000597,-0.000516,0.001887
0.2099999999999795,0.004012,-0.001727,0.003936
0.2124999999999772,0.002431,0.004179,0.002005
0.214999999999975,0.002258,0.002202,0.00714
0.2174999999999727,-0.000575,0.00037,0.00399
0.2199999999999704,-0.000682,0.003269,0.002857
0.2224999999999681,-0.000149,-0.001378,0.004386
0.2249999999999659,0.004093,-0.003152,0.005155
0.2274999999999636,0.004909,-0.000815,0.004109
0.2299999999999613,0.002731,0.001784,0.003941
0.232499999999959,0.001589,-2.7e-05,0.000945
0.2349999999999568,-0.000356,-1.3e-05,0.002835
0.2374999999999545,0.002041,0.000105,0.004276
0.2399999999999522,0.001619,0.002845,0.007135
0.2425000000000068,0.000782,0.002398,0.002574
0.2450000000000045,0.005888,0.00371,0.006526
0.2475000000000022,0.000239,-0.000508,0.002515
0.25,0.001621,0.002963,0.002827
0.2524999999999977,0.000935,0.000126,0.003574
0.2549999999999954,0.004099,-0.000626,0.000795
0.2574999999999932,0.001469,0.000992,0.004893
0.2599999999999909,0.003729,0.001947,0.00299
0.2624999999999886,0.001764,-0.00342,0.0013
0.2649999999999863,0.00258,-0.001849,-0.000101
0.2674999999999841,-0.000568,0.00065,0.005039
0.2699999999999818,0.001862,-0.002474,0.003847
0.2724999999999795,0.003936,0.001515,0.003334
0.2749999999999772,0.002251,0.001416,0.002199
0.277499999999975,0.0032,0.002099,0.002942
0.2799999999999727,0.002319,0.000457,0.000904
0.2824999999999704,0.000257,0.001294,0.005224
0.2849999999999681,0.002911,0.003389,0.004407
0.2874999999999659,0.003533,0.000727,0.001201
0.2899999999999636,-0.001368,0.002709,0.003074
0.2924999999999613,0.002579,-0.003313,0.005919
0.2949999999999591,0.002291,-0.000452,0.003123
0.2974999999999568,0.00203,-0.000797,0.003361
0.2999999999999545,0.00271,0.002778,0.004122
0.3024999999999522,0.005495,0.000864,0.005067
0.3050000000000068,0.001984,-0.001827,0.0033
0.3075000000000045,0.001983,0.003576,0.005061
0.3100000000000023,0.00196,0.000533,0.004128
0.3125,0.000838,-0.001293,0.003711
0.3149999999999977,0.004479,0.002953,0.002515
0.3174999999999954,0.004049,0.000874,0.005858
0.3199999999999932,0.000662,-0.000206,0.006878
0.3224999999999909,0.002003,0.000376,0.004237
0.3249999999999886,0.002985,-0.004439,0.001056
0.3274999999999863,0.003649,0.002994,0.00386
0.3299999999999841,0.001036,0.001767,0.000276
0.3324999999999818,0.000302,5.4e-05,0.000774
0.3349999999999795,0.001738,-0.000624,0.007146
0.3374999999999772,0.005224,-0.000758,0.003069
0.339999999999975,0.004087,0.000205,0.00203
0.3424999999999727,0.001169,0.000414,0.005218
0.3449999999999704,0.003479,0.000808,0.004338
0.3474999999999681,0.000589,-0.000715,0.002442
0.3499999999999659,0.003768,0.002507,0.001524
0.3524999999999636,0.000431,0.003349,0.002404
0.3549999999999613,0.004157,0.002205,0.005216
0.3574999999999591,0.003531,-0.000897,0.003424
0.3599999999999568,0.001626,-0.001904,0.003897
0.3624999999999545,0.000472,0.000577,0.000735
0.3649999999999522,-0.001591,-0.001019,0.005928
0.3675000000000068,0.003711,-0.00184,0.003841
0.3700000000000045,0.003483,0.000281,0.00279
0.3725000000000023,0.003725,-0.001281,0.004362
0.375,0.000227,-0.001025,0.003349
0.3774999999999977,0.001895,0.001099,0.002327
0.3799999999999954,0.004236,0.002464,0.003564
0.3824999999999932,0.002722,0.003553,0.003114
0.3849999999999909,0.004787,0.001068,0.00583
0.3874999999999886,0.001878,-0.000282,-0.001384
0.3899999999999863,0.002018,0.000838,0.003993
0.3924999999999841,0.006313,0.001752,0.004367
0.3949999999999818,-0.001122,0.000355,0.004604
0.3974999999999795,1e-06,0.003105,0.00541
0.3999999999999772,0.001327,-0.000757,0.004668
0.402499999999975,0.002935,0.001702,0.003787
0.4049999999999727,0.00451,-0.003076,0.005335
0.4074999999999704,0.003424,-0.001062,0.003532
0.4099999999999681,0.00321,0.003082,0.002613
0.4124999999999659,0.000969,0.000925,0.002889
0.4149999999999636,0.001974,0.004198,0.003015
0.4174999999999613,0.003969,0.003166,0.00682
0.4199999999999591,0.000293,0.001919,0.002522
0.4224999999999568,0.000597,0.001571,0.00541
0.4249999999999545,0.003349,0.001071,0.009149
0.4274999999999522,0.001178,0.001033,0.004249
0.4300000000000068,0.001194,0.001436,0.003501
0.4325000000000045,0.00185,0.00305,0.001345
0.4350000000000023,0.004818,-0.003026,0.006049
0.4375,0.002097,0.001753,0.004678
0.4399999999999977,0.001004,0.00167,0.002325
0.4424999999999954,0.000971,0.001884,0.004172
0.4449999999999932,0.0033,-0.000875,0.003918
0.4474999999999909,0.00289,0.000658,0.003133
0.4499999999999886,0.000622,-9.2e-05,0.003701
0.4524999999999863,0.001929,-0.003229,0.005441
0.4549999999999841,0.001317,0.001869,0.00504
0.4574999999999818,0.001428,-0.000267,0.003476
0.4599999999999795,0.002145,0.000805,0.001895
0.4624999999999772,0.001302,0.000275,0.004088
0.464999999999975,0.001713,-0.000174,0.004851
0.4674999999999727,0.004055,-0.001752,0.004333
0.4699999999999704,0.006215,0.000264,0.00154
0.4724999999999681,0.002859,0.003289,0.004708
0.4749999999999659,0.002309,0.004833,0.007845
0.4774999999999636,0.001887,-0.002389,0.001251
0.4799999999999613,0.003291,0.000706,0.002974
0.4824999999999591,0.003389,-0.001316,0.001716
0.4849999999999568,0.002862,-0.002778,0.003573
0.4874999999999545,-0.000504,-1.2e-05,0.00569
0.4899999999999522,0.00421,0.000992,0.004677
0.4925000000000068,0.002154,5.4e-05,0.003096
0.4950000000000045,0.004528,-0.001028,0.002011
0.4975000000000023,0.001352,0.001889,0.002288
0.5,0.00302,0.003693,0.001932
0.5024999999999977,0.006381,0.000491,0.001317
0.5049999999999955,0.005756,9.5e-05,0.004033
0.5074999999999932,0.008404,-0.002481,0.004483
0.5099999999999909,0.010366,0.0002,0.002965
0.5124999999999886,0.013296,-0.002338,0.004364
0.5149999999999864,0.01203,0.004808,0.003477
0.5174999999999841,0.01296,0.001258,0.005094
0.5199999999999818,0.016328,0.000451,0.004295
0.5224999999999795,0.011305,0.000944,0.007688
0.5249999999999773,0.020348,-0.002009,0.003342
0.527499999999975,0.020658,5e-05,0.005604
0.5299999999999727,0.019979,-7e-05,0.005148
0.5324999999999704,0.022978,-0.000617,0.003812
0.5349999999999682,0.024097,0.000487,0.007855
0.5374999999999659,0.023222,-3e-05,0.007237
0.5399999999999636,0.02887,0.005158,0.002157
0.5424999999999613,0.029569,0.002342,0.002202
0.5449999999999591,0.033884,0.000598,0.006483
0.5474999999999568,0.034607,-0.001001,0.005003
0.5499999999999545,0.035333,0.001719,0.00417
0.5524999999999523,0.035097,0.000464,0.004908
0.5550000000000068,0.039125,0.004128,0.005736
0.5575000000000045,0.041579,0.002576,0.007503
0.5600000000000023,0.045902,0.004008,0.00658
0.5625,0.045718,0.000518,0.004599
0.5649999999999977,0.048459,-0.002018,0.007427
0.5674999999999955,0.053545,-0.000522,0.008579
0.5699999999999932,0.050283,0.001676,0.003424
0.5724999999999909,0.053253,-0.00087,0.005829
0.5749999999999886,0.057491,-0.000376,0.005882
0.5774999999999864,0.055448,0.00115,0.001947
0.5799999999999841,0.060724,0.004459,0.003717
0.5824999999999818,0.062207,0.000247,0.001795
0.5849999999999795,0.064797,0.000136,0.004678
0.5874999999999773,0.065849,0.003795,0.001469
0.589999999999975,0.067095,0.003809,-0.000364
0.5924999999999727,0.070127,0.003811,0.002656
0.5949999999999704,0.071294,0.003142,0.005303
0.5974999999999682,0.073222,0.002164,0.00371
0.5999999999999659,0.071751,0.002237,0.002814
0.6024999999999636,0.077713,0.001182,0.003729
0.6049999999999613,0.07681,0.006182,0.001232
0.6074999999999591,0.081185,0.00054,0.003896
0.6099999999999568,0.081598,-0.001036,0.005079
0.6124999999999545,0.081012,0.004321,0.001443
0.6149999999999523,0.081842,0.001495,0.004841
0.6175000000000068,0.086387,0.002516,0.00212
0.6200000000000045,0.087198,-0.002217,-0.00062
0.6225000000000023,0.082181,-0.003006,0.0015
0.625,0.088254,-0.002819,0.004258
0.6274999999999977,0.086748,-0.00446,0.002769
0.6299999999999955,0.088217,-0.002597,0.003596
0.6324999999999932,0.086442,-0.005795,0.006104
0.6349999999999909,0.085973,0.000998,0.006116
0.6374999999999886,0.084557,0.002085,0.00597
0.6399999999999864,0.083137,-0.000392,0.003026
0.6424999999999841,0.085737,-0.00039,0.004043
0.6449999999999818,0.081647,-0.003117,0.005902
0.6474999999999795,0.076395,0.000865,0.004401
0.6499999999999773,0.074924,-0.001779,0.003008
0.652499999999975,0.070354,-0.003408,0.004659
0.6549999999999727,0.064253,0.00064,0.005787
0.6574999999999704,0.061523,-0.002284,0.001741
0.6599999999999682,0.053444,-0.001511,0.003424
0.6624999999999659,0.046288,-0.000526,0.002602
0.6649999999999636,0.037637,-0.001803,0.004815
0.6674999999999613,0.032125,0.000995,0.004201
0.6699999999999591,0.024573,-0.001088,0.005116
0.6724999999999568,0.02185,0.001601,0.00288
0.6749999999999545,0.009771,-0.003508,0.004675
0.6774999999999523,0.001717,-0.003651,0.003032
0.6800000000000068,-0.009185,-0.000803,0.004239
0.6825000000000045,-0.021832,0.000644,0.005621
0.6850000000000023,-0.031514,-0.004102,0.002707
0.6875,-0.041738,0.000571,0.003301
0.6899999999999977,-0.060305,0.000484,0.00227
0.6924999999999955,-0.066084,-0.003597,0.000148
0.6949999999999932,-0.081958,0.000475,0.001501
0.6974999999999909,-0.097282,-0.002331,0.000479
0.6999999999999886,-0.113553,-0.002159,0.0011
0.7024999999999864,-0.130738,-0.005805,0.004807
0.7049999999999841,-0.143285,-0.002681,0.000293
0.7074999999999818,-0.161426,-0.001425,0.004161
0.7099999999999795,-0.177833,-0.003801,0.006569
0.7124999999999773,-0.196548,-0.002795,0.005659
0.714999999999975,-0.21414,-0.004245,0.005039
0.7174999999999727,-0.228189,-0.007267,0.00082
0.7199999999999704,-0.245822,-0.007281,0.006255
0.7224999999999682,-0.261413,-0.005704,0.001269
0.7249999999999659,-0.279941,-0.006564,0.002482
0.7274999999999636,-0.298394,0.000829,0.001404
0.7299999999999613,-0.313725,-0.004946,0.00171
0.7324999999999591,-0.329149,-0.000849,0.002234
0.7349999999999568,-0.345141,-0.00491,0.000485
0.7374999999999545,-0.358285,-0.004715,0.000129
0.7399999999999523,-0.373034,-0.008155,-0.000294
0.7425000000000068,-0.386117,-0.003242,0.000236
0.7450000000000045,-0.402111,-0.005606,-0.002222
0.7475000000000023,-0.410543,-0.007942,-0.000975
0.75,-0.42444,-0.004649,-0.002085
0.7524999999999977,-0.428464,-0.006805,-0.003421
0.7549999999999955,-0.44149,-0.0009,-0.004011
0.7574999999999932,-0.445211,-0.004026,-0.005016
0.7599999999999909,-0.449158,-0.000691,-0.003979
0.7624999999999886,-0.454667,0.002316,-0.005259
0.7649999999999864,-0.459474,0.001919,-0.00487
0.7674999999999841,-0.457814,0.004589,-0.006394
0.7699999999999818,-0.458582,0.006027,-0.007711
0.7724999999999795,-0.454921,0.005142,-0.009148
0.7749999999999773,-0.451487,0.004479,-0.006808
0.777499999999975,-0.441696,0.006231,-0.008082
0.7799999999999727,-0.440101,0.005201,-0.00975
0.7824999999999704,-0.43547,0.008631,-0.008833
0.7849999999999682,-0.424877,0.007503,-0.011824
0.7874999999999659,-0.418402,0.011263,-0.011998
0.7899999999999636,-0.411616,0.01001,-0.01646
0.7924999999999613,-0.399649,0.015631,-0.017707
0.7949999999999591,-0.389971,0.014574,-0.020161
0.7974999999999568,-0.380802,0.01165,-0.02344
0.7999999999999545,-0.369489,0.01434,-0.022706
0.8024999999999523,-0.358579,0.01427,-0.024793
0.8050000000000068,-0.349109,0.010788,-0.030258
0.8075000000000045,-0.337157,0.010932,-0.031699
0.8100000000000023,-0.324857,0.009335,-0.034627
0.8125,-0.316294,0.008395,-0.034319
0.8149999999999977,-0.307462,0.00528,-0.03756
0.8174999999999955,-0.300266,0.00403,-0.04085
0.8199999999999932,-0.293642,-0.004545,-0.044177
0.8224999999999909,-0.283515,-0.001086,-0.041671
0.8249999999999886,-0.277631,-0.005054,-0.041354
0.8274999999999864,-0.270033,-0.006816,-0.04362
0.8299999999999841,-0.271262,-0.008608,-0.044671
0.8324999999999818,-0.259398,-0.013286,-0.047307
0.8349999999999795,-0.257286,-0.015488,-0.045142
0.8374999999999773,-0.255251,-0.014488,-0.047185
0.839999999999975,-0.25143,-0.019175,-0.047012
0.8424999999999727,-0.253204,-0.021619,-0.045554
0.8449999999999704,-0.253402,-0.022012,-0.045031
0.8474999999999682,-0.250225,-0.019921,-0.044639
0.8499999999999659,-0.251064,-0.020087,-0.041072
0.8524999999999636,-0.25547,-0.022653,-0.039896
0.8549999999999613,-0.255528,-0.024047,-0.037284
0.8574999999999591,-0.257103,-0.02477,-0.037399
0.8599999999999568,-0.262208,-0.026619,-0.035253
0.8624999999999545,-0.265197,-0.023974,-0.03473
0.8649999999999523,-0.268842,-0.022984,-0.036189
0.8675000000000068,-0.275399,-0.024079,-0.027174
0.8700000000000045,-0.280567,-0.028054,-0.031164
0.8725000000000023,-0.286782,-0.030734,-0.030904
0.875,-0.291382,-0.029129,-0.029604
0.8774999999999977,-0.296381,-0.03022,-0.029974
0.8799999999999955,-0.305688,-0.03449,-0.029878
0.8824999999999932,-0.316499,-0.037608,-0.0283
0.8849999999999909,-0.323012,-0.038771,-0.032204
0.8874999999999886,-0.33274,-0.038381,-0.028093
0.8899999999999864,-0.344318,-0.044972,-0.027703
0.8924999999999841,-0.352386,-0.044551,-0.029537
0.8949999999999818,-0.362878,-0.048034,-0.03054
0.8974999999999795,-0.376883,-0.053647,-0.031947
0.8999999999999773,-0.386171,-0.056902,-0.034554
0.902499999999975,-0.39835,-0.058715,-0.028986
0.9049999999999728,-0.408335,-0.055519,-0.029564
0.9074999999999704,-0.421998,-0.059582,-0.030071
0.9099999999999682,-0.433521,-0.058842,-0.026023
0.912499999999966,-0.444491,-0.059764,-0.023049
0.9149999999999636,-0.455445,-0.056309,-0.019798
0.9174999999999612,-0.471042,-0.055133,-0.01772
0.9199999999999592,-0.483926,-0.053813,-0.016373
0.9224999999999568,-0.495875,-0.050937,-0.010274
0.9249999999999544,-0.504001,-0.050163,-0.010489
0.9274999999999524,-0.516707,-0.047995,-0.007935
0.9300000000000068,-0.527929,-0.043435,-0.006543
0.9325000000000044,-0.538929,-0.043298,-0.004555
0.9350000000000024,-0.550884,-0.042851,-0.003323
0.9375,-0.561126,-0.041093,-0.007564
0.9399999999999976,-0.571942,-0.037977,-0.005405
0.9424999999999956,-0.582978,-0.039941,-0.004412
0.9449999999999932,-0.593254,-0.041763,-0.00422
0.9474999999999908,-0.599501,-0.037669,-0.00392
0.9499999999999886,-0.60809,-0.036265,-0.004812
0.9524999999999864,-0.617783,-0.037788,-0.009185
0.954999999999984,-0.62702,-0.040206,-0.009295
0.9574999999999818,-0.631169,-0.039104,-0.013082
0.9599999999999796,-0.637989,-0.040171,-0.015518
0.9624999999999772,-0.646521,-0.041489,-0.018603
0.964999999999975,-0.65337,-0.038588,-0.020151
0.9674999999999728,-0.657088,-0.045474,-0.024085
0.9699999999999704,-0.663404,-0.038584,-0.029406
0.9724999999999682,-0.670594,-0.043733,-0.028948
0.974999999999966,-0.67118,-0.043042,-0.032398
0.9774999999999636,-0.677438,-0.040993,-0.036688
0.9799999999999612,-0.679915,-0.037928,-0.039275
0.9824999999999592,-0.685845,-0.034842,-0.039582
0.9849999999999568,-0.686425,-0.034888,-0.045188
0.9874999999999544,-0.688757,-0.030866,-0.051378
0.9899999999999524,-0.690915,-0.026038,-0.047974
0.9925000000000068,-0.693631,-0.02573,-0.049819
0.9950000000000044,-0.699254,-0.018072,-0.056218
0.9975000000000024,-0.690648,-0.016855,-0.055391
1.0,-0.696103,-0.01476,-0.058699
1.0024999999999975,-0.693099,-0.011875,-0.058122
1.0049999999999957,-0.694601,-0.001827,-0.05938
1.0074999999999932,-0.693119,0.002252,-0.062497
1.009999999999991,-0.690895,0.002173,-0.060686
1.0124999999999886,-0.686322,0.01029,-0.05946
1.0149999999999864,-0.688848,0.012036,-0.060657
1.017499999999984,-0.685276,0.012267,-0.061001
1.0199999999999818,-0.682741,0.022388,-0.061727
1.0224999999999795,-0.672628,0.021344,-0.060444
1.0249999999999773,-0.667995,0.025665,-0.064635
1.027499999999975,-0.665978,0.02422,-0.061435
1.0299999999999727,-0.662986,0.025547,-0.063832
1.0324999999999704,-0.657052,0.032278,-0.066838
1.0349999999999682,-0.651574,0.027242,-0.066631
1.037499999999966,-0.64788,0.029916,-0.067253
1.0399999999999636,-0.645243,0.02609,-0.0663
1.0424999999999611,-0.637399,0.022418,-0.066373
1.044999999999959,-0.635363,0.022257,-0.067355
1.0474999999999568,-0.626926,0.023242,-0.068943
1.0499999999999543,-0.623816,0.023052,-0.066688
1.0524999999999525,-0.619395,0.020591,-0.067499
1.0550000000000068,-0.614375,0.019305,-0.067408
1.0575000000000043,-0.60924,0.017832,-0.061278
1.0600000000000025,-0.608707,0.014911,-0.062476
1.0625,-0.607742,0.017714,-0.064649
1.0649999999999975,-0.605272,0.017672,-0.057782
1.0674999999999957,-0.604014,0.015209,-0.054149
1.0699999999999932,-0.602381,0.014738,-0.052236
1.072499999999991,-0.602377,0.015869,-0.048305
1.0749999999999886,-0.600632,0.013594,-0.047155
1.0774999999999864,-0.600742,0.013568,-0.045213
1.079999999999984,-0.607292,0.012567,-0.043476
1.0824999999999818,-0.60516,0.012272,-0.036532
1.0849999999999795,-0.605676,0.011446,-0.031181
1.0874999999999773,-0.611691,0.011236,-0.026624
1.089999999999975,-0.612146,0.011795,-0.024548
1.0924999999999727,-0.613876,0.009472,-0.024094
1.0949999999999704,-0.620011,0.009661,-0.022574
1.0974999999999682,-0.621101,0.007626,-0.016893
1.099999999999966,-0.624387,0.010487,-0.014006
1.1024999999999636,-0.62803,0.001555,-0.009805
1.1049999999999611,-0.629769,0.007644,-0.007473
1.107499999999959,-0.638108,0.002409,-0.004412
1.1099999999999568,-0.641845,0.000516,-0.000671
1.1124999999999543,-0.644696,0.003465,0.001398
1.1149999999999525,-0.650266,0.005191,0.002169
1.1175000000000068,-0.656569,-0.002542,0.003434
1.1200000000000043,-0.660338,-0.001803,0.00742
1.1225000000000025,-0.663693,-0.004891,0.008457
1.125,-0.669301,-0.002916,0.00701
1.1274999999999975,-0.673646,-0.003593,0.011591
1.1299999999999957,-0.681776,-0.003485,0.013734
1.1324999999999932,-0.685385,-0.006272,0.010792
1.134999999999991,-0.687757,-0.008222,0.010482
1.1374999999999886,-0.696741,-0.008211,0.009642
1.1399999999999864,-0.700305,-0.012434,0.010817
1.142499999999984,-0.707173,-0.004464,0.010986
1.1449999999999818,-0.712159,-0.009598,0.007472
1.1474999999999795,-0.717154,-0.010274,0.009041
1.1499999999999773,-0.722784,-0.010514,0.008414
1.152499999999975,-0.730015,-0.01343,0.006951
1.1549999999999727,-0.739867,-0.013655,0.003055
1.1574999999999704,-0.741927,-0.013159,0.001665
1.1599999999999682,-0.746688,-0.015606,-0.00359
1.162499999999966,-0.755368,-0.013343,-0.001189
1.1649999999999636,-0.757073,-0.015597,-0.008258
1.1674999999999611,-0.76638,-0.014535,-0.010197
1.169999999999959,-0.769965,-0.0144,-0.011188
1.1724999999999568,-0.775664,-0.017048,-0.015214
1.1749999999999543,-0.779924,-0.012754,-0.015554
1.1774999999999525,-0.789106,-0.017852,-0.01882
1.1800000000000068,-0.796257,-0.010669,-0.021096
1.1825000000000043,-0.801416,-0.013958,-0.021808
1.1850000000000025,-0.808828,-0.016749,-0.024435
1.1875,-0.816481,-0.015143,-0.022145
1.1899999999999975,-0.823374,-0.01124,-0.025803
1.1924999999999957,-0.829171,-0.014047,-0.029677
1.1949999999999932,-0.83977,-0.009817,-0.030191
1.197499999999991,-0.84455,-0.008784,-0.032027
1.1999999999999886,-0.849299,-0.008978,-0.034371
1.2024999999999864,-0.855305,-0.004886,-0.035293
1.204999999999984,-0.861766,-0.003295,-0.034049
1.2074999999999818,-0.870437,2e-05,-0.033134
1.2099999999999795,-0.874123,-0.001286,-0.034536
1.2124999999999773,-0.882295,0.002073,-0.039138
1.214999999999975,-0.889346,0.001246,-0.04103
1.2174999999999727,-0.898236,0.006562,-0.038935
1.2199999999999704,-0.900972,0.009727,-0.043108
1.2224999999999682,-0.910461,0.01408,-0.039119
1.224999999999966,-0.912239,0.015617,-0.042996
1.2274999999999636,-0.918381,0.016994,-0.040069
1.2299999999999611,-0.928478,0.019669,-0.037207
1.232499999999959,-0.933632,0.020598,-0.038165
1.2349999999999568,-0.93693,0.01903,-0.041316
1.2374999999999543,-0.942849,0.020868,-0.041412
1.2399999999999525,-0.949341,0.018459,-0.038971
1.2425000000000068,-0.952915,0.018205,-0.039001
1.2450000000000043,-0.961037,0.021369,-0.038247
1.2475000000000025,-0.961805,0.023945,-0.039779
1.25,-0.967601,0.020599,-0.03836
1.2524999999999975,-0.971906,0.019234,-0.039323
1.2549999999999957,-0.979527,0.025743,-0.039929
1.2574999999999932,-0.983,0.015635,-0.039516
1.259999999999991,-0.984899,0.021171,-0.034909
1.2624999999999886,-0.992555,0.018532,-0.038445
1.2649999999999864,-0.992036,0.018046,-0.033352
1.267499999999984,-0.994401,0.018121,-0.033191
1.2699999999999818,-0.995319,0.01941,-0.032133
1.2724999999999795,-0.996666,0.015932,-0.031714
1.2749999999999773,-0.998126,0.016842,-0.027692
1.277499999999975,-1.003322,0.014513,-0.02827
1.2799999999999727,-1.004388,0.01161,-0.031063
1.2824999999999704,-1.004502,0.009305,-0.027326
1.2849999999999682,-1.007501,0.010758,-0.027229
1.287499999999966,-1.009269,0.007994,-0.023995
1.2899999999999636,-1.00952,0.009567,-0.02521
1.2924999999999611,-1.014181,0.00963,-0.025068
1.294999999999959,-1.013127,0.008918,-0.023796
1.2974999999999568,-1.011186,0.007319,-0.026007
1.2999999999999543,-1.01502,0.007793,-0.022705
1.3024999999999525,-1.018043,0.00793,-0.024681
1.3050000000000068,-1.015717,0.007647,-0.023431
1.3075000000000043,-1.018989,0.004967,-0.024395
1.3100000000000025,-1.018594,0.008481,-0.02351
1.3125,-1.023032,0.008059,-0.022174
1.3149999999999975,-1.022578,0.004994,-0.021839
1.3174999999999957,-1.023905,0.00655,-0.02162
1.3199999999999932,-1.021786,0.00774,-0.022501
1.322499999999991,-1.026124,0.003322,-0.021356
1.3249999999999886,-1.022923,0.003611,-0.020322
1.3274999999999864,-1.022545,0.001282,-0.017989
1.329999999999984,-1.024515,0.003099,-0.014699
1.3324999999999818,-1.020395,-0.00149,-0.009799
1.3349999999999795,-1.0169,-0.003853,-0.007048
1.3374999999999773,-1.016753,-0.006595,0.001068
1.339999999999975,-1.011256,-0.005573,0.004248
1.3424999999999727,-1.005776,-0.008285,0.010046
1.3449999999999704,-1.000046,-0.012256,0.018897
1.3474999999999682,-0.99144,-0.016448,0.029772
1.349999999999966,-0.986879,-0.019085,0.041091
1.3524999999999636,-0.976384,-0.02666,0.051116
1.3549999999999611,-0.966674,-0.034884,0.061584
1.357499999999959,-0.955101,-0.040783,0.07311
1.3599999999999568,-0.947961,-0.046268,0.088889
1.3624999999999543,-0.933986,-0.055176,0.101499
1.3649999999999525,-0.925781,-0.060967,0.113896
1.3675000000000068,-0.908755,-0.073653,0.12786
1.3700000000000043,-0.903035,-0.082168,0.143958
1.3725000000000025,-0.890683,-0.095077,0.159685
1.375,-0.876112,-0.108925,0.168895
1.3774999999999975,-0.87243,-0.118108,0.179821
1.3799999999999957,-0.860849,-0.134209,0.186796
1.3824999999999932,-0.85063,-0.147139,0.196753
1.384999999999991,-0.836888,-0.163068,0.206056
1.3874999999999886,-0.828093,-0.176346,0.20748
1.3899999999999864,-0.817365,-0.192519,0.217874
1.392499999999984,-0.807455,-0.202771,0.223957
1.3949999999999818,-0.790414,-0.210166,0.231492
1.3974999999999795,-0.780109,-0.212963,0.23436
1.3999999999999773,-0.765246,-0.22082,0.237186
1.402499999999975,-0.753112,-0.223602,0.24071
1.4049999999999727,-0.744119,-0.22583,0.244463
1.4074999999999704,-0.729394,-0.225993,0.241516
1.4099999999999682,-0.712213,-0.220318,0.237013
1.412499999999966,-0.701374,-0.211792,0.23
1.4149999999999636,-0.682697,-0.208174,0.221875
1.4174999999999611,-0.667098,-0.195004,0.208975
1.419999999999959,-0.651485,-0.182731,0.189284
1.4224999999999568,-0.62785,-0.167733,0.166779
1.4249999999999543,-0.608878,-0.155626,0.141347
1.4274999999999525,-0.59095,-0.138289,0.114725
1.4300000000000068,-0.56974,-0.120778,0.087851
1.4325000000000043,-0.54961,-0.105725,0.059908
1.4350000000000025,-0.531349,-0.088112,0.039309
1.4375,-0.51048,-0.070134,0.019621
1.4399999999999975,-0.489831,-0.054537,9.9e-05
1.4424999999999957,-0.467573,-0.042693,-0.008851
1.4449999999999932,-0.447926,-0.026442,-0.02612
1.447499999999991,-0.422679,-0.007494,-0.029422
1.4499999999999886,-0.401492,0.007667,-0.033498
1.4524999999999864,-0.382188,0.016402,-0.035813
1.454999999999984,-0.358897,0.027762,-0.037876
1.4574999999999818,-0.339259,0.037976,-0.038224
1.4599999999999795,-0.315736,0.040356,-0.033523
1.4624999999999773,-0.295526,0.042669,-0.031167
1.464999999999975,-0.278181,0.044464,-0.031164
1.4674999999999727,-0.260027,0.040317,-0.023873
1.4699999999999704,-0.244758,0.036924,-0.021897
1.4724999999999682,-0.229524,0.031786,-0.015441
1.474999999999966,-0.212863,0.021676,-0.014274
1.4774999999999636,-0.204104,0.019915,-0.010777
1.4799999999999611,-0.187741,0.011999,-0.009827
1.482499999999959,-0.176595,0.004464,-0.005719
1.4849999999999568,-0.160526,0.000448,-0.00277
1.4874999999999543,-0.149709,-0.007562,-6.1e-05
1.4899999999999525,-0.140749,-0.011261,0.001901
1.4925000000000068,-0.133125,-0.010771,0.00403
1.4950000000000043,-0.126058,-0.012356,0.003589
1.4975000000000025,-0.114577,-0.01283,0.009439
1.5,-0.10602,-0.014667,0.008398
1.5024999999999975,-0.099851,-0.005604,0.005492
1.5049999999999957,-0.096878,-0.00415,0.004781
1.5074999999999932,-0.092417,-0.006144,0.001375
1.509999999999991,-0.085437,-0.00401,0.001689
1.5124999999999886,-0.084563,-3.9e-05,0.000826
1.5149999999999864,-0.0798,0.000357,-0.004134
1.517499999999984,-0.074901,0.002476,-0.002669
1.5199999999999818,-0.072652,0.000788,-0.002672
1.5224999999999795,-0.072385,0.005373,-0.000812
1.5249999999999773,-0.072642,0.008284,-0.003468
1.527499999999975,-0.07066,0.003394,-0.003502
1.5299999999999727,-0.073503,0.004558,-0.001754
1.5324999999999704,-0.076728,0.001418,-0.001715
1.5349999999999682,-0.08079,-0.000367,0.000913
1.537499999999966,-0.082619,0.001315,-0.001231
1.5399999999999636,-0.08422,-0.001931,-0.00281
1.5424999999999611,-0.090943,-0.001794,0.000418
1.544999999999959,-0.09089,-0.007188,0.00326
1.5474999999999568,-0.100125,-0.009926,0.002722
1.5499999999999543,-0.102112,-0.008427,-0.00166
1.5524999999999525,-0.110556,-0.007942,-0.003292
1.5550000000000068,-0.115968,-0.005443,3.5e-05
1.5575000000000043,-0.121389,-0.007217,-0.006615
1.5600000000000025,-0.124891,-0.006154,1.6e-05
1.5625,-0.129625,-0.004318,-0.003979
1.5649999999999975,-0.13634,-0.000606,-0.004706
1.5674999999999957,-0.144571,-0.004564,-0.004688
1.5699999999999932,-0.149596,-0.005385,-0.000973
1.572499999999991,-0.156322,-0.005479,-0.003333
1.5749999999999886,-0.158623,-0.003125,-0.003307
1.5774999999999864,-0.166471,-0.004356,-0.002782
1.579999999999984,-0.17186,-0.002834,-0.003059
1.5824999999999818,-0.178733,-0.006272,-0.000344
1.5849999999999795,-0.183558,-0.00435,-0.001584
1.5874999999999773,-0.187066,-0.007318,-0.001237
1.589999999999975,-0.193429,-0.00746,-0.000396
1.5924999999999727,-0.196962,-0.006181,0.001132
1.5949999999999704,-0.201219,-0.005598,-0.000425
1.5974999999999682,-0.20386,-0.007206,0.001998
1.599999999999966,-0.210466,-0.006416,0.001992
1.6024999999999636,-0.21001,-0.008751,0.002622
1.6049999999999611,-0.217274,-0.012894,-0.001006
1.607499999999959,-0.217672,-0.012191,-0.002329
1.6099999999999568,-0.220156,-0.007707,0.00158
1.6124999999999543,-0.219016,-0.007237,-0.001033
1.6149999999999525,-0.218265,-0.007412,0.002944
1.6175000000000068,-0.220388,-0.005342,-0.000235
1.6200000000000043,-0.223091,-0.005835,-4.5e-05
1.6225000000000025,-0.219902,-0.00723,-0.000525
1.625,-0.225909,-0.003026,0.000253
1.6274999999999975,-0.227383,-0.006172,-0.001913
1.6299999999999957,-0.228407,-0.003429,-0.004688
1.6324999999999932,-0.22593,0.002239,-0.001225
1.634999999999991,-0.231665,-0.000674,-0.003017
1.6374999999999886,-0.233877,0.004581,-0.000997
1.6399999999999864,-0.231373,0.005185,-0.001194
1.642499999999984,-0.239293,0.001568,-0.001597
1.6449999999999818,-0.235739,-1e-05,-0.001065
1.6474999999999795,-0.242259,0.006186,0.001345
1.6499999999999773,-0.246865,0.000428,-0.000922
1.652499999999975,-0.249676,0.00092,-0.002572
1.6549999999999727,-0.253069,0.004476,-0.000656
1.6574999999999704,-0.257909,0.003407,-0.002694
1.6599999999999682,-0.263533,-0.000577,0.000752
1.662499999999966,-0.268397,-0.001329,0.001369
1.6649999999999636,-0.268668,0.00198,-2.7e-05
1.6674999999999611,-0.274622,0.001698,0.001479
1.669999999999959,-0.284888,-0.002469,-0.00212
1.6724999999999568,-0.287136,-0.002886,0.002716
1.6749999999999543,-0.289907,-0.001518,0.001412
1.6774999999999525,-0.298187,0.001139,0.001577
1.6800000000000068,-0.304863,-0.002284,0.000513
1.6825000000000043,-0.312445,0.002062,0.002607
1.6850000000000025,-0.315756,0.00068,0.003958
1.6875,-0.322892,-0.000767,0.002577
1.6899999999999975,-0.331077,-0.003074,0.005195
1.6924999999999957,-0.336295,-0.00138,0.002418
1.6949999999999932,-0.344442,0.002224,0.002409
1.697499999999991,-0.351711,-0.000428,0.002471
1.6999999999999886,-0.356209,9.5e-05,0.003611
1.7024999999999864,-0.3618,0.004827,0.004629
1.704999999999984,-0.372525,-0.002731,0.002296
1.7074999999999818,-0.373936,-0.003861,0.002984
1.7099999999999795,-0.379612,-0.003131,0.000529
1.7124999999999773,-0.388278,-0.00397,0.006557
1.714999999999975,-0.394593,-0.003199,0.004717
1.7174999999999727,-0.398909,-0.004952,0.006019
1.7199999999999704,-0.403495,-0.001007,0.006627
1.7224999999999682,-0.407167,9.9e-05,0.000428
1.724999999999966,-0.412563,-0.002912,0.003975
1.7274999999999636,-0.419171,-0.004895,0.003476
1.7299999999999611,-0.424275,-0.001074,0.002287
1.732499999999959,-0.429958,-0.006485,0.000834
1.7349999999999568,-0.435065,-0.000386,0.002649
1.7374999999999543,-0.440303,-0.0012,0.00136
1.7399999999999525,-0.446533,0.001168,0.004462
1.7425000000000068,-0.448453,0.000931,0.004504
1.7450000000000043,-0.460129,0.004327,0.00364
1.7475000000000025,-0.468412,0.00237,0.005194
1.75,-0.470695,-0.00221,0.001677
1.7524999999999975,-0.478384,0.003286,0.002972
1.7549999999999957,-0.487001,-0.000472,0.002455
1.7574999999999932,-0.494959,-0.000606,0.001573
1.759999999999991,-0.496537,-0.001955,0.00188
1.7624999999999886,-0.503789,0.002154,0.001683
1.7649999999999864,-0.513962,0.004693,0.006493
1.767499999999984,-0.519519,0.003377,0.002288
1.7699999999999818,-0.528501,0.003719,0.003544
1.7724999999999795,-0.540021,0.002678,0.002951
1.7749999999999773,-0.545985,-0.001468,0.000339
1.777499999999975,-0.554432,0.000795,0.005224
1.7799999999999727,-0.564066,-0.001688,0.003067
1.7824999999999704,-0.572325,0.002035,0.003425
1.7849999999999682,-0.58375,-8.2e-05,0.005829
1.787499999999966,-0.587188,0.000247,0.003598
1.7899999999999636,-0.593743,-0.002162,0.00908
1.7924999999999611,-0.608303,0.003613,0.00295
1.794999999999959,-0.615397,-0.000589,0.004465
1.7974999999999568,-0.624324,-0.004202,0.003376
1.7999999999999543,-0.639485,-0.00391,-0.000365
1.8024999999999525,-0.644833,-0.000702,0.003169
1.8050000000000068,-0.653245,-0.002716,0.005
1.8075000000000043,-0.663892,-0.00466,0.002328
1.8100000000000025,-0.673473,-0.006008,0.00292
1.8125,-0.685491,-0.002989,0.002449
1.8149999999999975,-0.696497,-0.003824,0.001001
1.8174999999999957,-0.705788,-0.005332,0.001142
1.8199999999999927,-0.715681,-0.002745,-0.003691
1.822499999999991,-0.722705,-0.003465,0.001685
1.8249999999999889,-0.735033,-0.003022,8.4e-05
1.8274999999999864,-0.742953,-0.003058,0.002199
1.829999999999984,-0.751802,-0.006694,-0.000349
1.8324999999999816,-0.767037,-0.00806,-0.00267
1.8349999999999795,-0.774376,-0.008091,-6.3e-05
1.8374999999999773,-0.786767,-0.007921,-0.001831
1.839999999999975,-0.795724,-0.005922,-0.003722
1.8424999999999727,-0.806829,-0.003457,-0.000635
1.8449999999999704,-0.818664,-0.000767,-0.00125
1.847499999999968,-0.82759,-0.001523,0.001416
1.849999999999966,-0.838031,-0.002445,-0.001182
1.852499999999964,-0.845,-0.002557,-0.002706
1.8549999999999611,-0.855682,-0.003555,-0.001481
1.857499999999959,-0.867592,-0.004166,-0.002551
1.8599999999999568,-0.879269,-0.005326,9.3e-05
1.8624999999999543,-0.887983,-0.007343,-0.000702
1.8649999999999525,-0.895587,-0.007162,0.002978
1.8675000000000068,-0.908062,-0.008203,-0.001597
1.8700000000000043,-0.917514,-0.005852,-0.002667
1.8725000000000025,-0.923357,-0.009315,-0.000872
1.875,-0.935722,-0.003837,-0.004084
1.8774999999999975,-0.945561,-0.00664,-0.001794
1.8799999999999957,-0.956121,-0.006551,-0.001521
1.8824999999999927,-0.966043,-0.003655,-0.006099
1.884999999999991,-0.976499,-0.006118,-0.004788
1.8874999999999889,-0.984006,-0.003487,-0.003876
1.8899999999999864,-0.992936,-0.002795,-0.003506
1.892499999999984,-1.001676,-0.004117,-0.004575
1.8949999999999816,-1.011108,-0.007315,-0.007927
1.8974999999999795,-1.018015,-0.005242,-0.004552
1.8999999999999773,-1.026912,-0.003995,-0.00356
1.902499999999975,-1.033548,-0.002204,-0.004555
1.9049999999999727,-1.042621,-0.003769,-0.005518
1.9074999999999704,-1.047895,-0.000598,-0.007714
1.909999999999968,-1.058661,0.00264,-0.003864
1.912499999999966,-1.066235,-0.004998,-0.002511
1.914999999999964,-1.070358,-0.004095,-0.005773
1.9174999999999611,-1.078433,-0.003713,-0.004749
1.919999999999959,-1.088469,-0.000611,-0.005262
1.9224999999999568,-1.093018,-0.002642,-0.004649
1.9249999999999543,-1.095419,-0.000623,-0.003098
1.9274999999999525,-1.102563,-0.000985,-0.005805
1.9300000000000068,-1.111064,-0.000495,-0.005706
1.9325000000000043,-1.118179,-0.004438,-0.00459
1.9350000000000025,-1.122886,-0.001742,-0.004484
1.9375,-1.126266,-0.000802,-9.5e-05
1.9399999999999975,-1.131568,-0.001512,-0.001936
1.9424999999999957,-1.137318,-0.000772,0.001252
1.9449999999999927,-1.14251,-0.003763,-0.002399
1.947499999999991,-1.144958,-2.8e-05,0.000424
1.9499999999999889,-1.151634,0.000263,0.00126
1.9524999999999864,-1.153401,-0.00491,0.001527
1.954999999999984,-1.153063,-0.001414,-0.000216
1.9574999999999816,-1.157782,-0.001638,3.8e-05
1.9599999999999795,-1.15897,-0.001429,-0.001855
1.9624999999999773,-1.159733,-0.003581,0.000355
1.964999999999975,-1.160503,-0.00284,0.000172
1.9674999999999727,-1.161194,-0.005305,-0.002655
1.9699999999999704,-1.158894,-6.7e-05,-0.000107
1.972499999999968,-1.158914,-0.003861,-0.001842
1.974999999999966,-1.158053,-0.003965,0.001753
1.977499999999964,-1.153507,-0.003183,0.004057
1.9799999999999611,-1.153636,0.001017,0.003014
1.982499999999959,-1.150939,-0.000243,0.00278
1.9849999999999568,-1.146108,-0.002681,0.004131
1.9874999999999543,-1.139366,-0.003107,0.006796
1.9899999999999525,-1.132858,-0.004119,0.003348
1.9925000000000068,-1.13062,-0.005396,0.001977
1.9950000000000043,-1.123564,-0.005673,-0.000255
1.9975000000000025,-1.118724,-0.002244,0.002842
2.0,-1.115054,-0.002846,0.002358
2.0024999999999977,-1.106121,-0.005576,-0.000958
2.0049999999999955,-1.101441,-0.003834,0.001495
2.007499999999993,-1.093048,-0.007686,-0.000791
2.009999999999991,-1.084042,-0.011304,-0.000113
2.0124999999999886,-1.07219,-0.007735,-0.003266
2.0149999999999864,-1.065329,-0.005107,-0.00035
2.017499999999984,-1.057676,-0.009507,-0.000402
2.019999999999982,-1.04681,-0.008292,-0.003088
2.0224999999999795,-1.03757,-0.005227,0.001081
2.0249999999999773,-1.03063,-0.00508,-0.001864
2.027499999999975,-1.020277,-0.006442,0.001227
2.0299999999999727,-1.010181,-0.001447,0.000291
2.0324999999999704,-0.998087,-0.003746,0.002532
2.034999999999968,-0.995639,-0.002001,0.001553
2.037499999999966,-0.981871,-0.003503,0.004109
2.039999999999964,-0.970926,-0.001234,0.001573
2.0424999999999613,-0.960909,-0.002119,-7.6e-05
2.044999999999959,-0.95201,0.0014,-0.003523
2.047499999999957,-0.940772,-0.000525,-0.000684
2.0499999999999545,-0.93094,0.000403,0.000799
2.0524999999999523,-0.921509,0.00084,-0.003307
2.055000000000007,-0.90943,-0.003098,-0.002979
2.0575000000000045,-0.901163,-0.000881,-0.002275
2.0600000000000023,-0.889458,-0.00044,-0.001898
2.0625,-0.883588,0.001504,-0.00367
2.0649999999999977,-0.868204,-0.002161,-0.002588
2.0674999999999955,-0.863819,-0.000218,-0.003114
2.069999999999993,-0.858127,0.000312,-0.003105
2.072499999999991,-0.846802,0.001005,-0.004089
2.0749999999999886,-0.836635,0.004173,-0.002088
2.0774999999999864,-0.826326,0.000172,-0.003794
2.079999999999984,-0.817779,-0.002047,-0.005433
2.082499999999982,-0.807247,-0.001644,-0.004859
2.0849999999999795,-0.800809,-0.001954,-0.002505
2.0874999999999773,-0.793493,-0.00111,-0.002974
2.089999999999975,-0.784962,-0.003207,-0.004612
2.0924999999999727,-0.779118,0.000504,-0.002423
2.0949999999999704,-0.77062,0.001398,-0.001511
2.097499999999968,-0.761582,0.000694,-0.001654
2.099999999999966,-0.751989,0.000315,-0.005226
2.102499999999964,-0.74604,0.001473,-0.001162
2.1049999999999613,-0.736597,-0.00287,-0.004198
2.107499999999959,-0.732801,-0.001375,-0.008366
2.109999999999957,-0.724042,0.002421,-0.002562
2.1124999999999545,-0.715926,0.000513,-0.007077
2.1149999999999523,-0.709948,-0.003448,-0.004363
2.117500000000007,-0.698325,-0.002663,-0.001141
2.1200000000000045,-0.697225,-0.005564,-0.003019
2.1225000000000023,-0.688152,0.000679,-0.006936
2.125,-0.681478,0.001723,-0.005011
2.1274999999999977,-0.675899,0.000849,-0.003138
2.1299999999999955,-0.666173,0.002863,-0.003356
2.132499999999993,-0.661974,0.003449,-0.004879
2.134999999999991,-0.656575,-0.002418,-0.000603
2.1374999999999886,-0.64887,-0.00134,0.00423
2.1399999999999864,-0.641908,0.00587,-0.000407
2.142499999999984,-0.635926,-0.003077,-0.002493
2.144999999999982,-0.629519,-0.003131,0.000488
2.1474999999999795,-0.623281,0.001612,-0.00249
2.1499999999999773,-0.619538,0.000282,-0.00056
2.152499999999975,-0.611687,0.002181,0.000884
2.1549999999999727,-0.607102,0.00389,0.001185
2.1574999999999704,-0.604475,0.0022,0.001993
2.159999999999968,-0.599481,-0.000301,-0.001845
2.162499999999966,-0.593352,0.003014,-0.00104
2.164999999999964,-0.590353,0.000603,0.002935
2.1674999999999613,-0.585745,0.002951,0.000592
2.169999999999959,-0.58299,0.000837,0.001542
2.172499999999957,-0.580119,-0.000353,0.002191
2.1749999999999545,-0.57559,0.004109,0.001743
2.1774999999999523,-0.574172,0.003726,0.003643
2.180000000000007,-0.567661,0.003973,0.000454
2.1825000000000045,-0.567579,-0.000289,0.001661
2.1850000000000023,-0.566143,0.002729,-0.000618
2.1875,-0.563686,-0.000349,0.000101
2.1899999999999977,-0.560704,-0.003132,-0.001448
2.1924999999999955,-0.557168,-0.001943,-0.000936
2.194999999999993,-0.556751,0.000275,0.000495
2.197499999999991,-0.558452,-0.001192,0.000312
2.1999999999999886,-0.562128,-0.002985,0.001074
2.2024999999999864,-0.553981,-0.003861,-0.002241
2.204999999999984,-0.555532,-0.004277,0.00345
2.207499999999982,-0.558783,-0.001176,0.000291
2.2099999999999795,-0.557281,0.000169,-0.000317
2.2124999999999773,-0.557649,-0.000221,-0.000344
2.214999999999975,-0.554113,0.000884,0.0002
2.2174999999999727,-0.556448,0.002553,0.00177
2.2199999999999704,-0.560334,0.004978,-0.001249
2.222499999999968,-0.562015,0.003203,0.001613
2.224999999999966,-0.56131,0.000515,-0.000928
2.227499999999964,-0.560556,0.002988,0.003741
2.2299999999999613,-0.560489,0.003696,0.001767
2.232499999999959,-0.566389,-0.000384,0.002939
2.234999999999957,-0.569898,0.001002,0.000738
2.2374999999999545,-0.566854,0.001461,0.003076
2.2399999999999523,-0.571051,-0.000362,0.003897
2.242500000000007,-0.573255,0.005142,-0.000107
2.2450000000000045,-0.579217,0.001193,-0.000104
2.2475000000000023,-0.578848,0.003371,-0.000413
2.25,-0.581639,-0.00191,-0.000292
2.2524999999999977,-0.58517,-0.000802,0.002327
2.2549999999999955,-0.589502,-0.00069,-0.000675
2.257499999999993,-0.589937,-0.002876,0.002468
2.259999999999991,-0.593403,0.000537,-0.002888
2.2624999999999886,-0.59749,0.000394,0.002205
2.2649999999999864,-0.598139,0.001287,0.004271
2.267499999999984,-0.601009,-0.000383,0.001772
2.269999999999982,-0.605224,-0.001621,0.004096
2.2724999999999795,-0.607562,-0.001304,0.001951
2.2749999999999773,-0.611791,-0.002152,0.00489
2.277499999999975,-0.615049,-0.001374,0.002905
2.2799999999999727,-0.615026,-0.00104,0.002638
2.2824999999999704,-0.619607,-0.001313,0.001847
2.284999999999968,-0.620321,0.004622,0.003908
2.287499999999966,-0.619389,0.00091,0.00282
2.289999999999964,-0.622723,0.002398,0.000726
2.2924999999999613,-0.622717,0.000567,0.001108
2.294999999999959,-0.627841,0.001948,0.003245
2.297499999999957,-0.629939,0.000433,0.001862
2.2999999999999545,-0.632239,0.001148,0.001543
2.3024999999999523,-0.631462,-0.002174,-0.001667
2.305000000000007,-0.627436,-0.000727,0.003309
2.3075000000000045,-0.634425,-0.002834,0.000491
2.3100000000000023,-0.636965,-0.001676,-0.003327
2.3125,-0.638519,0.003009,-0.001131
2.3149999999999977,-0.638658,0.002492,-0.00063
2.3174999999999955,-0.640635,0.000814,0.001993
2.319999999999993,-0.642243,-0.002158,0.001977
2.322499999999991,-0.644885,-0.000486,0.00112
2.3249999999999886,-0.643228,0.000403,-0.001819
2.3274999999999864,-0.646718,-0.000617,-0.002572
2.329999999999984,-0.646578,-0.001125,-0.00207
2.332499999999982,-0.64922,-0.000747,-0.001462
2.3349999999999795,-0.651176,-0.002044,0.000707
2.3374999999999773,-0.651941,0.001807,-0.004108
2.339999999999975,-0.653111,-0.002596,0.000199
2.3424999999999727,-0.653757,-0.002576,-0.002611
2.3449999999999704,-0.651774,-0.003548,-0.002789
2.347499999999968,-0.65683,-0.004326,-0.004791
2.349999999999966,-0.658153,-0.006495,-0.005683
2.352499999999964,-0.658755,-0.002672,-0.003085
2.3549999999999613,-0.655389,0.000406,-0.004388
2.357499999999959,-0.659603,0.000406,-0.004691
2.359999999999957,-0.665826,-0.004689,-0.007939
2.3624999999999545,-0.659226,-0.00449,-0.006878
2.3649999999999523,-0.659435,-0.004986,-0.001301
2.367500000000007,-0.661908,0.000555,-0.007397
2.3700000000000045,-0.662291,-0.000729,-0.006402
2.3725000000000023,-0.662826,-0.001094,-0.010532
2.375,-0.664775,-0.001465,-0.008768
2.3774999999999977,-0.664061,-0.003409,-0.006065
2.3799999999999955,-0.658475,-0.001711,-0.009722
2.382499999999993,-0.663313,-0.001365,-0.010659
2.384999999999991,-0.663021,0.000639,-0.008339
2.3874999999999886,-0.660302,-0.002506,-0.010635
2.3899999999999864,-0.657955,-0.002851,-0.010982
2.392499999999984,-0.660306,-0.003332,-0.006762
2.394999999999982,-0.656989,-0.005172,-0.009118
2.3974999999999795,-0.66129,-0.004424,-0.01304
2.3999999999999773,-0.656708,0.002227,-0.011978
2.402499999999975,-0.653838,0.001184,-0.011043
2.4049999999999727,-0.657073,-0.00214,-0.011046
2.4074999999999704,-0.654113,0.002902,-0.005692
2.409999999999968,-0.653704,-0.002083,-0.007178
2.412499999999966,-0.650922,-0.002241,-0.012447
2.414999999999964,-0.647701,0.000583,-0.010978
2.4174999999999613,-0.645638,0.003929,-0.011165
2.419999999999959,-0.650461,0.000241,-0.007351
2.422499999999957,-0.647129,0.002187,-0.006197
2.4249999999999545,-0.644998,-0.001785,-0.008008
2.4274999999999523,-0.644419,-0.000224,-0.007233
2.430000000000007,-0.640096,-0.003649,-0.007859
2.4325000000000045,-0.640409,-0.002326,-0.007769
2.4350000000000023,-0.63847,0.002248,-0.006084
2.4375,-0.638518,-0.000641,-0.006951
2.4399999999999977,-0.636032,0.000223,-0.007056
2.4424999999999955,-0.638999,0.001312,-0.011149
2.444999999999993,-0.636473,0.003939,-0.005826
2.447499999999991,-0.636712,0.0014,-0.005083
2.4499999999999886,-0.632055,-0.001988,-0.005007
2.4524999999999864,-0.631107,-3e-06,-0.003386
2.454999999999984,-0.630091,-0.000702,-0.004472
2.457499999999982,-0.630114,0.00292,-0.006315
2.4599999999999795,-0.631492,-0.001,-0.004527
2.4624999999999773,-0.627855,-0.003257,-0.003807
2.464999999999975,-0.628571,-0.002138,-0.004096
2.4674999999999727,-0.625382,-0.000913,-0.000596
2.4699999999999704,-0.625071,0.001908,0.000807
2.472499999999968,-0.624584,-0.000341,-0.003365
2.474999999999966,-0.626522,0.001668,-0.002201
2.477499999999964,-0.62221,-0.003307,-0.001799
2.4799999999999613,-0.623445,0.001764,-0.001729
2.482499999999959,-0.623795,0.004522,0.004465
2.484999999999957,-0.624269,-0.004338,-8.6e-05
2.4874999999999545,-0.624305,-0.001267,0.000975
2.4899999999999523,-0.62215,0.000862,0.000197
2.492500000000007,-0.62298,4.2e-05,-0.00058
2.4950000000000045,-0.620887,-0.001279,-0.000156
2.4975000000000023,-0.624432,-0.001729,-0.003213
2.5,-0.621013,-0.002113,-0.000222
2.5024999999999977,-0.622821,-0.001271,-0.002916
2.5049999999999955,-0.624868,-0.003293,-0.002691
2.507499999999993,-0.624442,0.00241,0.001026
2.509999999999991,-0.626072,0.000662,0.001246
2.5124999999999886,-0.625824,-0.002247,-8.5e-05
2.5149999999999864,-0.628601,0.001622,0.002912
2.517499999999984,-0.626476,-0.001729,-0.003679
2.519999999999982,-0.631681,2.2e-05,-0.001171
2.5224999999999795,-0.632563,0.001133,-0.00139
2.5249999999999773,-0.634964,0.000212,-0.00044
2.527499999999975,-0.633431,0.000507,-0.00083
2.5299999999999727,-0.632848,-0.001377,0.001296
2.5324999999999704,-0.635743,0.00295,-0.002269
2.534999999999968,-0.639318,0.003671,-0.002016
2.537499999999966,-0.637533,0.002075,-0.000691
2.539999999999964,-0.638957,0.002932,-0.004776
2.5424999999999613,-0.641564,0.00323,-0.003317
2.544999999999959,-0.641549,0.00479,-0.001754
2.547499999999957,-0.642806,0.002604,-0.001968
2.5499999999999545,-0.644538,-0.001951,-0.004822
2.5524999999999523,-0.646073,0.001075,-0.004585
2.555000000000007,-0.643382,0.000974,-0.003211
2.5575000000000045,-0.648081,0.00312,-0.002141
2.5600000000000023,-0.650957,0.00537,-0.001921
2.5625,-0.652178,0.005447,-0.003158
2.5649999999999977,-0.65382,0.003671,-0.002876
2.5674999999999955,-0.657348,0.000728,-0.004552
2.569999999999993,-0.658423,0.006575,-0.003
2.572499999999991,-0.658897,0.003079,-0.001368
2.5749999999999886,-0.660408,0.001412,-0.003862
2.5774999999999864,-0.657584,0.002644,-0.000477
2.579999999999984,-0.661504,0.000533,5e-06
2.582499999999982,-0.663899,0.002766,-0.003685
2.5849999999999795,-0.665942,0.004073,0.001811
2.5874999999999773,-0.667279,0.003243,0.000861
2.589999999999975,-0.665814,0.001838,-0.001006
2.5924999999999727,-0.66901,0.000168,-0.000581
2.5949999999999704,-0.669657,0.003109,-0.000113
2.597499999999968,-0.671017,0.001117,-0.001369
2.599999999999966,-0.670487,0.002798,-0.002502
2.602499999999964,-0.670442,9.5e-05,0.000177
2.6049999999999613,-0.669313,-0.000222,0.001068
2.607499999999959,-0.675267,0.000658,0.001306
2.609999999999957,-0.673796,0.0042,7e-06
2.6124999999999545,-0.673482,0.000539,0.001835
2.6149999999999523,-0.67593,0.000242,-0.001384
2.617500000000007,-0.676215,0.001552,0.000715
2.6200000000000045,-0.676958,-0.000566,-0.002649
2.6225000000000023,-0.678532,0.000697,-0.000508
2.625,-0.675435,-0.000866,0.003567
2.6274999999999977,-0.677002,-0.00512,-0.003453
2.6299999999999955,-0.674081,-0.004698,0.000756
2.632499999999993,-0.679146,0.002267,-5.5e-05
2.634999999999991,-0.680585,-0.001384,-0.002761
2.6374999999999886,-0.678675,-0.003278,-0.000903
2.6399999999999864,-0.681076,-0.005046,-0.002185
2.642499999999984,-0.683171,0.000269,-0.000508
2.644999999999982,-0.679101,-0.000176,0.002597
2.6474999999999795,-0.684239,-0.000119,0.003053
2.6499999999999773,-0.685559,0.002479,0.003203
2.652499999999975,-0.684103,0.007363,0.004587
2.6549999999999727,-0.683394,0.005939,0.000995
2.6574999999999704,-0.685343,0.003272,0.00202
2.659999999999968,-0.681116,0.005607,0.003908
2.662499999999966,-0.682646,0.007283,0.002723
2.664999999999964,-0.683044,0.008609,0.001361
2.6674999999999613,-0.68329,0.008837,0.009041
2.669999999999959,-0.681438,0.007219,0.002678
2.672499999999957,-0.681064,0.004987,0.000518
2.6749999999999545,-0.677684,0.008249,-0.000465
2.6774999999999523,-0.679016,0.005911,0.002196
2.680000000000007,-0.676754,0.00395,0.000768
2.6825000000000045,-0.675909,0.006988,-0.000951
2.6850000000000023,-0.677537,0.005829,-0.001362
2.6875,-0.671858,0.003468,-0.000554
2.6899999999999977,-0.673287,0.004122,-0.001945
2.6924999999999955,-0.670725,0.002237,0.002023
2.694999999999993,-0.66772,0.00331,-0.000662
2.697499999999991,-0.668894,0.001384,0.001834
2.6999999999999886,-0.666607,0.006137,0.000864
2.7024999999999864,-0.664251,0.005556,0.001808
2.704999999999984,-0.661218,0.005341,0.006039
2.707499999999982,-0.660548,0.004079,0.002884
2.7099999999999795,-0.658494,0.004341,0.001349
2.7124999999999773,-0.654864,0.006101,0.000414
2.714999999999975,-0.651883,0.004529,0.000691
2.7174999999999727,-0.651752,0.002313,0.004605
2.7199999999999704,-0.649868,0.000689,0.002316
2.722499999999968,-0.64795,0.000671,0.004178
2.724999999999966,-0.648789,-0.001821,0.000481
2.727499999999964,-0.647202,0.001856,-0.00093
2.7299999999999613,-0.642818,0.002185,-0.000198
2.732499999999959,-0.641905,0.005991,0.002416
2.734999999999957,-0.639714,0.005541,0.002486
2.7374999999999545,-0.638095,0.000276,0.004613
2.7399999999999523,-0.639984,0.005259,0.00617
2.742500000000007,-0.637537,0.000825,0.002771
2.7450000000000045,-0.63455,0.002947,0.004133
2.7475000000000023,-0.632373,0.002911,0.002133
2.75,-0.634159,0.004565,0.001737
2.7524999999999977,-0.630646,-0.000231,0.000904
2.7549999999999955,-0.62719,0.002212,0.006158
2.757499999999993,-0.627473,0.001521,0.001652
2.759999999999991,-0.624888,0.002886,0.001871
2.7624999999999886,-0.621755,0.001525,0.001896
2.7649999999999864,-0.621066,0.001118,0.00285
2.767499999999984,-0.618105,-0.002556,-0.001666
2.769999999999982,-0.618702,0.00241,0.002771
2.7724999999999795,-0.617348,-2.2e-05,0.000457
2.7749999999999773,-0.615586,0.003753,-0.000358
2.777499999999975,-0.611393,0.003257,0.002427
2.7799999999999727,-0.607379,0.002255,0.001621
2.7824999999999704,-0.60554,0.002522,0.002152
2.784999999999968,-0.608535,0.00233,0.004768
2.787499999999966,-0.602622,0.00454,0.000256
2.789999999999964,-0.600541,0.005738,0.004966
2.7924999999999613,-0.599824,0.002841,0.004772
2.794999999999959,-0.599411,0.002252,-0.000933
2.797499999999957,-0.596926,0.003951,0.002638
2.7999999999999545,-0.594476,0.001756,0.003289
2.8024999999999523,-0.593527,0.004172,0.00089
2.805000000000007,-0.590819,0.002985,-0.002916
2.8075000000000045,-0.592023,0.000813,0.000555
2.8100000000000023,-0.590098,0.003732,-0.003146
2.8125,-0.585529,0.00531,0.000424
2.8149999999999977,-0.585525,0.005711,0.00209
2.8174999999999955,-0.582607,0.003124,0.001907
2.819999999999993,-0.579374,0.003713,-0.000329
2.822499999999991,-0.579652,0.004665,-0.000231
2.8249999999999886,-0.580581,0.003783,-0.002097
2.8274999999999864,-0.57449,0.006451,0.002176
2.829999999999984,-0.571093,0.005319,0.004301
2.832499999999982,-0.573984,0.005292,0.005371
2.8349999999999795,-0.571102,0.004839,0.002939
2.8374999999999773,-0.570892,0.002003,0.005022
2.839999999999975,-0.567038,0.003306,0.007641
2.8424999999999727,-0.566459,0.003359,0.002708
2.8449999999999704,-0.564364,5.4e-05,0.00435
2.847499999999968,-0.564015,0.002836,0.00392
2.849999999999966,-0.558732,0.001437,0.001415
2.852499999999964,-0.557956,0.002574,0.002629
2.8549999999999613,-0.556488,-0.000346,0.004289
2.857499999999959,-0.558376,0.001664,0.001965
2.859999999999957,-0.548221,-0.001146,0.002009
2.8624999999999545,-0.551903,0.000908,0.002272
2.8649999999999523,-0.549209,0.003807,0.00094
2.867500000000007,-0.543249,0.003014,0.000615
2.8700000000000045,-0.544916,0.001495,0.000378
2.8725000000000023,-0.540817,0.000786,-0.00267
2.875,-0.541599,0.003069,-0.000878
2.8774999999999977,-0.537486,0.001218,-0.001809
2.8799999999999955,-0.533907,0.003853,-0.00225
2.882499999999993,-0.532641,0.004605,-0.001329
2.884999999999991,-0.529364,0.004908,-0.001423
2.8874999999999886,-0.526013,0.001604,0.001506
2.8899999999999864,-0.526552,0.006296,0.001351
2.892499999999984,-0.521728,0.002011,0.000124
2.894999999999982,-0.518833,0.005507,0.000448
2.8974999999999795,-0.518097,0.005696,0.001018
2.8999999999999773,-0.512575,0.004446,-0.00257
2.902499999999975,-0.513375,0.005413,0.001887
2.9049999999999727,-0.507601,0.004592,0.000114
2.9074999999999704,-0.502433,0.004195,0.002348
2.909999999999968,-0.501676,0.004772,-0.001276
2.912499999999966,-0.497958,0.005401,-0.003536
2.914999999999964,-0.492916,0.001576,-0.003514
2.9174999999999613,-0.488436,6.9e-05,-0.002918
2.919999999999959,-0.485583,0.000989,-0.001517
2.922499999999957,-0.484566,-0.00056,0.00262
2.9249999999999545,-0.486502,0.003775,-1e-05
2.9274999999999523,-0.478146,0.002452,-0.00093
2.930000000000007,-0.475894,-0.001198,-0.003855
2.9325000000000045,-0.4738,0.000968,0.00117
2.9350000000000023,-0.472908,-0.000417,-0.001769
2.9375,-0.469026,0.000259,-0.000235
2.9399999999999977,-0.466976,-0.00138,0.000841
2.9424999999999955,-0.463934,-0.00122,-0.001353
2.944999999999993,-0.460027,-0.00159,0.00134
2.947499999999991,-0.45934,0.005179,-0.000672
2.9499999999999886,-0.459077,0.000914,0.003722
2.9524999999999864,-0.45712,-0.004894,-0.001554
2.954999999999984,-0.451693,-0.001715,0.00161
2.957499999999982,-0.447632,-0.005677,0.002607
2.9599999999999795,-0.441897,-0.00412,0.002689
2.9624999999999773,-0.432357,-0.006606,0.000637
2.964999999999975,-0.413694,-0.007857,-0.003138
2.9674999999999727,-0.389968,-0.014804,-0.009063
2.9699999999999704,-0.35731,-0.013956,-0.011006
2.972499999999968,-0.319149,-0.016333,-0.016993
2.974999999999966,-0.273195,-0.019419,-0.024131
2.977499999999964,-0.215326,-0.022069,-0.031662
2.9799999999999613,-0.161427,-0.017549,-0.033385
2.982499999999959,-0.115353,-0.013916,-0.040427
2.984999999999957,-0.06946,-0.013249,-0.038733
2.9874999999999545,-0.03088,-0.008826,-0.03963
2.9899999999999523,-0.002316,-0.007173,-0.036016
2.992500000000007,0.019393,-0.001366,-0.030786
2.9950000000000045,0.045664,0.002333,-0.022374
2.9975000000000023,0.062659,0.005826,-0.010675
3.0,0.083222,0.003774,0.001756
3.0024999999999977,0.104796,0.004867,0.006498
3.0049999999999955,0.116327,0.004951,0.017855
3.007499999999993,0.123891,0.00929,0.014285
3.009999999999991,0.128321,0.005006,0.020743
3.0124999999999886,0.12492,0.004359,0.023153
3.0149999999999864,0.1224,0.00715,0.025059
3.017499999999984,0.120769,0.006288,0.027283
3.019999999999982,0.121305,-0.00028,0.025391
3.0224999999999795,0.1153,-0.000443,0.025079
3.0249999999999773,0.108191,0.00019,0.028043
3.027499999999975,0.100034,-0.00027,0.025547
3.0299999999999727,0.085079,-0.002375,0.02385
3.0324999999999704,0.071687,-0.006942,0.024367
3.034999999999968,0.058297,-0.004189,0.024543
3.037499999999966,0.043485,-0.005548,0.021265
3.039999999999964,0.029851,-0.006548,0.017904
3.0424999999999613,0.018709,-0.006816,0.01984
3.044999999999959,0.005805,-0.00605,0.01315
3.047499999999957,-0.004987,-0.000821,0.016459
3.0499999999999545,-0.017603,-0.002518,0.015009
3.0524999999999523,-0.027642,-0.006212,0.011452
3.055000000000007,-0.037707,-0.004378,0.00525
3.0575000000000045,-0.043376,-0.00307,0.001628
3.0600000000000023,-0.052452,-0.002639,-0.001675
3.0625,-0.056982,0.000941,-0.001144
3.0649999999999977,-0.061937,0.000543,-0.002351
3.0674999999999955,-0.064266,-0.000823,-0.006583
3.069999999999993,-0.064677,-0.001574,0.000542
3.072499999999991,-0.062458,-0.002399,-0.003965
3.0749999999999886,-0.06346,0.001139,-0.005867
3.0774999999999864,-0.060248,-0.000672,-0.005569
3.079999999999984,-0.052857,-0.003108,-0.005269
3.082499999999982,-0.049311,-0.001106,-0.006971
3.0849999999999795,-0.042658,0.002775,-0.001319
3.0874999999999773,-0.03411,0.003245,-0.005393
3.089999999999975,-0.028414,-0.002965,-0.006954
3.0924999999999727,-0.020997,0.00082,-0.004266
3.0949999999999704,-0.015928,-0.002827,-0.000913
3.097499999999968,-0.008905,-0.002761,-0.000265
3.099999999999966,-0.002238,0.001109,-0.000136
3.102499999999964,0.005124,0.001047,0.002716
3.1049999999999613,0.007147,-0.001968,0.005112
3.107499999999959,0.008444,-0.005116,0.006972
3.109999999999957,0.011902,-0.003278,0.007635
3.1124999999999545,0.008985,-0.004585,0.004395
3.1149999999999523,0.010058,-0.002728,0.003655
3.117500000000007,0.007323,-0.003754,0.006972
3.1200000000000045,0.003789,-0.000919,0.00459
3.1225000000000023,-0.000264,-0.001749,0.00402
3.125,-0.00415,-0.000367,0.004487
3.1274999999999977,-0.010203,-0.004208,0.004952
3.1299999999999955,-0.010617,-0.002599,0.005511
3.132499999999993,-0.012371,-0.003318,0.001428
3.134999999999991,-0.016007,-0.002316,0.003283
3.1374999999999886,-0.020875,0.001872,0.002589
3.1399999999999864,-0.023055,0.002406,0.007344
3.142499999999984,-0.02169,-0.001922,0.0022
3.144999999999982,-0.024645,0.001425,0.004809
3.1474999999999795,-0.026733,0.000864,0.000561
3.1499999999999773,-0.033097,0.000272,0.00265
3.152499999999975,-0.02784,-0.002562,0.006451
3.1549999999999727,-0.031109,-0.002432,0.004673
3.1574999999999704,-0.027919,-0.000231,-7.9e-05
3.159999999999968,-0.028391,-0.002898,0.00506
3.162499999999966,-0.024459,-0.005652,0.003361
3.164999999999964,-0.022976,-0.002494,0.003267
3.1674999999999613,-0.025541,0.001123,0.002448
3.169999999999959,-0.024715,-0.001226,0.00337
3.172499999999957,-0.022808,-0.000736,0.003182
3.1749999999999545,-0.023428,-0.0016,0.002413
3.1774999999999523,-0.021026,0.000495,0.00361
3.180000000000007,-0.022015,0.004151,0.001238
3.1825000000000045,-0.01764,0.002994,9.8e-05
3.1850000000000023,-0.016616,0.001862,0.001661
3.1875,-0.012232,0.005043,0.001126
3.1899999999999977,-0.014485,0.001838,-0.000995
3.1924999999999955,-0.013484,-0.000426,-0.000356
3.194999999999993,-0.013264,0.002757,-0.000127
3.197499999999991,-0.010201,0.000658,0.000168
3.1999999999999886,-0.008607,-0.000757,0.003488
3.2024999999999864,-0.007984,-0.000758,0.001272
3.204999999999984,-0.005549,0.001264,0.005613
3.207499999999982,-0.007093,-0.004147,0.00286
3.2099999999999795,-0.00672,0.00023,0.008198
3.2124999999999773,-0.007287,0.000981,0.006045
3.214999999999975,-0.010386,-0.001626,0.00493
3.2174999999999727,-0.010748,-0.002512,0.002686
3.2199999999999704,-0.010423,-0.002253,0.002084
3.222499999999968,-0.004774,-0.004968,0.003719
3.224999999999966,-0.012447,0.000357,0.001621
3.227499999999964,-0.012033,-0.00076,0.004996
3.2299999999999613,-0.011434,-0.002502,0.003653
3.232499999999959,-0.008556,-0.003549,0.001583
3.234999999999957,-0.010715,0.002218,0.000603
3.2374999999999545,-0.007513,0.003033,0.003789
3.2399999999999523,-0.006668,0.001187,0.004359
3.242500000000007,-0.006741,-0.001223,0.004043
3.2450000000000045,-0.005206,-0.002928,0.003294
3.2475000000000023,-0.00684,0.002948,0.003844
3.25,-0.009866,-0.000235,0.00637
3.2524999999999977,-0.008379,0.000382,0.004303
3.2549999999999955,-0.00935,0.000452,0.004841
3.257499999999993,-0.006518,-0.000662,0.002823
3.259999999999991,-0.007044,-0.002088,0.001181
3.2624999999999886,-0.008672,-0.000855,0.002757
3.2649999999999864,-0.008872,-0.000149,-0.000612
3.267499999999984,-0.005201,-0.002894,0.000756
3.269999999999982,-0.007428,-0.003861,0.002734
3.2724999999999795,-0.00737,-0.000718,0.001868
3.2749999999999773,-0.006896,0.001093,0.001494
3.277499999999975,-0.007032,-0.000727,0.00469
3.2799999999999727,-0.000566,7.8e-05,0.001169
3.2824999999999704,-0.003271,-4.9e-05,0.00106
3.284999999999968,-0.003281,-0.001073,0.001258
3.287499999999966,-0.004908,-0.001331,0.001954
3.289999999999964,-0.001916,0.00213,0.005398
3.2924999999999613,-0.002111,0.005745,0.005571
3.294999999999959,-0.000843,-0.003015,0.002725
3.297499999999957,0.001401,0.000191,0.002653
3.2999999999999545,-0.000335,-0.000374,0.00209
3.3024999999999523,0.00344,0.000154,0.002644
3.305000000000007,0.00023,0.001629,0.003115
3.3075000000000045,0.001927,0.00092,0.005013
3.3100000000000023,-0.000733,-0.000419,0.003175
3.3125,0.001895,-0.001274,0.003199
3.3149999999999977,9.8e-05,0.000595,0.001768
3.3174999999999955,0.00148,-0.000566,0.004462
3.319999999999993,-0.001124,0.000349,0.006036
3.322499999999991,0.001808,-0.000189,0.004027
3.3249999999999886,-0.00414,-0.000449,0.004355
3.3274999999999864,-0.003915,-0.002155,0.003699
3.329999999999984,0.000919,-6e-06,0.002713
3.332499999999982,-4e-06,0.000361,0.004601
3.3349999999999795,0.001185,0.001963,0.005012
3.3374999999999773,-0.001907,0.001621,0.000962
3.339999999999975,-0.00191,-1.8e-05,0.002181
3.3424999999999727,-0.002259,-0.001749,0.001406
3.3449999999999704,0.001612,-2.7e-05,0.002805
3.347499999999968,-0.000757,0.000248,0.003279
3.349999999999966,0.000481,0.001457,0.002059
3.352499999999964,0.000825,0.000488,0.003009
3.3549999999999613,-0.002322,0.000385,-0.000177
3.357499999999959,0.002696,0.000682,0.000428
3.359999999999957,0.000914,0.000974,0.002741
3.3624999999999545,0.002215,-0.002478,0.001972
3.3649999999999523,0.001701,0.001501,0.002221
3.367500000000007,0.001951,-0.000167,0.004124
3.3700000000000045,0.001123,-0.001143,0.005654
3.3725000000000023,-0.000148,-8.9e-05,0.004352
3.375,-0.001611,0.001178,0.003319
3.3774999999999977,0.00074,-0.001295,0.005846
3.3799999999999955,0.003054,0.002543,0.002732
3.382499999999993,0.002513,0.001929,0.001877
3.384999999999991,0.002087,0.000458,0.004683
3.3874999999999886,-0.001919,0.001591,0.001273
3.3899999999999864,-0.000949,0.000838,0.004137
3.392499999999984,0.002288,-0.001192,0.003427
3.394999999999982,0.001887,0.001382,0.005575
3.3974999999999795,-0.001203,-0.002126,0.00656
3.3999999999999773,-0.00305,0.000418,0.00506
3.402499999999975,0.001403,-0.002114,0.005365
3.4049999999999727,0.001606,-0.003447,0.002927
3.4074999999999704,0.002482,-0.00101,0.001479
3.409999999999968,0.001896,0.001293,0.001841
3.412499999999966,0.002297,0.001123,0.000323
3.414999999999964,-0.000669,0.000694,-9e-06
3.4174999999999613,0.00089,0.001357,0.005215
3.419999999999959,0.004803,0.000898,0.003832
3.422499999999957,0.000484,-0.000577,0.003078
3.4249999999999545,-0.002475,0.004088,0.000509
3.4274999999999523,0.001466,0.000276,0.001342
3.430000000000007,0.005063,0.001695,0.002896
3.4325000000000045,0.000674,0.002826,0.005465
3.4350000000000023,0.00203,-0.001363,0.001142
3.4375,0.000935,-0.000319,0.003416
3.4399999999999977,0.000908,0.003589,0.006372
3.4424999999999955,0.000665,-0.003295,0.00271
3.444999999999993,0.001853,-0.000471,0.001595
3.447499999999991,0.000248,-0.003774,0.004525
3.4499999999999886,-0.001542,5.6e-05,0.000712
3.4524999999999864,0.00178,0.00049,0.005405
3.454999999999984,0.004555,0.001869,0.002473
3.457499999999982,0.000349,0.003987,0.002123
3.4599999999999795,-0.000738,0.000178,0.005425
3.4624999999999773,0.003535,0.003337,-0.000562
3.464999999999975,-0.001813,0.002877,0.001105
3.4674999999999727,-0.002676,0.001734,0.004675
3.4699999999999704,0.002093,-0.00108,0.003905
3.472499999999968,0.002912,0.003283,0.004023
3.474999999999966,0.000412,0.001904,0.003055
3.477499999999964,0.001188,-0.001326,0.003097
3.4799999999999613,-0.000481,0.001741,0.005124
3.482499999999959,0.00115,-0.000937,0.003564
3.484999999999957,0.001415,0.000969,0.003322
3.4874999999999545,0.000345,0.003053,0.002759
3.4899999999999523,0.00276,-0.002193,0.003064
3.492500000000007,0.002297,-0.002192,0.003216
3.4950000000000045,0.005659,0.001734,0.003733
3.4975000000000023,0.001829,-0.000149,0.004793
3.5,-0.001924,0.000145,0.001221
3.5024999999999977,0.001984,-0.003117,0.008222
3.5049999999999955,0.000463,0.000779,0.006888
3.507499999999993,0.002979,-0.000587,0.003318
3.509999999999991,0.005419,0.000571,0.004607
3.5124999999999886,0.002409,0.000487,0.000186
3.5149999999999864,-0.000545,-0.00037,0.002367
3.517499999999984,0.001136,-0.001955,0.003909
3.519999999999982,0.00168,-0.000565,0.005782
3.5224999999999795,0.002887,0.003304,0.004504
3.5249999999999773,-0.000145,-0.002313,0.00407
3.527499999999975,0.000878,0.004714,0.004085
3.5299999999999727,-0.001456,0.000311,0.003286
3.5324999999999704,0.001576,-0.001431,-0.000283
3.534999999999968,-0.000581,-0.000606,0.002786
3.537499999999966,0.000986,0.001831,0.004641
3.539999999999964,0.001588,0.000308,0.005484
3.5424999999999613,0.000668,-0.001156,0.001089
3.544999999999959,0.001939,-0.001825,0.002889
3.547499999999957,0.003547,-0.000373,0.006621
3.5499999999999545,0.000765,0.003312,0.002671
3.5524999999999523,0.001162,0.000661,0.005168
3.555000000000007,0.000449,0.001221,0.004
3.5575000000000045,-0.00066,-0.000943,0.007749
3.5600000000000023,0.00343,0.000308,0.0021
3.5625,0.003483,0.001376,0.006635
3.5649999999999977,-0.001022,-0.001387,0.003553
3.5674999999999955,0.003994,-0.000842,0.005903
3.569999999999993,0.004118,0.001904,0.003859
3.572499999999991,0.002126,0.002841,0.002751
3.5749999999999886,0.000482,0.002799,0.000132
3.5774999999999864,-0.001432,0.00119,0.001431
3.579999999999984,0.003887,-0.002462,0.007092
3.582499999999982,0.001819,0.002,0.00123
3.5849999999999795,0.000707,-0.001208,0.001632
3.5874999999999773,0.001094,0.001854,7.8e-05
3.589999999999975,0.000422,0.00122,0.004118
3.5924999999999727,0.001047,0.000552,0.00276
3.5949999999999704,0.003625,0.004794,0.001223
3.597499999999968,0.002628,-0.000812,0.000816
3.599999999999966,-0.003733,-3.9e-05,0.004106
3.602499999999964,0.000725,-0.000151,0.004097
3.604999999999961,0.001857,0.001245,0.004294
3.607499999999959,0.002,0.001701,0.004683
3.609999999999957,0.003021,-0.000633,0.002796
3.6124999999999545,0.002218,-0.002481,0.005946
3.614999999999952,0.002018,0.000931,0.001457
3.617500000000007,0.005233,0.001708,0.002005
3.620000000000005,0.001781,-0.005107,0.00281
3.6225000000000014,0.000256,0.000808,0.004352
3.625,-0.001323,-9.8e-05,0.003367
3.6274999999999977,0.002772,0.001458,0.007048
3.629999999999996,0.002486,-0.002442,0.005917
3.632499999999993,0.005712,0.001093,0.006311
3.634999999999991,0.002567,0.003641,0.006958
3.6374999999999886,0.002178,0.001933,0.002462
3.6399999999999855,0.000704,-0.001013,0.003054
3.642499999999984,0.003032,0.00023,0.003894
3.644999999999982,0.002333,0.001464,0.003546
3.64749999999998,-0.0019,0.001457,0.00632
3.649999999999977,0.000284,-0.002035,0.00528
3.652499999999975,0.000627,0.000147,0.003318
3.6549999999999727,0.002293,-0.000528,0.002868
3.6574999999999696,-0.000544,0.002038,0.003373
3.659999999999968,0.004204,0.005341,0.00375
3.662499999999966,0.002079,0.003729,0.001676
3.664999999999964,3.9e-05,0.002133,0.005671
3.667499999999961,0.001586,0.000321,0.004945
3.669999999999959,0.002114,-0.001886,0.003367
3.672499999999957,-6.6e-05,0.002492,0.005092
3.6749999999999545,0.001035,0.001734,0.004641
3.677499999999952,0.000452,0.002914,0.002664
3.680000000000007,0.000391,-0.000347,0.006596
3.682500000000005,0.004657,0.002999,0.002492
3.6850000000000014,0.004163,-0.000271,0.002893
3.6875,0.001871,0.000166,0.002889
3.6899999999999977,0.001564,-0.001381,0.002179
3.692499999999996,0.004547,-0.000906,0.004732
3.694999999999993,-0.00055,-1.9e-05,0.001436
