time,Gyr_X,Gyr_Y,Gyr_Z
0.0,0.005563,0.001822,0.005107
0.0024999999999977,0.00313,0.001033,0.002659
0.0049999999999954,0.003191,-0.001614,0.004189
0.0074999999999931,0.003723,0.000487,0.002142
0.0099999999999909,0.003939,-0.004317,0.006991
0.0124999999999886,-0.000191,-0.001441,0.002698
0.0149999999999863,0.003741,-0.001328,0.004645
0.017499999999984,0.005963,-0.001307,0.00383
0.0200000000000102,0.004758,0.001678,0.004421
0.0225000000000079,0.003707,-0.001894,0.003073
0.0250000000000056,0.007854,-0.003575,0.001466
0.0275000000000034,0.001275,-0.004193,0.003722
0.0300000000000011,0.003982,-0.003742,0.001199
0.0324999999999988,0.005392,-0.000818,0.003541
0.0349999999999965,0.005197,-0.001283,0.00389
0.0374999999999943,0.007559,0.001725,0.004154
0.039999999999992,0.008976,-0.001153,0.006395
0.0424999999999897,0.004769,0.00075,0.003525
0.0449999999999874,0.008073,-0.002885,0.004844
0.0474999999999852,0.004847,0.002756,0.006875
0.0499999999999829,0.005285,-0.00239,0.00328
0.052500000000009,0.007042,0.00098,0.004614
0.0550000000000068,0.003616,0.000461,0.000294
0.0575000000000045,0.003354,-0.000614,0.004108
0.0600000000000022,0.00485,0.000872,0.002497
0.0625,0.007959,0.002544,0.001811
0.0649999999999977,0.008746,-0.000273,0.001229
0.0674999999999954,0.006361,0.001677,0.004349
0.0699999999999931,0.007804,-0.00053,0.007869
0.0724999999999909,0.006508,-0.000829,0.003881
0.0749999999999886,0.006974,-0.001815,0.005477
0.0774999999999863,0.007427,0.001455,0.004972
0.079999999999984,0.009047,0.003704,0.004686
0.0825000000000102,0.009619,-0.000548,0.007342
0.0850000000000079,0.007743,-0.000778,0.002282
0.0875000000000056,0.009041,0.002307,0.003908
0.0900000000000034,0.009596,-0.002077,0.005398
0.0925000000000011,0.010457,-0.000533,0.005025
0.0949999999999988,0.011455,-0.00069,0.001884
0.0974999999999965,0.013717,-0.002469,0.005216
0.0999999999999943,0.009557,0.003513,0.003228
0.102499999999992,0.012923,0.004562,0.004175
0.1049999999999897,0.01564,0.001454,0.00371
0.1074999999999875,0.010865,0.000786,0.003446
0.1099999999999852,0.011674,-0.001344,0.00632
0.1124999999999829,0.01481,-0.000285,0.002631
0.1150000000000091,0.013988,0.0021,0.005578
0.1175000000000068,0.011525,-0.000191,0.004657
0.1200000000000045,0.010844,0.000388,0.004838
0.1225000000000022,0.01253,0.000607,0.002385
0.125,0.01448,0.004242,0.006323
0.1274999999999977,0.008649,-0.003894,0.00981
0.1299999999999954,0.013319,-0.002688,0.00922
0.1324999999999931,0.011089,0.003798,0.008693
0.1349999999999909,0.011597,0.004516,0.008022
0.1374999999999886,0.01248,-0.001353,0.002744
0.1399999999999863,0.014996,0.001775,0.006054
0.142499999999984,0.015045,0.00154,0.005671
0.1450000000000102,0.011506,0.002623,0.003112
0.1475000000000079,0.01355,-2.7e-05,0.005917
0.1500000000000056,0.013234,-0.000979,0.007328
0.1525000000000034,0.010856,0.002464,0.0025
0.1550000000000011,0.010286,0.003482,0.007271
0.1574999999999988,0.011031,-0.000425,0.004742
0.1599999999999966,0.0088,0.00624,0.005443
0.1624999999999943,0.007635,-0.000446,0.006346
0.164999999999992,0.009432,0.000516,0.003275
0.1674999999999897,0.005019,6.4e-05,0.007077
0.1699999999999875,0.003055,-0.00039,0.00241
0.1724999999999852,8.3e-05,-0.001128,0.000264
0.1749999999999829,0.001495,-0.003006,0.003094
0.1775000000000091,-0.002077,0.002991,0.005525
0.1800000000000068,-0.00497,0.001293,0.003923
0.1825000000000045,-0.005892,0.000501,0.004452
0.1850000000000022,-0.008394,-0.000675,0.002573
0.1875,-0.008582,-0.002591,0.004358
0.1899999999999977,-0.011231,-0.00183,0.005283
0.1924999999999954,-0.013892,0.001881,0.003114
0.1949999999999931,-0.015859,0.002959,0.002395
0.1974999999999909,-0.016423,0.003713,0.005627
0.1999999999999886,-0.01577,0.001035,0.003543
0.2024999999999863,-0.017917,0.000262,0.003729
0.204999999999984,-0.015016,-0.002952,0.001935
0.2075000000000102,-0.017136,-5.8e-05,0.001927
0.2100000000000079,-0.016308,-0.000323,0.002194
0.2125000000000056,-0.016071,-0.001888,0.001679
0.2150000000000034,-0.014454,0.0,0.002969
0.2175000000000011,-0.016302,0.003998,0.005625
0.2199999999999988,-0.017938,-0.000365,0.001388
0.2224999999999966,-0.015385,-0.004704,0.00307
0.2249999999999943,-0.011852,-0.00246,0.003875
0.227499999999992,-0.01224,-0.001118,0.003689
0.2299999999999897,-0.009714,-0.004481,0.00337
0.2324999999999875,-0.009896,-0.000115,0.005779
0.2349999999999852,-0.008462,0.000969,0.003629
0.2374999999999829,-0.005922,0.001279,0.004275
0.2400000000000091,-0.00468,-0.001538,0.003878
0.2425000000000068,-0.000808,-0.002088,0.004811
0.2450000000000045,-0.003986,0.000722,0.005909
0.2475000000000022,7.7e-05,0.003926,-0.000395
0.25,-0.002889,0.003559,0.004212
0.2524999999999977,0.003871,-0.001429,0.004473
0.2549999999999954,0.007264,-0.002322,0.003927
0.2574999999999932,0.007293,0.002129,0.005492
0.2599999999999909,0.00482,0.001847,0.009409
0.2624999999999886,0.006262,-4e-06,0.005812
0.2649999999999863,0.008785,-0.001001,0.008634
0.2674999999999841,0.01108,-0.001442,0.006584
0.2700000000000102,0.011507,-0.002384,0.005624
0.2725000000000079,0.010688,0.001182,0.004259
0.2750000000000057,0.01113,0.001473,0.006168
0.2775000000000034,0.014398,0.003237,0.006109
0.2800000000000011,0.015561,0.001312,0.008713
0.2824999999999988,0.018204,0.002306,0.007618
0.2849999999999966,0.018532,-0.000963,0.006441
0.2874999999999943,0.019687,0.001516,0.010251
0.289999999999992,0.020964,0.002389,0.008387
0.2924999999999897,0.016568,0.006605,0.014158
0.2949999999999875,0.014246,0.007838,0.011829
0.2974999999999852,0.017334,0.003398,0.011735
0.2999999999999829,0.009136,-0.001934,0.008565
0.3025000000000091,0.008602,-2.5e-05,0.006253
0.3050000000000068,0.004729,-0.002044,0.006703
0.3075000000000045,0.007231,0.001674,0.005069
0.3100000000000023,0.005212,0.004546,0.006195
0.3125,-0.001261,0.004455,0.002404
0.3149999999999977,0.00185,0.003705,0.003903
0.3174999999999954,0.002816,-1e-05,0.002826
0.3199999999999932,-0.000621,0.000653,0.002223
0.3224999999999909,-0.002939,0.002638,0.003525
0.3249999999999886,-0.007966,5.4e-05,0.005955
0.3274999999999863,-0.009242,-0.00107,0.006736
0.3299999999999841,-0.006656,-0.005293,0.003844
0.3325000000000102,-0.00526,0.001018,0.00089
0.3350000000000079,-0.008993,-0.000325,-0.001544
0.3375000000000057,-0.009337,0.001026,-0.00173
0.3400000000000034,-0.010125,0.000828,-0.001793
0.3425000000000011,-0.014856,0.003343,0.000786
0.3449999999999988,-0.017387,0.000142,-0.001472
0.3474999999999966,-0.015295,0.000418,0.000791
0.3499999999999943,-0.021625,0.003324,0.001705
0.352499999999992,-0.021586,-0.00283,0.00289
0.3549999999999897,-0.027348,-0.001174,0.003961
0.3574999999999875,-0.027564,0.00065,0.00397
0.3599999999999852,-0.029741,0.002698,0.007211
0.3624999999999829,-0.030307,0.001783,0.006143
0.3650000000000091,-0.028422,0.00279,0.008786
0.3675000000000068,-0.032718,0.003158,0.014576
0.3700000000000045,-0.032832,0.004835,0.007349
0.3725000000000023,-0.03397,0.000256,0.011455
0.375,-0.034787,0.001047,0.008427
0.3774999999999977,-0.034088,0.001159,0.006995
0.3799999999999954,-0.033905,0.000186,0.006749
0.3824999999999932,-0.03324,0.000929,0.006505
0.3849999999999909,-0.034074,0.006276,0.004092
0.3874999999999886,-0.032571,0.005203,0.006553
0.3899999999999863,-0.032049,0.003824,0.00725
0.3924999999999841,-0.03415,0.003877,0.006007
0.3950000000000102,-0.033902,0.004912,0.007456
0.3975000000000079,-0.031413,0.004401,0.010175
0.4000000000000057,-0.032395,0.002097,0.009537
0.4025000000000034,-0.032058,0.002349,0.006939
0.4050000000000011,-0.034058,0.000506,0.009938
0.4074999999999988,-0.029171,0.002192,0.010499
0.4099999999999966,-0.027291,0.001966,0.007571
0.4124999999999943,-0.027831,-9.8e-05,0.007374
0.414999999999992,-0.027861,-0.001416,0.006139
0.4174999999999897,-0.023611,-0.002438,0.006317
0.4199999999999875,-0.01685,-0.000481,0.005037
0.4224999999999852,-0.018761,0.002042,0.006103
0.4249999999999829,-0.010392,-0.002858,2.5e-05
0.4275000000000091,-0.008883,-0.000997,-0.001109
0.4300000000000068,-0.005372,-0.000384,0.001206
0.4325000000000045,0.002191,-0.004251,-0.001068
0.4350000000000023,0.003707,-0.004713,-0.000164
0.4375,0.011907,-0.000721,0.002103
0.4399999999999977,0.02092,0.000479,0.004237
0.4424999999999954,0.023643,0.001336,0.004511
0.4449999999999932,0.030039,0.002246,0.006533
0.4474999999999909,0.039769,0.000788,0.008912
0.4499999999999886,0.04466,-0.00274,0.009812
0.4524999999999863,0.050583,-0.003394,0.010417
0.4549999999999841,0.053703,0.003172,0.006197
0.4575000000000102,0.06014,-0.001542,0.011269
0.4600000000000079,0.064527,0.000871,0.010518
0.4625000000000057,0.069941,0.003714,0.008079
0.4650000000000034,0.074738,-0.00087,0.010214
0.4675000000000011,0.075968,0.003637,0.007225
0.4699999999999988,0.081641,-0.000387,0.008918
0.4724999999999966,0.084712,0.004385,0.007316
0.4749999999999943,0.08466,0.00537,0.011549
0.477499999999992,0.085226,0.001872,0.01258
0.4799999999999897,0.087181,0.007705,0.010067
0.4824999999999875,0.088086,0.005592,0.009529
0.4849999999999852,0.084824,0.0035,0.013015
0.4874999999999829,0.087305,0.000397,0.012993
0.4900000000000091,0.083219,0.004552,0.012583
0.4925000000000068,0.081598,0.002003,0.011691
0.4950000000000045,0.080781,0.002398,0.009457
0.4975000000000023,0.07961,0.000157,0.013237
0.5,0.076097,0.002611,0.006478
0.5024999999999977,0.073871,-0.000237,0.01089
0.5049999999999955,0.067792,0.001704,0.013848
0.5074999999999932,0.065485,0.000698,0.01099
0.5099999999999909,0.063347,0.000746,0.010047
0.5124999999999886,0.059442,0.002447,0.011562
0.5149999999999864,0.062985,7.5e-05,0.012613
0.5174999999999841,0.056661,-0.002483,0.013687
0.5200000000000102,0.050969,0.00268,0.013935
0.522500000000008,0.05077,0.002231,0.018474
0.5250000000000057,0.047321,0.002698,0.018743
0.5275000000000034,0.046974,0.000625,0.020269
0.5300000000000011,0.043825,0.002123,0.015945
0.5324999999999989,0.041228,0.000171,0.016823
0.5349999999999966,0.037728,0.003008,0.020473
0.5374999999999943,0.03693,0.005572,0.017615
0.539999999999992,0.037802,0.000101,0.020262
0.5424999999999898,0.034646,-0.000252,0.015739
0.5449999999999875,0.031175,0.004657,0.016379
0.5474999999999852,0.031074,0.00302,0.016079
0.549999999999983,0.030079,0.005864,0.0144
0.5525000000000091,0.025211,0.003371,0.013132
0.5550000000000068,0.02538,0.000338,0.012839
0.5575000000000045,0.026413,0.000942,0.01362
0.5600000000000023,0.020402,0.003148,0.010058
0.5625,0.021467,0.0078,0.007217
0.5649999999999977,0.019888,0.003944,0.010832
0.5674999999999955,0.022458,-0.003278,0.012352
0.5699999999999932,0.019465,0.003231,0.012215
0.5724999999999909,0.019104,0.003923,0.009809
0.5749999999999886,0.019624,0.006068,0.013856
0.5774999999999864,0.019076,0.005537,0.016991
0.5799999999999841,0.018009,0.000521,0.014573
0.5825000000000102,0.015836,-0.000271,0.014325
0.585000000000008,0.019904,0.0023,0.016265
0.5875000000000057,0.019651,-0.001469,0.016724
0.5900000000000034,0.020958,0.003076,0.016316
0.5925000000000011,0.023928,0.002827,0.016079
0.5949999999999989,0.019266,0.00167,0.01641
0.5974999999999966,0.018338,0.000717,0.014637
0.5999999999999943,0.019836,0.001679,0.017359
0.602499999999992,0.025079,0.004858,0.016831
0.6049999999999898,0.025792,0.002694,0.016695
0.6074999999999875,0.022519,0.005218,0.016249
0.6099999999999852,0.02135,0.005599,0.020119
0.612499999999983,0.023288,0.003282,0.01807
0.6150000000000091,0.026423,0.002806,0.022449
0.6175000000000068,0.02564,0.004727,0.026137
0.6200000000000045,0.026635,0.003374,0.026471
0.6225000000000023,0.026906,-0.000107,0.027861
0.625,0.030173,0.001884,0.02886
0.6274999999999977,0.030232,0.00151,0.026991
0.6299999999999955,0.028921,0.004189,0.028969
0.6324999999999932,0.0363,0.003553,0.030897
0.6349999999999909,0.03458,0.004683,0.029168
0.6374999999999886,0.038164,0.004864,0.031868
0.6399999999999864,0.036692,0.007337,0.03046
0.6424999999999841,0.040985,0.005919,0.029477
0.6450000000000102,0.042325,0.010268,0.032593
0.647500000000008,0.044795,0.00718,0.032986
0.6500000000000057,0.04892,0.008323,0.034473
0.6525000000000034,0.048354,0.014845,0.036382
0.6550000000000011,0.053292,0.013105,0.036576
0.6574999999999989,0.054779,0.014312,0.035586
0.6599999999999966,0.05701,0.020441,0.040028
0.6624999999999943,0.0592,0.019097,0.042627
0.664999999999992,0.066551,0.018113,0.043603
0.6674999999999898,0.063347,0.020505,0.04634
0.6699999999999875,0.06801,0.023218,0.048535
0.6724999999999852,0.06922,0.025486,0.050003
0.674999999999983,0.067274,0.025936,0.047586
0.6775000000000091,0.071671,0.026306,0.053329
0.6800000000000068,0.073091,0.032528,0.057208
0.6825000000000045,0.074296,0.030478,0.05857
0.6850000000000023,0.074165,0.031287,0.060619
0.6875,0.075608,0.037789,0.062647
0.6899999999999977,0.07389,0.033286,0.065488
0.6924999999999955,0.072082,0.033712,0.067092
0.6949999999999932,0.073352,0.040647,0.066914
0.6974999999999909,0.075639,0.039534,0.071832
0.6999999999999886,0.07189,0.040368,0.071793
0.7024999999999864,0.068609,0.040346,0.076961
0.7049999999999841,0.069354,0.039282,0.077554
0.7075000000000102,0.068829,0.040574,0.080249
0.710000000000008,0.066702,0.041638,0.085607
0.7125000000000057,0.065903,0.044077,0.089519
0.7150000000000034,0.064045,0.044458,0.089711
0.7175000000000011,0.061207,0.040739,0.096277
0.7199999999999989,0.056203,0.045011,0.101497
0.7224999999999966,0.054813,0.045293,0.107575
0.7249999999999943,0.049429,0.041991,0.114805
0.727499999999992,0.049364,0.040741,0.120874
0.7299999999999898,0.042794,0.037832,0.12471
0.7324999999999875,0.037456,0.038401,0.130474
0.7349999999999852,0.031955,0.032046,0.134537
0.737499999999983,0.029836,0.030076,0.141378
0.7400000000000091,0.028827,0.033893,0.148159
0.7425000000000068,0.018974,0.028257,0.155811
0.7450000000000045,0.015946,0.02524,0.16326
0.7475000000000023,0.010256,0.020438,0.16681
0.75,0.002488,0.023681,0.17218
0.7524999999999977,-0.003472,0.021048,0.18288
0.7549999999999955,-0.004111,0.015297,0.191586
0.7574999999999932,-0.011604,0.014252,0.198454
0.7599999999999909,-0.020994,0.013278,0.204719
0.7624999999999886,-0.025785,0.011171,0.210396
0.7649999999999864,-0.029424,0.007584,0.218385
0.7674999999999841,-0.036621,0.008864,0.224031
0.7700000000000102,-0.043759,0.002901,0.227356
0.772500000000008,-0.051102,0.002699,0.237753
0.7750000000000057,-0.052023,-0.001395,0.242559
0.7775000000000034,-0.060908,-0.003399,0.251947
0.7800000000000011,-0.065315,-0.004168,0.259291
0.7824999999999989,-0.06856,-0.005837,0.264437
0.7849999999999966,-0.074813,-0.004789,0.268909
0.7874999999999943,-0.08039,-0.001918,0.278915
0.789999999999992,-0.081027,-0.003432,0.280576
0.7924999999999898,-0.084455,-0.000177,0.288574
0.7949999999999875,-0.085837,0.00013,0.295248
0.7974999999999852,-0.088426,0.000565,0.297339
0.799999999999983,-0.092004,0.001871,0.304083
0.8025000000000091,-0.094615,0.001881,0.307295
0.8050000000000068,-0.095856,0.003212,0.317418
0.8075000000000045,-0.102322,0.009034,0.320926
0.8100000000000023,-0.101276,0.011262,0.326324
0.8125,-0.099124,0.016991,0.331842
0.8149999999999977,-0.101347,0.021612,0.335594
0.8174999999999955,-0.099112,0.022576,0.340001
0.8199999999999932,-0.099586,0.025501,0.347441
0.8224999999999909,-0.09751,0.031804,0.346551
0.8249999999999886,-0.097606,0.034491,0.353657
0.8274999999999864,-0.097907,0.038122,0.362729
0.8299999999999841,-0.094128,0.038715,0.361025
0.8325000000000102,-0.095443,0.046364,0.366326
0.835000000000008,-0.098449,0.051404,0.371403
0.8375000000000057,-0.098711,0.055464,0.375427
0.8400000000000034,-0.089811,0.061199,0.379932
0.8425000000000011,-0.089057,0.066667,0.379614
0.8449999999999989,-0.083967,0.067414,0.383699
0.8474999999999966,-0.081924,0.07476,0.39089
0.8499999999999943,-0.081839,0.08383,0.394202
0.852499999999992,-0.079125,0.085853,0.395913
0.8549999999999898,-0.07368,0.09288,0.40082
0.8574999999999875,-0.076546,0.096806,0.402994
0.8599999999999852,-0.072131,0.101868,0.40886
0.862499999999983,-0.06847,0.102945,0.411087
0.8650000000000091,-0.063784,0.113029,0.415177
0.8675000000000068,-0.061195,0.115975,0.422389
0.8700000000000045,-0.059533,0.125302,0.419676
0.8725000000000023,-0.055954,0.128134,0.427274
0.875,-0.05268,0.134718,0.429935
0.8774999999999977,-0.047886,0.136418,0.434043
0.8799999999999955,-0.040895,0.142121,0.438669
0.8824999999999932,-0.037253,0.145378,0.440247
0.8849999999999909,-0.036339,0.14817,0.443888
0.8874999999999886,-0.031094,0.159215,0.444833
0.8899999999999864,-0.023042,0.161492,0.447734
0.8924999999999841,-0.022154,0.165082,0.454073
0.8950000000000102,-0.020684,0.16853,0.45329
0.897500000000008,-0.015618,0.172774,0.45746
0.9000000000000057,-0.014922,0.175344,0.457235
0.9025000000000034,-0.007954,0.173754,0.460169
0.9050000000000012,-0.006537,0.181361,0.461582
0.9074999999999988,0.00113,0.182989,0.464013
0.9099999999999966,-5.7e-05,0.183216,0.467286
0.9124999999999944,1.7e-05,0.188262,0.470661
0.914999999999992,0.000624,0.189195,0.473421
0.9174999999999898,0.007223,0.190119,0.474589
0.9199999999999876,0.009785,0.189992,0.475261
0.9224999999999852,0.009251,0.191709,0.477617
0.924999999999983,0.007596,0.193863,0.478604
0.9275000000000092,0.007129,0.194178,0.480121
0.9300000000000068,0.010625,0.188436,0.480075
0.9325000000000044,0.00472,0.186678,0.478663
0.9350000000000024,0.002945,0.186227,0.482791
0.9375,0.003844,0.186118,0.480621
0.9399999999999976,0.00334,0.189357,0.479504
0.9424999999999956,0.002595,0.182936,0.48201
0.9449999999999932,0.000853,0.174475,0.485613
0.9474999999999908,-0.001797,0.176389,0.48695
0.9499999999999886,-0.008093,0.176676,0.483815
0.9524999999999864,-0.003484,0.172713,0.489304
0.954999999999984,-0.011212,0.168207,0.487237
0.9575000000000102,-0.012342,0.165282,0.493601
0.960000000000008,-0.016926,0.163632,0.493548
0.9625000000000056,-0.022137,0.158378,0.491443
0.9650000000000034,-0.025121,0.153658,0.495353
0.9675000000000012,-0.030541,0.152716,0.493914
0.9699999999999988,-0.033031,0.142396,0.499454
0.9724999999999966,-0.038564,0.142838,0.501104
0.9749999999999944,-0.046167,0.139039,0.503077
0.977499999999992,-0.048769,0.129751,0.505609
0.9799999999999898,-0.05392,0.124634,0.508178
0.9824999999999876,-0.059251,0.118866,0.509671
0.9849999999999852,-0.06081,0.113977,0.515833
0.987499999999983,-0.075406,0.108304,0.518318
0.9900000000000092,-0.084448,0.105218,0.523705
0.9925000000000068,-0.089324,0.093285,0.523675
0.9950000000000044,-0.094098,0.086579,0.52572
0.9975000000000024,-0.102901,0.080594,0.531921
1.0,-0.113361,0.078683,0.536577
1.0024999999999975,-0.113724,0.071632,0.539949
1.0049999999999957,-0.119945,0.062475,0.548688
1.0074999999999932,-0.130662,0.060778,0.550852
1.009999999999991,-0.139657,0.055977,0.557564
1.0124999999999886,-0.142193,0.046768,0.559936
1.0149999999999864,-0.147036,0.045065,0.564475
1.017499999999984,-0.155176,0.03845,0.570623
1.0200000000000102,-0.156018,0.033515,0.574105
1.022500000000008,-0.160392,0.031992,0.579723
1.0250000000000057,-0.164692,0.033476,0.580774
1.0275000000000034,-0.166622,0.030681,0.584719
1.0300000000000011,-0.169016,0.028742,0.588339
1.0324999999999989,-0.172932,0.026233,0.594372
1.0349999999999966,-0.172748,0.028067,0.594514
1.0374999999999943,-0.174122,0.029983,0.59614
1.039999999999992,-0.174369,0.032633,0.594998
1.0424999999999898,-0.173059,0.03036,0.598196
1.0449999999999875,-0.177263,0.033446,0.600895
1.0474999999999852,-0.174175,0.035698,0.600103
1.049999999999983,-0.173953,0.04197,0.598704
1.052500000000009,-0.171353,0.040569,0.602038
1.0550000000000068,-0.164858,0.042977,0.604033
1.0575000000000043,-0.164306,0.047409,0.603776
1.0600000000000025,-0.167188,0.048921,0.601621
1.0625,-0.161519,0.052455,0.602487
1.0649999999999975,-0.162576,0.057995,0.602362
1.0674999999999957,-0.162038,0.060479,0.603465
1.0699999999999932,-0.158581,0.060234,0.606925
1.072499999999991,-0.154637,0.065636,0.607392
1.0749999999999886,-0.153337,0.068025,0.608129
1.0774999999999864,-0.14808,0.067433,0.606441
1.079999999999984,-0.143243,0.071094,0.612602
1.0825000000000102,-0.142147,0.073481,0.609158
1.085000000000008,-0.139622,0.071882,0.610797
1.0875000000000057,-0.135644,0.075709,0.609221
1.0900000000000034,-0.134473,0.077934,0.611175
1.0925000000000011,-0.129199,0.076927,0.613386
1.0949999999999989,-0.129105,0.080348,0.610872
1.0974999999999966,-0.123931,0.080239,0.611927
1.0999999999999943,-0.126185,0.083081,0.61237
1.102499999999992,-0.121561,0.084323,0.611506
1.1049999999999898,-0.120948,0.088916,0.609978
1.1074999999999875,-0.118093,0.086355,0.60892
1.1099999999999852,-0.116216,0.08745,0.610425
1.112499999999983,-0.119264,0.0889,0.607044
1.115000000000009,-0.11768,0.087935,0.605322
1.1175000000000068,-0.116797,0.086261,0.605839
1.1200000000000043,-0.11936,0.086968,0.601114
1.1225000000000025,-0.11505,0.088064,0.603505
1.125,-0.119758,0.085513,0.601367
1.1274999999999975,-0.117861,0.083846,0.603768
1.1299999999999957,-0.119606,0.082872,0.602386
1.1324999999999932,-0.118171,0.083222,0.603852
1.134999999999991,-0.120319,0.083919,0.605422
1.1374999999999886,-0.117934,0.078736,0.601281
1.1399999999999864,-0.122145,0.077469,0.604447
1.142499999999984,-0.122014,0.081568,0.603797
1.1450000000000102,-0.122257,0.078537,0.604195
1.147500000000008,-0.122866,0.079855,0.604677
1.1500000000000057,-0.124507,0.078993,0.602453
1.1525000000000034,-0.124747,0.078357,0.602999
1.1550000000000011,-0.125612,0.079232,0.599968
1.1574999999999989,-0.126572,0.078049,0.600434
1.1599999999999966,-0.125569,0.076335,0.604302
1.1624999999999943,-0.125937,0.077837,0.600275
1.164999999999992,-0.130421,0.077835,0.601581
1.1674999999999898,-0.127774,0.078047,0.602902
1.1699999999999875,-0.126916,0.072246,0.603778
1.1724999999999852,-0.129245,0.07446,0.604359
1.174999999999983,-0.128222,0.075402,0.603473
1.177500000000009,-0.130446,0.07385,0.604381
1.1800000000000068,-0.130482,0.072924,0.607283
1.1825000000000043,-0.130342,0.074036,0.606502
1.1850000000000025,-0.131078,0.072273,0.607302
1.1875,-0.127612,0.076855,0.60548
1.1899999999999975,-0.128776,0.072235,0.604911
1.1924999999999957,-0.127898,0.075559,0.608008
1.1949999999999932,-0.129025,0.075039,0.615525
1.197499999999991,-0.131382,0.07414,0.611847
1.1999999999999886,-0.13209,0.075286,0.610621
1.2024999999999864,-0.126806,0.073235,0.61475
1.204999999999984,-0.12621,0.07189,0.620926
1.2075000000000102,-0.131372,0.070561,0.618839
1.210000000000008,-0.137305,0.068782,0.619021
1.2125000000000057,-0.133103,0.06908,0.621858
1.2150000000000034,-0.12898,0.068609,0.627603
1.2175000000000011,-0.130422,0.067998,0.62789
1.2199999999999989,-0.134498,0.06515,0.632034
1.2224999999999966,-0.131769,0.058164,0.63402
1.2249999999999943,-0.133933,0.061559,0.634872
1.227499999999992,-0.1324,0.058263,0.638074
1.2299999999999898,-0.132656,0.057223,0.643898
1.2324999999999875,-0.133641,0.054116,0.647067
1.2349999999999852,-0.132127,0.051757,0.650572
1.237499999999983,-0.133485,0.050058,0.654232
1.240000000000009,-0.139546,0.049789,0.653227
1.2425000000000068,-0.135671,0.045212,0.658464
1.2450000000000043,-0.13478,0.045452,0.660946
1.2475000000000025,-0.140405,0.04502,0.661167
1.25,-0.143617,0.040685,0.666926
1.2524999999999975,-0.13489,0.039666,0.666618
1.2549999999999957,-0.138007,0.03869,0.667977
1.2574999999999932,-0.143284,0.040313,0.669349
1.259999999999991,-0.14759,0.039195,0.673113
1.2624999999999886,-0.141642,0.040089,0.674421
1.2649999999999864,-0.142247,0.034929,0.675332
1.267499999999984,-0.144517,0.037957,0.677089
1.2700000000000102,-0.1477,0.035039,0.682119
1.272500000000008,-0.143453,0.037435,0.682049
1.2750000000000057,-0.148867,0.037623,0.685886
1.2775000000000034,-0.146052,0.03554,0.687768
1.2800000000000011,-0.148177,0.031116,0.692729
1.2824999999999989,-0.146243,0.029763,0.693723
1.2849999999999966,-0.147511,0.03299,0.695152
1.2874999999999943,-0.148159,0.030763,0.697411
1.289999999999992,-0.154658,0.029873,0.700701
1.2924999999999898,-0.151934,0.02804,0.703444
1.2949999999999875,-0.152154,0.025135,0.707252
1.2974999999999852,-0.154595,0.021309,0.711414
1.299999999999983,-0.15779,0.021032,0.712153
1.302500000000009,-0.161512,0.021959,0.717235
1.3050000000000068,-0.159265,0.019666,0.720627
1.3075000000000043,-0.160205,0.014964,0.720587
1.3100000000000025,-0.165887,0.015941,0.725081
1.3125,-0.163731,0.018652,0.726487
1.3149999999999975,-0.166792,0.010826,0.725887
1.3174999999999957,-0.171931,0.009482,0.729258
1.3199999999999932,-0.172278,0.005271,0.732452
1.322499999999991,-0.17302,0.009716,0.731435
1.3249999999999886,-0.177348,0.004018,0.73546
1.3274999999999864,-0.179021,0.007423,0.737133
1.329999999999984,-0.178491,0.005571,0.735285
1.3325000000000102,-0.18172,0.007949,0.737158
1.335000000000008,-0.18404,0.00396,0.738297
1.3375000000000057,-0.188309,0.005177,0.742575
1.3400000000000034,-0.18926,0.004778,0.741357
1.3425000000000011,-0.190696,0.005025,0.741731
1.3449999999999989,-0.191158,0.00597,0.745992
1.3474999999999966,-0.192025,0.004757,0.746527
1.3499999999999943,-0.195853,0.005329,0.74757
1.352499999999992,-0.196616,0.003771,0.755113
1.3549999999999898,-0.194317,0.006198,0.752487
1.3574999999999875,-0.196369,0.005937,0.757104
1.3599999999999852,-0.199141,0.002331,0.755172
1.362499999999983,-0.197572,0.006007,0.758987
1.365000000000009,-0.201306,0.004897,0.759291
1.3675000000000068,-0.203078,0.009633,0.761555
1.3700000000000043,-0.200097,0.003972,0.76445
1.3725000000000025,-0.203408,0.008097,0.767199
1.375,-0.20356,0.006156,0.767429
1.3774999999999975,-0.200015,0.007673,0.767457
1.3799999999999957,-0.203663,0.005343,0.769549
1.3824999999999932,-0.20553,0.003084,0.770339
1.384999999999991,-0.208959,0.008025,0.771121
1.3874999999999886,-0.206246,0.011601,0.775653
1.3899999999999864,-0.20615,0.013229,0.780238
1.392499999999984,-0.206293,0.008602,0.779339
1.3950000000000102,-0.204417,0.010187,0.779281
1.397500000000008,-0.204347,0.012194,0.77977
1.4000000000000057,-0.206235,0.011281,0.780071
1.4025000000000034,-0.207463,0.015762,0.7842
1.4050000000000011,-0.203978,0.013088,0.784584
1.4074999999999989,-0.204122,0.020618,0.783221
1.4099999999999966,-0.201972,0.020466,0.786143
1.4124999999999943,-0.203018,0.020003,0.788009
1.414999999999992,-0.205085,0.028203,0.784343
1.4174999999999898,-0.1991,0.030634,0.786141
1.4199999999999875,-0.197965,0.030112,0.791743
1.4224999999999852,-0.196099,0.03115,0.788542
1.424999999999983,-0.195941,0.035807,0.791601
1.427500000000009,-0.193961,0.038,0.791174
1.4300000000000068,-0.191802,0.037523,0.792799
1.4325000000000043,-0.190336,0.040833,0.794646
1.4350000000000025,-0.189321,0.041079,0.794066
1.4375,-0.191173,0.044327,0.792755
1.4399999999999975,-0.184602,0.044548,0.795957
1.4424999999999957,-0.18187,0.043605,0.79302
1.4449999999999932,-0.183781,0.048325,0.795091
1.447499999999991,-0.181947,0.049511,0.793509
1.4499999999999886,-0.182443,0.050551,0.793503
1.4524999999999864,-0.181648,0.051879,0.798822
1.454999999999984,-0.181338,0.05557,0.795122
1.4575000000000102,-0.178635,0.056133,0.795672
1.460000000000008,-0.175637,0.056566,0.795951
1.4625000000000057,-0.175151,0.055634,0.794556
1.4650000000000034,-0.177318,0.054411,0.795517
1.4675000000000011,-0.180381,0.053073,0.798574
1.4699999999999989,-0.176781,0.055859,0.793362
1.4724999999999966,-0.177139,0.052171,0.796404
1.4749999999999943,-0.176777,0.054931,0.794793
1.477499999999992,-0.174287,0.053779,0.797094
1.4799999999999898,-0.174879,0.05115,0.797709
1.4824999999999875,-0.178942,0.052773,0.800943
1.4849999999999852,-0.177124,0.051676,0.800244
1.487499999999983,-0.1734,0.052727,0.797915
1.490000000000009,-0.177428,0.049841,0.798807
1.4925000000000068,-0.177705,0.050817,0.80247
1.4950000000000043,-0.176761,0.052399,0.797985
1.4975000000000025,-0.175594,0.050586,0.799547
1.5,-0.176619,0.052469,0.803656
1.5024999999999975,-0.176787,0.045999,0.802977
1.5049999999999957,-0.175592,0.051595,0.803262
1.5074999999999932,-0.177132,0.045848,0.804678
1.509999999999991,-0.176914,0.046275,0.803498
1.5124999999999886,-0.180419,0.045233,0.800096
1.5149999999999864,-0.183408,0.042369,0.798936
1.517499999999984,-0.17883,0.042485,0.800685
1.5200000000000102,-0.182879,0.039234,0.805628
1.522500000000008,-0.18162,0.04658,0.803172
1.5250000000000057,-0.183958,0.04093,0.803975
1.5275000000000034,-0.184658,0.04186,0.805848
1.5300000000000011,-0.187276,0.038619,0.802101
1.5324999999999989,-0.186598,0.039043,0.804564
1.5349999999999966,-0.186613,0.040171,0.801134
1.5374999999999943,-0.187971,0.037242,0.805716
1.539999999999992,-0.18972,0.037322,0.801952
1.5424999999999898,-0.189781,0.039914,0.802619
1.5449999999999875,-0.188942,0.039453,0.802573
1.5474999999999852,-0.187995,0.041988,0.804196
1.549999999999983,-0.192696,0.041304,0.803194
1.552500000000009,-0.190972,0.040253,0.805188
1.5550000000000068,-0.189227,0.042275,0.804199
1.5575000000000043,-0.191151,0.045233,0.799408
1.5600000000000025,-0.187691,0.04582,0.803063
1.5625,-0.19173,0.044867,0.807492
1.5649999999999975,-0.191161,0.052647,0.802464
1.5674999999999957,-0.191185,0.053338,0.804795
1.5699999999999932,-0.186832,0.049298,0.80646
1.572499999999991,-0.189932,0.057196,0.805757
1.5749999999999886,-0.186497,0.055837,0.806592
1.5774999999999864,-0.184894,0.058412,0.802302
1.579999999999984,-0.181095,0.061613,0.8042
1.5825000000000102,-0.182976,0.061915,0.809287
1.585000000000008,-0.185387,0.064471,0.807619
1.5875000000000057,-0.181805,0.066175,0.804442
1.5900000000000034,-0.180256,0.066928,0.807714
1.5925000000000011,-0.178871,0.068807,0.809842
1.5949999999999989,-0.175788,0.070845,0.807557
1.5974999999999966,-0.174835,0.073778,0.809682
1.5999999999999943,-0.176261,0.07508,0.807182
1.602499999999992,-0.171852,0.077782,0.80831
1.6049999999999898,-0.17044,0.081778,0.812637
1.6074999999999875,-0.169556,0.084495,0.809752
1.6099999999999852,-0.16578,0.085647,0.811566
1.612499999999983,-0.164427,0.0878,0.810065
1.615000000000009,-0.161246,0.093227,0.811408
1.6175000000000068,-0.160526,0.095821,0.809213
1.6200000000000043,-0.159851,0.098493,0.809407
1.6225000000000025,-0.157137,0.103576,0.807416
1.625,-0.155848,0.10447,0.811751
1.6274999999999975,-0.154898,0.106137,0.813473
1.6299999999999957,-0.154798,0.103929,0.808665
1.6324999999999932,-0.149043,0.107283,0.809642
1.634999999999991,-0.146647,0.112949,0.813083
1.6374999999999886,-0.14732,0.113814,0.810584
1.6399999999999864,-0.148575,0.114285,0.811628
1.642499999999984,-0.144644,0.118268,0.811657
1.6450000000000102,-0.142194,0.117116,0.809422
1.647500000000008,-0.142054,0.118998,0.81055
1.6500000000000057,-0.142488,0.124192,0.80693
1.6525000000000034,-0.144482,0.126454,0.804871
1.6550000000000011,-0.146195,0.127822,0.806758
1.6574999999999989,-0.140901,0.129215,0.801916
1.6599999999999966,-0.14274,0.130045,0.804853
1.6624999999999943,-0.139539,0.129945,0.804702
1.664999999999992,-0.13902,0.130349,0.803324
1.6674999999999898,-0.139787,0.130038,0.799105
1.6699999999999875,-0.139156,0.129474,0.802768
1.6724999999999852,-0.142649,0.13314,0.800493
1.674999999999983,-0.139891,0.137567,0.800897
1.677500000000009,-0.143006,0.135795,0.801978
1.6800000000000068,-0.139736,0.137133,0.800031
1.6825000000000043,-0.138699,0.1399,0.796668
1.6850000000000025,-0.137959,0.140148,0.795236
1.6875,-0.137778,0.142513,0.791641
1.6899999999999975,-0.138775,0.144122,0.79257
1.6924999999999957,-0.137232,0.142624,0.793708
1.6949999999999932,-0.133389,0.142144,0.792039
1.697499999999991,-0.135256,0.147965,0.792296
1.6999999999999886,-0.134163,0.147513,0.786459
1.7024999999999864,-0.137173,0.146962,0.78696
1.704999999999984,-0.13659,0.149604,0.786119
1.7075000000000102,-0.134699,0.156527,0.780334
1.710000000000008,-0.133318,0.156469,0.781912
1.7125000000000057,-0.131743,0.159691,0.782553
1.7150000000000034,-0.131185,0.161444,0.780651
1.7175000000000011,-0.130604,0.165183,0.779728
1.7199999999999989,-0.12767,0.16916,0.776585
1.7224999999999966,-0.129907,0.173619,0.775335
1.7249999999999943,-0.123385,0.176358,0.775089
1.727499999999992,-0.123496,0.180174,0.771226
1.7299999999999898,-0.122811,0.18683,0.770507
1.7324999999999875,-0.120951,0.185764,0.765935
1.7349999999999852,-0.115751,0.193299,0.763115
1.737499999999983,-0.118323,0.197386,0.759711
1.740000000000009,-0.115716,0.203335,0.755552
1.7425000000000068,-0.110161,0.209434,0.75218
1.7450000000000043,-0.1076,0.212804,0.749222
1.7475000000000025,-0.103411,0.215056,0.744001
1.75,-0.104699,0.22186,0.744391
1.7524999999999975,-0.100414,0.2264,0.739329
1.7549999999999957,-0.096683,0.232109,0.738127
1.7574999999999932,-0.094949,0.238397,0.730304
1.759999999999991,-0.091017,0.242409,0.729084
1.7624999999999886,-0.089873,0.248918,0.723241
1.7649999999999864,-0.085787,0.250118,0.717366
1.767499999999984,-0.084681,0.256646,0.716296
1.7700000000000102,-0.077622,0.261406,0.707368
1.772500000000008,-0.076395,0.267798,0.70347
1.7750000000000057,-0.075892,0.27423,0.699242
1.7775000000000034,-0.069554,0.275318,0.695414
1.7800000000000011,-0.069165,0.277733,0.69275
1.7824999999999989,-0.064121,0.281904,0.687733
1.7849999999999966,-0.057778,0.281829,0.681693
1.7874999999999943,-0.058442,0.291433,0.67924
1.789999999999992,-0.055984,0.288603,0.675505
1.7924999999999898,-0.055245,0.291338,0.671215
1.7949999999999875,-0.049733,0.293117,0.668229
1.7974999999999852,-0.048,0.298997,0.665539
1.799999999999983,-0.040504,0.30361,0.661781
1.802500000000009,-0.039811,0.308504,0.656494
1.8050000000000068,-0.03643,0.31252,0.654476
1.8075000000000043,-0.031218,0.313681,0.650347
1.8100000000000025,-0.027673,0.31933,0.64595
1.8125,-0.0303,0.321136,0.644573
1.8149999999999975,-0.018612,0.326497,0.640095
1.8174999999999957,-0.016291,0.329926,0.638502
1.8199999999999927,-0.014965,0.335147,0.639745
1.822499999999991,-0.010702,0.337178,0.640332
1.8249999999999889,-0.008486,0.340168,0.636445
1.8274999999999864,-0.001222,0.343078,0.63588
1.829999999999984,-6.6e-05,0.34733,0.635918
1.8325000000000105,0.003514,0.353969,0.639389
1.835000000000008,0.007337,0.353798,0.635036
1.8375000000000057,0.015738,0.35306,0.631682
1.8400000000000036,0.022633,0.358159,0.630083
1.8425000000000007,0.030103,0.365889,0.629546
1.8449999999999989,0.03951,0.365914,0.627307
1.8474999999999968,0.046214,0.369523,0.62625
1.8499999999999943,0.058635,0.371537,0.618667
1.852499999999992,0.064892,0.368468,0.613964
1.8549999999999895,0.077394,0.369065,0.606247
1.8574999999999875,0.087206,0.369205,0.600988
1.8599999999999848,0.099172,0.365593,0.59493
1.862499999999983,0.104965,0.358837,0.585742
1.865000000000009,0.119635,0.356277,0.575831
1.8675000000000068,0.132263,0.348116,0.564621
1.8700000000000043,0.14519,0.337296,0.556479
1.8725000000000025,0.151072,0.32808,0.548738
1.875,0.16223,0.316697,0.534526
1.8774999999999975,0.177939,0.300247,0.525398
1.8799999999999957,0.189377,0.288168,0.511289
1.8824999999999927,0.202628,0.276048,0.504329
1.884999999999991,0.213541,0.255698,0.494829
1.8874999999999889,0.225263,0.241213,0.486127
1.8899999999999864,0.234651,0.22879,0.472618
1.892499999999984,0.24251,0.218626,0.460274
1.8950000000000105,0.244569,0.205722,0.446903
1.897500000000008,0.251696,0.195039,0.437702
1.9000000000000057,0.254635,0.189512,0.421333
1.9025000000000036,0.255922,0.180035,0.407664
1.9050000000000007,0.261093,0.172944,0.396285
1.9074999999999989,0.262699,0.162617,0.379669
1.9099999999999968,0.262608,0.154295,0.365789
1.9124999999999943,0.265116,0.14892,0.352111
1.914999999999992,0.261532,0.141886,0.336482
1.9174999999999895,0.260758,0.129592,0.326205
1.9199999999999875,0.260551,0.119171,0.313029
1.9224999999999848,0.256007,0.108113,0.296388
1.924999999999983,0.249291,0.098441,0.280369
1.927500000000009,0.242571,0.089232,0.265811
1.9300000000000068,0.23754,0.081074,0.253551
1.9325000000000043,0.229331,0.071784,0.233942
1.9350000000000025,0.223079,0.062457,0.218559
1.9375,0.209625,0.055265,0.198162
1.9399999999999975,0.20122,0.046217,0.182777
1.9424999999999957,0.195194,0.036185,0.164825
1.9449999999999927,0.182207,0.030239,0.146429
1.947499999999991,0.164039,0.020527,0.135062
1.9499999999999889,0.156397,0.013842,0.126921
1.9524999999999864,0.142054,0.003254,0.117699
1.954999999999984,0.134913,-0.008199,0.110441
1.9575000000000105,0.1235,-0.022739,0.110913
1.960000000000008,0.111806,-0.033846,0.106382
1.9625000000000057,0.101725,-0.042829,0.100297
1.9650000000000036,0.091919,-0.044149,0.093647
1.9675000000000007,0.077506,-0.052287,0.088615
1.9699999999999989,0.069192,-0.059116,0.086759
1.9724999999999968,0.059671,-0.064668,0.082927
1.9749999999999943,0.051821,-0.068784,0.076102
1.977499999999992,0.044495,-0.068926,0.0746
1.9799999999999895,0.034591,-0.073504,0.073507
1.9824999999999875,0.032382,-0.072178,0.071338
1.9849999999999848,0.024348,-0.072736,0.071847
1.987499999999983,0.016903,-0.071035,0.06847
1.990000000000009,0.017103,-0.068538,0.069671
1.9925000000000068,0.010843,-0.066465,0.067107
1.9950000000000043,0.00845,-0.067078,0.06494
1.9975000000000025,0.008262,-0.061333,0.061094
2.0,0.005554,-0.060648,0.067268
2.0024999999999977,0.004254,-0.056948,0.064022
2.0049999999999955,0.005811,-0.05051,0.065746
2.007499999999993,0.007588,-0.053169,0.063614
2.009999999999991,0.007432,-0.050537,0.065234
2.0124999999999886,0.0067,-0.046359,0.064104
2.0149999999999864,0.0066,-0.046746,0.061861
2.017499999999984,0.007016,-0.049624,0.06643
2.0200000000000102,0.00843,-0.050698,0.069185
2.022500000000008,0.011121,-0.046319,0.068256
2.0250000000000057,0.009457,-0.049391,0.070002
2.0275000000000034,0.013242,-0.046478,0.074273
2.030000000000001,0.010315,-0.049341,0.07781
2.032499999999999,0.010034,-0.04795,0.077772
2.0349999999999966,0.010184,-0.052601,0.080074
2.0374999999999943,0.01244,-0.051366,0.084981
2.039999999999992,0.010691,-0.050578,0.088542
2.0424999999999898,0.008325,-0.05215,0.089574
2.0449999999999875,0.011227,-0.057448,0.093123
2.047499999999985,0.00828,-0.055148,0.098514
2.049999999999983,0.007155,-0.056496,0.104558
2.052500000000009,0.007927,-0.060092,0.104146
2.055000000000007,0.008438,-0.062166,0.110709
2.0575000000000045,0.007506,-0.062735,0.116541
2.0600000000000023,0.011233,-0.063585,0.122648
2.0625,0.008289,-0.070938,0.1226
2.0649999999999977,0.004762,-0.066142,0.132426
2.0674999999999955,0.005568,-0.074592,0.140845
2.069999999999993,0.009777,-0.072166,0.144265
2.072499999999991,0.011604,-0.077994,0.151931
2.0749999999999886,0.010086,-0.080471,0.158762
2.0774999999999864,0.01028,-0.078122,0.169522
2.079999999999984,0.010873,-0.080751,0.17441
2.0825000000000102,0.012698,-0.081283,0.181543
2.085000000000008,0.013045,-0.082541,0.186495
2.0875000000000057,0.013862,-0.076444,0.195173
2.0900000000000034,0.009409,-0.077042,0.20758
2.092500000000001,0.01222,-0.079533,0.209729
2.094999999999999,0.012426,-0.076177,0.221436
2.0974999999999966,0.010575,-0.071321,0.225779
2.0999999999999943,0.013053,-0.072725,0.234181
2.102499999999992,0.010268,-0.077786,0.240777
2.1049999999999898,0.011093,-0.07686,0.245013
2.1074999999999875,0.012665,-0.072347,0.255551
2.109999999999985,0.011478,-0.069647,0.264106
2.112499999999983,0.013322,-0.071353,0.269447
2.115000000000009,0.013339,-0.075381,0.277131
2.117500000000007,0.012032,-0.077483,0.284054
2.1200000000000045,0.012261,-0.079328,0.287708
2.1225000000000023,0.012325,-0.08454,0.290702
2.125,0.017197,-0.085033,0.302384
2.1274999999999977,0.017694,-0.087257,0.30821
2.1299999999999955,0.01743,-0.095773,0.314108
2.132499999999993,0.018964,-0.09816,0.320514
2.134999999999991,0.024392,-0.098674,0.32871
2.1374999999999886,0.024848,-0.103515,0.332877
2.1399999999999864,0.027155,-0.10365,0.339585
2.142499999999984,0.028076,-0.114496,0.347718
2.1450000000000102,0.030624,-0.111716,0.350804
2.147500000000008,0.028826,-0.118303,0.357338
2.1500000000000057,0.028533,-0.117318,0.368806
2.1525000000000034,0.028443,-0.119428,0.373083
2.155000000000001,0.028246,-0.123635,0.376753
2.157499999999999,0.03008,-0.124562,0.382968
2.1599999999999966,0.030043,-0.12641,0.389089
2.1624999999999943,0.030843,-0.128257,0.395658
2.164999999999992,0.03623,-0.133728,0.401943
2.1674999999999898,0.036726,-0.130527,0.410844
2.1699999999999875,0.034122,-0.134903,0.412296
2.172499999999985,0.03538,-0.136213,0.420272
2.174999999999983,0.032199,-0.137578,0.422775
2.177500000000009,0.029969,-0.139961,0.425361
2.180000000000007,0.033898,-0.141303,0.432659
2.1825000000000045,0.036079,-0.144916,0.443539
2.1850000000000023,0.037505,-0.144434,0.447544
2.1875,0.039215,-0.144796,0.45008
2.1899999999999977,0.038046,-0.148731,0.457171
2.1924999999999955,0.037058,-0.146773,0.461271
2.194999999999993,0.036956,-0.145201,0.469343
2.197499999999991,0.041648,-0.147396,0.472754
2.1999999999999886,0.041806,-0.150208,0.479633
2.2024999999999864,0.041751,-0.150779,0.483967
2.204999999999984,0.037467,-0.152059,0.489862
2.2075000000000102,0.038249,-0.148331,0.498364
2.210000000000008,0.041453,-0.153677,0.505593
2.2125000000000057,0.041228,-0.156769,0.505235
2.2150000000000034,0.037802,-0.155382,0.509764
2.217500000000001,0.042442,-0.155561,0.51411
2.219999999999999,0.044421,-0.157201,0.520166
2.2224999999999966,0.04401,-0.159265,0.525028
2.2249999999999943,0.045653,-0.158936,0.526888
2.227499999999992,0.044905,-0.162068,0.534675
2.2299999999999898,0.039228,-0.159238,0.535677
2.2324999999999875,0.03945,-0.166407,0.542573
2.234999999999985,0.047416,-0.162332,0.548361
2.237499999999983,0.043606,-0.163789,0.553676
2.240000000000009,0.042868,-0.165829,0.550509
2.242500000000007,0.044917,-0.166583,0.558469
2.2450000000000045,0.048112,-0.170058,0.561012
2.2475000000000023,0.047252,-0.168051,0.568775
2.25,0.044955,-0.170514,0.569523
2.2524999999999977,0.043353,-0.17051,0.572033
2.2549999999999955,0.049784,-0.171077,0.575826
2.257499999999993,0.047048,-0.172851,0.577968
2.259999999999991,0.049625,-0.17173,0.580625
2.2624999999999886,0.048618,-0.168295,0.585914
2.2649999999999864,0.047126,-0.172128,0.585269
2.267499999999984,0.05145,-0.174068,0.587552
2.2700000000000102,0.048456,-0.172445,0.588586
2.272500000000008,0.04971,-0.172706,0.590702
2.2750000000000057,0.04708,-0.176159,0.591464
2.2775000000000034,0.047619,-0.173989,0.593738
2.280000000000001,0.044262,-0.174224,0.592218
2.282499999999999,0.046981,-0.174725,0.598275
2.2849999999999966,0.051255,-0.172676,0.599203
2.2874999999999943,0.051685,-0.174673,0.598609
2.289999999999992,0.047704,-0.17159,0.601017
2.2924999999999898,0.04982,-0.177594,0.601862
2.2949999999999875,0.051773,-0.176254,0.598544
2.297499999999985,0.051662,-0.174786,0.60286
2.299999999999983,0.052216,-0.175884,0.602443
2.302500000000009,0.052705,-0.173944,0.599799
2.305000000000007,0.051119,-0.169918,0.597701
2.3075000000000045,0.055297,-0.169067,0.603224
2.3100000000000023,0.054542,-0.170621,0.59919
2.3125,0.053813,-0.164662,0.597855
2.3149999999999977,0.055084,-0.164172,0.592656
2.3174999999999955,0.053887,-0.159325,0.58938
2.319999999999993,0.05447,-0.152992,0.589271
2.322499999999991,0.056838,-0.14803,0.585429
2.3249999999999886,0.06228,-0.147821,0.581085
2.3274999999999864,0.060944,-0.139353,0.580832
2.329999999999984,0.058844,-0.133073,0.572536
2.3325000000000102,0.06448,-0.130236,0.562429
2.335000000000008,0.067282,-0.122865,0.558635
2.3375000000000057,0.065093,-0.115387,0.553951
2.3400000000000034,0.071419,-0.109768,0.550579
2.342500000000001,0.074742,-0.098035,0.541443
2.344999999999999,0.075666,-0.093545,0.53143
2.3474999999999966,0.077031,-0.084083,0.525371
2.3499999999999943,0.078023,-0.07631,0.5161
2.352499999999992,0.080527,-0.069273,0.504252
2.3549999999999898,0.084426,-0.060862,0.497463
2.3574999999999875,0.087637,-0.050668,0.485476
2.359999999999985,0.090439,-0.044225,0.475831
2.362499999999983,0.09421,-0.033568,0.466246
2.365000000000009,0.099009,-0.027537,0.454188
2.367500000000007,0.104023,-0.019108,0.443853
2.3700000000000045,0.104595,-0.013061,0.434453
2.3725000000000023,0.111016,-0.003733,0.418674
2.375,0.115045,-0.000298,0.410702
2.3774999999999977,0.119597,0.006523,0.401164
2.3799999999999955,0.119331,0.00895,0.391416
2.382499999999993,0.124408,0.015657,0.382118
2.384999999999991,0.124431,0.024039,0.369117
2.3874999999999886,0.129721,0.023782,0.354255
2.3899999999999864,0.130995,0.032272,0.349724
2.392499999999984,0.135294,0.036462,0.339928
2.3950000000000102,0.136899,0.04831,0.332514
2.397500000000008,0.135551,0.049476,0.324409
2.4000000000000057,0.140446,0.050291,0.313673
2.4025000000000034,0.140958,0.059032,0.302995
2.405000000000001,0.14127,0.061661,0.294605
2.407499999999999,0.145803,0.065377,0.289109
2.4099999999999966,0.142881,0.064022,0.285282
2.4124999999999943,0.143667,0.071091,0.274424
2.414999999999992,0.145233,0.073264,0.264733
2.4174999999999898,0.141072,0.075845,0.253918
2.4199999999999875,0.140961,0.078881,0.246996
2.422499999999985,0.143718,0.081473,0.239024
2.424999999999983,0.140349,0.084921,0.231902
2.427500000000009,0.139982,0.082905,0.225056
2.430000000000007,0.138056,0.086959,0.217576
2.4325000000000045,0.137167,0.089417,0.213546
2.4350000000000023,0.13632,0.084112,0.206082
2.4375,0.132973,0.08847,0.202728
2.4399999999999977,0.132868,0.088701,0.198518
2.4424999999999955,0.130082,0.086709,0.194601
2.444999999999993,0.124638,0.086951,0.186859
2.447499999999991,0.128004,0.087029,0.183758
2.4499999999999886,0.124574,0.087775,0.178071
2.4524999999999864,0.11887,0.08435,0.179888
2.454999999999984,0.116447,0.086447,0.173744
2.4575000000000102,0.114312,0.083988,0.166225
2.460000000000008,0.115281,0.079521,0.166952
2.4625000000000057,0.109612,0.075921,0.162346
2.4650000000000034,0.105677,0.074392,0.161492
2.467500000000001,0.104047,0.071288,0.154112
2.469999999999999,0.099561,0.069155,0.156194
2.4724999999999966,0.096297,0.066953,0.152836
2.4749999999999943,0.094496,0.068135,0.148047
2.477499999999992,0.09317,0.065476,0.146092
2.4799999999999898,0.087734,0.063405,0.143591
2.4824999999999875,0.088506,0.060243,0.14338
2.484999999999985,0.088204,0.065083,0.140279
2.487499999999983,0.089592,0.063337,0.137944
2.490000000000009,0.087499,0.059175,0.132758
2.492500000000007,0.087165,0.055266,0.135558
2.4950000000000045,0.091793,0.057796,0.131261
2.4975000000000023,0.088283,0.057211,0.129933
2.5,0.092214,0.057364,0.12757
2.5024999999999977,0.090104,0.05437,0.121637
2.5049999999999955,0.088715,0.05227,0.122605
2.507499999999993,0.093334,0.048596,0.122755
2.509999999999991,0.091403,0.05014,0.120976
2.5124999999999886,0.093157,0.048915,0.117322
2.5149999999999864,0.094271,0.049856,0.116131
2.517499999999984,0.094651,0.045748,0.116457
2.5200000000000102,0.090402,0.049365,0.114328
2.522500000000008,0.091856,0.049663,0.112274
2.5250000000000057,0.09478,0.048644,0.110761
2.5275000000000034,0.096884,0.042505,0.110681
2.530000000000001,0.098548,0.04295,0.105418
2.532499999999999,0.099073,0.044326,0.107808
2.5349999999999966,0.096578,0.043476,0.102923
2.5374999999999943,0.097543,0.041983,0.102068
2.539999999999992,0.101467,0.040301,0.100098
2.5424999999999898,0.099213,0.036994,0.101232
2.5449999999999875,0.098834,0.040639,0.09864
2.547499999999985,0.100783,0.035178,0.095049
2.549999999999983,0.099538,0.034431,0.096017
2.552500000000009,0.102175,0.035585,0.09262
2.555000000000007,0.101487,0.039022,0.094902
2.5575000000000045,0.104537,0.039914,0.095107
2.5600000000000023,0.105269,0.04001,0.096867
2.5625,0.104941,0.041103,0.094906
2.5649999999999977,0.10535,0.03928,0.091825
2.5674999999999955,0.105818,0.043171,0.09527
2.569999999999993,0.105622,0.039709,0.096802
2.572499999999991,0.103375,0.040973,0.094739
2.5749999999999886,0.106689,0.042494,0.096799
2.5774999999999864,0.109624,0.042517,0.097904
2.579999999999984,0.103726,0.041775,0.094446
2.5825000000000102,0.106744,0.047161,0.098195
2.585000000000008,0.109068,0.041755,0.098599
2.5875000000000057,0.10835,0.044196,0.100302
2.5900000000000034,0.107615,0.045649,0.100974
2.592500000000001,0.106406,0.04676,0.098717
2.594999999999999,0.108341,0.046162,0.10177
2.5974999999999966,0.107516,0.04404,0.10509
2.5999999999999943,0.105495,0.045135,0.103077
2.602499999999992,0.104915,0.047144,0.104811
2.6049999999999898,0.110584,0.047448,0.103574
2.6074999999999875,0.104808,0.050213,0.108474
2.609999999999985,0.105604,0.052079,0.102823
2.612499999999983,0.106823,0.052998,0.105698
2.615000000000009,0.106537,0.052651,0.108599
2.617500000000007,0.106069,0.05279,0.109548
2.6200000000000045,0.108869,0.05402,0.107596
2.6225000000000023,0.113001,0.057305,0.106264
2.625,0.111566,0.055025,0.104912
2.6274999999999977,0.113242,0.056558,0.109243
2.6299999999999955,0.112844,0.061198,0.110797
2.632499999999993,0.116608,0.059184,0.112817
2.634999999999991,0.118461,0.061864,0.110091
2.6374999999999886,0.115498,0.061648,0.106373
2.6399999999999864,0.118751,0.065867,0.10948
2.642499999999984,0.12076,0.063404,0.107414
2.6450000000000102,0.120691,0.069318,0.107824
2.647500000000008,0.126392,0.067981,0.105373
2.6500000000000057,0.125247,0.068802,0.107975
2.6525000000000034,0.126192,0.070329,0.108345
2.655000000000001,0.128141,0.068311,0.111529
2.657499999999999,0.129696,0.069778,0.10749
2.6599999999999966,0.136546,0.071058,0.107052
2.6624999999999943,0.132909,0.07285,0.105936
2.664999999999992,0.135478,0.074946,0.108152
2.6674999999999898,0.138588,0.074381,0.109678
2.6699999999999875,0.141641,0.075734,0.104689
2.672499999999985,0.142116,0.075107,0.102071
2.674999999999983,0.145014,0.073517,0.101452
2.677500000000009,0.146203,0.078052,0.102887
2.680000000000007,0.148838,0.077728,0.101469
2.6825000000000045,0.147755,0.076457,0.107203
2.6850000000000023,0.153439,0.079381,0.106071
2.6875,0.156692,0.075436,0.101788
2.6899999999999977,0.15567,0.071911,0.101837
2.6924999999999955,0.155336,0.07394,0.100271
2.694999999999993,0.161236,0.072198,0.100311
2.697499999999991,0.161586,0.074015,0.100287
2.6999999999999886,0.163707,0.068751,0.100286
2.7024999999999864,0.165056,0.068998,0.105076
2.704999999999984,0.161069,0.064944,0.102162
2.7075000000000102,0.163893,0.062919,0.104312
2.710000000000008,0.160914,0.061617,0.103674
2.7125000000000057,0.164757,0.06493,0.105838
2.7150000000000034,0.16307,0.057962,0.108365
2.717500000000001,0.155205,0.057095,0.113244
2.719999999999999,0.15753,0.055974,0.113929
2.7224999999999966,0.158357,0.055043,0.115208
2.7249999999999943,0.157167,0.05435,0.11721
2.727499999999992,0.157131,0.051177,0.120249
2.7299999999999898,0.154752,0.045388,0.119913
2.7324999999999875,0.155859,0.043442,0.121275
2.734999999999985,0.151103,0.040013,0.125275
2.737499999999983,0.153346,0.0369,0.130125
2.740000000000009,0.147026,0.032335,0.131855
2.742500000000007,0.142409,0.026581,0.135851
2.7450000000000045,0.14137,0.025759,0.136327
2.7475000000000023,0.141412,0.022462,0.13954
2.75,0.13975,0.020204,0.139663
2.7524999999999977,0.137093,0.016341,0.146691
2.7549999999999955,0.135198,0.00871,0.150309
2.757499999999993,0.12908,0.006878,0.158417
2.759999999999991,0.126184,0.00113,0.157056
2.7624999999999886,0.121883,-0.004169,0.158363
2.7649999999999864,0.12131,-0.009094,0.16479
2.767499999999984,0.123029,-0.011863,0.168519
2.7700000000000102,0.119566,-0.012998,0.168536
2.772500000000008,0.118362,-0.018682,0.169336
2.7750000000000057,0.115102,-0.022358,0.178175
2.7775000000000034,0.112022,-0.02206,0.173647
2.780000000000001,0.112275,-0.030284,0.177229
2.782499999999999,0.106347,-0.035402,0.182765
2.7849999999999966,0.104029,-0.036031,0.188639
2.7874999999999943,0.109678,-0.041866,0.190743
2.789999999999992,0.105063,-0.045846,0.190786
2.7924999999999898,0.103696,-0.047526,0.201344
2.7949999999999875,0.10367,-0.048728,0.198429
2.797499999999985,0.103151,-0.048447,0.201858
2.799999999999983,0.103547,-0.050206,0.203473
2.802500000000009,0.103312,-0.05473,0.207517
2.805000000000007,0.105505,-0.059342,0.208779
2.8075000000000045,0.103854,-0.055672,0.21221
2.8100000000000023,0.104847,-0.059173,0.215978
2.8125,0.105719,-0.05711,0.214126
2.8149999999999977,0.105699,-0.061154,0.220444
2.8174999999999955,0.102799,-0.056581,0.222202
2.819999999999993,0.103489,-0.057803,0.223538
2.822499999999991,0.099751,-0.062761,0.223769
2.8249999999999886,0.102689,-0.060999,0.22616
2.8274999999999864,0.101606,-0.058828,0.222977
2.829999999999984,0.102782,-0.0549,0.223016
2.8325000000000102,0.108532,-0.054362,0.227802
2.835000000000008,0.112898,-0.056778,0.225993
2.8375000000000057,0.115684,-0.051263,0.227705
2.8400000000000034,0.118383,-0.04572,0.224429
2.842500000000001,0.120515,-0.050317,0.227966
2.844999999999999,0.123199,-0.04617,0.224241
2.8474999999999966,0.12541,-0.044802,0.221021
2.8499999999999943,0.132062,-0.041786,0.221854
2.852499999999992,0.129556,-0.040379,0.220504
2.8549999999999898,0.135528,-0.035994,0.216437
2.8574999999999875,0.136521,-0.031301,0.216513
2.859999999999985,0.137525,-0.030081,0.213601
2.862499999999983,0.142034,-0.030045,0.214113
2.865000000000009,0.14246,-0.026324,0.208645
2.867500000000007,0.143383,-0.022078,0.205181
2.8700000000000045,0.148349,-0.021268,0.203241
2.8725000000000023,0.150927,-0.021055,0.200637
2.875,0.149734,-0.016627,0.200921
2.8774999999999977,0.147685,-0.017759,0.199393
2.8799999999999955,0.151039,-0.012527,0.196403
2.882499999999993,0.152785,-0.006883,0.191844
2.884999999999991,0.151046,-0.001068,0.192759
2.8874999999999886,0.153867,-0.001846,0.18703
2.8899999999999864,0.157372,0.002732,0.18293
2.892499999999984,0.156064,0.005724,0.183354
2.8950000000000102,0.153942,0.010303,0.179403
2.897500000000008,0.154117,0.008342,0.175928
2.9000000000000057,0.157224,0.012181,0.170819
2.9025000000000034,0.154886,0.02084,0.170865
2.905000000000001,0.157873,0.022513,0.168275
2.907499999999999,0.15642,0.023346,0.164253
2.9099999999999966,0.154362,0.027404,0.159682
2.9124999999999943,0.153973,0.030109,0.151487
2.914999999999992,0.152464,0.032234,0.159457
2.9174999999999898,0.14761,0.033482,0.149594
2.9199999999999875,0.142857,0.034391,0.148664
2.922499999999985,0.146159,0.036385,0.147655
2.924999999999983,0.142456,0.036976,0.143417
2.927500000000009,0.137375,0.034904,0.137851
2.930000000000007,0.135531,0.031608,0.137838
2.9325000000000045,0.131463,0.035561,0.131113
2.9350000000000023,0.127792,0.034382,0.125695
2.9375,0.127599,0.03136,0.127085
2.9399999999999977,0.123332,0.028827,0.123545
2.9424999999999955,0.122385,0.027453,0.121184
2.944999999999993,0.114816,0.025382,0.121073
2.947499999999991,0.111216,0.020567,0.120787
2.9499999999999886,0.10796,0.014745,0.117552
2.9524999999999864,0.101691,0.012103,0.118009
2.954999999999984,0.09359,0.009658,0.11326
2.9575000000000102,0.091759,0.00172,0.115328
2.960000000000008,0.087178,-0.005998,0.111602
2.9625000000000057,0.080255,-0.009625,0.115816
2.9650000000000034,0.073568,-0.016889,0.115652
2.967500000000001,0.068205,-0.024973,0.114559
2.969999999999999,0.057466,-0.028731,0.112282
2.9724999999999966,0.052329,-0.032899,0.109843
2.9749999999999943,0.045022,-0.039512,0.112536
2.977499999999992,0.039437,-0.04883,0.109609
2.9799999999999898,0.038408,-0.053242,0.109819
2.9824999999999875,0.034834,-0.058034,0.110567
2.984999999999985,0.028316,-0.063273,0.110888
2.987499999999983,0.028529,-0.070454,0.11107
2.990000000000009,0.026762,-0.070736,0.107703
2.992500000000007,0.024941,-0.074682,0.109988
2.9950000000000045,0.026418,-0.079879,0.108775
2.9975000000000023,0.029852,-0.080071,0.111265
3.0,0.034084,-0.081597,0.109682
3.0024999999999977,0.036433,-0.079675,0.110217
3.0049999999999955,0.037671,-0.080144,0.112625
3.007499999999993,0.039548,-0.079766,0.111515
3.009999999999991,0.044017,-0.079593,0.113127
3.0124999999999886,0.046868,-0.078546,0.117352
3.0149999999999864,0.043253,-0.079201,0.120055
3.017499999999984,0.048637,-0.0769,0.122378
3.0200000000000102,0.042094,-0.083357,0.125507
3.022500000000008,0.043612,-0.083013,0.125962
3.0250000000000057,0.044448,-0.086424,0.127064
3.0275000000000034,0.043591,-0.085153,0.132016
3.030000000000001,0.042239,-0.086166,0.135416
3.032499999999999,0.040967,-0.087845,0.142922
3.0349999999999966,0.042064,-0.083825,0.145863
3.0374999999999943,0.042064,-0.086799,0.14533
3.039999999999992,0.044228,-0.089751,0.1545
3.0424999999999898,0.04551,-0.088672,0.159607
3.0449999999999875,0.04477,-0.092092,0.161736
3.047499999999985,0.048784,-0.096831,0.167649
3.049999999999983,0.04796,-0.097793,0.16881
3.052500000000009,0.048821,-0.099382,0.174443
3.055000000000007,0.052433,-0.103053,0.183181
3.0575000000000045,0.050393,-0.106029,0.184796
3.0600000000000023,0.050621,-0.107433,0.188252
3.0625,0.053426,-0.111827,0.192311
3.0649999999999977,0.058978,-0.112553,0.199714
3.0674999999999955,0.059351,-0.119482,0.20261
3.069999999999993,0.058074,-0.11885,0.203375
3.072499999999991,0.057486,-0.1241,0.213534
3.0749999999999886,0.061782,-0.129387,0.217859
3.0774999999999864,0.060771,-0.124985,0.218991
3.079999999999984,0.063961,-0.131312,0.223707
3.0825000000000102,0.069468,-0.134161,0.223608
3.085000000000008,0.06348,-0.132744,0.236229
3.0875000000000057,0.066807,-0.137132,0.234313
3.0900000000000034,0.07127,-0.133505,0.237796
3.092500000000001,0.07027,-0.132722,0.240295
3.094999999999999,0.069147,-0.140093,0.242307
3.0974999999999966,0.071903,-0.138496,0.24632
3.0999999999999943,0.076836,-0.137709,0.252195
3.102499999999992,0.076544,-0.139661,0.254359
3.1049999999999898,0.075927,-0.140272,0.253754
3.1074999999999875,0.07719,-0.143327,0.261493
3.109999999999985,0.073343,-0.142279,0.264423
3.112499999999983,0.078068,-0.146873,0.269806
3.115000000000009,0.082449,-0.144693,0.272142
3.117500000000007,0.081096,-0.143878,0.273285
3.1200000000000045,0.079063,-0.144862,0.278043
3.1225000000000023,0.082367,-0.144923,0.280566
3.125,0.086496,-0.147517,0.285488
3.1274999999999977,0.087404,-0.148408,0.286853
3.1299999999999955,0.085271,-0.151639,0.293393
3.132499999999993,0.090393,-0.151971,0.296534
3.134999999999991,0.092555,-0.152239,0.302614
3.1374999999999886,0.091048,-0.157288,0.303017
3.1399999999999864,0.094163,-0.163974,0.311082
3.142499999999984,0.095231,-0.160745,0.314661
3.1450000000000102,0.092191,-0.160548,0.318932
3.147500000000008,0.094765,-0.163344,0.321648
3.1500000000000057,0.0963,-0.163849,0.325062
3.1525000000000034,0.099158,-0.161326,0.331891
3.155000000000001,0.096564,-0.167894,0.334694
3.157499999999999,0.100965,-0.16796,0.338721
3.1599999999999966,0.097556,-0.16923,0.343192
3.1624999999999943,0.104255,-0.168061,0.347915
3.164999999999992,0.106338,-0.165501,0.351141
3.1674999999999898,0.107362,-0.168532,0.351154
3.1699999999999875,0.108319,-0.170679,0.356589
3.172499999999985,0.107703,-0.169761,0.364557
3.174999999999983,0.108155,-0.171429,0.365796
3.177500000000009,0.108288,-0.171559,0.370296
3.180000000000007,0.114686,-0.173765,0.371569
3.1825000000000045,0.115689,-0.166926,0.375833
3.1850000000000023,0.113725,-0.169933,0.377191
3.1875,0.11392,-0.168741,0.378255
3.1899999999999977,0.116228,-0.170426,0.381429
3.1924999999999955,0.121083,-0.173023,0.380129
3.194999999999993,0.119827,-0.169961,0.384057
3.197499999999991,0.118415,-0.17399,0.389996
3.1999999999999886,0.122453,-0.1735,0.38683
3.2024999999999864,0.120588,-0.170916,0.389459
3.204999999999984,0.118885,-0.177401,0.38724
3.2075000000000102,0.1209,-0.17333,0.387082
3.210000000000008,0.119575,-0.1725,0.386285
3.2125000000000057,0.119691,-0.174201,0.387648
3.2150000000000034,0.12091,-0.173809,0.387792
3.217500000000001,0.120189,-0.174464,0.385342
3.219999999999999,0.117179,-0.172167,0.386328
3.2224999999999966,0.120879,-0.175229,0.386036
3.2249999999999943,0.119486,-0.173721,0.38641
3.227499999999992,0.115445,-0.175656,0.383199
3.2299999999999898,0.119957,-0.174898,0.377058
3.2324999999999875,0.120511,-0.178367,0.374495
3.234999999999985,0.117765,-0.176775,0.373567
3.237499999999983,0.116973,-0.177841,0.366398
3.240000000000009,0.115169,-0.176589,0.367827
3.242500000000007,0.115272,-0.171736,0.36113
3.2450000000000045,0.116758,-0.175226,0.355999
3.2475000000000023,0.113388,-0.172794,0.352427
3.25,0.114942,-0.17487,0.35006
3.2524999999999977,0.111315,-0.171979,0.347213
3.2549999999999955,0.110816,-0.17138,0.342184
3.257499999999993,0.112595,-0.171767,0.338525
3.259999999999991,0.108706,-0.169958,0.328895
3.2624999999999886,0.107869,-0.16972,0.328205
3.2649999999999864,0.104661,-0.167711,0.324015
3.267499999999984,0.108801,-0.169356,0.319129
3.2700000000000102,0.10461,-0.164369,0.313418
3.272500000000008,0.100131,-0.163727,0.304837
3.2750000000000057,0.102582,-0.161304,0.298999
3.2775000000000034,0.099173,-0.157395,0.296526
3.280000000000001,0.100663,-0.154796,0.287778
3.282499999999999,0.09935,-0.154702,0.287337
3.2849999999999966,0.094102,-0.151522,0.27708
3.2874999999999943,0.091124,-0.147191,0.27182
3.289999999999992,0.093231,-0.142604,0.264504
3.2924999999999898,0.087938,-0.141129,0.261309
3.2949999999999875,0.085498,-0.135748,0.254329
3.297499999999985,0.088576,-0.132133,0.250561
3.299999999999983,0.081893,-0.129281,0.240561
3.302500000000009,0.080524,-0.127162,0.239839
3.305000000000007,0.077914,-0.123887,0.230574
3.3075000000000045,0.078445,-0.116716,0.222965
3.3100000000000023,0.074641,-0.114121,0.218511
3.3125,0.074986,-0.111128,0.210241
3.3149999999999977,0.073186,-0.107715,0.202126
3.3174999999999955,0.073928,-0.102867,0.199553
3.319999999999993,0.068089,-0.100607,0.191315
3.322499999999991,0.064226,-0.095069,0.18805
3.3249999999999886,0.062611,-0.096075,0.180814
3.3274999999999864,0.062332,-0.088465,0.174212
3.329999999999984,0.059047,-0.088604,0.168135
3.3325000000000102,0.054488,-0.084776,0.15863
3.335000000000008,0.052645,-0.08363,0.153781
3.3375000000000057,0.050574,-0.081523,0.149625
3.3400000000000034,0.049656,-0.077647,0.142436
3.342500000000001,0.047579,-0.07585,0.134746
3.344999999999999,0.040575,-0.069778,0.129066
3.3474999999999966,0.041676,-0.070682,0.123238
3.3499999999999943,0.041138,-0.066961,0.11647
3.352499999999992,0.036187,-0.064074,0.108629
3.3549999999999898,0.037657,-0.063971,0.103603
3.3574999999999875,0.036616,-0.060378,0.102184
3.359999999999985,0.035075,-0.056586,0.090907
3.362499999999983,0.0327,-0.052319,0.086439
3.365000000000009,0.031181,-0.047836,0.081073
3.367500000000007,0.027905,-0.045055,0.071689
3.3700000000000045,0.029587,-0.040747,0.065278
3.3725000000000023,0.02792,-0.038493,0.059954
3.375,0.025637,-0.034957,0.054594
3.3774999999999977,0.022387,-0.03141,0.044739
3.3799999999999955,0.024583,-0.030382,0.039593
3.382499999999993,0.019813,-0.022157,0.032881
3.384999999999991,0.016553,-0.017719,0.024689
3.3874999999999886,0.017727,-0.009783,0.019749
3.3899999999999864,0.016088,-0.00594,0.018387
3.392499999999984,0.012838,-0.006001,0.007474
3.3950000000000102,0.010448,0.008699,-0.001515
3.397500000000008,0.007302,0.008085,-0.000808
3.4000000000000057,0.002421,0.012331,-0.008313
3.4025000000000034,0.003149,0.015416,-0.015232
3.405000000000001,0.000595,0.019211,-0.022833
3.407499999999999,-0.003669,0.023022,-0.030108
3.4099999999999966,-0.010748,0.029451,-0.037107
3.4124999999999943,-0.012454,0.035783,-0.039302
3.414999999999992,-0.015922,0.034752,-0.047103
3.4174999999999898,-0.019495,0.041043,-0.055531
3.4199999999999875,-0.025266,0.043341,-0.056484
3.422499999999985,-0.022069,0.045503,-0.063762
3.424999999999983,-0.029303,0.048351,-0.071591
3.427500000000009,-0.027236,0.047509,-0.079773
3.430000000000007,-0.027962,0.053503,-0.082526
3.4325000000000045,-0.026831,0.052892,-0.091057
3.4350000000000023,-0.029083,0.057969,-0.098453
3.4375,-0.026019,0.06204,-0.102173
3.4399999999999977,-0.026231,0.059938,-0.11055
3.4424999999999955,-0.024681,0.065584,-0.113495
3.444999999999993,-0.027312,0.066993,-0.117877
3.447499999999991,-0.028923,0.06778,-0.125833
3.4499999999999886,-0.033,0.068358,-0.132512
3.4524999999999864,-0.034666,0.069907,-0.132306
3.454999999999984,-0.035407,0.072304,-0.137182
3.4575000000000102,-0.035264,0.071775,-0.141612
3.460000000000008,-0.03854,0.075958,-0.146998
3.4625000000000057,-0.035048,0.077169,-0.152323
3.4650000000000034,-0.036852,0.076053,-0.151075
3.467500000000001,-0.039318,0.077953,-0.155365
3.469999999999999,-0.040588,0.080213,-0.156042
3.4724999999999966,-0.038335,0.082058,-0.157249
3.4749999999999943,-0.042376,0.088035,-0.16207
3.477499999999992,-0.041482,0.088916,-0.162898
3.4799999999999898,-0.041223,0.089116,-0.165536
3.4824999999999875,-0.041391,0.090007,-0.164698
3.484999999999985,-0.040597,0.092789,-0.16745
3.487499999999983,-0.043002,0.095285,-0.16792
3.490000000000009,-0.042339,0.093838,-0.167187
3.492500000000007,-0.044756,0.097451,-0.168596
3.4950000000000045,-0.04423,0.097243,-0.168569
3.4975000000000023,-0.045295,0.098585,-0.167437
3.5,-0.044933,0.099096,-0.167635
3.5024999999999977,-0.045176,0.100043,-0.170936
3.5049999999999955,-0.045231,0.100937,-0.16868
3.507499999999993,-0.04672,0.099153,-0.172399
3.509999999999991,-0.047255,0.100846,-0.172786
3.5124999999999886,-0.046296,0.097848,-0.171734
3.5149999999999864,-0.046253,0.095958,-0.171234
3.517499999999984,-0.04997,0.099383,-0.174192
3.5200000000000102,-0.046347,0.097541,-0.172822
3.522500000000008,-0.042678,0.094383,-0.173526
3.5250000000000057,-0.043856,0.095124,-0.173509
3.5275000000000034,-0.040634,0.089764,-0.172634
3.530000000000001,-0.040792,0.090759,-0.171925
3.532499999999999,-0.04501,0.0849,-0.172207
3.5349999999999966,-0.041519,0.085227,-0.175095
3.5374999999999943,-0.039762,0.090098,-0.175203
3.539999999999992,-0.040685,0.086779,-0.175601
3.5424999999999898,-0.038047,0.085712,-0.175728
3.5449999999999875,-0.043054,0.086937,-0.17322
3.547499999999985,-0.045125,0.085988,-0.173779
3.549999999999983,-0.039616,0.087687,-0.172688
3.552500000000009,-0.037295,0.086602,-0.175668
3.555000000000007,-0.039172,0.087189,-0.171518
3.5575000000000045,-0.041108,0.090723,-0.172845
3.5600000000000023,-0.038132,0.089567,-0.170988
3.5625,-0.040835,0.091542,-0.174642
3.5649999999999977,-0.041788,0.096123,-0.17359
3.5674999999999955,-0.0395,0.093255,-0.172172
3.569999999999993,-0.040781,0.090662,-0.16989
3.572499999999991,-0.03837,0.089761,-0.167187
3.5749999999999886,-0.037815,0.096167,-0.16664
3.5774999999999864,-0.039942,0.096044,-0.166566
3.579999999999984,-0.040066,0.092781,-0.16025
3.5825000000000102,-0.041854,0.093484,-0.164877
3.585000000000008,-0.037663,0.099695,-0.158174
3.5875000000000057,-0.035241,0.096103,-0.158717
3.5900000000000034,-0.039585,0.098348,-0.152883
3.592500000000001,-0.046492,0.095836,-0.153834
3.594999999999999,-0.04146,0.094073,-0.151336
3.5974999999999966,-0.040355,0.096913,-0.14935
3.5999999999999943,-0.03603,0.092505,-0.148892
3.602499999999992,-0.03874,0.092516,-0.146441
3.6049999999999898,-0.040373,0.090931,-0.142117
3.607499999999988,-0.041439,0.093358,-0.144617
3.609999999999985,-0.038218,0.090961,-0.142203
3.612499999999983,-0.037773,0.093604,-0.139254
3.615000000000009,-0.037393,0.089749,-0.14039
3.617500000000007,-0.037114,0.08728,-0.139278
3.620000000000005,-0.036865,0.089505,-0.13923
3.6225000000000014,-0.035566,0.090476,-0.138414
3.625,-0.035661,0.089347,-0.137289
3.6274999999999977,-0.032437,0.085901,-0.137819
3.629999999999996,-0.034578,0.088703,-0.140065
3.632499999999993,-0.03835,0.090612,-0.134924
3.634999999999991,-0.038075,0.091436,-0.136226
3.6374999999999886,-0.03731,0.087228,-0.136246
3.6399999999999855,-0.036725,0.088329,-0.140604
3.642499999999984,-0.037716,0.08825,-0.137709
3.64500000000001,-0.035207,0.090892,-0.13655
3.647500000000008,-0.035577,0.088889,-0.13722
3.6500000000000057,-0.034802,0.089607,-0.135179
3.6525000000000034,-0.03317,0.087079,-0.136165
3.655000000000001,-0.035922,0.087032,-0.138187
3.657499999999999,-0.035036,0.087362,-0.136685
3.6599999999999966,-0.037844,0.084344,-0.140344
3.6624999999999934,-0.033441,0.084905,-0.137933
3.664999999999992,-0.030823,0.083276,-0.136748
3.6674999999999898,-0.033079,0.083805,-0.137359
3.669999999999988,-0.032897,0.081909,-0.136825
3.672499999999985,-0.033286,0.081071,-0.13656
3.674999999999983,-0.033838,0.083562,-0.135173
3.677500000000009,-0.035271,0.080908,-0.140639
3.680000000000007,-0.033984,0.078764,-0.137466
3.682500000000005,-0.035529,0.080483,-0.139196
3.6850000000000014,-0.036055,0.07715,-0.140361
3.6875,-0.032905,0.077968,-0.137092
3.6899999999999977,-0.030351,0.074015,-0.135495
3.692499999999996,-0.033514,0.07994,-0.138034
3.694999999999993,-0.031361,0.073945,-0.137323
3.697499999999991,-0.033249,0.077049,-0.135703
3.6999999999999886,-0.033499,0.077821,-0.133318
3.7024999999999855,-0.033756,0.076859,-0.136738
3.704999999999984,-0.033569,0.076246,-0.131968
3.70750000000001,-0.033185,0.075985,-0.131205
3.710000000000008,-0.030811,0.077301,-0.133419
3.7125000000000057,-0.03112,0.077341,-0.127368
3.7150000000000034,-0.030863,0.077093,-0.127377
3.717500000000001,-0.030331,0.078855,-0.127049
3.719999999999999,-0.027989,0.075696,-0.12766
3.7224999999999966,-0.031838,0.073615,-0.123486
3.7249999999999934,-0.02813,0.070526,-0.122127
3.727499999999992,-0.032033,0.072003,-0.12262
3.7299999999999898,-0.027478,0.070991,-0.118575
3.732499999999988,-0.030148,0.069674,-0.118926
3.734999999999985,-0.02608,0.069357,-0.116481
3.737499999999983,-0.026904,0.06747,-0.113834
3.740000000000009,-0.027324,0.065339,-0.115697
3.742500000000007,-0.026952,0.067445,-0.108716
3.745000000000005,-0.025664,0.064813,-0.109851
3.7475000000000014,-0.026229,0.064196,-0.10896
3.75,-0.027072,0.067582,-0.102611
3.7524999999999977,-0.026043,0.063837,-0.098781
3.754999999999996,-0.023922,0.061915,-0.100982
3.757499999999993,-0.028556,0.062135,-0.100143
3.759999999999991,-0.02542,0.064444,-0.096096
3.7624999999999886,-0.024088,0.06184,-0.095834
3.7649999999999855,-0.023428,0.061028,-0.095651
3.767499999999984,-0.024441,0.062954,-0.09158
3.77000000000001,-0.023271,0.060075,-0.09107
3.772500000000008,-0.018644,0.060549,-0.094749
3.7750000000000057,-0.018694,0.06345,-0.088362
3.7775000000000034,-0.022969,0.06148,-0.087623
3.780000000000001,-0.022383,0.060614,-0.082292
3.782499999999999,-0.022464,0.058655,-0.079431
3.7849999999999966,-0.018451,0.056147,-0.078593
3.7874999999999934,-0.019477,0.05118,-0.074932
3.789999999999992,-0.017592,0.052545,-0.077072
3.7924999999999898,-0.017706,0.04997,-0.070775
3.794999999999988,-0.021942,0.050133,-0.0705
3.797499999999985,-0.01839,0.046226,-0.068401
3.799999999999983,-0.014447,0.045808,-0.068259
3.802500000000009,-0.017019,0.046479,-0.065082
3.805000000000007,-0.016649,0.040094,-0.067265
3.807500000000005,-0.012261,0.045025,-0.060534
3.8100000000000014,-0.01649,0.041344,-0.061402
3.8125,-0.015305,0.039827,-0.058934
3.8149999999999977,-0.008456,0.036786,-0.05569
3.817499999999996,-0.013295,0.03689,-0.052807
3.819999999999993,-0.013861,0.034143,-0.050661
3.822499999999991,-0.013046,0.0352,-0.046913
3.8249999999999886,-0.008734,0.031779,-0.050059
3.8274999999999855,-0.012559,0.029437,-0.050144
3.829999999999984,-0.011098,0.03204,-0.045501
3.83250000000001,-0.0122,0.033114,-0.045103
3.835000000000008,-0.010611,0.032198,-0.045648
3.8375000000000057,-0.009204,0.031122,-0.03674
3.8400000000000034,-0.010764,0.026444,-0.04024
3.842500000000001,-0.009909,0.026216,-0.039801
3.844999999999999,-0.009213,0.028514,-0.03749
3.8474999999999966,-0.008731,0.029426,-0.035129
3.8499999999999934,-0.011855,0.022639,-0.037926
3.852499999999992,-0.006184,0.022892,-0.034595
3.8549999999999898,-0.004478,0.025346,-0.03356
3.857499999999988,-0.006415,0.02395,-0.035654
3.859999999999985,-0.007525,0.021636,-0.031513
3.862499999999983,-0.005399,0.018045,-0.033565
3.865000000000009,-0.005618,0.017781,-0.027636
3.867500000000007,-0.005089,0.019503,-0.032367
3.870000000000005,-0.006676,0.016446,-0.031099
3.8725000000000014,-0.008279,0.01665,-0.028802
3.875,-0.005157,0.016651,-0.027563
3.8774999999999977,-0.004759,0.019158,-0.024872
3.879999999999996,-0.006476,0.016236,-0.023967
3.882499999999993,-0.006995,0.008664,-0.025718
3.884999999999991,-0.008762,0.015246,-0.025488
3.8874999999999886,-0.00405,0.017918,-0.02421
3.8899999999999855,-0.00269,0.015745,-0.027493
3.892499999999984,-0.007859,0.014625,-0.02736
3.89500000000001,-0.003719,0.012564,-0.025879
3.897500000000008,-0.003643,0.013682,-0.023386
3.9000000000000057,-0.001891,0.012035,-0.023365
3.9025000000000034,-0.003436,0.010698,-0.022809
3.905000000000001,0.000755,0.0081,-0.023164
3.907499999999999,-0.002564,0.010177,-0.021151
3.9099999999999966,-0.004406,0.011247,-0.020689
3.9124999999999934,-0.00262,0.012892,-0.017343
3.914999999999992,-0.002544,0.011439,-0.02103
3.9174999999999898,-0.003161,0.01241,-0.020602
3.919999999999988,-0.002614,0.011639,-0.019683
3.922499999999985,-0.001575,0.01448,-0.022537
3.924999999999983,-0.002363,0.012318,-0.020254
3.927500000000009,-0.003821,0.014476,-0.02014
3.930000000000007,-0.004259,0.009025,-0.014018
3.932500000000005,-0.002651,0.013974,-0.014311
3.9350000000000014,-0.004357,0.011172,-0.018907
3.9375,-0.005034,0.014087,-0.019436
3.9399999999999977,-0.003621,0.012391,-0.018822
3.942499999999996,-0.000413,0.01039,-0.018419
3.944999999999993,0.00016,0.010616,-0.015724
3.947499999999991,-0.00203,0.012197,-0.016247
3.9499999999999886,-0.004704,0.01353,-0.01839
3.9524999999999855,-0.003584,0.013458,-0.018696
3.954999999999984,0.000205,0.011667,-0.018547
3.95750000000001,-0.002111,0.010916,-0.016032
3.960000000000008,-0.008015,0.014197,-0.017124
3.9625000000000057,-0.004771,0.016082,-0.017519
3.9650000000000034,-0.000377,0.014777,-0.016116
3.967500000000001,-0.002806,0.014693,-0.018664
3.969999999999999,-0.004737,0.010014,-0.013494
3.9724999999999966,-0.002496,0.014108,-0.019392
3.9749999999999934,-0.005192,0.014339,-0.01861
3.977499999999992,-0.003228,0.012722,-0.019266
3.9799999999999898,-0.004086,0.015656,-0.019005
3.982499999999988,-0.003237,0.01738,-0.021651
3.984999999999985,-0.00529,0.016753,-0.019349
3.987499999999983,-0.006327,0.017997,-0.01972
3.990000000000009,-0.004922,0.019553,-0.019376
3.992500000000007,-0.007035,0.015224,-0.025363
3.995000000000005,-0.005381,0.018225,-0.022787
3.9975000000000014,-0.003031,0.015957,-0.024395
4.0,-0.006856,0.018653,-0.025532
4.002499999999998,-0.005248,0.018656,-0.022356
4.004999999999996,-0.004174,0.019345,-0.0273
4.007499999999993,-0.006191,0.018545,-0.024423
4.009999999999991,-0.006983,0.021296,-0.024261
4.012499999999989,-0.007413,0.018706,-0.027707
4.014999999999986,-0.006899,0.01949,-0.026931
4.017499999999984,-0.008832,0.021373,-0.026917
4.02000000000001,-0.005081,0.025477,-0.028017
4.022500000000008,-0.005619,0.020249,-0.029032
4.025000000000006,-0.007604,0.025699,-0.028409
4.027500000000003,-0.005992,0.023406,-0.032385
4.030000000000001,-0.00578,0.020881,-0.0342
4.032499999999999,-0.006744,0.024905,-0.033289
4.034999999999997,-0.007103,0.026333,-0.035942
4.037499999999994,-0.006624,0.025333,-0.033602
4.039999999999992,-0.007187,0.024433,-0.036891
4.04249999999999,-0.008745,0.027329,-0.03712
4.044999999999988,-0.009556,0.025053,-0.038078
4.047499999999985,-0.009701,0.030521,-0.037991
4.049999999999983,-0.009987,0.02717,-0.036918
4.052500000000009,-0.010276,0.028589,-0.039798
4.055000000000007,-0.009091,0.028913,-0.040618
4.0575000000000045,-0.012127,0.024741,-0.043042
4.060000000000002,-0.012475,0.030973,-0.042488
4.0625,-0.011528,0.028405,-0.045283
4.064999999999998,-0.01011,0.027,-0.044502
4.067499999999996,-0.013025,0.029138,-0.04587
4.069999999999993,-0.011718,0.027565,-0.049022
4.072499999999991,-0.010633,0.030691,-0.048505
4.074999999999989,-0.009578,0.026804,-0.048499
4.077499999999986,-0.011377,0.031243,-0.047746
4.079999999999984,-0.010923,0.032321,-0.053078
4.08250000000001,-0.011292,0.029985,-0.050631
4.085000000000008,-0.012557,0.029456,-0.052775
4.087500000000006,-0.010827,0.033311,-0.055134
4.090000000000003,-0.012212,0.032175,-0.054424
4.092500000000001,-0.010665,0.033429,-0.053793
4.094999999999999,-0.009425,0.030778,-0.057043
4.097499999999997,-0.010049,0.032706,-0.05502
4.099999999999994,-0.01139,0.030389,-0.056079
4.102499999999992,-0.012651,0.034631,-0.056046
4.10499999999999,-0.010353,0.035069,-0.059947
4.107499999999988,-0.012344,0.036738,-0.05914
4.109999999999985,-0.013928,0.033269,-0.057317
4.112499999999983,-0.010984,0.031204,-0.061487
4.115000000000009,-0.013599,0.034197,-0.059979
4.117500000000007,-0.013828,0.035612,-0.058289
4.1200000000000045,-0.012776,0.03384,-0.060128
4.122500000000002,-0.013578,0.035562,-0.060876
4.125,-0.010312,0.035711,-0.06281
4.127499999999998,-0.013876,0.038435,-0.058971
4.129999999999996,-0.012235,0.035649,-0.059938
4.132499999999993,-0.015719,0.038929,-0.061445
4.134999999999991,-0.016947,0.038389,-0.063719
4.137499999999989,-0.013773,0.037882,-0.063159
4.139999999999986,-0.014064,0.037735,-0.064079
4.142499999999984,-0.015084,0.037161,-0.064497
4.14500000000001,-0.016114,0.039049,-0.06306
4.147500000000008,-0.014392,0.039036,-0.061554
4.150000000000006,-0.01453,0.039367,-0.064804
4.152500000000003,-0.015134,0.041208,-0.065427
4.155000000000001,-0.010103,0.039826,-0.064935
4.157499999999999,-0.017618,0.040474,-0.067109
4.159999999999997,-0.015162,0.042074,-0.065766
4.162499999999994,-0.013912,0.041781,-0.063549
4.164999999999992,-0.016278,0.037759,-0.067906
4.16749999999999,-0.013587,0.03842,-0.066036
4.169999999999988,-0.015742,0.037523,-0.066599
4.172499999999985,-0.015849,0.038571,-0.064862
4.174999999999983,-0.018346,0.035697,-0.066544
4.177500000000009,-0.01163,0.041958,-0.06644
4.180000000000007,-0.014776,0.039626,-0.066273
4.1825000000000045,-0.013965,0.041614,-0.067765
4.185000000000002,-0.014704,0.039992,-0.065096
4.1875,-0.011849,0.039703,-0.063965
4.189999999999998,-0.013001,0.041341,-0.064513
4.192499999999996,-0.016819,0.040259,-0.069
4.194999999999993,-0.009829,0.037398,-0.068752
4.197499999999991,-0.015734,0.040523,-0.064768
4.199999999999989,-0.018124,0.039662,-0.068747
4.202499999999986,-0.013879,0.04028,-0.064123
4.204999999999984,-0.014038,0.039055,-0.068042
4.20750000000001,-0.011247,0.042196,-0.063412
4.210000000000008,-0.017025,0.036463,-0.064208
4.212500000000006,-0.015537,0.038595,-0.06275
4.215000000000003,-0.016856,0.037485,-0.063121
4.217500000000001,-0.013815,0.03724,-0.065108
4.219999999999999,-0.012942,0.039523,-0.065067
4.222499999999997,-0.013365,0.035844,-0.061798
4.224999999999994,-0.015976,0.03796,-0.061603
4.227499999999992,-0.014065,0.039209,-0.061436
4.22999999999999,-0.009802,0.034613,-0.062039
4.232499999999988,-0.010948,0.039222,-0.0578
4.234999999999985,-0.009093,0.035246,-0.056644
4.237499999999983,-0.010066,0.036298,-0.057019
4.240000000000009,-0.013189,0.038832,-0.054635
4.242500000000007,-0.012825,0.032637,-0.052591
4.2450000000000045,-0.00775,0.033808,-0.052977
4.247500000000002,-0.007991,0.032105,-0.051703
4.25,-0.012848,0.031146,-0.051633
4.252499999999998,-0.010045,0.029007,-0.047481
4.254999999999996,-0.010927,0.02799,-0.049621
4.257499999999993,-0.008161,0.030308,-0.044653
4.259999999999991,-0.008459,0.023364,-0.044251
4.262499999999989,-0.007813,0.022938,-0.043415
4.264999999999986,-0.007212,0.025407,-0.038406
4.267499999999984,-0.009102,0.021967,-0.039206
4.27000000000001,-0.006519,0.017799,-0.037561
4.272500000000008,-0.005729,0.015828,-0.033988
4.275000000000006,-0.004555,0.017583,-0.035265
4.277500000000003,-0.004843,0.018836,-0.030829
4.280000000000001,-0.007589,0.014774,-0.029144
4.282499999999999,-0.002526,0.013278,-0.026548
4.284999999999997,-0.005655,0.013862,-0.023498
4.287499999999994,-0.00415,0.013589,-0.02147
4.289999999999992,-0.003543,0.012723,-0.018719
4.29249999999999,-0.002342,0.008897,-0.016657
4.294999999999988,-0.001691,0.004565,-0.01038
4.297499999999985,0.000521,0.006809,-0.012101
4.299999999999983,-0.001208,0.00531,-0.003994
4.302500000000009,-7.3e-05,0.00368,-0.004065
4.305000000000007,0.003948,0.004379,-0.002731
4.3075000000000045,0.005021,0.007363,0.002141
4.310000000000002,0.000221,0.000366,0.002357
4.3125,0.002336,0.001695,0.002385
4.314999999999998,0.000153,-0.000484,0.005569
4.317499999999996,0.003382,-0.004186,0.007748
4.319999999999993,0.007398,-0.004193,0.00908
4.322499999999991,0.00309,-0.001559,0.012244
4.324999999999989,0.005073,-0.000837,0.015079
4.327499999999986,0.006574,-0.009018,0.017642
4.329999999999984,0.00817,-0.009702,0.020547
4.33250000000001,0.007214,-0.008492,0.021724
4.335000000000008,0.007351,-0.010361,0.025766
4.337500000000006,0.005364,-0.012071,0.026313
4.340000000000003,0.010193,-0.01336,0.024391
4.342500000000001,0.00943,-0.012918,0.028009
4.344999999999999,0.010044,-0.014558,0.03312
4.347499999999997,0.007761,-0.016075,0.032294
4.349999999999994,0.007378,-0.020321,0.03713
4.352499999999992,0.009421,-0.020432,0.033333
4.35499999999999,0.01319,-0.023022,0.036824
4.357499999999988,0.011613,-0.023833,0.041211
4.359999999999985,0.008674,-0.024486,0.04466
4.362499999999983,0.015569,-0.028013,0.042514
4.365000000000009,0.016635,-0.028151,0.045169
4.367500000000007,0.014105,-0.025173,0.046108
4.3700000000000045,0.019044,-0.029123,0.04895
4.372500000000002,0.012036,-0.027679,0.051474
4.375,0.015107,-0.029042,0.052273
4.377499999999998,0.015991,-0.026889,0.054771
4.379999999999996,0.015049,-0.033864,0.056913
4.382499999999993,0.016276,-0.029236,0.059212
4.384999999999991,0.020332,-0.032267,0.061373
4.387499999999989,0.01694,-0.033952,0.061495
4.389999999999986,0.017378,-0.039391,0.063928
4.392499999999984,0.021488,-0.036013,0.064728
4.39500000000001,0.021035,-0.040959,0.065283
4.397500000000008,0.018848,-0.037366,0.072766
4.400000000000006,0.019526,-0.03911,0.073955
4.402500000000003,0.021859,-0.039627,0.071875
4.405000000000001,0.022838,-0.035562,0.076104
4.407499999999999,0.019603,-0.043444,0.07594
4.409999999999997,0.023665,-0.048691,0.075871
4.412499999999994,0.024541,-0.047766,0.081741
4.414999999999992,0.023568,-0.043283,0.084326
4.41749999999999,0.025214,-0.048225,0.084058
4.419999999999988,0.025157,-0.046152,0.083261
4.422499999999985,0.022689,-0.04665,0.08505
4.424999999999983,0.027085,-0.052856,0.088068
4.427500000000009,0.025519,-0.05531,0.088423
4.430000000000007,0.028179,-0.051591,0.092623
4.4325000000000045,0.025552,-0.055666,0.094091
4.435000000000002,0.027963,-0.050974,0.094318
4.4375,0.028648,-0.053813,0.095413
4.439999999999998,0.028364,-0.053328,0.099755
4.442499999999996,0.026564,-0.057307,0.098959
4.444999999999993,0.030524,-0.059529,0.103993
4.447499999999991,0.029995,-0.056395,0.1056
4.449999999999989,0.03194,-0.061709,0.108016
4.452499999999986,0.028323,-0.064155,0.105082
4.454999999999984,0.031239,-0.057709,0.108336
4.45750000000001,0.031055,-0.059363,0.112612
4.460000000000008,0.031567,-0.062272,0.109457
4.462500000000006,0.029133,-0.061651,0.114671
4.465000000000003,0.032406,-0.063509,0.115702
4.467500000000001,0.036634,-0.065194,0.117002
4.469999999999999,0.036114,-0.066899,0.119963
4.472499999999997,0.032208,-0.06738,0.118928
4.474999999999994,0.032128,-0.068289,0.123432
4.477499999999992,0.03636,-0.063744,0.122292
4.47999999999999,0.033163,-0.068161,0.121393
4.482499999999988,0.035443,-0.065257,0.124908
4.484999999999985,0.033087,-0.065808,0.127236
4.487499999999983,0.035945,-0.066622,0.12606
4.490000000000009,0.035468,-0.067776,0.128301
4.492500000000007,0.035258,-0.068176,0.127517
4.4950000000000045,0.038249,-0.072154,0.129972
4.497500000000002,0.034637,-0.067511,0.127853
4.5,0.034762,-0.065464,0.128671
4.502499999999998,0.036492,-0.067961,0.134086
4.504999999999996,0.038899,-0.072643,0.131235
4.507499999999993,0.037032,-0.072247,0.131873
4.509999999999991,0.033737,-0.07001,0.132123
4.512499999999989,0.035638,-0.069217,0.133128
4.514999999999986,0.038431,-0.068881,0.131897
4.517499999999984,0.037598,-0.069848,0.132696
4.52000000000001,0.039063,-0.071838,0.135058
4.522500000000008,0.036656,-0.068663,0.132357
4.525000000000006,0.034546,-0.072952,0.138179
4.527500000000003,0.034676,-0.068665,0.134275
4.530000000000001,0.037093,-0.071718,0.134585
4.532499999999999,0.037304,-0.072514,0.134569
4.534999999999997,0.034874,-0.072637,0.13622
4.537499999999994,0.036616,-0.072038,0.137339
4.539999999999992,0.034562,-0.072666,0.130209
4.54249999999999,0.036984,-0.070466,0.135217
4.544999999999988,0.04089,-0.072096,0.133573
4.547499999999985,0.035026,-0.07191,0.136156
4.549999999999983,0.03675,-0.071108,0.133399
