time,Gyr_X,Gyr_Y,Gyr_Z
0.0,-0.033441,0.084905,-0.137933
0.0024999999999977,-0.030823,0.083276,-0.136748
0.0049999999999954,-0.033079,0.083805,-0.137359
0.0074999999999931,-0.032897,0.081909,-0.136825
0.0099999999999909,-0.033286,0.081071,-0.13656
0.0124999999999886,-0.033838,0.083562,-0.135173
0.0150000000000147,-0.035271,0.080908,-0.140639
0.0175000000000125,-0.033984,0.078764,-0.137466
0.0200000000000102,-0.035529,0.080483,-0.139196
0.0225000000000079,-0.036055,0.07715,-0.140361
0.0250000000000056,-0.032905,0.077968,-0.137092
0.0275000000000034,-0.030351,0.074015,-0.135495
0.0300000000000011,-0.033514,0.07994,-0.138034
0.0324999999999988,-0.031361,0.073945,-0.137323
0.0349999999999965,-0.033249,0.077049,-0.135703
0.0374999999999943,-0.033499,0.077821,-0.133318
0.039999999999992,-0.033756,0.076859,-0.136738
0.0424999999999897,-0.033569,0.076246,-0.131968
0.0450000000000159,-0.033185,0.075985,-0.131205
0.0475000000000136,-0.030811,0.077301,-0.133419
0.0500000000000113,-0.03112,0.077341,-0.127368
0.052500000000009,-0.030863,0.077093,-0.127377
0.0550000000000068,-0.030331,0.078855,-0.127049
0.0575000000000045,-0.027989,0.075696,-0.12766
0.0600000000000022,-0.031838,0.073615,-0.123486
0.0625,-0.02813,0.070526,-0.122127
0.0649999999999977,-0.032033,0.072003,-0.12262
0.0674999999999954,-0.027478,0.070991,-0.118575
0.0699999999999931,-0.030148,0.069674,-0.118926
0.0724999999999909,-0.02608,0.069357,-0.116481
0.0749999999999886,-0.026904,0.06747,-0.113834
0.0775000000000147,-0.027324,0.065339,-0.115697
0.0800000000000125,-0.026952,0.067445,-0.108716
0.0825000000000102,-0.025664,0.064813,-0.109851
0.0850000000000079,-0.026229,0.064196,-0.10896
0.0875000000000056,-0.027072,0.067582,-0.102611
0.0900000000000034,-0.026043,0.063837,-0.098781
0.0925000000000011,-0.023922,0.061915,-0.100982
0.0949999999999988,-0.028556,0.062135,-0.100143
0.0974999999999965,-0.02542,0.064444,-0.096096
0.0999999999999943,-0.024088,0.06184,-0.095834
0.102499999999992,-0.023428,0.061028,-0.095651
0.1049999999999897,-0.024441,0.062954,-0.09158
0.1075000000000159,-0.023271,0.060075,-0.09107
0.1100000000000136,-0.018644,0.060549,-0.094749
0.1125000000000113,-0.018694,0.06345,-0.088362
0.1150000000000091,-0.022969,0.06148,-0.087623
0.1175000000000068,-0.022383,0.060614,-0.082292
0.1200000000000045,-0.022464,0.058655,-0.079431
0.1225000000000022,-0.018451,0.056147,-0.078593
0.125,-0.019477,0.05118,-0.074932
0.1274999999999977,-0.017592,0.052545,-0.077072
0.1299999999999954,-0.017706,0.04997,-0.070775
0.1324999999999931,-0.021942,0.050133,-0.0705
0.1349999999999909,-0.01839,0.046226,-0.068401
0.1374999999999886,-0.014447,0.045808,-0.068259
0.1400000000000147,-0.017019,0.046479,-0.065082
0.1425000000000125,-0.016649,0.040094,-0.067265
0.1450000000000102,-0.012261,0.045025,-0.060534
0.1475000000000079,-0.01649,0.041344,-0.061402
0.1500000000000056,-0.015305,0.039827,-0.058934
0.1525000000000034,-0.008456,0.036786,-0.05569
0.1550000000000011,-0.013295,0.03689,-0.052807
0.1574999999999988,-0.013861,0.034143,-0.050661
0.1599999999999966,-0.013046,0.0352,-0.046913
0.1624999999999943,-0.008734,0.031779,-0.050059
0.164999999999992,-0.012559,0.029437,-0.050144
0.1674999999999897,-0.011098,0.03204,-0.045501
0.1700000000000159,-0.0122,0.033114,-0.045103
0.1725000000000136,-0.010611,0.032198,-0.045648
0.1750000000000113,-0.009204,0.031122,-0.03674
0.1775000000000091,-0.010764,0.026444,-0.04024
0.1800000000000068,-0.009909,0.026216,-0.039801
0.1825000000000045,-0.009213,0.028514,-0.03749
0.1850000000000022,-0.008731,0.029426,-0.035129
0.1875,-0.011855,0.022639,-0.037926
0.1899999999999977,-0.006184,0.022892,-0.034595
0.1924999999999954,-0.004478,0.025346,-0.03356
0.1949999999999931,-0.006415,0.02395,-0.035654
0.1974999999999909,-0.007525,0.021636,-0.031513
0.1999999999999886,-0.005399,0.018045,-0.033565
0.2025000000000147,-0.005618,0.017781,-0.027636
0.2050000000000125,-0.005089,0.019503,-0.032367
0.2075000000000102,-0.006676,0.016446,-0.031099
0.2100000000000079,-0.008279,0.01665,-0.028802
0.2125000000000056,-0.005157,0.016651,-0.027563
0.2150000000000034,-0.004759,0.019158,-0.024872
0.2175000000000011,-0.006476,0.016236,-0.023967
0.2199999999999988,-0.006995,0.008664,-0.025718
0.2224999999999966,-0.008762,0.015246,-0.025488
0.2249999999999943,-0.00405,0.017918,-0.02421
0.227499999999992,-0.00269,0.015745,-0.027493
0.2299999999999897,-0.007859,0.014625,-0.02736
0.2325000000000159,-0.003719,0.012564,-0.025879
0.2350000000000136,-0.003643,0.013682,-0.023386
0.2375000000000113,-0.001891,0.012035,-0.023365
0.2400000000000091,-0.003436,0.010698,-0.022809
0.2425000000000068,0.000755,0.0081,-0.023164
0.2450000000000045,-0.002564,0.010177,-0.021151
0.2475000000000022,-0.004406,0.011247,-0.020689
0.25,-0.00262,0.012892,-0.017343
0.2524999999999977,-0.002544,0.011439,-0.02103
0.2549999999999954,-0.003161,0.01241,-0.020602
0.2574999999999932,-0.002614,0.011639,-0.019683
0.2599999999999909,-0.001575,0.01448,-0.022537
0.2624999999999886,-0.002363,0.012318,-0.020254
0.2650000000000148,-0.003821,0.014476,-0.02014
0.2675000000000125,-0.004259,0.009025,-0.014018
0.2700000000000102,-0.002651,0.013974,-0.014311
0.2725000000000079,-0.004357,0.011172,-0.018907
0.2750000000000057,-0.005034,0.014087,-0.019436
0.2775000000000034,-0.003621,0.012391,-0.018822
0.2800000000000011,-0.000413,0.01039,-0.018419
0.2824999999999988,0.00016,0.010616,-0.015724
0.2849999999999966,-0.00203,0.012197,-0.016247
0.2874999999999943,-0.004704,0.01353,-0.01839
0.289999999999992,-0.003584,0.013458,-0.018696
0.2924999999999897,0.000205,0.011667,-0.018547
0.2950000000000159,-0.002111,0.010916,-0.016032
0.2975000000000136,-0.008015,0.014197,-0.017124
0.3000000000000113,-0.004771,0.016082,-0.017519
0.3025000000000091,-0.000377,0.014777,-0.016116
0.3050000000000068,-0.002806,0.014693,-0.018664
0.3075000000000045,-0.004737,0.010014,-0.013494
0.3100000000000023,-0.002496,0.014108,-0.019392
0.3125,-0.005192,0.014339,-0.01861
0.3149999999999977,-0.003228,0.012722,-0.019266
0.3174999999999954,-0.004086,0.015656,-0.019005
0.3199999999999932,-0.003237,0.01738,-0.021651
0.3224999999999909,-0.00529,0.016753,-0.019349
0.3249999999999886,-0.006327,0.017997,-0.01972
0.3275000000000148,-0.004922,0.019553,-0.019376
0.3300000000000125,-0.007035,0.015224,-0.025363
0.3325000000000102,-0.005381,0.018225,-0.022787
0.3350000000000079,-0.003031,0.015957,-0.024395
0.3375000000000057,-0.006856,0.018653,-0.025532
0.3400000000000034,-0.005248,0.018656,-0.022356
0.3425000000000011,-0.004174,0.019345,-0.0273
0.3449999999999988,-0.006191,0.018545,-0.024423
0.3474999999999966,-0.006983,0.021296,-0.024261
0.3499999999999943,-0.007413,0.018706,-0.027707
0.352499999999992,-0.006899,0.01949,-0.026931
0.3549999999999897,-0.008832,0.021373,-0.026917
0.3575000000000159,-0.005081,0.025477,-0.028017
0.3600000000000136,-0.005619,0.020249,-0.029032
0.3625000000000113,-0.007604,0.025699,-0.028409
0.3650000000000091,-0.005992,0.023406,-0.032385
0.3675000000000068,-0.00578,0.020881,-0.0342
0.3700000000000045,-0.006744,0.024905,-0.033289
0.3725000000000023,-0.007103,0.026333,-0.035942
0.375,-0.006624,0.025333,-0.033602
0.3774999999999977,-0.007187,0.024433,-0.036891
0.3799999999999954,-0.008745,0.027329,-0.03712
0.3824999999999932,-0.009556,0.025053,-0.038078
0.3849999999999909,-0.009701,0.030521,-0.037991
0.3874999999999886,-0.009987,0.02717,-0.036918
0.3900000000000148,-0.010276,0.028589,-0.039798
0.3925000000000125,-0.009091,0.028913,-0.040618
0.3950000000000102,-0.012127,0.024741,-0.043042
0.3975000000000079,-0.012475,0.030973,-0.042488
0.4000000000000057,-0.011528,0.028405,-0.045283
0.4025000000000034,-0.01011,0.027,-0.044502
0.4050000000000011,-0.013025,0.029138,-0.04587
0.4074999999999988,-0.011718,0.027565,-0.049022
0.4099999999999966,-0.010633,0.030691,-0.048505
0.4124999999999943,-0.009578,0.026804,-0.048499
0.414999999999992,-0.011377,0.031243,-0.047746
0.4174999999999897,-0.010923,0.032321,-0.053078
0.4200000000000159,-0.011292,0.029985,-0.050631
0.4225000000000136,-0.012557,0.029456,-0.052775
0.4250000000000113,-0.010827,0.033311,-0.055134
0.4275000000000091,-0.012212,0.032175,-0.054424
0.4300000000000068,-0.010665,0.033429,-0.053793
0.4325000000000045,-0.009425,0.030778,-0.057043
0.4350000000000023,-0.010049,0.032706,-0.05502
0.4375,-0.01139,0.030389,-0.056079
0.4399999999999977,-0.012651,0.034631,-0.056046
0.4424999999999954,-0.010353,0.035069,-0.059947
0.4449999999999932,-0.012344,0.036738,-0.05914
0.4474999999999909,-0.013928,0.033269,-0.057317
0.4499999999999886,-0.010984,0.031204,-0.061487
0.4525000000000148,-0.013599,0.034197,-0.059979
0.4550000000000125,-0.013828,0.035612,-0.058289
0.4575000000000102,-0.012776,0.03384,-0.060128
0.4600000000000079,-0.013578,0.035562,-0.060876
0.4625000000000057,-0.010312,0.035711,-0.06281
0.4650000000000034,-0.013876,0.038435,-0.058971
0.4675000000000011,-0.012235,0.035649,-0.059938
0.4699999999999988,-0.015719,0.038929,-0.061445
0.4724999999999966,-0.016947,0.038389,-0.063719
0.4749999999999943,-0.013773,0.037882,-0.063159
0.477499999999992,-0.014064,0.037735,-0.064079
0.4799999999999897,-0.015084,0.037161,-0.064497
0.4825000000000159,-0.016114,0.039049,-0.06306
0.4850000000000136,-0.014392,0.039036,-0.061554
0.4875000000000113,-0.01453,0.039367,-0.064804
0.4900000000000091,-0.015134,0.041208,-0.065427
0.4925000000000068,-0.010103,0.039826,-0.064935
0.4950000000000045,-0.017618,0.040474,-0.067109
0.4975000000000023,-0.015162,0.042074,-0.065766
0.5,-0.013912,0.041781,-0.063549
0.5024999999999977,-0.016278,0.037759,-0.067906
0.5049999999999955,-0.013587,0.03842,-0.066036
0.5074999999999932,-0.015742,0.037523,-0.066599
0.5099999999999909,-0.015849,0.038571,-0.064862
0.5124999999999886,-0.018346,0.035697,-0.066544
0.5150000000000148,-0.01163,0.041958,-0.06644
0.5175000000000125,-0.014776,0.039626,-0.066273
0.5200000000000102,-0.013965,0.041614,-0.067765
0.522500000000008,-0.014704,0.039992,-0.065096
0.5250000000000057,-0.011849,0.039703,-0.063965
0.5275000000000034,-0.013001,0.041341,-0.064513
0.5300000000000011,-0.016819,0.040259,-0.069
0.5324999999999989,-0.009829,0.037398,-0.068752
0.5349999999999966,-0.015734,0.040523,-0.064768
0.5374999999999943,-0.018124,0.039662,-0.068747
0.539999999999992,-0.013879,0.04028,-0.064123
0.5424999999999898,-0.014038,0.039055,-0.068042
0.5450000000000159,-0.011247,0.042196,-0.063412
0.5475000000000136,-0.017025,0.036463,-0.064208
0.5500000000000114,-0.015537,0.038595,-0.06275
0.5525000000000091,-0.016856,0.037485,-0.063121
0.5550000000000068,-0.013815,0.03724,-0.065108
0.5575000000000045,-0.012942,0.039523,-0.065067
0.5600000000000023,-0.013365,0.035844,-0.061798
0.5625,-0.015976,0.03796,-0.061603
0.5649999999999977,-0.014065,0.039209,-0.061436
0.5674999999999955,-0.009802,0.034613,-0.062039
0.5699999999999932,-0.010948,0.039222,-0.0578
0.5724999999999909,-0.009093,0.035246,-0.056644
0.5749999999999886,-0.010066,0.036298,-0.057019
0.5775000000000148,-0.013189,0.038832,-0.054635
0.5800000000000125,-0.012825,0.032637,-0.052591
0.5825000000000102,-0.00775,0.033808,-0.052977
0.585000000000008,-0.007991,0.032105,-0.051703
0.5875000000000057,-0.012848,0.031146,-0.051633
0.5900000000000034,-0.010045,0.029007,-0.047481
0.5925000000000011,-0.010927,0.02799,-0.049621
0.5949999999999989,-0.008161,0.030308,-0.044653
0.5974999999999966,-0.008459,0.023364,-0.044251
0.5999999999999943,-0.007813,0.022938,-0.043415
0.602499999999992,-0.007212,0.025407,-0.038406
0.6049999999999898,-0.009102,0.021967,-0.039206
0.6075000000000159,-0.006519,0.017799,-0.037561
0.6100000000000136,-0.005729,0.015828,-0.033988
0.6125000000000114,-0.004555,0.017583,-0.035265
0.6150000000000091,-0.004843,0.018836,-0.030829
0.6175000000000068,-0.007589,0.014774,-0.029144
0.6200000000000045,-0.002526,0.013278,-0.026548
0.6225000000000023,-0.005655,0.013862,-0.023498
0.625,-0.00415,0.013589,-0.02147
0.6274999999999977,-0.003543,0.012723,-0.018719
0.6299999999999955,-0.002342,0.008897,-0.016657
0.6324999999999932,-0.001691,0.004565,-0.01038
0.6349999999999909,0.000521,0.006809,-0.012101
0.6374999999999886,-0.001208,0.00531,-0.003994
0.6400000000000148,-7.3e-05,0.00368,-0.004065
0.6425000000000125,0.003948,0.004379,-0.002731
0.6450000000000102,0.005021,0.007363,0.002141
0.647500000000008,0.000221,0.000366,0.002357
0.6500000000000057,0.002336,0.001695,0.002385
0.6525000000000034,0.000153,-0.000484,0.005569
0.6550000000000011,0.003382,-0.004186,0.007748
0.6574999999999989,0.007398,-0.004193,0.00908
0.6599999999999966,0.00309,-0.001559,0.012244
0.6624999999999943,0.005073,-0.000837,0.015079
0.664999999999992,0.006574,-0.009018,0.017642
0.6674999999999898,0.00817,-0.009702,0.020547
0.6700000000000159,0.007214,-0.008492,0.021724
0.6725000000000136,0.007351,-0.010361,0.025766
0.6750000000000114,0.005364,-0.012071,0.026313
0.6775000000000091,0.010193,-0.01336,0.024391
0.6800000000000068,0.00943,-0.012918,0.028009
0.6825000000000045,0.010044,-0.014558,0.03312
0.6850000000000023,0.007761,-0.016075,0.032294
0.6875,0.007378,-0.020321,0.03713
0.6899999999999977,0.009421,-0.020432,0.033333
0.6924999999999955,0.01319,-0.023022,0.036824
0.6949999999999932,0.011613,-0.023833,0.041211
0.6974999999999909,0.008674,-0.024486,0.04466
0.6999999999999886,0.015569,-0.028013,0.042514
0.7025000000000148,0.016635,-0.028151,0.045169
0.7050000000000125,0.014105,-0.025173,0.046108
0.7075000000000102,0.019044,-0.029123,0.04895
0.710000000000008,0.012036,-0.027679,0.051474
0.7125000000000057,0.015107,-0.029042,0.052273
0.7150000000000034,0.015991,-0.026889,0.054771
0.7175000000000011,0.015049,-0.033864,0.056913
0.7199999999999989,0.016276,-0.029236,0.059212
0.7224999999999966,0.020332,-0.032267,0.061373
0.7249999999999943,0.01694,-0.033952,0.061495
0.727499999999992,0.017378,-0.039391,0.063928
0.7299999999999898,0.021488,-0.036013,0.064728
0.7325000000000159,0.021035,-0.040959,0.065283
0.7350000000000136,0.018848,-0.037366,0.072766
0.7375000000000114,0.019526,-0.03911,0.073955
0.7400000000000091,0.021859,-0.039627,0.071875
0.7425000000000068,0.022838,-0.035562,0.076104
0.7450000000000045,0.019603,-0.043444,0.07594
0.7475000000000023,0.023665,-0.048691,0.075871
0.75,0.024541,-0.047766,0.081741
0.7524999999999977,0.023568,-0.043283,0.084326
0.7549999999999955,0.025214,-0.048225,0.084058
0.7574999999999932,0.025157,-0.046152,0.083261
0.7599999999999909,0.022689,-0.04665,0.08505
0.7624999999999886,0.027085,-0.052856,0.088068
0.7650000000000148,0.025519,-0.05531,0.088423
0.7675000000000125,0.028179,-0.051591,0.092623
0.7700000000000102,0.025552,-0.055666,0.094091
0.772500000000008,0.027963,-0.050974,0.094318
0.7750000000000057,0.028648,-0.053813,0.095413
0.7775000000000034,0.028364,-0.053328,0.099755
0.7800000000000011,0.026564,-0.057307,0.098959
0.7824999999999989,0.030524,-0.059529,0.103993
0.7849999999999966,0.029995,-0.056395,0.1056
0.7874999999999943,0.03194,-0.061709,0.108016
0.789999999999992,0.028323,-0.064155,0.105082
0.7924999999999898,0.031239,-0.057709,0.108336
0.7950000000000159,0.031055,-0.059363,0.112612
0.7975000000000136,0.031567,-0.062272,0.109457
0.8000000000000114,0.029133,-0.061651,0.114671
0.8025000000000091,0.032406,-0.063509,0.115702
0.8050000000000068,0.036634,-0.065194,0.117002
0.8075000000000045,0.036114,-0.066899,0.119963
0.8100000000000023,0.032208,-0.06738,0.118928
0.8125,0.032128,-0.068289,0.123432
0.8149999999999977,0.03636,-0.063744,0.122292
0.8174999999999955,0.033163,-0.068161,0.121393
0.8199999999999932,0.035443,-0.065257,0.124908
0.8224999999999909,0.033087,-0.065808,0.127236
0.8249999999999886,0.035945,-0.066622,0.12606
0.8275000000000148,0.035468,-0.067776,0.128301
0.8300000000000125,0.035258,-0.068176,0.127517
0.8325000000000102,0.038249,-0.072154,0.129972
0.835000000000008,0.034637,-0.067511,0.127853
0.8375000000000057,0.034762,-0.065464,0.128671
0.8400000000000034,0.036492,-0.067961,0.134086
0.8425000000000011,0.038899,-0.072643,0.131235
0.8449999999999989,0.037032,-0.072247,0.131873
0.8474999999999966,0.033737,-0.07001,0.132123
0.8499999999999943,0.035638,-0.069217,0.133128
0.852499999999992,0.038431,-0.068881,0.131897
0.8549999999999898,0.037598,-0.069848,0.132696
0.8575000000000159,0.039063,-0.071838,0.135058
0.8600000000000136,0.036656,-0.068663,0.132357
0.8625000000000114,0.034546,-0.072952,0.138179
0.8650000000000091,0.034676,-0.068665,0.134275
0.8675000000000068,0.037093,-0.071718,0.134585
0.8700000000000045,0.037304,-0.072514,0.134569
0.8725000000000023,0.034874,-0.072637,0.13622
0.875,0.036616,-0.072038,0.137339
0.8774999999999977,0.034562,-0.072666,0.130209
0.8799999999999955,0.036984,-0.070466,0.135217
0.8824999999999932,0.04089,-0.072096,0.133573
0.8849999999999909,0.035026,-0.07191,0.136156
0.8874999999999886,0.03675,-0.071108,0.133399
0.8900000000000148,0.035509,-0.073554,0.132262
0.8925000000000125,0.038183,-0.072749,0.13319
0.8950000000000102,0.040168,-0.074331,0.130499
0.897500000000008,0.039325,-0.073305,0.13684
0.9000000000000057,0.036716,-0.074685,0.131091
0.9025000000000034,0.034062,-0.071162,0.128309
0.9050000000000012,0.036995,-0.072803,0.127983
0.9074999999999988,0.038338,-0.074115,0.1288
0.9099999999999966,0.037239,-0.073265,0.127486
0.9124999999999944,0.037055,-0.068383,0.129024
0.914999999999992,0.037884,-0.070269,0.129654
0.9174999999999898,0.037988,-0.071239,0.127164
0.920000000000016,0.034531,-0.069425,0.122651
0.9225000000000136,0.032864,-0.069271,0.126722
0.9250000000000114,0.035065,-0.069983,0.125533
0.9275000000000092,0.033163,-0.06949,0.121575
0.9300000000000068,0.034631,-0.069536,0.124023
0.9325000000000044,0.035823,-0.068209,0.121642
0.9350000000000024,0.035112,-0.068875,0.118505
0.9375,0.036588,-0.069748,0.118724
0.9399999999999976,0.035717,-0.067294,0.120335
0.9424999999999956,0.033037,-0.064516,0.115714
0.9449999999999932,0.036301,-0.066343,0.116166
0.9474999999999908,0.033035,-0.064474,0.114686
0.9499999999999886,0.033958,-0.062324,0.11423
0.9525000000000148,0.036133,-0.068134,0.118468
0.9550000000000124,0.034072,-0.066271,0.116617
0.9575000000000102,0.030061,-0.065044,0.109696
0.960000000000008,0.032025,-0.061516,0.110709
0.9625000000000056,0.031663,-0.061904,0.112078
0.9650000000000034,0.03043,-0.061862,0.111889
0.9675000000000012,0.033099,-0.0598,0.105896
0.9699999999999988,0.034589,-0.060874,0.104823
0.9724999999999966,0.029052,-0.062256,0.109037
0.9749999999999944,0.03203,-0.05964,0.103012
0.977499999999992,0.032388,-0.060253,0.103632
0.9799999999999898,0.032698,-0.055189,0.105717
0.982500000000016,0.033456,-0.059216,0.1072
0.9850000000000136,0.031895,-0.059395,0.104416
0.9875000000000114,0.031913,-0.058758,0.105771
0.9900000000000092,0.031345,-0.056921,0.104625
0.9925000000000068,0.029465,-0.059563,0.104522
0.9950000000000044,0.031025,-0.061323,0.102795
0.9975000000000024,0.031857,-0.058572,0.096737
1.0,0.029663,-0.06021,0.100125
1.0024999999999975,0.028528,-0.056395,0.102066
1.0049999999999957,0.02973,-0.058645,0.100353
1.0074999999999932,0.034045,-0.059067,0.101221
1.009999999999991,0.030658,-0.057578,0.09544
1.0124999999999886,0.032563,-0.05728,0.097803
1.0150000000000148,0.027511,-0.056708,0.096498
1.0175000000000125,0.029568,-0.056717,0.101952
1.0200000000000102,0.028848,-0.055426,0.099783
1.022500000000008,0.031721,-0.057364,0.098652
1.0250000000000057,0.032071,-0.056183,0.104997
1.0275000000000034,0.031108,-0.054978,0.099563
1.0300000000000011,0.029995,-0.054543,0.096797
1.0324999999999989,0.032955,-0.05476,0.097615
1.0349999999999966,0.028399,-0.054517,0.097357
1.0374999999999943,0.028125,-0.054766,0.099149
1.039999999999992,0.027672,-0.054537,0.098503
1.0424999999999898,0.033768,-0.056665,0.103427
1.045000000000016,0.028,-0.055808,0.100174
1.0475000000000136,0.030809,-0.057191,0.098733
1.0500000000000114,0.032724,-0.053816,0.101314
1.052500000000009,0.031435,-0.058527,0.103568
1.0550000000000068,0.02866,-0.05839,0.099794
1.0575000000000043,0.032008,-0.05732,0.103848
1.0600000000000025,0.031552,-0.058395,0.105046
1.0625,0.037224,-0.063007,0.102185
1.0649999999999975,0.032579,-0.060683,0.104748
1.0674999999999957,0.032163,-0.061366,0.102916
1.0699999999999932,0.034773,-0.061464,0.105802
1.072499999999991,0.035115,-0.059822,0.107681
1.0749999999999886,0.035395,-0.061922,0.110959
1.0775000000000148,0.033454,-0.066054,0.111114
1.0800000000000125,0.037383,-0.064456,0.112484
1.0825000000000102,0.040638,-0.061561,0.110593
1.085000000000008,0.035553,-0.066271,0.111776
1.0875000000000057,0.036017,-0.064839,0.109699
1.0900000000000034,0.037726,-0.068136,0.115848
1.0925000000000011,0.037236,-0.066175,0.115203
1.0949999999999989,0.039307,-0.067335,0.115343
1.0974999999999966,0.040925,-0.068021,0.115377
1.0999999999999943,0.039294,-0.070097,0.117616
1.102499999999992,0.039974,-0.068836,0.119786
1.1049999999999898,0.039636,-0.069533,0.117631
1.107500000000016,0.039398,-0.074038,0.122138
1.1100000000000136,0.042918,-0.073633,0.122363
1.1125000000000114,0.042049,-0.070296,0.125954
1.115000000000009,0.039531,-0.070317,0.125513
1.1175000000000068,0.045695,-0.075288,0.126795
1.1200000000000043,0.045174,-0.075641,0.130711
1.1225000000000025,0.046998,-0.078553,0.13051
1.125,0.049352,-0.077479,0.130894
1.1274999999999975,0.044601,-0.078411,0.134524
1.1299999999999957,0.046463,-0.077356,0.1366
1.1324999999999932,0.04892,-0.080375,0.137997
1.134999999999991,0.049055,-0.080146,0.137931
1.1374999999999886,0.047497,-0.081955,0.139879
1.1400000000000148,0.045601,-0.082286,0.142225
1.1425000000000125,0.047357,-0.084426,0.143513
1.1450000000000102,0.051007,-0.083421,0.144317
1.147500000000008,0.053147,-0.085416,0.144478
1.1500000000000057,0.051377,-0.086521,0.148507
1.1525000000000034,0.053377,-0.087832,0.152286
1.1550000000000011,0.054542,-0.089192,0.152013
1.1574999999999989,0.056145,-0.088117,0.154973
1.1599999999999966,0.053414,-0.09,0.159767
1.1624999999999943,0.050328,-0.087643,0.159463
1.164999999999992,0.059692,-0.093181,0.164068
1.1674999999999898,0.059205,-0.093748,0.162944
1.170000000000016,0.062575,-0.09387,0.164301
1.1725000000000136,0.060181,-0.094474,0.165133
1.1750000000000114,0.062817,-0.093177,0.170642
1.177500000000009,0.062557,-0.09394,0.170716
1.1800000000000068,0.062745,-0.094043,0.17155
1.1825000000000043,0.068557,-0.094968,0.175774
1.1850000000000025,0.068326,-0.095902,0.177852
1.1875,0.067358,-0.101687,0.178384
1.1899999999999975,0.067183,-0.093383,0.177421
1.1924999999999957,0.069382,-0.09845,0.184328
1.1949999999999932,0.069752,-0.098698,0.183365
1.197499999999991,0.072979,-0.099257,0.186522
1.1999999999999886,0.072543,-0.099508,0.189235
1.2025000000000148,0.07261,-0.095114,0.190807
1.2050000000000125,0.075739,-0.097546,0.192384
1.2075000000000102,0.074945,-0.099093,0.193992
1.210000000000008,0.078424,-0.096694,0.195677
1.2125000000000057,0.078694,-0.095966,0.197151
1.2150000000000034,0.075036,-0.094585,0.195933
1.2175000000000011,0.080561,-0.092167,0.204078
1.2199999999999989,0.079951,-0.090963,0.199458
1.2224999999999966,0.082376,-0.092141,0.198539
1.2249999999999943,0.081237,-0.089994,0.197329
1.227499999999992,0.080057,-0.087117,0.196438
1.2299999999999898,0.082938,-0.089487,0.199563
1.232500000000016,0.081215,-0.093782,0.202302
1.2350000000000136,0.079288,-0.090049,0.200596
1.2375000000000114,0.081471,-0.091001,0.201332
1.240000000000009,0.079727,-0.089344,0.203787
1.2425000000000068,0.081358,-0.089942,0.200946
1.2450000000000043,0.078853,-0.088434,0.206626
1.2475000000000025,0.081729,-0.089526,0.201391
1.25,0.081141,-0.089139,0.203255
1.2524999999999975,0.076402,-0.086549,0.200186
1.2549999999999957,0.075062,-0.091705,0.20302
1.2574999999999932,0.071713,-0.092588,0.196896
1.259999999999991,0.073189,-0.088842,0.201351
1.2624999999999886,0.074727,-0.093949,0.197875
1.2650000000000148,0.070049,-0.09291,0.194401
1.2675000000000125,0.064129,-0.093277,0.194208
1.2700000000000102,0.062885,-0.092949,0.192311
1.272500000000008,0.061687,-0.094925,0.19333
1.2750000000000057,0.059568,-0.090715,0.193932
1.2775000000000034,0.062319,-0.090346,0.188903
1.2800000000000011,0.060462,-0.087917,0.189371
1.2824999999999989,0.057244,-0.091107,0.183485
1.2849999999999966,0.058799,-0.092179,0.183534
1.2874999999999943,0.055667,-0.091852,0.184024
1.289999999999992,0.058758,-0.087884,0.180157
1.2924999999999898,0.055305,-0.08797,0.178757
1.295000000000016,0.054996,-0.089443,0.174651
1.2975000000000136,0.054816,-0.090098,0.169294
1.3000000000000114,0.056758,-0.083333,0.171825
1.302500000000009,0.054631,-0.081614,0.168865
1.3050000000000068,0.054774,-0.081827,0.163818
1.3075000000000043,0.049967,-0.079052,0.162695
1.3100000000000025,0.052545,-0.080734,0.158224
1.3125,0.053721,-0.077462,0.157028
1.3149999999999975,0.051882,-0.076115,0.155414
1.3174999999999957,0.04783,-0.077508,0.152021
1.3199999999999932,0.049866,-0.079176,0.148039
1.322499999999991,0.048961,-0.076526,0.148929
1.3249999999999886,0.047519,-0.075258,0.141429
1.3275000000000148,0.048333,-0.0753,0.140051
1.3300000000000125,0.042746,-0.068972,0.141025
1.3325000000000102,0.046425,-0.06721,0.140766
1.335000000000008,0.040781,-0.065757,0.134187
1.3375000000000057,0.041586,-0.064404,0.133355
1.3400000000000034,0.040764,-0.065704,0.130064
1.3425000000000011,0.041195,-0.066561,0.129072
1.3449999999999989,0.039183,-0.065139,0.126284
1.3474999999999966,0.041003,-0.062454,0.122271
1.3499999999999943,0.036859,-0.061132,0.121137
1.352499999999992,0.037926,-0.06059,0.118554
1.3549999999999898,0.038163,-0.060807,0.113529
1.357500000000016,0.037668,-0.056404,0.112919
1.3600000000000136,0.035726,-0.054979,0.10905
1.3625000000000114,0.033592,-0.056016,0.105535
1.365000000000009,0.030003,-0.050414,0.104528
1.3675000000000068,0.032624,-0.052188,0.102928
1.3700000000000043,0.032095,-0.051014,0.103357
1.3725000000000025,0.028645,-0.052692,0.099135
1.375,0.029249,-0.04999,0.097577
1.3774999999999975,0.026634,-0.052749,0.093427
1.3799999999999957,0.029793,-0.043182,0.092632
1.3824999999999932,0.029371,-0.045075,0.090542
1.384999999999991,0.027012,-0.043747,0.085693
1.3874999999999886,0.027417,-0.041075,0.086165
1.3900000000000148,0.029879,-0.038446,0.087599
1.3925000000000125,0.026376,-0.035019,0.084908
1.3950000000000102,0.021119,-0.039597,0.077725
1.397500000000008,0.023144,-0.041896,0.077146
1.4000000000000057,0.021923,-0.038075,0.074068
1.4025000000000034,0.024604,-0.037101,0.073365
1.4050000000000011,0.024629,-0.033151,0.072821
1.4074999999999989,0.022198,-0.035478,0.069573
1.4099999999999966,0.021104,-0.032265,0.06486
1.4124999999999943,0.023296,-0.031805,0.066962
1.414999999999992,0.021378,-0.032307,0.065953
1.4174999999999898,0.020481,-0.032848,0.06089
1.420000000000016,0.017933,-0.031281,0.059447
1.4225000000000136,0.023221,-0.033246,0.058476
1.4250000000000114,0.021023,-0.030279,0.055515
1.427500000000009,0.016134,-0.027508,0.055283
1.4300000000000068,0.020143,-0.030451,0.053705
1.4325000000000043,0.019115,-0.024801,0.052035
1.4350000000000025,0.016196,-0.026299,0.049433
1.4375,0.016857,-0.024508,0.048725
1.4399999999999975,0.019582,-0.027078,0.049136
1.4424999999999957,0.018213,-0.026257,0.049984
1.4449999999999932,0.018766,-0.023937,0.048245
1.447499999999991,0.015631,-0.025846,0.044616
1.4499999999999886,0.01655,-0.025305,0.046907
1.4525000000000148,0.01527,-0.026569,0.041754
1.4550000000000125,0.014497,-0.02946,0.042855
1.4575000000000102,0.015176,-0.020677,0.037523
1.460000000000008,0.017566,-0.023668,0.039967
1.4625000000000057,0.01461,-0.021011,0.038224
1.4650000000000034,0.017255,-0.022514,0.03897
1.4675000000000011,0.015464,-0.019722,0.035732
1.4699999999999989,0.017069,-0.021674,0.035589
1.4724999999999966,0.014383,-0.022137,0.035185
1.4749999999999943,0.014298,-0.018229,0.034752
1.477499999999992,0.014783,-0.020511,0.032719
1.4799999999999898,0.01327,-0.020592,0.033275
1.482500000000016,0.010207,-0.016397,0.028267
1.4850000000000136,0.011512,-0.013871,0.033758
1.4875000000000114,0.011939,-0.019175,0.028908
1.490000000000009,0.009976,-0.020635,0.029408
1.4925000000000068,0.009651,-0.013517,0.030776
1.4950000000000043,0.01073,-0.014716,0.024758
1.4975000000000025,0.008383,-0.013921,0.02648
1.5,0.012887,-0.010721,0.024278
1.5024999999999975,0.009533,-0.011668,0.026975
1.5049999999999957,0.009865,-0.012043,0.026747
1.5074999999999932,0.010674,-0.013423,0.026142
1.509999999999991,0.011294,-0.012818,0.023513
1.5124999999999886,0.007723,-0.016235,0.024902
1.5150000000000148,0.01027,-0.013039,0.020501
1.5175000000000125,0.009061,-0.011241,0.023723
1.5200000000000102,0.011078,-0.00975,0.021813
1.522500000000008,0.012209,-0.013737,0.020432
1.5250000000000057,0.010427,-0.010891,0.01946
1.5275000000000034,0.007633,-0.007929,0.018924
1.5300000000000011,0.005222,-0.009792,0.017313
1.5324999999999989,0.008971,-0.013719,0.020503
1.5349999999999966,0.008685,-0.008495,0.015251
1.5374999999999943,0.005282,-0.006574,0.020873
1.539999999999992,0.007325,-0.00677,0.021047
1.5424999999999898,0.004088,-0.006524,0.016829
1.545000000000016,0.004832,-0.006509,0.017629
1.5475000000000136,0.006884,-0.005467,0.012513
1.5500000000000114,0.004619,-0.007246,0.012835
1.552500000000009,0.005258,-0.007351,0.015555
1.5550000000000068,0.002948,-0.00561,0.016361
1.5575000000000043,0.004656,-0.007506,0.013382
1.5600000000000025,0.002814,-0.004983,0.014254
1.5625,0.007582,-0.003979,0.016002
1.5649999999999975,0.004794,-0.003685,0.013258
1.5674999999999957,0.003063,-0.000745,0.014434
1.5699999999999932,0.004386,-0.00359,0.015645
1.572499999999991,0.007384,-0.00232,0.015215
1.5749999999999886,0.005294,-0.002024,0.012117
1.5775000000000148,0.005247,-0.003479,0.015631
1.5800000000000125,0.007171,-0.004376,0.01149
1.5825000000000102,0.004905,-0.003724,0.011324
1.585000000000008,0.004838,-0.003992,0.010607
1.5875000000000057,0.005258,-0.006515,0.008934
1.5900000000000034,0.003438,-0.003195,0.010689
1.5925000000000011,0.003334,-0.001346,0.011732
1.5949999999999989,0.00429,0.001058,0.011088
1.5974999999999966,0.006978,-0.001557,0.012498
1.5999999999999943,0.005343,-0.003864,0.012606
1.602499999999992,0.003543,0.004231,0.012515
1.6049999999999898,-0.00115,-0.005421,0.011765
1.607500000000016,0.003541,-0.005673,0.008643
1.6100000000000136,0.003852,-0.002697,0.00968
1.6125000000000114,0.003629,0.000214,0.011177
1.615000000000009,0.00199,-0.001159,0.010655
1.6175000000000068,0.005598,-0.001305,0.007547
1.6200000000000043,0.004493,-0.002295,0.006712
1.6225000000000025,0.006304,0.001565,0.01082
1.625,0.004818,-0.002633,0.008657
1.6274999999999975,0.008147,-0.001845,0.008062
1.6299999999999957,0.00314,-0.001076,0.010481
1.6324999999999932,0.003844,-2.1e-05,0.013112
1.634999999999991,0.003978,-0.003205,0.007468
1.6374999999999886,0.006103,-0.005828,0.010186
1.6400000000000148,0.002586,-0.003901,0.009126
1.6425000000000125,0.003996,-0.003508,0.009566
1.6450000000000102,0.00662,-0.004078,0.00677
1.647500000000008,0.006277,-0.003937,0.008481
1.6500000000000057,0.002294,-0.002652,0.009587
1.6525000000000034,0.004409,-0.004765,0.011683
1.6550000000000011,0.004671,-0.003439,0.00909
1.6574999999999989,0.004148,-0.006846,0.008827
1.6599999999999966,0.004949,-0.00402,0.013008
1.6624999999999943,0.005289,-0.006552,0.009575
1.664999999999992,0.00622,-0.002149,0.008055
1.6674999999999898,0.005164,-0.003962,0.009529
1.670000000000016,0.003306,0.000104,0.009025
1.6725000000000136,0.004748,-0.004703,0.009995
1.6750000000000114,0.006381,-0.006561,0.012829
1.677500000000009,0.003933,-0.002104,0.01205
1.6800000000000068,0.006143,-0.00345,0.014081
1.6825000000000043,0.003272,-0.005031,0.012783
1.6850000000000025,0.005335,-0.005426,0.011656
1.6875,0.007711,-0.005689,0.013735
1.6899999999999975,0.003652,-0.007282,0.0133
1.6924999999999957,0.003148,-0.002752,0.012387
1.6949999999999932,0.004857,-0.001647,0.011703
1.697499999999991,0.003161,-0.003348,0.010306
1.6999999999999886,0.002342,-0.004242,0.013383
1.7025000000000148,0.005012,-0.002259,0.014088
1.7050000000000125,0.007126,-0.000797,0.012824
1.7075000000000102,0.003556,-0.002405,0.011719
1.710000000000008,0.003072,-0.003518,0.014722
1.7125000000000057,0.004853,-0.001453,0.011802
1.7150000000000034,0.005163,-0.003296,0.00998
1.7175000000000011,0.00364,-0.005929,0.00852
1.7199999999999989,0.004949,-0.001864,0.01091
1.7224999999999966,0.003876,-0.002961,0.013031
1.7249999999999943,0.001616,-0.005732,0.009286
1.727499999999992,-0.000124,-0.002937,0.010375
1.7299999999999898,0.001097,-0.001778,0.007498
1.732500000000016,0.006441,-0.008963,0.010286
1.7350000000000136,0.00451,-0.00535,0.010674
1.7375000000000114,0.005922,-0.006275,0.010634
1.740000000000009,0.005125,-0.006621,0.008953
1.7425000000000068,0.003044,-0.00408,0.008161
1.7450000000000043,0.003248,-0.006384,0.004444
1.7475000000000025,0.004002,-0.00509,0.005458
1.75,0.002473,-0.006285,0.007372
1.7524999999999975,0.003708,-0.009778,0.009155
1.7549999999999957,0.002793,-0.006932,0.008421
1.7574999999999932,0.004893,-0.003815,0.005596
1.759999999999991,0.004949,-0.00664,0.00652
1.7624999999999886,0.004295,-0.003406,0.009135
1.7650000000000148,0.002448,-0.005217,0.008961
1.7675000000000125,0.001744,-0.00263,0.01279
1.7700000000000102,0.004914,-0.002383,0.009344
1.772500000000008,0.004945,-0.001241,0.005081
1.7750000000000057,0.005459,-0.005305,0.009017
1.7775000000000034,0.000408,-0.003219,0.007185
1.7800000000000011,0.005195,0.000259,0.008788
1.7824999999999989,0.002768,0.001564,0.008232
1.7849999999999966,0.00179,-0.004508,0.006378
1.7874999999999943,0.004431,-0.001915,0.008862
1.789999999999992,0.00566,-0.001241,0.00881
1.7924999999999898,0.004616,-0.003487,0.008986
1.795000000000016,0.006358,-0.00156,0.00468
1.7975000000000136,0.001257,0.001032,0.008421
1.8000000000000114,0.002396,-0.001292,0.007327
1.802500000000009,0.002184,-0.002737,0.004905
1.8050000000000068,0.003827,-0.002389,0.005414
1.8075000000000043,0.002914,-0.002086,0.002503
1.8100000000000025,0.00155,0.000339,0.00593
1.8125,0.003529,-5.7e-05,0.003389
1.8149999999999975,0.001719,0.002297,0.003674
1.8174999999999957,0.001865,0.002212,0.005064
1.8199999999999927,0.004534,0.001308,0.006055
1.822499999999991,0.00199,-0.001407,0.00431
1.8249999999999889,0.003888,-0.00142,0.002792
1.8275000000000148,0.005288,-0.001492,0.004373
1.8300000000000125,-0.00059,0.003131,0.007283
1.8325000000000105,0.000741,0.002379,0.000759
1.835000000000008,0.001024,0.003309,0.004967
1.8375000000000057,0.001963,0.000923,0.002
1.8400000000000036,0.000539,0.00383,0.003717
1.8425000000000007,0.000767,0.005255,0.002526
1.8449999999999989,0.001571,0.002649,0.002673
1.8474999999999968,0.001305,0.005826,0.001977
1.8499999999999943,0.000904,0.006372,0.002009
1.852499999999992,-0.001991,0.005875,0.002516
1.8549999999999895,-0.002062,0.005967,-0.002044
1.857500000000016,-0.000802,0.004136,0.001747
1.8600000000000136,0.001178,0.009031,0.001929
1.8625000000000116,0.001917,0.005849,-0.001557
1.865000000000009,0.001679,0.005814,-0.001076
1.8675000000000068,-0.001042,0.008024,-0.002567
1.8700000000000043,-0.002278,0.007608,0.00167
1.8725000000000025,0.000582,0.006212,-0.003023
1.875,0.000972,0.008974,-0.002316
1.8774999999999975,-0.00457,0.009754,-0.00232
1.8799999999999957,0.000843,0.007147,-0.00453
1.8824999999999927,-0.000116,0.010114,-0.006531
1.884999999999991,-0.002888,0.01279,-0.00754
1.8874999999999889,0.001051,0.006396,-0.007083
1.8900000000000148,-0.003798,0.010046,-0.006485
1.8925000000000125,-0.004379,0.013606,-0.008047
1.8950000000000105,-0.003076,0.009593,-0.005355
1.897500000000008,-0.001338,0.010008,-0.004485
1.9000000000000057,-0.002849,0.007945,-0.007492
1.9025000000000036,0.000889,0.009479,-0.008738
1.9050000000000007,-0.002033,0.008733,-0.007236
1.9074999999999989,-0.00235,0.010375,-0.012237
1.9099999999999968,-0.004658,0.014188,-0.008231
1.9124999999999943,-7e-06,0.010816,-0.008368
1.914999999999992,-0.001061,0.010506,-0.009966
1.9174999999999895,-0.005029,0.009007,-0.012901
1.920000000000016,-0.00093,0.007572,-0.010368
1.9225000000000136,0.002467,0.010218,-0.012873
1.9250000000000116,-0.002271,0.007024,-0.011297
1.927500000000009,-0.002989,0.009152,-0.011586
1.9300000000000068,-0.000913,0.012807,-0.012903
1.9325000000000043,-0.003299,0.011229,-0.011268
1.9350000000000025,-0.004481,0.006724,-0.009374
1.9375,-0.000484,0.007286,-0.010855
1.9399999999999975,-0.000416,0.007271,-0.010844
1.9424999999999957,-0.002004,0.004859,-0.010212
1.9449999999999927,-0.001144,0.008122,-0.011538
1.947499999999991,-0.001243,0.005227,-0.010596
1.9499999999999889,-0.000338,0.007288,-0.01101
1.9525000000000148,0.000613,0.003094,-0.010236
1.9550000000000125,0.000179,0.003308,-0.010096
1.9575000000000105,-0.000578,0.004686,-0.010073
1.960000000000008,-0.002694,0.004181,-0.012153
1.9625000000000057,0.0015,0.002147,-0.006898
1.9650000000000036,-0.00098,0.003467,-0.007015
1.9675000000000007,-0.001241,0.005809,-0.003882
1.9699999999999989,-0.003883,0.006691,-0.00736
1.9724999999999968,-0.001435,0.004613,-0.006713
1.9749999999999943,-0.001326,0.002366,-0.005294
1.977499999999992,-0.00293,-0.000101,-0.004831
1.9799999999999895,-0.002018,0.00148,-0.00546
1.982500000000016,-0.003503,0.001457,-0.003691
1.9850000000000136,0.002081,0.005741,-0.002757
1.9875000000000116,0.000925,0.004584,-0.003368
1.990000000000009,0.002166,0.001492,-0.000282
1.9925000000000068,-0.000241,0.001175,-0.003974
1.9950000000000043,-0.000291,-0.000863,-0.003828
1.9975000000000025,0.00352,0.000321,-0.004019
2.0,0.000582,0.002304,-8e-05
2.0024999999999977,0.002358,-0.001957,-0.00013
2.0049999999999955,0.00561,0.000138,0.000241
2.007499999999993,0.003012,-0.001134,0.00274
2.009999999999991,0.004055,-0.004663,0.002108
2.0124999999999886,0.000689,-0.003615,8.6e-05
2.015000000000015,0.00337,-0.003295,0.000244
2.0175000000000125,0.002512,0.002027,0.004521
2.0200000000000102,0.007645,-0.002624,0.007529
2.022500000000008,0.005754,-0.001308,0.005866
2.0250000000000057,0.003365,-0.005065,0.00586
2.0275000000000034,0.003607,-0.003935,0.005568
2.030000000000001,0.003616,-0.001875,0.00639
2.032499999999999,0.005489,-0.003955,0.008789
2.0349999999999966,0.006566,-0.001569,0.008211
2.0374999999999943,0.006302,-0.002784,0.008345
2.039999999999992,0.00781,-0.004947,0.009138
2.0424999999999898,0.002693,-0.004217,0.011308
