time,Gyr_X,Gyr_Y,Gyr_Z
0.0,0.000367,-0.001629,0.002747
0.0024999999999977,0.001106,-0.001951,0.006362
0.0049999999999954,0.001993,0.002039,0.003225
0.0074999999999931,0.003038,-0.001639,0.001118
0.0099999999999909,-0.001545,-0.00115,0.004477
0.0124999999999886,0.002196,0.000199,0.004581
0.0149999999999863,0.005191,-0.001973,0.004228
0.017499999999984,0.001366,0.001436,0.002681
0.0199999999999818,-0.001119,0.003602,0.002136
0.0224999999999795,0.004084,0.0007,0.002269
0.0249999999999772,0.001118,0.002437,0.003841
0.0275000000000034,0.002489,-0.003274,0.004675
0.0300000000000011,0.003888,-7.3e-05,0.005186
0.0324999999999988,-0.00174,0.000525,0.004482
0.0349999999999965,0.002375,0.00424,0.00191
0.0374999999999943,0.002796,0.000564,0.004479
0.039999999999992,0.002385,-0.000994,0.00306
0.0424999999999897,0.001129,0.000183,0.001398
0.0449999999999874,0.000896,0.000279,0.004556
0.0474999999999852,0.004023,-0.003688,0.002957
0.0499999999999829,-0.001995,-0.001821,0.007351
0.0524999999999806,0.002196,0.000323,0.003449
0.0549999999999784,0.004718,-0.002658,0.002684
0.0574999999999761,0.006496,-0.001343,0.002072
0.0600000000000022,0.000285,0.003887,0.002901
0.0625,0.003124,-0.000116,0.005927
0.0649999999999977,0.002813,-0.000747,0.006307
0.0674999999999954,0.002906,-0.000729,0.004945
0.0699999999999931,0.005729,-0.002179,0.002975
0.0724999999999909,0.003568,-0.00421,0.005084
0.0749999999999886,0.001448,-0.005005,0.0033
0.0774999999999863,0.00181,-0.001585,0.004599
0.079999999999984,0.005624,-0.003034,0.004692
0.0824999999999818,0.001711,0.001205,0.004985
0.0849999999999795,0.002634,0.001266,0.003255
0.0874999999999772,0.000788,-0.000864,0.004623
0.0900000000000034,0.00359,0.002397,0.003786
0.0925000000000011,0.002433,0.001339,0.005581
0.0949999999999988,0.002471,0.000621,0.00155
0.0974999999999965,0.002631,0.002024,0.002966
0.0999999999999943,0.000689,-0.000864,0.005335
0.102499999999992,0.002564,-0.000142,0.001701
0.1049999999999897,0.002982,-7.7e-05,0.0026
0.1074999999999875,0.001752,0.001387,0.010189
0.1099999999999852,0.004072,9.8e-05,0.002884
0.1124999999999829,0.001892,9.5e-05,0.00314
0.1149999999999806,0.000738,0.001431,0.001099
0.1174999999999784,0.000646,0.000159,0.004304
0.1199999999999761,0.004,-0.000289,0.003942
0.1225000000000022,0.002047,-0.001375,0.003285
0.125,7.4e-05,0.002208,0.00137
0.1274999999999977,0.003058,-2.7e-05,0.00269
0.1299999999999954,0.002498,-7.9e-05,0.006684
0.1324999999999931,-0.000511,-0.001398,0.004788
0.1349999999999909,-0.000963,-0.002152,5.4e-05
0.1374999999999886,0.000692,0.000197,0.002449
0.1399999999999863,0.005179,-0.001444,0.004265
0.142499999999984,0.002485,-0.000603,0.00288
0.1449999999999818,0.004194,0.00366,0.002497
0.1474999999999795,0.002166,-0.002137,0.003866
0.1499999999999772,-0.000131,0.003611,0.004128
0.1525000000000034,0.000257,-0.00284,0.002531
0.1550000000000011,0.004495,0.0015,0.003061
0.1574999999999988,0.002474,2.9e-05,0.005388
0.1599999999999966,0.000931,0.000776,0.003354
0.1624999999999943,0.001975,-0.001113,0.003356
0.164999999999992,0.001932,-0.002588,0.00376
0.1674999999999897,0.00441,0.000589,0.004614
0.1699999999999875,0.003787,0.000501,-0.000589
0.1724999999999852,0.000975,-0.000958,0.002054
0.1749999999999829,-0.002362,-0.001602,0.004334
0.1774999999999806,0.00343,0.001156,0.001938
0.1799999999999784,0.00261,-0.001086,0.003121
0.1824999999999761,-0.002556,-0.002518,0.008773
0.1850000000000022,0.001513,0.001661,0.001515
0.1875,0.002936,-0.002094,0.003519
0.1899999999999977,0.002242,-0.003521,0.003601
0.1924999999999954,0.001273,0.000726,0.001723
0.1949999999999931,0.000889,-0.001143,0.001217
0.1974999999999909,1e-06,-0.001615,8.6e-05
0.1999999999999886,0.002577,0.002063,0.00607
0.2024999999999863,0.004271,0.000183,0.002605
0.204999999999984,0.001165,-4.3e-05,0.005595
0.2074999999999818,0.003073,-0.001419,0.002586
0.2099999999999795,0.001874,-0.001723,0.005291
0.2124999999999772,0.002027,0.001933,0.003821
0.2150000000000034,0.000636,0.005645,-0.000504
0.2175000000000011,0.004529,0.001922,0.002178
0.2199999999999988,0.003415,-0.000788,0.001966
0.2224999999999966,0.001723,-0.003895,0.003325
0.2249999999999943,0.001759,0.001215,0.003346
0.227499999999992,0.004116,0.000999,0.001887
0.2299999999999897,0.005145,-0.000797,0.001312
0.2324999999999875,0.003166,0.00054,0.003516
0.2349999999999852,0.003103,3.4e-05,0.003269
0.2374999999999829,0.002489,-0.005652,0.004638
0.2399999999999806,2.8e-05,-0.000435,0.005072
0.2424999999999784,0.003088,0.000922,0.004817
0.2449999999999761,0.00437,0.00047,0.003377
0.2475000000000022,0.003449,-0.000647,0.003677
0.25,0.002546,0.002281,0.003434
0.2524999999999977,0.002181,-0.003175,0.007454
0.2549999999999954,0.002501,-0.000107,0.002418
0.2574999999999932,0.002771,0.000466,0.000858
0.2599999999999909,0.001743,0.00386,0.008
0.2624999999999886,0.003787,-0.001897,0.001534
0.2649999999999863,-0.000171,-4.5e-05,0.000843
0.2674999999999841,0.00254,0.004055,0.002641
0.2699999999999818,0.004023,-0.001919,0.005873
0.2724999999999795,0.001764,0.000749,0.005097
0.2749999999999772,3.9e-05,0.001364,0.001212
0.2775000000000034,0.003622,0.000917,0.002704
0.2800000000000011,0.000568,0.001431,0.001312
0.2824999999999988,0.002613,-0.000151,0.00652
0.2849999999999966,0.005194,0.000931,0.004902
0.2874999999999943,0.002009,-0.001466,0.003358
0.289999999999992,-0.001749,8.6e-05,0.003646
0.2924999999999897,0.001813,0.002306,0.003935
0.2949999999999875,0.000802,0.00178,0.003298
0.2974999999999852,-0.00136,0.00122,0.004449
0.2999999999999829,-0.001051,-0.001937,0.004222
0.3024999999999807,0.002309,-0.001507,0.004538
0.3049999999999784,0.004216,-0.003533,0.003342
0.3074999999999761,-0.001165,-0.000462,0.004417
0.3100000000000023,-0.002369,0.001592,0.003723
0.3125,0.002482,0.000825,0.006499
0.3149999999999977,0.002126,0.002138,0.003123
0.3174999999999954,0.001552,0.004142,0.002273
0.3199999999999932,0.003057,-0.001271,0.004258
0.3224999999999909,0.001457,-0.003782,-0.000845
0.3249999999999886,0.004134,-0.000183,0.005133
0.3274999999999863,-0.002037,0.000543,0.00269
0.3299999999999841,0.003248,0.000223,0.004206
0.3324999999999818,0.00202,0.001337,0.004203
0.3349999999999795,0.001595,0.000443,0.003383
0.3374999999999772,0.001431,0.000968,0.003479
0.3400000000000034,-0.000197,0.002474,0.003844
0.3425000000000011,0.002291,0.005975,0.004377
0.3449999999999988,0.001851,-0.003426,5e-06
0.3474999999999966,-0.001526,0.000546,0.001841
0.3499999999999943,-0.002488,0.003453,0.002956
0.352499999999992,-0.000174,0.002057,0.001972
0.3549999999999897,0.00562,-0.004536,0.003579
0.3574999999999875,0.004194,0.000573,0.00278
0.3599999999999852,0.006869,-0.001585,0.002561
0.3624999999999829,0.001831,0.00213,0.00182
0.3649999999999807,0.004303,0.002479,0.004832
0.3674999999999784,0.00184,-0.002016,0.001632
0.3699999999999761,0.002377,0.000726,0.001936
0.3725000000000023,0.001962,0.001294,0.00559
0.375,0.002079,0.000424,0.001893
0.3774999999999977,0.004638,-0.000346,0.005888
0.3799999999999954,0.002486,-0.001658,0.005067
0.3824999999999932,0.001424,0.003854,0.002677
0.3849999999999909,0.001491,-0.002132,0.00137
0.3874999999999886,0.003871,0.001415,-0.000791
0.3899999999999863,0.002425,-0.000265,0.00562
0.3924999999999841,0.002205,-0.000194,0.003501
0.3949999999999818,0.003839,-0.002271,0.005542
0.3974999999999795,0.004133,-0.002418,0.001045
0.3999999999999772,0.00106,-0.001428,0.005103
0.4025000000000034,-0.000417,3.8e-05,0.005571
0.4050000000000011,0.003891,-0.002716,0.004775
0.4074999999999988,0.003251,0.001971,0.004318
0.4099999999999966,0.001689,0.000415,0.004198
0.4124999999999943,0.002155,0.00116,0.007208
0.414999999999992,0.000576,0.002915,0.004319
0.4174999999999897,-0.00152,0.000877,0.002577
0.4199999999999875,0.004385,-0.00158,0.001166
0.4224999999999852,0.003041,0.00096,0.005361
0.4249999999999829,-0.00255,-0.003092,0.003224
0.4274999999999807,0.001558,0.001908,0.002331
0.4299999999999784,0.000589,0.0015,0.004869
0.4324999999999761,0.003689,-0.000294,0.002996
0.4350000000000023,0.004403,0.000519,0.006179
0.4375,0.0031,-0.000583,0.005703
0.4399999999999977,0.000992,-0.000855,0.005838
0.4424999999999954,0.002906,-0.001654,0.004419
0.4449999999999932,0.001419,0.002039,0.004705
0.4474999999999909,0.001542,0.001634,0.001114
0.4499999999999886,-0.00243,-0.001991,0.004116
0.4524999999999863,0.001382,-0.002879,0.002103
0.4549999999999841,-0.000191,-0.001355,0.000221
0.4574999999999818,0.001959,-0.000377,0.003532
0.4599999999999795,0.001527,-0.001031,0.003295
0.4624999999999772,0.004179,-0.002344,0.000285
0.4650000000000034,0.001977,-0.001316,0.003568
0.4675000000000011,0.003938,0.000889,0.003652
0.4699999999999988,-0.000836,0.000636,0.002999
0.4724999999999966,0.001828,-0.000279,0.000881
0.4749999999999943,0.002309,0.000826,0.002482
0.477499999999992,-0.00076,0.00011,0.00278
0.4799999999999897,0.005788,-0.001441,0.003191
0.4824999999999875,-0.0018,0.001339,0.006702
0.4849999999999852,0.001032,-0.003207,0.004279
0.4874999999999829,0.002129,-8.6e-05,0.005718
0.4899999999999807,0.002735,-0.00404,0.004678
0.4924999999999784,-0.001189,-0.002357,0.002683
0.4949999999999761,0.003754,-0.00266,0.000624
0.4975000000000023,0.000911,-0.001165,0.003523
0.5,-0.000149,0.003321,0.003707
0.5024999999999977,0.003824,0.002827,0.003772
0.5049999999999955,0.006012,0.00203,0.00192
0.5074999999999932,0.001743,-0.004269,0.002173
0.5099999999999909,0.004876,0.000776,0.002127
0.5124999999999886,0.002996,0.001422,-0.000885
0.5149999999999864,0.001436,-0.002941,-0.000449
0.5174999999999841,-0.000195,-0.00063,0.000858
0.5199999999999818,-0.000457,0.0034,0.001451
0.5224999999999795,0.000145,0.000482,0.006097
0.5249999999999773,-0.003563,0.001634,0.002044
0.5275000000000034,0.001513,0.004261,0.002936
0.5300000000000011,0.000609,0.00313,0.007484
0.5324999999999989,-0.005345,0.001501,0.004638
0.5349999999999966,-0.009203,-0.000224,0.010031
0.5374999999999943,-0.008446,-0.002229,0.012814
0.539999999999992,-0.010957,-0.001851,0.008451
0.5424999999999898,-0.011337,0.002173,0.009596
0.5449999999999875,-0.013268,0.003766,0.007891
0.5474999999999852,-0.013883,0.00129,0.011954
0.549999999999983,-0.013976,-0.000398,0.008076
0.5524999999999807,-0.014074,0.000291,0.008176
0.5549999999999784,-0.016992,0.003939,0.009625
0.5574999999999761,-0.019754,0.001355,0.008751
0.5600000000000023,-0.018619,0.002297,0.011525
0.5625,-0.017168,0.000889,0.010867
0.5649999999999977,-0.020567,0.006445,0.011692
0.5674999999999955,-0.020592,0.003303,0.010213
0.5699999999999932,-0.019899,0.002018,0.011938
0.5724999999999909,-0.02199,0.002085,0.012723
0.5749999999999886,-0.018699,0.00078,0.015873
0.5774999999999864,-0.018601,-1.8e-05,0.014467
0.5799999999999841,-0.022291,0.001238,0.016489
0.5824999999999818,-0.019942,0.000478,0.015632
0.5849999999999795,-0.020763,-0.00027,0.014788
0.5874999999999773,-0.022432,0.001525,0.015128
0.5900000000000034,-0.020841,-0.001556,0.016762
0.5925000000000011,-0.020008,0.001805,0.017867
0.5949999999999989,-0.022472,-0.000685,0.016505
0.5974999999999966,-0.022221,0.000788,0.019351
0.5999999999999943,-0.021918,0.002228,0.019664
0.602499999999992,-0.02013,0.001026,0.018457
0.6049999999999898,-0.023735,-0.00269,0.020582
0.6074999999999875,-0.026864,-0.000158,0.024065
0.6099999999999852,-0.025709,-0.00117,0.021055
0.612499999999983,-0.029558,-0.004575,0.021077
0.6149999999999807,-0.029755,-0.000335,0.024398
0.6174999999999784,-0.028941,0.001059,0.024416
0.6199999999999761,-0.029805,0.002525,0.02683
0.6225000000000023,-0.031514,-0.001013,0.028097
0.625,-0.034232,0.002997,0.02683
0.6274999999999977,-0.04417,-0.001213,0.029727
0.6299999999999955,-0.042355,0.001911,0.032365
0.6324999999999932,-0.050198,-0.000229,0.03212
0.6349999999999909,-0.048405,0.00313,0.037218
0.6374999999999886,-0.055797,-0.00148,0.039534
0.6399999999999864,-0.055966,0.002455,0.041348
0.6424999999999841,-0.062534,-0.00262,0.040262
0.6449999999999818,-0.061996,0.000245,0.045498
0.6474999999999795,-0.068098,-0.00134,0.048577
0.6499999999999773,-0.073218,0.006261,0.048553
0.6525000000000034,-0.074193,0.001795,0.054415
0.6550000000000011,-0.078975,0.002087,0.054983
0.6574999999999989,-0.082603,0.002561,0.056057
0.6599999999999966,-0.086866,0.003285,0.059741
0.6624999999999943,-0.090772,0.003812,0.064745
0.664999999999992,-0.095868,0.002468,0.065952
0.6674999999999898,-0.097527,0.000942,0.070327
0.6699999999999875,-0.104375,0.004288,0.072523
0.6724999999999852,-0.109206,0.005592,0.073919
0.674999999999983,-0.11261,0.003798,0.074693
0.6774999999999807,-0.117722,0.002638,0.080641
0.6799999999999784,-0.121748,0.006913,0.082954
0.6824999999999761,-0.12742,0.005526,0.086901
0.6850000000000023,-0.133707,0.00386,0.088236
0.6875,-0.139077,0.002263,0.093438
0.6899999999999977,-0.141886,0.005472,0.092661
0.6924999999999955,-0.146653,0.009244,0.096812
0.6949999999999932,-0.152238,0.002579,0.102437
0.6974999999999909,-0.158268,0.003291,0.10097
0.6999999999999886,-0.170587,0.00689,0.10358
0.7024999999999864,-0.16811,0.001771,0.101698
0.7049999999999841,-0.171117,0.004416,0.107095
0.7074999999999818,-0.178409,0.000349,0.111953
0.7099999999999795,-0.188145,0.00032,0.119319
0.7124999999999773,-0.19051,0.002382,0.120906
0.7150000000000034,-0.193046,0.004765,0.121104
0.7175000000000011,-0.198361,-0.000526,0.125282
0.7199999999999989,-0.200135,0.004905,0.127421
0.7224999999999966,-0.206259,0.004429,0.130893
0.7249999999999943,-0.20995,0.005939,0.136235
0.727499999999992,-0.211707,0.004042,0.139294
0.7299999999999898,-0.218782,0.005525,0.141457
0.7324999999999875,-0.220938,0.004394,0.150327
0.7349999999999852,-0.228383,0.002194,0.14761
0.737499999999983,-0.233416,0.003257,0.154015
0.7399999999999807,-0.234669,0.006218,0.159941
0.7424999999999784,-0.241275,0.004292,0.161768
0.7449999999999761,-0.249517,0.004003,0.159857
0.7475000000000023,-0.252709,0.008691,0.166696
0.75,-0.25899,0.006304,0.167029
0.7524999999999977,-0.265524,0.00735,0.17341
0.7549999999999955,-0.267974,0.007095,0.172118
0.7574999999999932,-0.273982,0.004163,0.177637
0.7599999999999909,-0.278836,0.002813,0.1822
0.7624999999999886,-0.288062,0.005966,0.183807
0.7649999999999864,-0.293325,0.002006,0.188331
0.7674999999999841,-0.295548,0.001145,0.19391
0.7699999999999818,-0.303535,0.00189,0.197914
0.7724999999999795,-0.307153,-0.000443,0.202372
0.7749999999999773,-0.313129,0.00119,0.208519
0.7775000000000034,-0.31857,0.002698,0.210053
0.7800000000000011,-0.322464,0.001564,0.212619
0.7824999999999989,-0.330329,0.004413,0.221301
0.7849999999999966,-0.336733,0.002149,0.22435
0.7874999999999943,-0.341439,0.002403,0.22622
0.789999999999992,-0.350836,0.007395,0.232657
0.7924999999999898,-0.353144,0.004781,0.236291
0.7949999999999875,-0.356445,0.002184,0.239656
0.7974999999999852,-0.367343,0.002659,0.243907
0.799999999999983,-0.374208,0.005113,0.251134
0.8024999999999807,-0.379181,0.005544,0.252279
0.8049999999999784,-0.388143,0.005244,0.255755
0.8074999999999761,-0.396556,0.006486,0.258546
0.8100000000000023,-0.406726,0.007097,0.265478
0.8125,-0.410347,0.006662,0.269239
0.8149999999999977,-0.41897,0.007444,0.276958
0.8174999999999955,-0.424303,0.00824,0.277772
0.8199999999999932,-0.43205,0.012339,0.284962
0.8224999999999909,-0.438024,0.011531,0.285084
0.8249999999999886,-0.446735,0.011439,0.293841
0.8274999999999864,-0.453129,0.00645,0.29831
0.8299999999999841,-0.459193,0.004687,0.303539
0.8324999999999818,-0.463668,0.003233,0.309006
0.8349999999999795,-0.471611,0.001868,0.315682
0.8374999999999773,-0.473629,0.004356,0.324281
0.8400000000000034,-0.479676,0.000737,0.328026
0.8425000000000011,-0.482044,-0.000831,0.333539
0.8449999999999989,-0.483823,-0.002101,0.336721
0.8474999999999966,-0.490122,-0.003329,0.338294
0.8499999999999943,-0.48938,-0.004765,0.345156
0.852499999999992,-0.488339,-0.003688,0.344615
0.8549999999999898,-0.493154,-0.011075,0.349451
0.8574999999999875,-0.492065,-0.010075,0.353856
0.8599999999999852,-0.490485,-0.011945,0.353441
0.862499999999983,-0.493315,-0.008938,0.354902
0.8649999999999807,-0.494836,-0.01564,0.36028
0.8674999999999784,-0.490533,-0.016838,0.365374
0.8699999999999761,-0.486994,-0.015815,0.370229
0.8725000000000023,-0.490907,-0.015315,0.364164
0.875,-0.487442,-0.017621,0.365045
0.8774999999999977,-0.491488,-0.01711,0.363978
0.8799999999999955,-0.489314,-0.014734,0.361582
0.8824999999999932,-0.485866,-0.01684,0.361101
0.8849999999999909,-0.487913,-0.014442,0.361318
0.8874999999999886,-0.48185,-0.015436,0.357821
0.8899999999999864,-0.481612,-0.014375,0.353903
0.8924999999999841,-0.475209,-0.014406,0.354592
0.8949999999999818,-0.472373,-0.008774,0.352756
0.8974999999999795,-0.46505,-0.00888,0.348281
0.8999999999999773,-0.463775,-0.003873,0.347365
0.9025000000000034,-0.455885,-0.000313,0.339597
0.9050000000000012,-0.448114,0.002623,0.334213
0.9074999999999988,-0.439619,0.00613,0.3296
0.9099999999999966,-0.430961,0.008846,0.328303
0.9124999999999944,-0.422917,0.012598,0.319716
0.914999999999992,-0.41249,0.016696,0.317986
0.9174999999999898,-0.40345,0.019256,0.311474
0.9199999999999876,-0.387442,0.024676,0.305799
0.9224999999999852,-0.376308,0.022613,0.295488
0.924999999999983,-0.363697,0.026798,0.288854
0.9274999999999808,-0.344841,0.030611,0.281457
0.9299999999999784,-0.329219,0.036212,0.275888
0.932499999999976,-0.315107,0.033391,0.265569
0.9350000000000024,-0.296596,0.037163,0.258382
0.9375,-0.280234,0.038957,0.250047
0.9399999999999976,-0.261152,0.040097,0.23685
0.9424999999999956,-0.244288,0.041211,0.228343
0.9449999999999932,-0.223638,0.0455,0.216781
0.9474999999999908,-0.203483,0.046218,0.206073
0.9499999999999886,-0.18537,0.050274,0.198015
0.9524999999999864,-0.157954,0.053216,0.186463
0.954999999999984,-0.138082,0.059124,0.175855
0.9574999999999818,-0.114998,0.061979,0.162999
0.9599999999999796,-0.096995,0.06369,0.14905
0.9624999999999772,-0.077409,0.071681,0.139853
0.9650000000000034,-0.053875,0.073957,0.125685
0.9675000000000012,-0.035411,0.073005,0.116005
0.9699999999999988,-0.018223,0.0757,0.103324
0.9724999999999966,0.000492,0.07518,0.09312
0.9749999999999944,0.018386,0.073535,0.084189
0.977499999999992,0.030787,0.071002,0.065952
0.9799999999999898,0.042563,0.063419,0.057336
0.9824999999999876,0.051614,0.059629,0.043907
0.9849999999999852,0.058926,0.053994,0.031326
0.987499999999983,0.066348,0.041529,0.022297
0.9899999999999808,0.071771,0.031637,0.010648
0.9924999999999784,0.077503,0.027318,0.000181
0.994999999999976,0.080424,0.021178,-0.00699
0.9975000000000024,0.079516,0.010515,-0.019239
1.0,0.080291,0.00462,-0.031842
1.0024999999999975,0.085615,-0.004528,-0.04098
1.0049999999999957,0.082923,-0.014317,-0.048271
1.0074999999999932,0.084066,-0.014515,-0.056869
1.009999999999991,0.084887,-0.027217,-0.067617
1.0124999999999886,0.084514,-0.028385,-0.07567
1.0149999999999864,0.08376,-0.028449,-0.081994
1.017499999999984,0.088119,-0.032517,-0.091259
1.0199999999999818,0.08707,-0.03324,-0.098673
1.0224999999999795,0.08486,-0.034191,-0.101911
1.0249999999999773,0.083005,-0.036712,-0.107263
1.0275000000000034,0.085769,-0.033718,-0.111976
1.0300000000000011,0.083526,-0.035942,-0.116876
1.0324999999999989,0.08098,-0.038908,-0.124109
1.0349999999999966,0.080626,-0.040205,-0.125818
1.0374999999999943,0.081488,-0.040199,-0.130539
1.039999999999992,0.079573,-0.037576,-0.130734
1.0424999999999898,0.079498,-0.037925,-0.129248
1.0449999999999875,0.083549,-0.042082,-0.12735
1.0474999999999852,0.080832,-0.046195,-0.127433
1.049999999999983,0.081883,-0.047429,-0.122391
1.052499999999981,0.076542,-0.04662,-0.120643
1.0549999999999784,0.082039,-0.046586,-0.115484
1.057499999999976,0.082336,-0.044891,-0.110073
1.0600000000000025,0.083592,-0.048238,-0.107563
1.0625,0.082775,-0.044627,-0.100243
1.0649999999999975,0.081693,-0.045578,-0.093302
1.0674999999999957,0.084116,-0.044261,-0.084969
1.0699999999999932,0.084808,-0.045498,-0.076552
1.072499999999991,0.08556,-0.038603,-0.070447
1.0749999999999886,0.082053,-0.040226,-0.061698
1.0774999999999864,0.082233,-0.039564,-0.055279
1.079999999999984,0.078555,-0.042665,-0.048082
1.0824999999999818,0.076339,-0.034721,-0.044033
1.0849999999999795,0.07518,-0.034164,-0.036559
1.0874999999999773,0.073025,-0.034131,-0.028239
1.0900000000000034,0.063781,-0.034861,-0.025411
1.0925000000000011,0.060051,-0.03407,-0.018367
1.0949999999999989,0.055829,-0.032361,-0.014624
1.0974999999999966,0.050852,-0.028674,-0.010899
1.0999999999999943,0.043457,-0.024757,-0.005598
1.102499999999992,0.036118,-0.02636,-0.000773
1.1049999999999898,0.028174,-0.026533,-0.001572
1.1074999999999875,0.024759,-0.022791,0.007988
1.1099999999999852,0.015847,-0.023428,0.010636
1.112499999999983,0.009688,-0.020349,0.013215
1.114999999999981,0.001121,-0.019363,0.01755
1.1174999999999784,-0.001173,-0.017464,0.021445
1.119999999999976,-0.012636,-0.012334,0.023115
1.1225000000000025,-0.01561,-0.008176,0.027328
1.125,-0.021516,-0.003892,0.031095
1.1274999999999975,-0.021598,-0.006512,0.037507
1.1299999999999957,-0.032355,-0.0007,0.042588
1.1324999999999932,-0.03407,0.002385,0.048379
1.134999999999991,-0.039874,-0.000222,0.052401
1.1374999999999886,-0.047778,0.006435,0.062758
1.1399999999999864,-0.048566,0.004464,0.063971
1.142499999999984,-0.051841,0.010405,0.071885
1.1449999999999818,-0.057803,0.013072,0.075308
1.1474999999999795,-0.061311,0.013196,0.084316
1.1499999999999773,-0.063287,0.013309,0.088035
1.1525000000000034,-0.070673,0.013883,0.09582
1.1550000000000011,-0.073916,0.012102,0.103847
1.1574999999999989,-0.079125,0.020555,0.109433
1.1599999999999966,-0.079854,0.018375,0.110552
1.1624999999999943,-0.083041,0.016793,0.116705
1.164999999999992,-0.086987,0.018702,0.12626
1.1674999999999898,-0.089008,0.016177,0.131523
1.1699999999999875,-0.091375,0.013419,0.137644
1.1724999999999852,-0.093241,0.015528,0.140523
1.174999999999983,-0.092687,0.016377,0.149367
1.177499999999981,-0.09338,0.018304,0.156137
1.1799999999999784,-0.093149,0.018468,0.156952
1.182499999999976,-0.092237,0.020529,0.163462
1.1850000000000025,-0.09063,0.020943,0.170367
1.1875,-0.088961,0.024768,0.175121
1.1899999999999975,-0.090043,0.025012,0.175745
1.1924999999999957,-0.084628,0.027821,0.179241
1.1949999999999932,-0.080855,0.028936,0.188931
1.197499999999991,-0.077477,0.03214,0.191732
1.1999999999999886,-0.073841,0.034612,0.195897
1.2024999999999864,-0.071967,0.037789,0.20239
1.204999999999984,-0.066121,0.040901,0.205412
1.2074999999999818,-0.06144,0.043593,0.210344
1.2099999999999795,-0.050484,0.04336,0.212962
1.2124999999999773,-0.051403,0.050259,0.218868
1.2150000000000034,-0.042555,0.051627,0.219616
1.2175000000000011,-0.036798,0.053198,0.224143
1.2199999999999989,-0.028422,0.055776,0.227419
1.2224999999999966,-0.022176,0.059945,0.229668
1.2249999999999943,-0.015751,0.061084,0.235423
1.227499999999992,-0.00997,0.060213,0.237601
1.2299999999999898,-0.003928,0.062468,0.237723
1.2324999999999875,0.000878,0.061891,0.244644
1.2349999999999852,0.009123,0.061599,0.25055
1.237499999999983,0.016,0.058126,0.254505
1.239999999999981,0.019271,0.058631,0.255849
1.2424999999999784,0.026586,0.057562,0.261163
1.244999999999976,0.029806,0.051463,0.266577
1.2475000000000025,0.031676,0.052825,0.271458
1.25,0.031952,0.046173,0.276995
1.2524999999999975,0.039484,0.040636,0.279468
1.2549999999999957,0.045716,0.042974,0.286984
1.2574999999999932,0.04688,0.036053,0.292835
1.259999999999991,0.051045,0.034218,0.2943
1.2624999999999886,0.052311,0.034984,0.302637
1.2649999999999864,0.05497,0.028384,0.308075
1.267499999999984,0.062288,0.023531,0.314271
1.2699999999999818,0.065158,0.019873,0.321596
1.2724999999999795,0.066686,0.015711,0.325444
1.2749999999999773,0.067774,0.01444,0.334542
1.2775000000000034,0.070833,0.010865,0.341823
1.2800000000000011,0.071291,0.009114,0.347096
1.2824999999999989,0.075569,0.009496,0.356326
1.2849999999999966,0.077946,0.008028,0.363577
1.2874999999999943,0.080455,0.004942,0.372572
1.289999999999992,0.085679,0.001011,0.377905
1.2924999999999898,0.085638,-0.002484,0.383884
1.2949999999999875,0.088394,-0.003447,0.393263
1.2974999999999852,0.090954,-0.002323,0.397875
1.299999999999983,0.09016,-0.003511,0.407363
1.302499999999981,0.092963,-0.004512,0.416277
1.3049999999999784,0.088138,-0.006583,0.421291
1.307499999999976,0.095844,-0.006893,0.430394
1.3100000000000025,0.09682,-0.005922,0.437706
1.3125,0.095236,-0.004379,0.441804
1.3149999999999975,0.093473,-0.004947,0.449062
1.3174999999999957,0.099839,-0.005415,0.455374
1.3199999999999932,0.099211,-0.002679,0.459281
1.322499999999991,0.099019,-0.000548,0.46676
1.3249999999999886,0.098667,-0.000829,0.477319
1.3274999999999864,0.101135,0.005437,0.485461
1.329999999999984,0.098088,0.007663,0.487768
1.3324999999999818,0.096487,0.006133,0.491744
1.3349999999999795,0.096739,0.014535,0.502927
1.3374999999999773,0.096572,0.024597,0.507442
1.3400000000000034,0.09288,0.02541,0.51242
1.3425000000000011,0.097122,0.031126,0.518096
1.3449999999999989,0.09841,0.035097,0.523809
1.3474999999999966,0.09487,0.037805,0.529193
1.3499999999999943,0.09171,0.041381,0.535619
1.352499999999992,0.088631,0.045569,0.538758
1.3549999999999898,0.087964,0.053679,0.543351
1.3574999999999875,0.089137,0.053494,0.552056
1.3599999999999852,0.088917,0.054965,0.556456
1.362499999999983,0.086624,0.055695,0.559071
1.364999999999981,0.084557,0.063812,0.564618
1.3674999999999784,0.08631,0.067595,0.573199
1.369999999999976,0.083888,0.062866,0.574862
1.3725000000000025,0.084654,0.068755,0.581335
1.375,0.087889,0.07096,0.588819
1.3774999999999975,0.087356,0.071501,0.591751
1.3799999999999957,0.086047,0.07703,0.595839
1.3824999999999932,0.090127,0.078561,0.601441
1.384999999999991,0.095264,0.074353,0.603613
1.3874999999999886,0.09514,0.075234,0.608326
1.3899999999999864,0.096599,0.077131,0.60939
1.392499999999984,0.09641,0.070053,0.610132
1.3949999999999818,0.101601,0.072653,0.615267
1.3974999999999795,0.10291,0.071733,0.616702
1.3999999999999773,0.105687,0.068545,0.621373
1.4025000000000034,0.110944,0.067648,0.625204
1.4050000000000011,0.110688,0.062854,0.623813
1.4074999999999989,0.114272,0.060483,0.631244
1.4099999999999966,0.117991,0.0549,0.631716
1.4124999999999943,0.121347,0.053889,0.63596
1.414999999999992,0.123719,0.051645,0.632551
1.4174999999999898,0.125831,0.041542,0.641549
1.4199999999999875,0.129167,0.037725,0.646015
1.4224999999999852,0.132079,0.033962,0.651623
1.424999999999983,0.135198,0.027926,0.652506
1.427499999999981,0.138324,0.024795,0.659404
1.4299999999999784,0.137699,0.020676,0.667315
1.432499999999976,0.141204,0.014538,0.668825
1.4350000000000025,0.146156,0.008246,0.675104
1.4375,0.143168,0.003055,0.678916
1.4399999999999975,0.146534,0.001166,0.685192
1.4424999999999957,0.148719,-0.002953,0.690404
1.4449999999999932,0.15057,-0.005089,0.693593
1.447499999999991,0.155065,-0.004263,0.700194
1.4499999999999886,0.153474,-0.002183,0.70864
1.4524999999999864,0.157496,-0.003353,0.716383
1.454999999999984,0.155162,-0.003126,0.714631
1.4574999999999818,0.159919,-0.000533,0.716674
1.4599999999999795,0.158491,0.000609,0.720265
1.4624999999999773,0.159384,0.00362,0.727483
1.4650000000000034,0.163987,-0.002487,0.733981
1.4675000000000011,0.158399,0.004264,0.735863
1.4699999999999989,0.162966,0.006368,0.740471
1.4724999999999966,0.161492,0.007553,0.74537
1.4749999999999943,0.161827,0.008302,0.749869
1.477499999999992,0.16054,0.010747,0.755779
1.4799999999999898,0.160436,0.014513,0.760656
1.4824999999999875,0.162327,0.015347,0.765871
1.4849999999999852,0.166305,0.014163,0.768525
1.487499999999983,0.165101,0.014011,0.778084
1.489999999999981,0.162772,0.015674,0.787539
1.4924999999999784,0.169732,0.012683,0.787657
1.494999999999976,0.165332,0.014358,0.798235
1.4975000000000025,0.171547,0.013448,0.798413
1.5,0.171787,0.009168,0.807164
1.5024999999999975,0.173438,0.014693,0.81255
1.5049999999999957,0.172647,0.013108,0.81897
1.5074999999999932,0.174224,0.011992,0.822727
1.509999999999991,0.173437,0.012591,0.826036
1.5124999999999886,0.172719,0.011729,0.834678
1.5149999999999864,0.168797,0.013033,0.836546
1.517499999999984,0.173742,0.014306,0.841113
1.5199999999999818,0.17504,0.009968,0.847636
1.5224999999999795,0.169059,0.009588,0.852301
1.5249999999999773,0.17155,0.007831,0.854727
1.5275000000000034,0.170998,0.00637,0.859165
1.5300000000000011,0.169393,0.009171,0.864352
1.5324999999999989,0.170597,0.003696,0.869581
1.5349999999999966,0.172789,0.005095,0.871618
1.5374999999999943,0.170036,0.006001,0.878262
1.539999999999992,0.170384,0.005246,0.876143
1.5424999999999898,0.172871,0.001513,0.883103
1.5449999999999875,0.176308,0.005946,0.884112
1.5474999999999852,0.177855,0.010114,0.889842
1.549999999999983,0.182154,0.008347,0.895573
1.552499999999981,0.183737,0.011314,0.900185
1.5549999999999784,0.184568,0.011673,0.905059
1.557499999999976,0.184049,0.01405,0.907662
1.5600000000000025,0.190283,0.012601,0.910986
1.5625,0.186131,0.011878,0.914867
1.5649999999999975,0.188426,0.012252,0.920616
1.5674999999999957,0.190982,0.00994,0.920098
1.5699999999999932,0.192634,0.011452,0.922523
1.572499999999991,0.192646,0.010703,0.926336
1.5749999999999886,0.19284,0.011172,0.932355
1.5774999999999864,0.195896,0.011712,0.932119
1.579999999999984,0.191104,0.011186,0.940163
1.5824999999999818,0.193162,0.012629,0.939801
1.5849999999999795,0.193965,0.00676,0.938341
1.5874999999999773,0.19521,0.008146,0.944024
1.5900000000000034,0.192276,0.007538,0.945317
1.5925000000000011,0.193184,0.010691,0.946313
1.5949999999999989,0.192339,0.010534,0.949192
1.5974999999999966,0.189003,0.012086,0.94743
1.5999999999999943,0.19079,0.010248,0.954551
1.602499999999992,0.191689,0.009037,0.949357
1.6049999999999898,0.184759,0.011712,0.953368
1.6074999999999875,0.187764,0.00971,0.957812
1.6099999999999852,0.188144,0.013911,0.957599
1.612499999999983,0.186376,0.00877,0.955891
1.614999999999981,0.185334,0.009634,0.959199
1.6174999999999784,0.1849,0.009134,0.955936
1.619999999999976,0.187106,0.009397,0.957569
1.6225000000000025,0.186437,0.013434,0.961945
1.625,0.188261,0.007322,0.965149
1.6274999999999975,0.19154,0.010768,0.961488
1.6299999999999957,0.188821,0.011512,0.966177
1.6324999999999932,0.192402,0.010238,0.962316
1.634999999999991,0.195582,0.009497,0.966864
1.6374999999999886,0.196347,0.011722,0.969204
1.6399999999999864,0.197939,0.01271,0.971728
1.642499999999984,0.201391,0.012837,0.969585
1.6449999999999818,0.200491,0.011774,0.974133
1.6474999999999795,0.204916,0.009149,0.975576
1.6499999999999773,0.205063,0.014522,0.976334
1.6525000000000034,0.208172,0.009825,0.978221
1.6550000000000011,0.206263,0.014795,0.976385
1.6574999999999989,0.205203,0.014103,0.980916
1.6599999999999966,0.207163,0.01479,0.979749
1.6624999999999943,0.208863,0.010935,0.983807
1.664999999999992,0.208994,0.012112,0.983481
1.6674999999999898,0.207313,0.016197,0.985176
1.6699999999999875,0.205051,0.014944,0.985898
1.6724999999999852,0.204881,0.013406,0.984503
1.674999999999983,0.20446,0.015273,0.986091
1.677499999999981,0.202269,0.016699,0.985302
1.6799999999999784,0.20218,0.018766,0.983628
1.682499999999976,0.200715,0.016915,0.984334
1.6850000000000025,0.202241,0.018943,0.983817
1.6875,0.19699,0.018149,0.9827
1.6899999999999975,0.196949,0.017343,0.979092
1.6924999999999957,0.198058,0.017943,0.979395
1.6949999999999932,0.195388,0.022081,0.980094
1.697499999999991,0.198164,0.017785,0.978592
1.6999999999999886,0.198371,0.017149,0.973203
1.7024999999999864,0.197775,0.019682,0.978435
1.704999999999984,0.20402,0.019059,0.977304
1.7074999999999818,0.20517,0.019578,0.968231
1.7099999999999795,0.203352,0.020316,0.968819
1.7124999999999773,0.20527,0.020827,0.96703
1.7150000000000034,0.209225,0.022463,0.965142
1.7175000000000011,0.21318,0.019521,0.962103
1.7199999999999989,0.219592,0.01942,0.952137
1.7224999999999966,0.22183,0.019226,0.948274
1.7249999999999943,0.225202,0.015656,0.935551
1.727499999999992,0.234637,0.015467,0.929105
1.7299999999999898,0.233459,0.017538,0.918479
1.7324999999999875,0.248555,0.015787,0.904761
1.7349999999999852,0.258511,0.018411,0.893248
1.737499999999983,0.264628,0.014112,0.875271
1.739999999999981,0.27755,0.01836,0.861146
1.7424999999999784,0.291132,0.018276,0.839927
1.744999999999976,0.302773,0.022993,0.830094
1.7475000000000025,0.319456,0.024537,0.81087
1.75,0.331751,0.022434,0.799114
1.7524999999999975,0.343991,0.02799,0.787885
1.7549999999999957,0.356493,0.024848,0.773736
1.7574999999999932,0.368378,0.01931,0.757481
1.759999999999991,0.374504,0.008557,0.745722
1.7624999999999886,0.377586,0.007071,0.73675
1.7649999999999864,0.381535,-0.007677,0.728745
1.767499999999984,0.386138,-0.021535,0.717626
1.7699999999999818,0.388805,-0.032206,0.706019
1.7724999999999795,0.386375,-0.042544,0.69846
1.7749999999999773,0.383025,-0.055966,0.693064
1.7775000000000034,0.383345,-0.068979,0.685191
1.7800000000000011,0.376048,-0.081909,0.677667
1.7824999999999989,0.374439,-0.093827,0.667701
1.7849999999999966,0.373448,-0.101204,0.662334
1.7874999999999943,0.369725,-0.110646,0.655877
1.789999999999992,0.362945,-0.114085,0.644711
1.7924999999999898,0.361609,-0.124499,0.642321
1.7949999999999875,0.35547,-0.121358,0.634644
1.7974999999999852,0.354707,-0.127116,0.624729
1.799999999999983,0.349455,-0.126536,0.617196
1.802499999999981,0.34396,-0.124687,0.611851
1.8049999999999784,0.346334,-0.123332,0.607104
1.807499999999976,0.341929,-0.119831,0.603097
1.8100000000000025,0.335377,-0.108911,0.594283
1.8125,0.329649,-0.109127,0.587737
1.8149999999999975,0.325177,-0.105548,0.580099
1.8174999999999957,0.322875,-0.09699,0.574676
1.8199999999999927,0.317039,-0.098996,0.568456
1.822499999999991,0.312964,-0.095111,0.565166
1.8249999999999889,0.310243,-0.090386,0.562035
1.8274999999999864,0.302283,-0.086449,0.55223
1.829999999999984,0.299107,-0.081979,0.551025
1.8324999999999816,0.297219,-0.07744,0.544524
1.8349999999999795,0.291551,-0.072342,0.540026
1.8374999999999773,0.28633,-0.078346,0.537457
1.8400000000000036,0.281832,-0.071315,0.530889
1.8425000000000007,0.275908,-0.070634,0.526337
1.8449999999999989,0.268572,-0.064757,0.521147
1.8474999999999968,0.266477,-0.073776,0.513921
1.8499999999999943,0.259136,-0.070398,0.513343
1.852499999999992,0.252045,-0.067575,0.503293
1.8549999999999895,0.245785,-0.077233,0.498778
1.8574999999999875,0.243299,-0.069495,0.493033
1.8599999999999848,0.235414,-0.071651,0.481821
1.862499999999983,0.229307,-0.069767,0.474554
1.864999999999981,0.216153,-0.071077,0.468843
1.8674999999999784,0.207365,-0.064623,0.454151
1.869999999999976,0.199691,-0.064135,0.443596
1.8725000000000025,0.18891,-0.063349,0.435933
1.875,0.176986,-0.065945,0.419406
1.8774999999999975,0.164764,-0.060424,0.411005
1.8799999999999957,0.150194,-0.062245,0.39539
1.8824999999999927,0.137869,-0.060959,0.382283
1.884999999999991,0.125497,-0.059788,0.374582
1.8874999999999889,0.109849,-0.057936,0.358392
1.8899999999999864,0.089885,-0.062336,0.348225
1.892499999999984,0.075165,-0.060648,0.335326
1.8949999999999816,0.064964,-0.063892,0.323877
1.8974999999999795,0.050276,-0.059383,0.30983
1.8999999999999773,0.037939,-0.058077,0.298684
1.9025000000000036,0.026514,-0.057252,0.289499
1.9050000000000007,0.017891,-0.04956,0.278796
1.9074999999999989,0.011157,-0.051466,0.26524
1.9099999999999968,0.005769,-0.043033,0.255425
1.9124999999999943,0.004584,-0.036551,0.242863
1.914999999999992,-0.002269,-0.033526,0.234055
1.9174999999999895,-0.003359,-0.029872,0.222177
1.9199999999999875,-0.004405,-0.023201,0.215047
1.9224999999999848,-0.0011,-0.018521,0.205194
1.924999999999983,-0.001371,-0.01442,0.191485
1.927499999999981,-0.003941,-0.012925,0.179035
1.9299999999999784,-0.004202,-0.007844,0.175969
1.932499999999976,-0.002193,-0.001948,0.163145
1.9350000000000025,-0.003026,-0.004628,0.153611
1.9375,-0.00395,0.000294,0.146999
1.9399999999999975,-0.003408,0.002705,0.136871
1.9424999999999957,-0.004414,0.001504,0.127573
1.9449999999999927,-0.003994,0.005997,0.122147
1.947499999999991,-0.000618,0.005912,0.113251
1.9499999999999889,0.003713,0.003489,0.110035
1.9524999999999864,-0.001429,0.005773,0.099953
1.954999999999984,-0.000963,0.007693,0.090937
1.9574999999999816,0.003082,0.003522,0.082517
1.9599999999999795,0.002704,0.007027,0.078144
1.9624999999999773,0.005317,0.001832,0.073101
1.9650000000000036,0.007296,0.002114,0.066639
1.9675000000000007,0.008722,0.002176,0.059224
1.9699999999999989,0.008164,-0.002016,0.053496
1.9724999999999968,0.007924,-0.00239,0.054187
1.9749999999999943,0.009082,-0.006227,0.04671
1.977499999999992,0.00684,-0.007156,0.043683
1.9799999999999895,0.006241,-0.010784,0.042138
1.9824999999999875,0.005937,-0.006403,0.040478
1.9849999999999848,0.005049,-0.013898,0.038446
1.987499999999983,0.006113,-0.014977,0.036483
1.989999999999981,0.007319,-0.015634,0.03638
1.9924999999999784,0.002404,-0.012338,0.028337
1.994999999999976,0.005691,-0.011693,0.031164
1.9975000000000025,0.00278,-0.01263,0.029389
2.0,0.003851,-0.011627,0.033893
2.0024999999999977,0.004103,-0.009269,0.035497
2.0049999999999955,0.000305,-0.008945,0.034703
2.007499999999993,-0.000916,-0.008775,0.036513
2.009999999999991,-0.001365,-0.008918,0.037371
2.0124999999999886,-0.004774,-0.005876,0.041799
2.0149999999999864,-0.001478,-0.005358,0.042663
2.017499999999984,-0.003658,-0.005272,0.048175
2.019999999999982,8.6e-05,0.001014,0.0499
2.0224999999999795,-0.003657,-0.000994,0.053098
2.0249999999999773,0.00098,0.00261,0.057586
2.0275000000000034,-0.001329,0.000908,0.061741
2.030000000000001,-0.000395,0.003637,0.067209
2.032499999999999,0.001241,0.004409,0.068583
2.0349999999999966,0.000469,0.006721,0.075979
2.0374999999999943,0.000922,0.009222,0.07961
2.039999999999992,-0.000297,0.008432,0.086517
2.0424999999999898,-0.00053,0.005925,0.088922
2.0449999999999875,0.007514,0.004116,0.096691
2.047499999999985,0.004383,0.006237,0.104586
2.049999999999983,0.002445,0.007936,0.112808
2.0524999999999807,0.005632,0.00881,0.117297
2.0549999999999784,0.008484,0.010275,0.127579
2.057499999999976,0.010578,0.00811,0.137229
2.0600000000000023,0.011789,0.009795,0.142962
2.0625,0.011029,0.007012,0.153288
2.0649999999999977,0.012375,0.010025,0.158935
2.0674999999999955,0.014094,0.008092,0.167967
2.069999999999993,0.01402,0.010697,0.178727
2.072499999999991,0.019243,0.004948,0.190749
2.0749999999999886,0.02243,0.006505,0.197101
2.0774999999999864,0.019614,0.010302,0.210195
2.079999999999984,0.021564,0.009496,0.218809
2.082499999999982,0.018092,0.011269,0.229891
2.0849999999999795,0.018715,0.009757,0.241039
2.0874999999999773,0.024072,0.006973,0.251942
2.0900000000000034,0.026853,0.011546,0.26147
2.092500000000001,0.026999,0.013211,0.275642
2.094999999999999,0.029335,0.01838,0.287216
2.0974999999999966,0.027142,0.01665,0.30045
2.0999999999999943,0.031937,0.018892,0.311712
2.102499999999992,0.030323,0.023275,0.325135
2.1049999999999898,0.029534,0.023991,0.338453
2.1074999999999875,0.033326,0.027672,0.348059
2.109999999999985,0.03207,0.029,0.360983
2.112499999999983,0.033183,0.031172,0.373264
2.1149999999999807,0.037923,0.030301,0.385322
2.1174999999999784,0.036251,0.031666,0.402129
2.119999999999976,0.03682,0.039079,0.412736
2.1225000000000023,0.034443,0.035945,0.426886
2.125,0.042479,0.039848,0.439759
2.1274999999999977,0.038741,0.041371,0.455559
2.1299999999999955,0.036059,0.041255,0.467364
2.132499999999993,0.041991,0.04455,0.478488
2.134999999999991,0.045142,0.044554,0.494482
2.1374999999999886,0.042612,0.045767,0.50944
2.1399999999999864,0.042284,0.044995,0.5204
2.142499999999984,0.044908,0.047838,0.533373
2.144999999999982,0.044046,0.050855,0.542768
2.1474999999999795,0.046583,0.052493,0.559453
2.1499999999999773,0.050405,0.053514,0.568347
2.1525000000000034,0.04546,0.055689,0.584666
2.155000000000001,0.051565,0.056729,0.595938
2.157499999999999,0.051361,0.060263,0.608455
2.1599999999999966,0.048804,0.059662,0.618168
2.1624999999999943,0.050922,0.060951,0.627809
2.164999999999992,0.05139,0.065172,0.639545
2.1674999999999898,0.051736,0.065168,0.650876
2.1699999999999875,0.056853,0.066168,0.663666
2.172499999999985,0.057485,0.070643,0.674903
2.174999999999983,0.060549,0.069851,0.679668
2.1774999999999807,0.060841,0.072106,0.690138
2.1799999999999784,0.058676,0.073183,0.698859
2.182499999999976,0.06159,0.080442,0.707283
2.1850000000000023,0.065532,0.077703,0.713969
2.1875,0.069163,0.077511,0.728417
2.1899999999999977,0.067424,0.081185,0.73745
2.1924999999999955,0.073235,0.076973,0.747021
2.194999999999993,0.072508,0.078713,0.754707
2.197499999999991,0.073064,0.078159,0.756439
2.1999999999999886,0.074536,0.079199,0.769471
2.2024999999999864,0.077351,0.081021,0.779588
2.204999999999984,0.072143,0.079609,0.790354
2.207499999999982,0.07147,0.082692,0.79786
2.2099999999999795,0.069385,0.07925,0.807215
2.2124999999999773,0.069802,0.078059,0.816324
2.2150000000000034,0.069983,0.071237,0.824053
2.217500000000001,0.070717,0.075958,0.831322
2.219999999999999,0.072633,0.08628,0.838787
2.2224999999999966,0.075602,0.083544,0.845208
2.2249999999999943,0.079484,0.089201,0.853298
2.227499999999992,0.075499,0.089102,0.852844
2.2299999999999898,0.076748,0.091203,0.862739
2.2324999999999875,0.07694,0.092071,0.866576
2.234999999999985,0.081164,0.094276,0.873814
2.237499999999983,0.078643,0.094739,0.876012
2.2399999999999807,0.081792,0.093579,0.881305
2.2424999999999784,0.080144,0.096535,0.884418
2.244999999999976,0.084285,0.097899,0.889214
2.2475000000000023,0.084806,0.100837,0.891642
2.25,0.08556,0.095072,0.893527
2.2524999999999977,0.08532,0.095599,0.898051
2.2549999999999955,0.086578,0.10032,0.898674
2.257499999999993,0.08767,0.102332,0.899979
2.259999999999991,0.091714,0.09548,0.900894
2.2624999999999886,0.087682,0.098076,0.90181
2.2649999999999864,0.091404,0.10036,0.906051
2.267499999999984,0.091022,0.097952,0.906918
2.269999999999982,0.090555,0.099554,0.907428
2.2724999999999795,0.09125,0.099597,0.90637
2.2749999999999773,0.093659,0.097401,0.908078
2.2775000000000034,0.094735,0.097226,0.90768
2.280000000000001,0.092795,0.098199,0.909213
2.282499999999999,0.095835,0.096159,0.906605
2.2849999999999966,0.095057,0.093953,0.909389
2.2874999999999943,0.088498,0.099348,0.909861
2.289999999999992,0.093465,0.093917,0.908233
2.2924999999999898,0.092747,0.09585,0.907978
2.2949999999999875,0.093081,0.096356,0.908243
2.297499999999985,0.095161,0.097231,0.90492
2.299999999999983,0.097723,0.096918,0.903092
2.3024999999999807,0.09326,0.101773,0.899586
2.3049999999999784,0.09053,0.09711,0.899128
2.307499999999976,0.091612,0.10008,0.898511
2.3100000000000023,0.090843,0.098508,0.897039
2.3125,0.090271,0.096253,0.897854
2.3149999999999977,0.087979,0.095762,0.890466
2.3174999999999955,0.085775,0.097659,0.892019
2.319999999999993,0.079349,0.093751,0.889894
2.322499999999991,0.080318,0.095085,0.885508
2.3249999999999886,0.086308,0.091984,0.882056
2.3274999999999864,0.080424,0.095936,0.883983
2.329999999999984,0.084754,0.095493,0.880092
2.332499999999982,0.083225,0.096423,0.872586
2.3349999999999795,0.081333,0.095742,0.867508
2.3374999999999773,0.082961,0.09442,0.869323
2.3400000000000034,0.084963,0.091415,0.861057
2.342500000000001,0.082312,0.095461,0.856898
2.344999999999999,0.082191,0.093495,0.856324
2.3474999999999966,0.085317,0.091793,0.851905
2.3499999999999943,0.086472,0.088687,0.849111
2.352499999999992,0.084078,0.090686,0.842319
2.3549999999999898,0.080241,0.088433,0.840572
2.3574999999999875,0.084614,0.087599,0.836934
2.359999999999985,0.080366,0.086153,0.833514
2.362499999999983,0.081315,0.083684,0.834299
2.3649999999999807,0.081801,0.080455,0.827035
2.3674999999999784,0.08044,0.079844,0.823344
2.369999999999976,0.081172,0.082857,0.823357
2.3725000000000023,0.076658,0.08151,0.817534
2.375,0.078234,0.077024,0.815089
2.3774999999999977,0.076108,0.079928,0.812694
2.3799999999999955,0.0767,0.078658,0.80696
2.382499999999993,0.082908,0.08169,0.805471
2.384999999999991,0.080813,0.080299,0.799104
2.3874999999999886,0.081126,0.078905,0.798779
2.3899999999999864,0.080632,0.078657,0.791279
2.392499999999984,0.081339,0.077669,0.791069
2.394999999999982,0.080545,0.077413,0.783943
2.3974999999999795,0.081555,0.077511,0.780066
2.3999999999999773,0.079402,0.078242,0.778183
2.4025000000000034,0.078943,0.078029,0.774337
2.405000000000001,0.077384,0.080279,0.768677
2.407499999999999,0.081567,0.078409,0.763422
2.4099999999999966,0.077843,0.078621,0.756735
2.4124999999999943,0.079977,0.07732,0.74983
2.414999999999992,0.082285,0.076205,0.750657
2.4174999999999898,0.07652,0.076457,0.742369
2.4199999999999875,0.071477,0.078038,0.740414
2.422499999999985,0.074325,0.07472,0.735959
2.424999999999983,0.072404,0.071801,0.731739
2.4274999999999807,0.073414,0.075185,0.728966
2.4299999999999784,0.07013,0.076424,0.722107
2.432499999999976,0.072473,0.072073,0.719608
2.4350000000000023,0.07154,0.071549,0.71399
2.4375,0.072847,0.0755,0.709187
2.4399999999999977,0.070163,0.072856,0.706457
2.4424999999999955,0.068248,0.072979,0.700345
2.444999999999993,0.070145,0.074395,0.697029
2.447499999999991,0.06951,0.072139,0.692672
2.4499999999999886,0.070121,0.077159,0.692319
2.4524999999999864,0.074359,0.07629,0.688572
2.454999999999984,0.070477,0.072452,0.680039
2.457499999999982,0.065915,0.072642,0.67343
2.4599999999999795,0.064955,0.071409,0.669817
2.4624999999999773,0.065964,0.072748,0.662755
2.4650000000000034,0.066727,0.071929,0.660118
2.467500000000001,0.066044,0.070407,0.654367
2.469999999999999,0.06121,0.066235,0.649645
2.4724999999999966,0.065286,0.067864,0.648446
2.4749999999999943,0.065384,0.068139,0.640356
2.477499999999992,0.060453,0.069118,0.636039
2.4799999999999898,0.062405,0.066601,0.632008
2.4824999999999875,0.060435,0.067132,0.624918
2.484999999999985,0.059802,0.065465,0.618891
2.487499999999983,0.063082,0.062878,0.613896
2.4899999999999807,0.057773,0.059599,0.61351
2.4924999999999784,0.057655,0.064252,0.603864
2.494999999999976,0.05844,0.064803,0.600293
2.4975000000000023,0.062063,0.057144,0.59737
2.5,0.060951,0.060014,0.592012
2.5024999999999977,0.062605,0.061109,0.58379
2.5049999999999955,0.064408,0.058905,0.582134
2.507499999999993,0.060662,0.058132,0.580142
2.509999999999991,0.061967,0.05515,0.581088
2.5124999999999886,0.06149,0.055584,0.575212
2.5149999999999864,0.062122,0.057336,0.573563
2.517499999999984,0.062073,0.058753,0.567666
2.519999999999982,0.062449,0.056504,0.564716
2.5224999999999795,0.063672,0.053047,0.566628
2.5249999999999773,0.059967,0.052428,0.566078
2.5275000000000034,0.057628,0.054879,0.559575
2.530000000000001,0.0637,0.051443,0.561815
2.532499999999999,0.059813,0.053056,0.559448
2.5349999999999966,0.058986,0.053994,0.555288
2.5374999999999943,0.057734,0.054156,0.555915
2.539999999999992,0.057627,0.060187,0.556365
2.5424999999999898,0.058149,0.052279,0.552505
2.5449999999999875,0.054661,0.058306,0.547429
2.547499999999985,0.056254,0.05492,0.547389
2.549999999999983,0.057659,0.056701,0.546072
2.5524999999999807,0.055266,0.061139,0.543091
2.5549999999999784,0.057908,0.05995,0.540728
2.557499999999976,0.05639,0.062237,0.53502
2.5600000000000023,0.054614,0.061209,0.531732
2.5625,0.055557,0.06307,0.527883
2.5649999999999977,0.054658,0.060185,0.526384
2.5674999999999955,0.055791,0.062501,0.522514
2.569999999999993,0.050107,0.062228,0.520637
2.572499999999991,0.051246,0.061844,0.514979
2.5749999999999886,0.054368,0.064226,0.508822
2.5774999999999864,0.050081,0.063815,0.504271
2.579999999999984,0.049647,0.061367,0.499833
2.582499999999982,0.047293,0.061259,0.496941
2.5849999999999795,0.044005,0.060057,0.490432
2.5874999999999773,0.044317,0.058884,0.484771
2.5900000000000034,0.043992,0.057331,0.477249
2.592500000000001,0.042143,0.060848,0.474305
2.594999999999999,0.040147,0.061119,0.464533
2.5974999999999966,0.040745,0.059385,0.460827
2.5999999999999943,0.038441,0.059909,0.454872
2.602499999999992,0.039632,0.06097,0.444833
2.6049999999999898,0.035741,0.058345,0.436399
2.6074999999999875,0.030906,0.056989,0.425414
2.609999999999985,0.025126,0.061896,0.417648
2.612499999999983,0.024857,0.060517,0.407895
2.6149999999999807,0.021122,0.060902,0.393001
2.6174999999999784,0.008193,0.063299,0.38319
2.619999999999976,0.003225,0.062568,0.366136
2.6225000000000023,-0.001906,0.064922,0.354496
2.625,-0.011431,0.066798,0.340541
2.6274999999999977,-0.023878,0.066569,0.326058
2.6299999999999955,-0.035267,0.068652,0.308912
2.632499999999993,-0.044437,0.069379,0.297738
2.634999999999991,-0.050369,0.074219,0.28097
2.6374999999999886,-0.059685,0.071541,0.270247
2.6399999999999864,-0.066885,0.075416,0.257499
2.642499999999984,-0.074059,0.078691,0.240793
2.644999999999982,-0.079596,0.084163,0.227279
2.6474999999999795,-0.074562,0.08037,0.21571
2.6499999999999773,-0.078951,0.083276,0.206306
2.6525000000000034,-0.076632,0.086982,0.186677
2.655000000000001,-0.07422,0.0894,0.17531
2.657499999999999,-0.072128,0.096423,0.170588
2.6599999999999966,-0.066631,0.09403,0.162081
2.6624999999999943,-0.062807,0.097143,0.151487
2.664999999999992,-0.060084,0.092975,0.143056
2.6674999999999898,-0.057296,0.094286,0.137558
2.6699999999999875,-0.051743,0.094869,0.13069
2.672499999999985,-0.052917,0.089984,0.124709
2.674999999999983,-0.046866,0.087485,0.120311
2.6774999999999807,-0.043923,0.082221,0.115218
2.6799999999999784,-0.043163,0.07645,0.112677
2.682499999999976,-0.04275,0.070811,0.109061
2.6850000000000023,-0.041416,0.067744,0.10814
2.6875,-0.038709,0.059832,0.10225
2.6899999999999977,-0.035453,0.056786,0.100672
2.6924999999999955,-0.034398,0.049954,0.099824
2.694999999999993,-0.031391,0.040335,0.095088
2.697499999999991,-0.032072,0.039788,0.091847
2.6999999999999886,-0.031441,0.033966,0.090454
2.7024999999999864,-0.0245,0.032497,0.085142
2.704999999999984,-0.020583,0.025501,0.085028
2.707499999999982,-0.018699,0.016964,0.081953
2.7099999999999795,-0.020747,0.019977,0.080245
2.7124999999999773,-0.013869,0.014783,0.076834
2.7150000000000034,-0.010645,0.011989,0.074815
2.717500000000001,-0.007698,0.011074,0.072526
2.719999999999999,-0.008652,0.007849,0.069547
2.7224999999999966,-0.007014,0.007509,0.067205
2.7249999999999943,-0.007112,0.003561,0.062463
2.727499999999992,-0.005382,0.001081,0.060169
2.7299999999999898,-0.008117,0.000542,0.05633
2.7324999999999875,-0.007775,0.001734,0.052952
2.734999999999985,-0.007932,0.006848,0.051723
2.737499999999983,-0.007141,0.001902,0.046154
2.7399999999999807,-0.007941,0.001637,0.040973
2.7424999999999784,-0.009586,0.001629,0.040405
2.744999999999976,-0.00881,0.001983,0.031879
2.7475000000000023,-0.009587,0.003492,0.030253
2.75,-0.006902,0.002984,0.029167
2.7524999999999977,-0.008449,0.002202,0.026149
2.7549999999999955,-0.000386,0.004082,0.016866
2.757499999999993,0.004657,0.00269,0.014784
2.759999999999991,-0.002205,0.000405,0.01129
2.7624999999999886,0.001165,0.002526,0.011926
2.7649999999999864,0.006328,0.002431,0.010838
2.767499999999984,-0.000808,0.001483,0.005866
2.769999999999982,0.003228,-7.7e-05,0.003017
2.7724999999999795,0.004233,-0.00387,0.000981
2.7749999999999773,0.004657,-0.006971,0.002465
2.7775000000000034,0.005183,-0.007094,-0.00111
2.780000000000001,0.005161,-0.010851,-0.00363
2.782499999999999,0.008202,-0.011131,-0.009145
2.7849999999999966,0.00714,-0.014159,-0.007655
2.7874999999999943,0.011364,-0.015303,-0.008391
2.789999999999992,0.010531,-0.02259,-0.010994
2.7924999999999898,0.009532,-0.019589,-0.014582
2.7949999999999875,0.008062,-0.021797,-0.019364
2.797499999999985,0.01375,-0.023527,-0.02062
2.799999999999983,0.012132,-0.024404,-0.024469
2.8024999999999807,0.013781,-0.024065,-0.025673
2.8049999999999784,0.011364,-0.024131,-0.027457
2.807499999999976,0.010861,-0.026855,-0.033717
2.8100000000000023,0.009694,-0.021935,-0.03245
2.8125,0.014538,-0.027861,-0.03763
2.8149999999999977,0.015486,-0.025618,-0.040573
2.8174999999999955,0.014044,-0.030874,-0.042389
2.819999999999993,0.012239,-0.026028,-0.048272
2.822499999999991,0.014838,-0.028755,-0.051022
2.8249999999999886,0.015467,-0.02865,-0.054763
2.8274999999999864,0.013732,-0.03147,-0.057882
2.829999999999984,0.017551,-0.028202,-0.06519
2.832499999999982,0.014213,-0.030133,-0.06905
2.8349999999999795,0.01675,-0.034411,-0.070579
2.8374999999999773,0.015018,-0.035159,-0.073272
2.8400000000000034,0.017742,-0.042233,-0.077955
2.842500000000001,0.015864,-0.04005,-0.081111
2.844999999999999,0.016857,-0.039189,-0.083439
2.8474999999999966,0.019839,-0.042826,-0.083047
2.8499999999999943,0.017779,-0.039186,-0.086197
2.852499999999992,0.016143,-0.042304,-0.08942
2.8549999999999898,0.019469,-0.047231,-0.095193
2.8574999999999875,0.018265,-0.047337,-0.095503
2.859999999999985,0.020774,-0.0514,-0.099
2.862499999999983,0.020383,-0.053278,-0.099872
2.8649999999999807,0.020467,-0.050904,-0.097603
2.8674999999999784,0.018981,-0.056788,-0.100192
2.869999999999976,0.017638,-0.054775,-0.101002
2.8725000000000023,0.022688,-0.055075,-0.101282
2.875,0.020041,-0.056897,-0.100499
2.8774999999999977,0.019776,-0.056343,-0.103666
2.8799999999999955,0.02382,-0.054795,-0.101435
2.882499999999993,0.023074,-0.055039,-0.102407
2.884999999999991,0.02009,-0.054632,-0.102958
2.8874999999999886,0.020117,-0.053996,-0.102727
2.8899999999999864,0.021341,-0.05293,-0.103873
2.892499999999984,0.026666,-0.049803,-0.104102
2.894999999999982,0.025751,-0.051111,-0.099689
2.8974999999999795,0.023555,-0.04881,-0.099227
2.8999999999999773,0.022029,-0.049941,-0.098681
2.9025000000000034,0.023931,-0.051294,-0.095532
2.905000000000001,0.024144,-0.052096,-0.094606
2.907499999999999,0.017368,-0.047962,-0.097027
2.9099999999999966,0.015607,-0.048585,-0.089669
2.9124999999999943,0.013662,-0.046441,-0.088148
2.914999999999992,0.014005,-0.044549,-0.086354
2.9174999999999898,0.009947,-0.044824,-0.079581
2.9199999999999875,0.011862,-0.041877,-0.079101
2.922499999999985,0.009202,-0.038257,-0.075099
2.924999999999983,0.009467,-0.035119,-0.071071
2.9274999999999807,0.004857,-0.036664,-0.06499
2.9299999999999784,0.005602,-0.032742,-0.064714
2.932499999999976,0.002947,-0.030355,-0.061497
2.9350000000000023,0.004933,-0.026567,-0.051972
2.9375,0.005028,-0.030364,-0.048731
2.9399999999999977,0.005422,-0.024037,-0.040057
2.9424999999999955,0.00272,-0.01646,-0.03673
2.944999999999993,0.001531,-0.0186,-0.029418
2.947499999999991,0.00319,-0.013793,-0.027588
2.9499999999999886,0.002246,-0.010368,-0.019412
2.9524999999999864,-0.000629,-0.00758,-0.016825
2.954999999999984,0.004313,-0.009248,-0.006948
2.957499999999982,0.002082,-0.00231,-0.005808
2.9599999999999795,0.000183,-0.001344,-0.000253
2.9624999999999773,0.002622,-0.000721,0.006316
2.9650000000000034,0.004042,0.001711,0.008526
2.967500000000001,-0.001505,0.005934,0.013978
2.969999999999999,-0.000809,0.007153,0.019334
2.9724999999999966,0.000872,0.007594,0.024378
2.9749999999999943,0.003815,0.006499,0.028593
2.977499999999992,0.002406,0.009067,0.030506
2.9799999999999898,0.0024,0.009132,0.03554
2.9824999999999875,0.002094,0.011065,0.032415
2.984999999999985,0.001239,0.0125,0.038088
2.987499999999983,0.005744,0.015258,0.040787
2.9899999999999807,0.001235,0.013516,0.042776
2.9924999999999784,0.003586,0.013337,0.04471
2.994999999999976,0.00046,0.014523,0.039885
2.9975000000000023,0.001497,0.018805,0.045998
3.0,0.002541,0.017736,0.046293
3.0024999999999977,0.001246,0.014002,0.0447
3.0049999999999955,-0.001781,0.015379,0.043821
3.007499999999993,-0.001083,0.013108,0.043044
3.009999999999991,-0.001399,0.018302,0.04224
3.0124999999999886,-0.001086,0.015096,0.043743
3.0149999999999864,0.001974,0.011636,0.041912
3.017499999999984,-0.00166,0.015951,0.040553
3.019999999999982,-0.000755,0.014824,0.036637
3.0224999999999795,-0.000621,0.012655,0.038482
3.0249999999999773,-0.004029,0.015061,0.032424
3.0275000000000034,-0.002664,0.01209,0.033087
3.030000000000001,-0.005184,0.015184,0.033201
3.032499999999999,-0.002101,0.01313,0.030442
3.0349999999999966,0.001676,0.011174,0.029289
3.0374999999999943,-0.002627,0.013272,0.023913
3.039999999999992,0.000576,0.013223,0.021664
3.0424999999999898,-0.001328,0.010382,0.022461
3.0449999999999875,-0.000572,0.01044,0.019848
3.047499999999985,-0.000969,0.010893,0.016465
3.049999999999983,0.000144,0.009777,0.012825
3.0524999999999807,-7.5e-05,0.00752,0.011305
3.0549999999999784,0.000235,0.00532,0.009134
3.057499999999976,-4.6e-05,0.000436,0.005878
3.0600000000000023,0.001895,0.003702,0.003994
3.0625,0.000369,-0.000748,0.003064
3.0649999999999977,0.000644,0.000768,0.002395
3.0674999999999955,0.001522,-0.003365,-0.001886
3.069999999999993,0.003464,-0.004791,-0.006539
3.072499999999991,0.002492,-0.005482,-0.006169
3.0749999999999886,0.001317,-0.000748,-0.009798
3.0774999999999864,0.003099,-0.006123,-0.011078
3.079999999999984,0.001908,-0.003973,-0.010903
3.082499999999982,0.001641,-0.007932,-0.014472
3.0849999999999795,0.003958,-0.005779,-0.012651
3.0874999999999773,0.006222,-0.005098,-0.013168
3.0900000000000034,0.005931,-0.007188,-0.017919
3.092500000000001,0.004644,-0.004999,-0.01794
3.094999999999999,0.004659,-0.005127,-0.017621
3.0974999999999966,0.004063,-0.00883,-0.02031
3.0999999999999943,0.000665,-0.008896,-0.018141
3.102499999999992,0.003209,-0.009225,-0.021096
3.1049999999999898,0.003969,-0.005661,-0.018172
3.1074999999999875,0.007271,-0.006349,-0.022306
3.109999999999985,0.004081,-0.006999,-0.022954
3.112499999999983,0.007554,-0.011824,-0.02066
3.1149999999999807,0.006618,-0.009945,-0.019076
3.1174999999999784,0.005554,-0.006999,-0.02096
3.119999999999976,0.005221,-0.010584,-0.021484
3.1225000000000023,0.002832,-0.009334,-0.018053
3.125,0.005744,-0.010122,-0.02069
3.1274999999999977,0.000928,-0.012693,-0.021704
3.1299999999999955,0.003678,-0.012752,-0.017972
3.132499999999993,0.004587,-0.011536,-0.014536
3.134999999999991,0.004142,-0.011717,-0.018108
3.1374999999999886,0.002808,-0.007826,-0.017516
3.1399999999999864,0.005846,-0.005743,-0.017931
3.142499999999984,0.003711,-0.006317,-0.016062
3.144999999999982,0.005408,-0.001688,-0.012143
3.1474999999999795,0.001939,-0.004078,-0.013205
3.1499999999999773,0.002538,-0.000931,-0.010854
3.1525000000000034,0.001461,-0.003363,-0.010148
3.155000000000001,0.004961,-0.006595,-0.011078
3.157499999999999,-0.001442,-0.002247,-0.008212
3.1599999999999966,0.000604,-0.00156,-0.007458
3.1624999999999943,0.008928,0.000439,-0.002529
3.164999999999992,0.002372,-0.002748,-0.006534
3.1674999999999898,0.003494,-0.000548,-0.003695
3.1699999999999875,0.000464,0.00023,-0.00308
3.172499999999985,0.004018,0.000113,-0.003541
3.174999999999983,0.003085,-0.00077,-0.001162
3.1774999999999807,0.002889,-0.000332,-0.000559
3.1799999999999784,0.002832,3.2e-05,0.000227
3.182499999999976,0.003857,0.001062,0.000273
3.1850000000000023,0.000822,0.000792,0.000937
3.1875,0.003206,0.002366,0.005343
3.1899999999999977,2.2e-05,-0.000513,0.00372
3.1924999999999955,0.005165,-0.000165,0.005545
3.194999999999993,7.4e-05,0.000655,0.004106
3.197499999999991,0.003428,0.000521,0.002914
3.1999999999999886,0.003245,0.001288,0.004674
3.2024999999999864,0.003693,-2.2e-05,0.004856
3.204999999999984,0.001202,-0.000396,0.007658
3.207499999999982,0.002035,0.001075,0.006238
3.2099999999999795,0.003215,0.002379,0.005984
3.2124999999999773,0.004555,-0.000487,0.004732
3.2150000000000034,-0.000325,0.005067,0.002123
3.217500000000001,-9e-06,0.001968,0.002285
3.219999999999999,0.005963,0.00171,0.005928
3.2224999999999966,-0.000188,0.001349,0.00348
3.2249999999999943,0.000673,0.004103,0.001902
3.227499999999992,0.000934,-0.000952,0.003967
3.2299999999999898,0.001269,0.00011,0.002126
3.2324999999999875,0.002835,-0.003177,0.002315
3.234999999999985,0.002115,1.3e-05,0.003155
3.237499999999983,0.001534,0.001962,0.000914
3.2399999999999807,0.000715,-0.000522,-0.000644
3.2424999999999784,0.003054,-0.001946,0.001106
3.244999999999976,0.002799,-0.003296,-0.000113
3.2475000000000023,0.004178,0.00067,-0.001974
3.25,0.002801,0.002246,0.000945
3.2524999999999977,0.00393,-0.002521,0.002516
3.2549999999999955,0.002231,-1.2e-05,0.000758
3.257499999999993,0.001418,-0.000104,0.002692
3.259999999999991,-0.001645,0.002756,0.000424
3.2624999999999886,0.000405,-0.001104,0.001053
3.2649999999999864,0.003246,-0.003329,-0.000486
3.267499999999984,0.002255,0.000469,0.003239
3.269999999999982,-4.8e-05,0.000594,0.002683
3.2724999999999795,0.001572,-0.001442,0.001666
3.2749999999999773,-2.8e-05,-0.000243,0.002668
3.2775000000000034,0.001337,0.001644,0.002255
3.280000000000001,-7.6e-05,0.000141,0.005136
3.282499999999999,0.000121,-0.000462,0.005009
3.2849999999999966,0.000284,-0.000843,0.006468
3.2874999999999943,0.001573,5.3e-05,0.006878
3.289999999999992,0.001379,-0.001001,0.005019
3.2924999999999898,0.003424,-0.001249,0.008321
3.2949999999999875,0.001772,-0.000958,0.009093
3.297499999999985,0.001516,-0.004385,0.00662
3.299999999999983,0.003157,-0.000876,0.008724
3.3024999999999807,0.003377,0.00565,0.009955
3.3049999999999784,0.002115,0.001787,0.010728
3.307499999999976,0.005295,0.003018,0.010238
3.3100000000000023,-0.000392,0.004079,0.010534
3.3125,0.001312,0.001571,0.01161
3.3149999999999977,-0.00039,0.000999,0.01365
3.3174999999999955,0.003669,0.003897,0.014523
3.319999999999993,0.000992,-0.001948,0.012998
3.322499999999991,0.001972,-0.000502,0.010427
3.3249999999999886,0.001288,0.002452,0.013352
3.3274999999999864,0.003312,0.003644,0.012993
3.329999999999984,0.005064,0.003118,0.01011
3.332499999999982,0.001473,0.000762,0.008471
3.3349999999999795,0.003243,0.002845,0.012382
3.3374999999999773,0.002643,0.002288,0.011433
3.3400000000000034,0.000236,0.002054,0.009922
3.342500000000001,-0.000636,0.00129,0.012847
3.344999999999999,0.001592,0.000436,0.009204
3.3474999999999966,0.002665,0.001971,0.008684
3.3499999999999943,0.003351,0.000181,0.009879
3.352499999999992,0.000285,-0.000803,0.008645
3.3549999999999898,0.003021,-0.000241,0.008497
3.3574999999999875,0.003207,0.003528,0.007271
3.359999999999985,-0.000297,0.001881,0.009108
3.362499999999983,0.00563,-0.001076,0.008702
3.3649999999999807,0.000725,0.001719,0.007916
3.3674999999999784,0.002337,-0.001949,0.007828
3.369999999999976,0.006274,-0.002211,0.005469
3.3725000000000023,0.004741,0.00223,0.011585
3.375,0.00711,0.001968,0.005215
3.3774999999999977,0.004401,-0.000677,0.00887
3.3799999999999955,0.00634,-0.001635,0.006815
3.382499999999993,-0.00031,-0.000528,0.00638
3.384999999999991,-5.1e-05,0.001977,0.007514
3.3874999999999886,0.001571,0.001133,0.005899
3.3899999999999864,0.005279,-0.001703,0.006644
3.392499999999984,0.002743,0.003182,0.005697
3.394999999999982,0.003021,0.003275,0.004411
3.3974999999999795,0.004075,0.000835,0.005323
3.3999999999999773,0.001299,0.000677,0.005225
3.4025000000000034,-0.001557,0.000996,0.011339
3.405000000000001,0.002902,-6e-05,0.006618
3.407499999999999,0.003488,0.001035,0.005662
3.4099999999999966,0.003696,-0.000681,0.004918
3.4124999999999943,0.004364,0.001127,0.004653
3.414999999999992,0.000659,0.00148,0.00555
3.4174999999999898,0.003015,0.003106,0.004112
3.4199999999999875,0.000942,0.002306,0.003637
3.422499999999985,0.000917,0.002985,0.009485
3.424999999999983,0.001294,-0.000857,0.006893
