time,Gyr_X,Gyr_Y,Gyr_Z
0.0,0.0063913957208032,-0.0053267448770866,-0.0042603487041181
0.0035000000000025,0.0085224427374883,-0.0063913957208032,-0.002131047016685
0.0069999999999978,0.0085224427374883,-0.0042603487041181,-0.0042603487041181
0.0105000000000003,0.0074577918937717,-0.0063913957208032,-0.0074577918937717
0.0139999999999957,0.0031956978604016,-0.0031956978604016,-0.0053267448770866
0.0174999999999982,0.0074577918937717,-0.0010646508437165,-0.0031956978604016
0.0210000000000007,0.0085224427374883,-0.0042603487041181,-0.0042603487041181
0.0244999999999961,0.0095870935812048,-0.002131047016685,-0.0074577918937717
0.0279999999999986,0.0095870935812048,-0.0063913957208032,-0.0053267448770866
0.0315000000000011,0.0095870935812048,-0.0031956978604016,-0.0053267448770866
0.0349999999999965,0.0085224427374883,-0.0053267448770866,-0.002131047016685
0.038499999999999,0.0085224427374883,-0.0010646508437165,-0.0074577918937717
0.0420000000000015,0.0106534897541733,-0.0010646508437165,-0.0042603487041181
0.0454999999999969,0.0053267448770866,-0.0042603487041181,-0.0031956978604016
0.0489999999999994,0.0095870935812048,-0.0042603487041181,-0.0042603487041181
0.0525000000000019,0.0074577918937717,-0.0063913957208032,-0.002131047016685
0.0559999999999973,0.0085224427374883,-0.002131047016685,-0.0031956978604016
0.0594999999999998,0.0053267448770866,-0.0031956978604016,-0.0042603487041181
0.0630000000000023,0.0095870935812048,-0.0042603487041181,-0.0031956978604016
0.0664999999999977,0.0074577918937717,-0.0031956978604016,-0.0063913957208032
0.0700000000000002,0.0085224427374883,-0.0031956978604016,-0.0053267448770866
0.0734999999999956,0.0053267448770866,-0.0042603487041181,-0.0053267448770866
0.0769999999999981,0.0085224427374883,-0.0010646508437165,-0.0063913957208032
0.0805000000000006,0.0085224427374883,-0.0042603487041181,-0.0074577918937717
0.083999999999996,0.0085224427374883,-0.0042603487041181,-0.0042603487041181
0.0874999999999985,0.0074577918937717,-0.0010646508437165,-0.0042603487041181
0.091000000000001,0.0085224427374883,-0.0042603487041181,-0.0053267448770866
0.0944999999999964,0.0095870935812048,-0.0031956978604016,-0.0053267448770866
0.0979999999999989,0.0085224427374883,-0.0053267448770866,-0.0053267448770866
0.1015000000000014,0.0053267448770866,-0.0042603487041181,-0.0042603487041181
0.1049999999999968,0.0063913957208032,-0.0031956978604016,-0.0031956978604016
0.1084999999999993,0.0117181405978899,-0.0085224427374883,-0.0053267448770866
0.1120000000000018,0.0063913957208032,-0.0031956978604016,-0.0063913957208032
0.1154999999999972,0.0074577918937717,-0.0031956978604016,-0.0042603487041181
0.1189999999999997,0.0127827914416064,-0.0063913957208032,-0.0074577918937717
0.1225000000000022,0.0085224427374883,0.0,-0.0031956978604016
0.1259999999999976,0.0106534897541733,-0.0074577918937717,-0.0042603487041181
0.1295000000000001,0.0085224427374883,-0.0053267448770866,-0.0053267448770866
0.1329999999999955,0.0074577918937717,-0.0042603487041181,-0.0010646508437165
0.136499999999998,0.0085224427374883,0.0,-0.002131047016685
0.1400000000000005,0.0085224427374883,-0.0042603487041181,-0.0031956978604016
0.1434999999999959,0.0085224427374883,-0.0085224427374883,-0.0053267448770866
0.1469999999999984,0.0074577918937717,-0.0181095363186931,-0.0085224427374883
0.1505000000000009,0.0053267448770866,-0.0223716303520633,-0.0063913957208032
0.1539999999999963,0.0053267448770866,-0.0223716303520633,-0.0063913957208032
0.1574999999999988,0.0095870935812048,-0.0170448854749766,-0.0053267448770866
0.1610000000000013,0.0095870935812048,-0.0106534897541733,-0.0053267448770866
0.1644999999999967,0.0170448854749766,-0.0063913957208032,-0.002131047016685
0.1679999999999992,0.0106534897541733,-0.0085224427374883,-0.0042603487041181
0.1715000000000017,0.0127827914416064,-0.0053267448770866,-0.0053267448770866
0.1749999999999971,0.0095870935812048,-0.0031956978604016,-0.0053267448770866
0.1784999999999996,0.0063913957208032,-0.0074577918937717,-0.0063913957208032
0.1820000000000021,0.0074577918937717,-0.0085224427374883,-0.0063913957208032
0.1854999999999975,0.0031956978604016,-0.0074577918937717,-0.0053267448770866
0.189,0.0042603487041181,0.002131047016685,-0.0042603487041181
0.1924999999999954,0.0063913957208032,0.0053267448770866,-0.0053267448770866
0.1959999999999979,0.0074577918937717,0.0053267448770866,-0.0042603487041181
0.1995000000000004,0.0063913957208032,0.0053267448770866,-0.0053267448770866
0.2029999999999958,0.0074577918937717,0.0042603487041181,-0.0042603487041181
0.2064999999999983,0.0085224427374883,-0.002131047016685,-0.0031956978604016
0.2100000000000008,0.0106534897541733,0.0,-0.0085224427374883
0.2134999999999962,0.0127827914416064,-0.0010646508437165,-0.0042603487041181
0.2169999999999987,0.013849187614575,0.0,-0.002131047016685
0.2205000000000012,0.013849187614575,-0.0042603487041181,-0.0063913957208032
0.2239999999999966,0.013849187614575,-0.0095870935812048,-0.0063913957208032
0.2274999999999991,0.0106534897541733,-0.013849187614575,-0.0053267448770866
0.2310000000000016,0.0085224427374883,-0.01598023463126,-0.0095870935812048
0.234499999999997,0.0085224427374883,-0.0149138384582915,-0.0031956978604016
0.2379999999999995,0.0127827914416064,-0.0149138384582915,-0.0063913957208032
0.241500000000002,0.0117181405978899,-0.0170448854749766,-0.0063913957208032
0.2449999999999974,0.0085224427374883,-0.0149138384582915,-0.0053267448770866
0.2484999999999999,0.0117181405978899,-0.0149138384582915,-0.0042603487041181
0.2520000000000024,0.0191759324916617,-0.0085224427374883,-0.0031956978604016
0.2554999999999978,0.01598023463126,-0.0074577918937717,-0.0010646508437165
0.2590000000000003,0.013849187614575,-0.0127827914416064,0.0
0.2624999999999957,0.0149138384582915,-0.0117181405978899,0.0
0.2659999999999982,0.013849187614575,-0.01598023463126,0.0
0.2695000000000007,0.0127827914416064,-0.0127827914416064,-0.0010646508437165
0.2729999999999961,0.0106534897541733,-0.0074577918937717,-0.0031956978604016
0.2764999999999986,0.0127827914416064,-0.0010646508437165,-0.002131047016685
0.2800000000000011,0.013849187614575,0.0053267448770866,-0.0031956978604016
0.2834999999999965,0.0085224427374883,0.0074577918937717,-0.0042603487041181
0.286999999999999,0.0063913957208032,0.0095870935812048,-0.0063913957208032
0.2905000000000015,0.0053267448770866,0.0085224427374883,-0.0010646508437165
0.2939999999999969,0.0031956978604016,0.002131047016685,-0.0031956978604016
0.2974999999999994,0.0031956978604016,0.0,-0.0063913957208032
0.3010000000000019,0.0053267448770866,0.0,-0.0031956978604016
0.3044999999999973,0.0074577918937717,-0.002131047016685,-0.0042603487041181
0.3079999999999998,0.0127827914416064,0.0,-0.0063913957208032
0.3115000000000023,0.01598023463126,-0.0031956978604016,-0.0053267448770866
0.3149999999999977,0.0170448854749766,-0.0085224427374883,-0.0117181405978899
0.3185000000000002,0.01598023463126,-0.0127827914416064,-0.0106534897541733
0.3219999999999956,0.0170448854749766,-0.0266319790561814,-0.0074577918937717
0.3254999999999981,0.01598023463126,-0.0213052341790947,-0.0095870935812048
0.3290000000000006,0.0117181405978899,-0.013849187614575,-0.0095870935812048
0.332499999999996,0.0095870935812048,-0.0095870935812048,-0.0095870935812048
0.3359999999999985,0.0085224427374883,0.0,-0.0085224427374883
0.339500000000001,0.0095870935812048,0.0042603487041181,-0.0127827914416064
0.3429999999999964,0.0042603487041181,0.0031956978604016,-0.0127827914416064
0.3464999999999989,0.002131047016685,0.0,-0.0106534897541733
0.3500000000000014,0.0063913957208032,-0.0063913957208032,-0.0106534897541733
0.3534999999999968,0.002131047016685,-0.0085224427374883,-0.0063913957208032
0.3569999999999993,0.0095870935812048,0.0042603487041181,-0.0074577918937717
0.3605000000000018,0.013849187614575,0.0117181405978899,-0.0085224427374883
0.3639999999999972,0.0149138384582915,0.0266319790561814,-0.0085224427374883
0.3674999999999997,0.0181095363186931,0.0255673282124649,-0.0074577918937717
0.3710000000000022,0.0181095363186931,0.0234362811957798,-0.0117181405978899
0.3744999999999976,0.013849187614575,0.0149138384582915,-0.0053267448770866
0.3780000000000001,0.0063913957208032,0.0063913957208032,-0.0031956978604016
0.3814999999999955,0.0031956978604016,0.0063913957208032,-0.0042603487041181
0.384999999999998,-0.0031956978604016,0.0106534897541733,-0.0127827914416064
0.3885000000000005,-0.0063913957208032,0.01598023463126,-0.0095870935812048
0.3919999999999959,-0.002131047016685,0.01598023463126,-0.0106534897541733
0.3954999999999984,0.0,0.0181095363186931,-0.0085224427374883
0.3990000000000009,0.0031956978604016,0.0063913957208032,-0.0095870935812048
0.4024999999999963,0.0085224427374883,-0.0010646508437165,-0.0095870935812048
0.4059999999999988,0.0085224427374883,-0.0095870935812048,-0.0106534897541733
0.4095000000000013,0.0053267448770866,-0.013849187614575,-0.0074577918937717
0.4129999999999967,0.0074577918937717,-0.01598023463126,-0.0085224427374883
0.4164999999999992,0.0095870935812048,-0.0053267448770866,-0.0053267448770866
0.4200000000000017,0.0085224427374883,-0.0031956978604016,-0.0042603487041181
0.4234999999999971,0.0074577918937717,0.002131047016685,-0.0031956978604016
0.4269999999999996,0.002131047016685,0.0,-0.0053267448770866
0.4305000000000021,0.0,-0.0010646508437165,-0.0010646508437165
0.4339999999999975,0.002131047016685,-0.0127827914416064,-0.0053267448770866
0.4375,0.002131047016685,-0.01598023463126,0.0031956978604016
0.4410000000000025,0.0074577918937717,-0.0202405833353782,0.0031956978604016
0.4444999999999979,0.01598023463126,-0.0106534897541733,0.002131047016685
0.4480000000000004,0.0181095363186931,-0.0085224427374883,-0.0010646508437165
0.4514999999999958,0.0191759324916617,0.0,-0.002131047016685
0.4549999999999983,0.0149138384582915,0.0085224427374883,-0.0085224427374883
0.4585000000000008,0.0117181405978899,0.0213052341790947,-0.0053267448770866
0.4619999999999962,0.0063913957208032,0.029827676916583,-0.0085224427374883
0.4654999999999987,0.0,0.0351544217936697,-0.0127827914416064
0.4690000000000012,-0.0106534897541733,0.0340897709499532,-0.0149138384582915
0.4724999999999966,-0.0191759324916617,0.0362208179666383,-0.01598023463126
0.4759999999999991,-0.02769837522915,0.0362208179666383,-0.0106534897541733
0.4795000000000016,-0.0340897709499532,0.0351544217936697,-0.01598023463126
0.482999999999997,-0.0404811666707564,0.0383501196540714,-0.0170448854749766
0.4864999999999995,-0.029827676916583,0.0383501196540714,-0.0170448854749766
0.490000000000002,-0.0202405833353782,0.0394165158270399,-0.0181095363186931
0.4934999999999974,-0.013849187614575,0.0426122136874415,-0.0181095363186931
0.4969999999999999,-0.0042603487041181,0.0436768645311581,-0.0170448854749766
0.5005000000000024,0.0031956978604016,0.0404811666707564,-0.01598023463126
0.5039999999999978,0.0063913957208032,0.0404811666707564,-0.0191759324916617
0.5075000000000003,0.0127827914416064,0.0479389585645282,-0.01598023463126
0.5109999999999957,0.0127827914416064,0.041545817514473,-0.0181095363186931
0.5144999999999982,0.0085224427374883,0.0372854688103548,-0.0170448854749766
0.5180000000000007,0.0010646508437165,0.0308940730895516,-0.0202405833353782
0.5214999999999961,-0.013849187614575,0.0330233747769847,-0.0202405833353782
0.5249999999999986,-0.0255673282124649,0.0319587239332681,-0.0223716303520633
0.5285000000000011,-0.0308940730895516,0.0330233747769847,-0.0213052341790947
0.5319999999999965,-0.0362208179666383,0.0351544217936697,-0.0266319790561814
0.535499999999999,-0.0362208179666383,0.0372854688103548,-0.0202405833353782
0.5390000000000015,-0.0330233747769847,0.0383501196540714,-0.0234362811957798
0.5424999999999969,-0.0181095363186931,0.0394165158270399,-0.0181095363186931
0.5459999999999994,-0.0085224427374883,0.0340897709499532,-0.0170448854749766
0.5495000000000019,0.0010646508437165,0.029827676916583,-0.0095870935812048
0.5529999999999973,0.0170448854749766,0.0287630260728665,-0.0053267448770866
0.5564999999999998,0.0372854688103548,0.0319587239332681,0.002131047016685
0.5600000000000023,0.0436768645311581,0.0340897709499532,0.0117181405978899
0.5634999999999977,0.0564614013020165,0.0319587239332681,0.0170448854749766
0.5670000000000002,0.0585907029894496,0.0255673282124649,0.0213052341790947
0.5704999999999956,0.0564614013020165,0.0170448854749766,0.0330233747769847
0.5739999999999981,0.0564614013020165,0.0127827914416064,0.0372854688103548
0.5775000000000006,0.0543303542853314,0.0074577918937717,0.0426122136874415
0.580999999999996,0.0490036094082447,0.0063913957208032,0.0404811666707564
0.5844999999999985,0.0458079115478431,0.0053267448770866,0.0362208179666383
0.588000000000001,0.041545817514473,0.0063913957208032,0.0340897709499532
0.5914999999999964,0.0383501196540714,0.0117181405978899,0.0287630260728665
0.5949999999999989,0.0447432607041266,0.0106534897541733,0.0213052341790947
0.5985000000000014,0.0458079115478431,0.0106534897541733,0.0117181405978899
0.6019999999999968,0.0447432607041266,0.0106534897541733,0.0031956978604016
0.6054999999999993,0.0330233747769847,0.0042603487041181,-0.0042603487041181
0.6090000000000018,0.0181095363186931,0.0095870935812048,-0.0085224427374883
0.6124999999999972,0.0031956978604016,0.0106534897541733,-0.0202405833353782
0.6159999999999997,-0.0074577918937717,0.01598023463126,-0.02769837522915
0.6195000000000022,-0.0245026773687483,0.0245026773687483,-0.0362208179666383
0.6229999999999976,-0.0351544217936697,0.0245026773687483,-0.041545817514473
0.6265000000000001,-0.0479389585645282,0.0319587239332681,-0.0468725623915597
0.6299999999999955,-0.055395005129048,0.0383501196540714,-0.0479389585645282
0.633499999999998,-0.055395005129048,0.041545817514473,-0.0596570991624181
0.6370000000000005,-0.0447432607041266,0.0404811666707564,-0.0660484948832214
0.6404999999999959,-0.0266319790561814,0.0458079115478431,-0.0767019846373948
0.6439999999999984,-0.0085224427374883,0.0490036094082447,-0.0756355884644262
0.6475000000000009,0.0191759324916617,0.0575260521457331,-0.0735062867769931
0.6509999999999962,0.0362208179666383,0.0639174478665363,-0.0639174478665363
0.6544999999999987,0.0521993072686464,0.0788312863248278,-0.0532657034416149
0.6580000000000013,0.0575260521457331,0.0916158230956863,-0.0351544217936697
0.6614999999999966,0.0575260521457331,0.0926804739394028,-0.0149138384582915
0.6649999999999991,0.0585907029894496,0.0905494269227178,-0.0053267448770866
0.6685000000000016,0.0532657034416149,0.0948115209560879,0.0085224427374883
0.671999999999997,0.0458079115478431,0.0926804739394028,0.0074577918937717
0.6754999999999995,0.0394165158270399,0.096942567972773,0.0170448854749766
0.679000000000002,0.0490036094082447,0.1065296615539778,0.0234362811957798
0.6824999999999974,0.0713752397603081,0.1022693128498597,0.0266319790561814
0.6859999999999999,0.0873537290623162,0.1043986145372928,0.0287630260728665
0.6895000000000024,0.1033339636935762,0.1022693128498597,0.0330233747769847
0.6929999999999978,0.1203788491685528,0.0948115209560879,0.0340897709499532
0.6965000000000003,0.138488385487246,0.0894847760790012,0.0266319790561814
0.6999999999999957,0.152337573101821,0.0852244273748831,0.0266319790561814
0.7034999999999982,0.1757738542976009,0.0809623333415129,0.0223716303520633
0.7070000000000007,0.1885583910684593,0.0767019846373948,0.0202405833353782
0.7104999999999961,0.1874919948954908,0.069244192743623,0.0191759324916617
0.7139999999999986,0.1715135055934827,0.0596570991624181,0.0170448854749766
0.7175000000000011,0.138488385487246,0.055395005129048,0.0010646508437165
0.7209999999999965,0.1193124529955843,0.055395005129048,-0.0106534897541733
0.724499999999999,0.0884201252352847,0.0713752397603081,-0.0149138384582915
0.7280000000000015,0.0671131457269379,0.0788312863248278,-0.0202405833353782
0.7314999999999969,0.0468725623915597,0.0926804739394028,-0.02769837522915
0.7349999999999994,0.0330233747769847,0.1065296615539778,-0.0255673282124649
0.7385000000000019,0.0245026773687483,0.1171831513081512,-0.0223716303520633
0.7419999999999973,0.01598023463126,0.1182478021518678,-0.0170448854749766
0.7454999999999998,0.0213052341790947,0.1267702448893561,-0.0127827914416064
0.7490000000000023,0.0362208179666383,0.1214435000122694,-0.0117181405978899
0.7524999999999977,0.0596570991624181,0.1278348957330726,-0.0010646508437165
0.7560000000000002,0.0884201252352847,0.1171831513081512,0.0031956978604016
0.7594999999999956,0.1257055940456395,0.1033339636935762,0.0042603487041181
0.7629999999999981,0.1470108282247343,0.0852244273748831,0.0053267448770866
0.7665000000000006,0.1757738542976009,0.0479389585645282,0.0191759324916617
0.769999999999996,0.2013411825100658,0.0074577918937717,0.0213052341790947
0.7734999999999985,0.2066679273871525,-0.0234362811957798,0.0170448854749766
0.777000000000001,0.2109282760912707,-0.0607217500061347,0.013849187614575
0.7804999999999964,0.2130593231079557,-0.0916158230956863,0.0127827914416064
0.7839999999999989,0.2279731615662473,-0.1161167551351827,0.0213052341790947
0.7875000000000014,0.2386266513204207,-0.1416840833476476,0.0287630260728665
0.7909999999999968,0.2439533961975074,-0.1640557136997109,0.0383501196540714
0.7944999999999993,0.2652586303766022,-0.1640557136997109,0.0351544217936697
0.7980000000000018,0.2929570056057522,-0.1597953649955928,0.0245026773687483
0.8014999999999972,0.3249157295390203,-0.1395530363309626,0.0095870935812048
0.8049999999999997,0.3664615470534934,-0.1065296615539778,-0.0053267448770866
0.8085000000000022,0.3781796876513833,-0.0905494269227178,-0.0170448854749766
0.8119999999999976,0.3803107346680683,-0.0649838440395048,-0.02769837522915
0.8155000000000001,0.3856374795451551,-0.0447432607041266,-0.0330233747769847
0.8189999999999955,0.3813771308410369,-0.0095870935812048,-0.0319587239332681
0.822499999999998,0.3643322453660603,0.0223716303520633,-0.0266319790561814
0.8260000000000005,0.3227846825223353,0.0447432607041266,-0.02769837522915
0.8294999999999959,0.2727164222703739,0.055395005129048,-0.0308940730895516
0.8329999999999984,0.1938833906162941,0.0596570991624181,-0.0394165158270399
0.8365000000000009,0.1225098961852379,0.0564614013020165,-0.0308940730895516
0.8399999999999963,-0.0063913957208032,0.0287630260728665,-0.0330233747769847
0.8434999999999988,-0.0916158230956863,0.0127827914416064,-0.0351544217936697
0.8470000000000013,-0.2119946722642392,-0.0319587239332681,-0.0394165158270399
0.8504999999999967,-0.3345028231202252,-0.0852244273748831,-0.0426122136874415
0.8539999999999992,-0.4942981881158181,-0.1683160624038291,-0.0532657034416149
0.8575000000000017,-0.6018925005135125,-0.2311688594266489,-0.0532657034416149
0.8609999999999971,-0.7020307663466872,-0.3078708440640437,-0.055395005129048
0.8644999999999996,-0.7552947244590501,-0.3664615470534934,-0.055395005129048
0.8680000000000021,-0.7861887975486017,-0.4474238803950063,-0.0490036094082447
0.8714999999999975,-0.7904508915819718,-0.4953628389595346,-0.0500682602519613
0.875,-0.7766017039673969,-0.561411333842756,-0.041545817514473
0.8784999999999954,-0.7510343757549319,-0.605088198373914,-0.0394165158270399
0.8819999999999979,-0.7126842561008605,-0.6551582039551274,-0.0362208179666383
0.8855000000000004,-0.6753987872905056,-0.6860505317154271,-0.0351544217936697
0.8889999999999958,-0.6189373859884891,-0.713748906944577,-0.0308940730895516
0.8924999999999983,-0.5720648235969293,-0.7297291415758372,-0.0234362811957798
0.8960000000000008,-0.5166698184678814,-0.7339894902799553,-0.0234362811957798
0.8994999999999962,-0.4708619069200382,-0.7286627454028686,-0.0202405833353782
0.9029999999999988,-0.4154651564617382,-0.7105532090841755,-0.0149138384582915
0.9065000000000012,-0.3675279432264619,-0.6860505317154271,-0.0191759324916617
0.9099999999999966,-0.3036087500306735,-0.6402426201675839,-0.013849187614575
0.9134999999999992,-0.2546051406224288,-0.5976321518093943,-0.0213052341790947
0.9170000000000016,-0.1885583910684593,-0.5294526099094878,-0.0191759324916617
0.920499999999997,-0.136357338470561,-0.480449000501243,-0.0223716303520633
0.9239999999999996,-0.0724398906040246,-0.4165315526347067,-0.0202405833353782
0.927500000000002,-0.0223716303520633,-0.3728546881035486,-0.0223716303520633
0.9309999999999974,0.0436768645311581,-0.3174579376452486,-0.029827676916583
0.9345,0.0926804739394028,-0.2727164222703739,-0.0330233747769847
0.9380000000000024,0.1597953649955928,-0.2173214171413259,-0.041545817514473
0.9414999999999978,0.2024058333537824,-0.1683160624038291,-0.055395005129048
0.9450000000000004,0.2641939795328856,-0.1043986145372928,-0.0628527970228197
0.9484999999999956,0.3068061932203272,-0.0596570991624181,-0.0628527970228197
0.9519999999999982,0.3653968962097769,0.0031956978604016,-0.0703088435873395
0.9555000000000008,0.4122694586013365,0.0585907029894496,-0.0756355884644262
0.958999999999996,0.4676662090596366,0.1267702448893561,-0.0681795418999064
0.9624999999999986,0.5092120265741096,0.1821652500184041,-0.0724398906040246
0.9660000000000012,0.5496931932448661,0.2567361876391139,-0.0809623333415129
0.9694999999999964,0.5699337765802444,0.3078708440640437,-0.0809623333415129
0.972999999999999,0.586978662055221,0.3707236410868635,-0.0767019846373948
0.9765000000000016,0.5912390107593392,0.4186608543221398,-0.0735062867769931
0.9799999999999968,0.5859140112115044,0.4815136513449596,-0.069244192743623
0.9834999999999994,0.5773915684740161,0.5294526099094878,-0.0639174478665363
0.987000000000002,0.5603466829990394,0.5944364539489927,-0.0596570991624181
0.9904999999999972,0.5379750526469761,0.644504714200954,-0.0596570991624181
0.9939999999999998,0.5060163287137079,0.7180110009779472,-0.0617864008498512
0.9975000000000024,0.4772533026408414,0.7691439120736251,-0.0639174478665363
1.0009999999999977,0.425053995372195,0.8288010112360433,-0.069244192743623
1.0045000000000002,0.3898978282492732,0.875673573627603,-0.0745709376207097
1.0079999999999956,0.3355692192931938,0.933199625773336,-0.0756355884644262
1.011499999999998,0.2918906094327836,0.9694204437399744,-0.0852244273748831
1.0150000000000006,0.2396913021641372,1.016293006131534,-0.0916158230956863
1.018499999999996,0.1906876927558924,1.0482517300648024,-0.1012029166768912
1.0219999999999985,0.1320969897664428,1.0780811523106375,-0.1097253594143795
1.025500000000001,0.0841580312019145,1.0887328967355587,-0.1235745470289545
1.0289999999999964,0.0245026773687483,1.0866035950481256,-0.1267702448893561
1.0324999999999989,-0.0266319790561814,1.0823415010147557,-0.1374237346435295
1.0360000000000014,-0.0894847760790012,1.0589052198189757,-0.1352926876268444
1.0394999999999968,-0.1310323389227262,1.039729287327314,-0.138488385487246
1.0429999999999993,-0.1864273440517743,1.0067059125503293,-0.1395530363309626
1.0465000000000018,-0.2215817658454441,0.9715514907566596,-0.1320969897664428
1.0499999999999972,-0.2556715367953973,0.9204168343317296,-0.1235745470289545
1.0534999999999997,-0.2727164222703739,0.8831313655213747,-0.1182478021518678
1.0570000000000022,-0.2833681666952953,0.8373234539735316,-0.1086607085706629
1.0604999999999976,-0.2823035158515788,0.7925801932694049,-0.0948115209560879
1.064,-0.2673896773932873,0.7382515843133254,-0.083093380358198
1.0674999999999957,-0.2503447919183106,0.7009661155029706,-0.0703088435873395
1.070999999999998,-0.2258421145495622,0.644504714200954,-0.0490036094082447
1.0745000000000005,-0.2024058333537824,0.6018925005135125,-0.0362208179666383
1.077999999999996,-0.1789695521580025,0.5358440056302911,-0.0149138384582915
1.0814999999999984,-0.1651203645434275,0.4793843496575265,0.0
1.0850000000000009,-0.150206526085136,0.4058780628805333,0.0181095363186931
1.0884999999999962,-0.1395530363309626,0.3483520107348002,0.0287630260728665
1.0919999999999987,-0.1278348957330726,0.2727164222703739,0.0479389585645282
1.0955000000000013,-0.124639197872671,0.2151903701246408,0.0564614013020165
1.0989999999999966,-0.1161167551351827,0.1480754790684509,0.0735062867769931
1.1024999999999991,-0.1139874534477496,0.0948115209560879,0.0777666354811113
1.1060000000000016,-0.0990718696602061,0.02769837522915,0.0873537290623162
1.109499999999997,-0.0937468701123714,-0.0181095363186931,0.0873537290623162
1.1129999999999995,-0.0852244273748831,-0.0852244273748831,0.0894847760790012
1.116500000000002,-0.0894847760790012,-0.1278348957330726,0.083093380358198
1.1199999999999974,-0.0926804739394028,-0.1874919948954908,0.0735062867769931
1.1235,-0.1065296615539778,-0.2279731615662473,0.0628527970228197
1.1270000000000024,-0.1235745470289545,-0.286565609884949,0.0543303542853314
1.1304999999999978,-0.1374237346435295,-0.3345028231202252,0.0468725623915597
1.1340000000000003,-0.1491418752414194,-0.3707236410868635,0.0404811666707564
1.1374999999999955,-0.1619246666830259,-0.4080091098972184,0.0351544217936697
1.1409999999999982,-0.166186760716396,-0.4314453910929982,0.0255673282124649
1.1445000000000007,-0.1651203645434275,-0.4570127193054631,0.0213052341790947
1.147999999999996,-0.1629910628559944,-0.4697955107470696,0.0170448854749766
1.1514999999999986,-0.1587289688226243,-0.4889714432387313,0.0149138384582915
1.1550000000000011,-0.1491418752414194,-0.503885281697023,0.0074577918937717
1.1584999999999963,-0.1438151303643327,-0.5219948180157161,0.0127827914416064
1.161999999999999,-0.1342280367831279,-0.5305172607532044,0.0085224427374883
1.1655000000000015,-0.1289012919060412,-0.5401060996636612,0.0085224427374883
1.168999999999997,-0.1203788491685528,-0.5443664483677794,0.0053267448770866
1.1724999999999994,-0.1097253594143795,-0.5433017975240628,0.0074577918937717
1.176000000000002,-0.1012029166768912,-0.5443664483677794,0.0085224427374883
1.179499999999997,-0.0873537290623162,-0.5422354013510943,0.0181095363186931
1.1829999999999998,-0.0756355884644262,-0.5411707505073777,0.0245026773687483
1.1865000000000023,-0.055395005129048,-0.5347793547865746,0.0340897709499532
1.1899999999999975,-0.0447432607041266,-0.5283879590657713,0.0372854688103548
1.1935000000000002,-0.0245026773687483,-0.519865516328283,0.0426122136874415
1.1969999999999956,-0.01598023463126,-0.5049499325407395,0.041545817514473
1.200499999999998,-0.0063913957208032,-0.4847093492053612,0.0404811666707564
1.2040000000000006,-0.002131047016685,-0.4708619069200382,0.0372854688103548
1.207499999999996,0.0074577918937717,-0.4420988808471717,0.0372854688103548
1.2109999999999983,0.0213052341790947,-0.4186608543221398,0.0372854688103548
1.214500000000001,0.0404811666707564,-0.3813771308410369,0.0372854688103548
1.2179999999999964,0.0585907029894496,-0.355809802628572,0.0426122136874415
1.221499999999999,0.0905494269227178,-0.3195889846619337,0.055395005129048
1.2250000000000014,0.1150521042914662,-0.2940216564494687,0.0585907029894496
1.2284999999999968,0.1491418752414194,-0.2599318854995155,0.0628527970228197
1.231999999999999,0.177904901314286,-0.2343645572870505,0.0585907029894496
1.2355000000000018,0.219450718828759,-0.2034722295267509,0.0607217500061347
1.2389999999999972,0.2503447919183106,-0.180035948330971,0.0596570991624181
1.2424999999999995,0.2791078179911772,-0.1480754790684509,0.0500682602519613
1.2460000000000022,0.3057397970473587,-0.124639197872671,0.0458079115478431
1.2494999999999976,0.3334381722765087,-0.0916158230956863,0.0266319790561814
1.253,0.3483520107348002,-0.0671131457269379,0.0181095363186931
1.2564999999999955,0.3547434064556034,-0.0319587239332681,0.0
1.259999999999998,0.3515477085952018,-0.0127827914416064,-0.0213052341790947
1.2635000000000003,0.3366338701369103,0.0117181405978899,-0.041545817514473
1.266999999999996,0.316393286801532,0.0213052341790947,-0.0628527970228197
1.2704999999999984,0.2929570056057522,0.0426122136874415,-0.0809623333415129
1.274000000000001,0.274847469287059,0.0585907029894496,-0.0948115209560879
1.2774999999999963,0.2514094427620272,0.0809623333415129,-0.1075943123976944
1.2809999999999988,0.2364956043037356,0.0937468701123714,-0.1129210572747811
1.2845000000000013,0.2226464166891606,0.110790010258096,-0.1203788491685528
1.2879999999999967,0.2109282760912707,0.1225098961852379,-0.1193124529955843
1.2914999999999992,0.2024058333537824,0.1406194325039311,-0.1225098961852379
1.2950000000000017,0.1949497867892626,0.1480754790684509,-0.1182478021518678
1.298499999999997,0.1853609478788057,0.1608600158393093,-0.1129210572747811
1.3019999999999996,0.1789695521580025,0.1651203645434275,-0.1054650107102613
1.305500000000002,0.1725781564371993,0.1715135055934827,-0.0958761717998045
1.3089999999999975,0.1693824585767977,0.1768385051413174,-0.0873537290623162
1.3125,0.1683160624038291,0.1842962970350892,-0.0756355884644262
1.3159999999999954,0.1683160624038291,0.1906876927558924,-0.0660484948832214
1.319499999999998,0.1651203645434275,0.2024058333537824,-0.0500682602519613
1.3230000000000004,0.1640557136997109,0.2141239739516723,-0.0436768645311581
1.3264999999999958,0.1587289688226243,0.2269085107225308,-0.0287630260728665
1.3299999999999983,0.1587289688226243,0.233299906443334,-0.01598023463126
1.3335000000000008,0.152337573101821,0.2386266513204207,-0.0053267448770866
1.3369999999999962,0.152337573101821,0.2375620004767041,0.0053267448770866
1.3404999999999987,0.1427504795206162,0.2407576983371057,0.0117181405978899
1.3440000000000012,0.1448797812080492,0.2386266513204207,0.0191759324916617
1.3474999999999966,0.1459461773810178,0.2343645572870505,0.0245026773687483
1.350999999999999,0.1512729222581045,0.2311688594266489,0.0255673282124649
1.3545000000000016,0.1715135055934827,0.2290395577392158,0.0319587239332681
1.357999999999997,0.1864273440517743,0.2237128128621291,0.0362208179666383
1.3614999999999997,0.2162550209683574,0.2215817658454441,0.0394165158270399
1.365000000000002,0.2364956043037356,0.219450718828759,0.0383501196540714
1.3684999999999974,0.2673896773932873,0.2119946722642392,0.0266319790561814
1.372,0.2918906094327836,0.2034722295267509,0.0234362811957798
1.3755000000000024,0.3217200316786187,0.1938833906162941,0.0085224427374883
1.3789999999999978,0.3430252658577135,0.1864273440517743,0.0031956978604016
1.3825000000000005,0.3771150368076668,0.1768385051413174,-0.0063913957208032
1.3859999999999957,0.3909642244222418,0.1672514115601126,-0.0085224427374883
1.3894999999999982,0.4069427137242498,0.1565979218059392,-0.0117181405978899
1.393000000000001,0.4090737607409349,0.1438151303643327,-0.0149138384582915
1.396499999999996,0.3984202709867616,0.1331616406101593,-0.0234362811957798
1.3999999999999986,0.3760503859639502,0.1182478021518678,-0.0308940730895516
1.403500000000001,0.3408942188410284,0.1086607085706629,-0.0372854688103548
1.4069999999999965,0.3078708440640437,0.0958761717998045,-0.0362208179666383
1.410499999999999,0.2641939795328856,0.0820287295144815,-0.0330233747769847
1.4140000000000017,0.2375620004767041,0.0724398906040246,-0.0340897709499532
1.4174999999999969,0.2066679273871525,0.0617864008498512,-0.0330233747769847
1.4209999999999994,0.1885583910684593,0.0511346564249298,-0.0308940730895516
1.424500000000002,0.1747092034538843,0.0447432607041266,-0.029827676916583
1.4279999999999973,0.1683160624038291,0.0383501196540714,-0.0308940730895516
1.4314999999999998,0.1640557136997109,0.029827676916583,-0.0340897709499532
1.4350000000000025,0.1544686201185061,0.0202405833353782,-0.0372854688103548
1.4384999999999977,0.150206526085136,0.0074577918937717,-0.0426122136874415
1.4420000000000002,0.1438151303643327,-0.0042603487041181,-0.0426122136874415
1.4454999999999956,0.138488385487246,-0.02769837522915,-0.0468725623915597
1.448999999999998,0.136357338470561,-0.0426122136874415,-0.0479389585645282
1.4525000000000006,0.1374237346435295,-0.0681795418999064,-0.0511346564249298
1.455999999999996,0.1427504795206162,-0.0756355884644262,-0.0532657034416149
1.4594999999999985,0.1534022239455376,-0.096942567972773,-0.0585907029894496
1.463000000000001,0.1672514115601126,-0.1118564064310645,-0.0660484948832214
1.4664999999999964,0.191754088928861,-0.1310323389227262,-0.0745709376207097
1.4699999999999989,0.2141239739516723,-0.1448797812080492,-0.083093380358198
1.4735000000000014,0.2375620004767041,-0.1587289688226243,-0.1001382658331746
1.4769999999999968,0.2620629325162006,-0.1651203645434275,-0.1065296615539778
1.4804999999999993,0.2854992137119804,-0.1864273440517743,-0.1225098961852379
1.4840000000000018,0.3014794483432405,-0.1906876927558924,-0.124639197872671
1.4874999999999972,0.3089354949077603,-0.2066679273871525,-0.1257055940456395
1.4909999999999997,0.3121311927681619,-0.2183860679850424,-0.1299659427497577
1.4945000000000022,0.302544099186957,-0.233299906443334,-0.1352926876268444
1.4979999999999976,0.2823035158515788,-0.2492801410745941,-0.1416840833476476
1.5015,0.2535404897787122,-0.2578025838120824,-0.150206526085136
1.5049999999999957,0.2119946722642392,-0.2727164222703739,-0.1597953649955928
1.508499999999998,0.1736428072809158,-0.2791078179911772,-0.166186760716396
1.5120000000000005,0.1214435000122694,-0.2929570056057522,-0.1715135055934827
1.515499999999996,0.0862890782185996,-0.2950880526224372,-0.1715135055934827
1.5189999999999984,0.0383501196540714,-0.3131975889411305,-0.1608600158393093
1.5225000000000009,0.0074577918937717,-0.3195889846619337,-0.1512729222581045
1.5259999999999962,-0.0308940730895516,-0.3313071252598236,-0.1416840833476476
1.5294999999999987,-0.0532657034416149,-0.3483520107348002,-0.1289012919060412
1.5330000000000013,-0.0884201252352847,-0.3632658491930918,-0.1161167551351827
1.5364999999999966,-0.110790010258096,-0.3760503859639502,-0.1065296615539778
1.5399999999999991,-0.1342280367831279,-0.3867021303888716,-0.0948115209560879
1.5435000000000016,-0.150206526085136,-0.397355620143045,-0.0884201252352847
1.546999999999997,-0.1693824585767977,-0.3962909692993285,-0.0820287295144815
1.5504999999999995,-0.1864273440517743,-0.3984202709867616,-0.0820287295144815
1.554000000000002,-0.2183860679850424,-0.3888331774055567,-0.0756355884644262
1.5574999999999974,-0.2439533961975074,-0.38350643252847,-0.0777666354811113
1.561,-0.2876302607286655,-0.3771150368076668,-0.0788312863248278
1.5645000000000024,-0.3195889846619337,-0.3685925940701784,-0.0809623333415129
1.5679999999999978,-0.3675279432264619,-0.3664615470534934,-0.0809623333415129
1.5715000000000003,-0.3930952714389268,-0.3611348021764067,-0.0841580312019145
1.5749999999999955,-0.42292294835551,-0.3568744534722885,-0.0873537290623162
1.5784999999999982,-0.4410324846742031,-0.3515477085952018,-0.0873537290623162
1.5820000000000007,-0.4431635316908882,-0.341960615013997,-0.096942567972773
1.585499999999996,-0.4399678338304866,-0.3366338701369103,-0.0980072188164895
1.5889999999999986,-0.4165315526347067,-0.3185243338182171,-0.1033339636935762
1.5925000000000011,-0.3888331774055567,-0.3100018910807288,-0.1054650107102613
1.5959999999999963,-0.3430252658577135,-0.300413052170272,-0.1043986145372928
1.599499999999999,-0.2961527034661538,-0.288694911572382,-0.1033339636935762
1.6030000000000015,-0.2311688594266489,-0.2705853752536888,-0.096942567972773
1.606499999999997,-0.1747092034538843,-0.258867234655799,-0.0916158230956863
1.6099999999999994,-0.0905494269227178,-0.2460844432141925,-0.0852244273748831
1.613500000000002,-0.0330233747769847,-0.2375620004767041,-0.083093380358198
1.616999999999997,0.041545817514473,-0.233299906443334,-0.0798976824977964
1.6204999999999998,0.0862890782185996,-0.2279731615662473,-0.0798976824977964
1.6240000000000023,0.1342280367831279,-0.2343645572870505,-0.0777666354811113
1.6274999999999975,0.1597953649955928,-0.2386266513204207,-0.0756355884644262
1.6310000000000002,0.1747092034538843,-0.2524758389349957,-0.0660484948832214
1.6344999999999956,0.180035948330971,-0.2620629325162006,-0.0564614013020165
1.637999999999998,0.1597953649955928,-0.2844345628682639,-0.0404811666707564
1.6415000000000006,0.1331616406101593,-0.2972173543098703,-0.0308940730895516
1.644999999999996,0.083093380358198,-0.3238510786953038,-0.0074577918937717
1.6484999999999983,0.0394165158270399,-0.341960615013997,-0.002131047016685
1.652000000000001,-0.0266319790561814,-0.3749839897909817,0.01598023463126
1.6554999999999964,-0.0777666354811113,-0.3909642244222418,0.0234362811957798
1.658999999999999,-0.1544686201185061,-0.4048134120368167,0.0458079115478431
1.6625000000000014,-0.2066679273871525,-0.41120480775762,0.0543303542853314
1.6659999999999968,-0.2652586303766022,-0.4090737607409349,0.0788312863248278
1.669499999999999,-0.3131975889411305,-0.4037470158638482,0.0948115209560879
1.6730000000000018,-0.3653968962097769,-0.3803107346680683,0.1139874534477496
1.6764999999999972,-0.3930952714389268,-0.3653968962097769,0.1289012919060412
1.6799999999999995,-0.425053995372195,-0.3355692192931938,0.1320969897664428
1.6835000000000022,-0.4367721359700849,-0.3110665419244454,0.1342280367831279
1.6869999999999976,-0.4442281825346047,-0.2780431671474606,0.1278348957330726
1.6905,-0.4325100419367148,-0.247149094057909,0.1118564064310645
1.6939999999999955,-0.4101401569139035,-0.2045368803704674,0.0852244273748831
1.697499999999998,-0.3771150368076668,-0.177904901314286,0.0628527970228197
1.7010000000000003,-0.3259803803827369,-0.1374237346435295,0.0266319790561814
1.704499999999996,-0.2833681666952953,-0.110790010258096,-0.0074577918937717
1.7079999999999984,-0.2077325782308691,-0.0703088435873395,-0.0468725623915597
1.711500000000001,-0.1512729222581045,-0.0500682602519613,-0.0767019846373948
1.7149999999999963,-0.0735062867769931,-0.0223716303520633,-0.1161167551351827
1.7184999999999988,-0.0117181405978899,-0.0031956978604016,-0.1480754790684509
1.7220000000000013,0.0681795418999064,0.01598023463126,-0.1821652500184041
1.7254999999999967,0.1225098961852379,0.0287630260728665,-0.2066679273871525
1.7289999999999992,0.1928187397725775,0.0458079115478431,-0.2343645572870505
1.7325000000000017,0.2418223491808223,0.0596570991624181,-0.2535404897787122
1.735999999999997,0.2950880526224372,0.069244192743623,-0.2737810731140905
1.7394999999999996,0.3313071252598236,0.0852244273748831,-0.2823035158515788
1.743000000000002,0.3622011983493752,0.0916158230956863,-0.2918906094327836
1.7464999999999975,0.3803107346680683,0.0948115209560879,-0.2961527034661538
1.75,0.3930952714389268,0.0990718696602061,-0.2993484013265554
1.7534999999999954,0.3909642244222418,0.1022693128498597,-0.2950880526224372
1.756999999999998,0.3781796876513833,0.110790010258096,-0.2918906094327836
1.7605000000000004,0.3547434064556034,0.1150521042914662,-0.2769767709744921
1.7639999999999958,0.3185243338182171,0.1320969897664428,-0.2556715367953973
1.7674999999999983,0.2801724688348938,0.1438151303643327,-0.233299906443334
1.7710000000000008,0.2173214171413259,0.1512729222581045,-0.1864273440517743
1.7744999999999962,0.1608600158393093,0.1544686201185061,-0.1480754790684509
1.7779999999999987,0.0852244273748831,0.1597953649955928,-0.0862890782185996
1.7815000000000012,0.0308940730895516,0.1555332709622227,-0.0458079115478431
1.7849999999999966,-0.0319587239332681,0.1470108282247343,0.0117181405978899
1.788499999999999,-0.0756355884644262,0.1342280367831279,0.0511346564249298
1.7920000000000016,-0.1203788491685528,0.1097253594143795,0.0948115209560879
1.795499999999997,-0.1416840833476476,0.0905494269227178,0.124639197872671
1.7989999999999997,-0.1651203645434275,0.0639174478665363,0.1565979218059392
1.802500000000002,-0.1683160624038291,0.0426122136874415,0.1725781564371993
1.8059999999999972,-0.1640557136997109,0.0213052341790947,0.1906876927558924
1.8095,-0.1608600158393093,0.002131047016685,0.1992101354933808
1.8130000000000024,-0.150206526085136,-0.0149138384582915,0.2077325782308691
1.8164999999999976,-0.1448797812080492,-0.0181095363186931,0.2119946722642392
1.8200000000000005,-0.1438151303643327,-0.0266319790561814,0.205601531214184
1.823499999999996,-0.1544686201185061,-0.0255673282124649,0.2024058333537824
1.8269999999999984,-0.1715135055934827,-0.0223716303520633,0.1970790884766957
1.830500000000001,-0.1906876927558924,-0.01598023463126,0.1832316461913727
1.833999999999996,-0.2162550209683574,-0.0095870935812048,0.1683160624038291
1.8374999999999984,-0.2311688594266489,-0.0031956978604016,0.1576643179789077
1.841000000000001,-0.2524758389349957,0.0149138384582915,0.136357338470561
1.8444999999999965,-0.2737810731140905,0.029827676916583,0.1235745470289545
1.847999999999999,-0.2950880526224372,0.0500682602519613,0.1075943123976944
1.8515000000000013,-0.3068061932203272,0.0585907029894496,0.0958761717998045
1.8549999999999969,-0.3174579376452486,0.0756355884644262,0.096942567972773
1.8584999999999996,-0.3153286359578155,0.0820287295144815,0.1075943123976944
1.8620000000000017,-0.3068061932203272,0.0809623333415129,0.1214435000122694
1.8654999999999973,-0.2844345628682639,0.0862890782185996,0.1459461773810178
1.869,-0.2620629325162006,0.0852244273748831,0.1683160624038291
1.8725000000000025,-0.2247774637058457,0.0745709376207097,0.2024058333537824
1.8759999999999977,-0.1906876927558924,0.0681795418999064,0.2311688594266489
1.8795,-0.1406194325039311,0.0511346564249298,0.2684543282370038
1.882999999999996,-0.1075943123976944,0.0266319790561814,0.2972173543098703
1.886499999999998,-0.055395005129048,0.0,0.3206536355056502
1.8900000000000008,-0.0181095363186931,-0.0170448854749766,0.3440916620306821
1.893499999999996,0.0213052341790947,-0.0458079115478431,0.3717882919305801
1.8969999999999985,0.0511346564249298,-0.069244192743623,0.3845728287014385
1.900500000000001,0.083093380358198,-0.0937468701123714,0.4016177141764152
1.9039999999999964,0.096942567972773,-0.1129210572747811,0.4090737607409349
1.9074999999999989,0.1129210572747811,-0.1331616406101593,0.4101401569139035
1.9110000000000011,0.1214435000122694,-0.1576643179789077,0.4026823650201317
1.9144999999999968,0.110790010258096,-0.1842962970350892,0.3781796876513833
1.9179999999999997,0.1065296615539778,-0.2034722295267509,0.3653968962097769
1.9215000000000015,0.083093380358198,-0.2343645572870505,0.3334381722765087
1.9249999999999967,0.0660484948832214,-0.2546051406224288,0.3121311927681619
1.9285,0.041545817514473,-0.2769767709744921,0.286565609884949
1.9320000000000024,0.0266319790561814,-0.2929570056057522,0.2663250265495707
1.9354999999999976,0.0063913957208032,-0.3110665419244454,0.2439533961975074
1.939,0.0,-0.3195889846619337,0.2311688594266489
1.9424999999999957,-0.0053267448770866,-0.3313071252598236,0.2109282760912707
1.945999999999998,-0.002131047016685,-0.3376985209806268,0.1885583910684593
1.9495000000000005,0.002131047016685,-0.3408942188410284,0.1587289688226243
1.952999999999996,0.0149138384582915,-0.3462209637181151,0.1320969897664428
1.9564999999999984,0.0319587239332681,-0.3494166615785167,0.0926804739394028
1.9600000000000009,0.0436768645311581,-0.3483520107348002,0.0681795418999064
1.963499999999996,0.0543303542853314,-0.3387649171535954,0.0319587239332681
1.9669999999999987,0.0617864008498512,-0.3270467765557054,0.0095870935812048
1.9705000000000013,0.0500682602519613,-0.3153286359578155,-0.013849187614575
1.9739999999999969,0.0362208179666383,-0.300413052170272,-0.0213052341790947
1.9774999999999991,0.0063913957208032,-0.2876302607286655,-0.0234362811957798
1.9810000000000016,-0.0191759324916617,-0.2833681666952953,-0.01598023463126
1.984499999999997,-0.0490036094082447,-0.2769767709744921,0.0
1.9879999999999995,-0.0767019846373948,-0.2791078179911772,0.0170448854749766
1.991500000000002,-0.1043986145372928,-0.2854992137119804,0.0372854688103548
1.9949999999999972,-0.1203788491685528,-0.2929570056057522,0.0500682602519613
1.9985,-0.136357338470561,-0.3068061932203272,0.0617864008498512
2.0020000000000024,-0.1480754790684509,-0.3110665419244454,0.069244192743623
2.005499999999998,-0.1587289688226243,-0.3153286359578155,0.0777666354811113
2.0090000000000003,-0.1597953649955928,-0.3195889846619337,0.0873537290623162
2.012499999999996,-0.1597953649955928,-0.3227846825223353,0.1001382658331746
2.0159999999999982,-0.1512729222581045,-0.3281114273994219,0.1139874534477496
2.0195000000000007,-0.1331616406101593,-0.3366338701369103,0.1235745470289545
2.022999999999996,-0.1171831513081512,-0.3494166615785167,0.1331616406101593
2.026499999999998,-0.0884201252352847,-0.3685925940701784,0.1438151303643327
2.030000000000001,-0.0681795418999064,-0.38350643252847,0.1374237346435295
2.0334999999999965,-0.0447432607041266,-0.4101401569139035,0.1171831513081512
2.036999999999999,-0.0351544217936697,-0.4293143440763132,0.1022693128498597
2.040500000000001,-0.0287630260728665,-0.4580773701491797,0.0724398906040246
2.043999999999997,-0.0362208179666383,-0.4719265577637547,0.0532657034416149
2.0474999999999994,-0.0500682602519613,-0.4825800475179281,0.0213052341790947
2.051000000000002,-0.0639174478665363,-0.4793843496575265,-0.0031956978604016
2.0544999999999973,-0.0798976824977964,-0.4761869064678729,-0.0362208179666383
2.058,-0.0926804739394028,-0.4697955107470696,-0.0596570991624181
2.0615000000000023,-0.0926804739394028,-0.4506213235846599,-0.0894847760790012
2.0649999999999977,-0.0820287295144815,-0.4335764381096833,-0.1097253594143795
2.0685,-0.0500682602519613,-0.4026823650201317,-0.124639197872671
2.071999999999996,-0.0117181405978899,-0.3824417816847534,-0.1235745470289545
2.075499999999998,0.0671131457269379,-0.3568744534722885,-0.1118564064310645
2.0790000000000006,0.136357338470561,-0.3398295679973119,-0.0948115209560879
2.082499999999996,0.2343645572870505,-0.3238510786953038,-0.0767019846373948
2.0859999999999985,0.3014794483432405,-0.3131975889411305,-0.0671131457269379
2.089500000000001,0.3877685265618402,-0.3153286359578155,-0.0585907029894496
2.0929999999999964,0.4346410889533998,-0.3206536355056502,-0.0639174478665363
2.096499999999999,0.480449000501243,-0.3227846825223353,-0.0649838440395048
2.1000000000000014,0.4953628389595346,-0.3217200316786187,-0.0724398906040246
2.103499999999997,0.503885281697023,-0.3110665419244454,-0.0841580312019145
2.1069999999999998,0.4953628389595346,-0.302544099186957,-0.0990718696602061
2.110500000000002,0.4729912086074713,-0.2791078179911772,-0.1129210572747811
2.113999999999997,0.4399678338304866,-0.2546051406224288,-0.1161167551351827
2.1175,0.3994866671597301,-0.2109282760912707,-0.136357338470561
2.121000000000002,0.3547434064556034,-0.1821652500184041,-0.1555332709622227
2.1244999999999976,0.2908259585890671,-0.1395530363309626,-0.1789695521580025
2.128,0.2364956043037356,-0.1203788491685528,-0.205601531214184
2.1314999999999955,0.1565979218059392,-0.0852244273748831,-0.2354309534600191
2.134999999999998,0.0948115209560879,-0.055395005129048,-0.2599318854995155
2.1385000000000005,0.013849187614575,-0.0085224427374883,-0.2972173543098703
2.141999999999996,-0.0511346564249298,0.0245026773687483,-0.3270467765557054
2.1454999999999984,-0.1235745470289545,0.0777666354811113,-0.3526141047681703
2.149000000000001,-0.1821652500184041,0.1161167551351827,-0.3664615470534934
2.1524999999999963,-0.2556715367953973,0.1715135055934827,-0.3792460838243518
2.155999999999999,-0.3153286359578155,0.2141239739516723,-0.3898978282492732
2.1595000000000013,-0.3898978282492732,0.2833681666952953,-0.3941599222826434
2.1629999999999967,-0.4538170214450616,0.3259803803827369,-0.4005513180034466
2.166499999999999,-0.5550199381219528,0.3877685265618402,-0.3952245731263599
2.1700000000000017,-0.6359822714634658,0.425053995372195,-0.38350643252847
2.173499999999997,-0.7520990265986485,0.4729912086074713,-0.3568744534722885
2.177,-0.836258803129815,0.5113430735907947,-0.3291760782431385
2.180500000000002,-0.9481134642316276,0.5560845889656694,-0.2716500260974054
2.183999999999997,-1.0130973082711323,0.5837829641948193,-0.2269085107225308
2.1875,-1.0706233604168656,0.6210684330051742,-0.1629910628559944
2.1909999999999954,-1.095126037785614,0.6370469223071823,-0.1139874534477496
2.194499999999998,-1.0844725480314406,0.6487650629050722,-0.055395005129048
2.1980000000000004,-1.0567741728022906,0.6487650629050722,-0.0191759324916617
2.201499999999996,-0.9907256779190692,0.6434400633572375,0.0181095363186931
2.2049999999999983,-0.9300039279129344,0.6359822714634658,0.0426122136874415
2.208500000000001,-0.8351924069568466,0.630655526586379,0.0564614013020165
2.211999999999996,-0.7435765838611602,0.614677037284371,0.0596570991624181
2.2154999999999987,-0.6796591359946239,0.5997614534968274,0.0671131457269379
2.219000000000001,-0.628524479569694,0.5859140112115044,0.0671131457269379
2.2224999999999966,-0.5603466829990394,0.5773915684740161,0.0649838440395048
2.225999999999999,-0.5049499325407395,0.5678027295635593,0.0681795418999064
2.2295000000000016,-0.4655351620429515,0.5646070317031576,0.0713752397603081
2.232999999999997,-0.4218582975117934,0.5433017975240628,0.0745709376207097
2.2364999999999995,-0.3877685265618402,0.5209301671719996,0.0703088435873395
2.240000000000002,-0.3643322453660603,0.4836446983616446,0.055395005129048
2.2434999999999974,-0.3600701513326901,0.4474238803950063,0.0330233747769847
2.247,-0.3984202709867616,0.3877685265618402,-0.002131047016685
2.2505000000000024,-0.4570127193054631,0.3387649171535954,-0.029827676916583
2.253999999999998,-0.5709984274239609,0.2705853752536888,-0.0703088435873395
2.2575000000000003,-0.6892479749050807,0.2290395577392158,-0.0980072188164895
2.260999999999996,-0.8628907821859965,0.1789695521580025,-0.1299659427497577
2.264499999999998,-1.0130973082711323,0.150206526085136,-0.1512729222581045
2.2680000000000007,-1.2218962826749702,0.1225098961852379,-0.1704471094205142
2.271499999999996,-1.3784942044809092,0.1086607085706629,-0.1789695521580025
2.2749999999999986,-1.57770433997429,0.1012029166768912,-0.1853609478788057
2.278500000000001,-1.7343040071094815,0.0990718696602061,-0.1896230419121759
2.2819999999999965,-1.9239270490216571,0.0873537290623162,-0.180035948330971
2.285499999999999,-2.053892991771415,0.0873537290623162,-0.1768385051413174
2.289000000000001,-2.2030348670128346,0.0873537290623162,-0.1480754790684509
2.292499999999997,-2.2903885960751507,0.0884201252352847,-0.1139874534477496
2.296,-2.373481976433349,0.0926804739394028,-0.0490036094082447
2.299500000000002,-2.3969182576291286,0.0948115209560879,0.0117181405978899
2.3029999999999973,-2.374546627277065,0.0894847760790012,0.1065296615539778
2.3065,-2.321282669164702,0.0841580312019145,0.1842962970350892
2.3100000000000023,-2.2115573097503227,0.0681795418999064,0.2897613077453506
2.3134999999999977,-2.106092299040061,0.0532657034416149,0.3515477085952018
2.317,-1.947363330217437,0.0266319790561814,0.4186608543221398
2.320499999999996,-1.8333758767696875,0.0,0.452750625272093
2.323999999999998,-1.6810383036678664,-0.0191759324916617,0.480449000501243
2.327500000000001,-1.5883578297284635,-0.0340897709499532,0.4932317919428495
2.330999999999996,-1.4850238660348871,-0.0543303542853314,0.492167141099133
2.3344999999999985,-1.4317599079225245,-0.0607217500061347,0.4836446983616446
2.338000000000001,-1.3880812980621142,-0.0798976824977964,0.4719265577637547
2.3414999999999964,-1.3827562985142796,-0.0905494269227178,0.4580773701491797
2.344999999999999,-1.4040615326933743,-0.1182478021518678,0.4346410889533998
2.3485000000000014,-1.446673746380816,-0.1395530363309626,0.4101401569139035
2.3519999999999968,-1.527636079722329,-0.1704471094205142,0.3792460838243518
2.3554999999999997,-1.606467366047157,-0.1970790884766957,0.355809802628572
2.3590000000000018,-1.7172591216345048,-0.2322352555996175,0.3153286359578155
2.362499999999997,-1.8120706425905928,-0.2556715367953973,0.2854992137119804
2.366,-1.9249916998653736,-0.2897613077453506,0.2460844432141925
2.369500000000002,-2.0059540332068866,-0.316393286801532,0.2151903701246408
2.3729999999999976,-2.093307762269203,-0.3398295679973119,0.1981454846496642
2.3765,-2.14976916357122,-0.3472873598910836,0.1906876927558924
2.3799999999999955,-2.220078007158559,-0.3504830577514853,0.1938833906162941
2.383499999999998,-2.257363475968914,-0.3494166615785167,0.1981454846496642
2.3870000000000005,-2.3053024345334423,-0.341960615013997,0.2205171150017275
2.390499999999996,-2.3436525541875133,-0.3376985209806268,0.2386266513204207
2.3939999999999984,-2.3777423251374668,-0.3089354949077603,0.2759121201307756
2.397500000000001,-2.395853606785412,-0.2854992137119804,0.314262239784847
2.400999999999996,-2.4065053512103334,-0.247149094057909,0.3771150368076668
2.4044999999999987,-2.395853606785412,-0.2130593231079557,0.4261186462159115
2.4080000000000013,-2.358568137975057,-0.1811005991746876,0.4825800475179281
2.4114999999999966,-2.3180869713043006,-0.1470108282247343,0.5326483077698895
2.414999999999999,-2.2328625439294174,-0.1161167551351827,0.5923054069323076
2.4185000000000016,-2.1593562571524245,-0.0841580312019145,0.6327865736030641
2.421999999999997,-2.049630897738045,-0.0468725623915597,0.6785944851509074
2.4254999999999995,-1.9601461216590437,-0.013849187614575,0.7073575112237738
2.429000000000002,-1.8312448297530024,0.0170448854749766,0.7318584432632703
2.432499999999997,-1.7428264498469697,0.0394165158270399,0.7478386778945303
2.436,-1.6330993451033382,0.0660484948832214,0.7595568184924202
2.4395000000000024,-1.5659861993764004,0.0884201252352847,0.7691439120736251
2.442999999999998,-1.502068751509864,0.1139874534477496,0.7606214693361367
2.4465000000000003,-1.476501423297399,0.1267702448893561,0.7510343757549319
2.449999999999996,-1.4615875848391076,0.1448797812080492,0.7339894902799553
2.4534999999999982,-1.4669143297161942,0.1534022239455376,0.7030954171904037
2.4570000000000007,-1.492481657928659,0.1715135055934827,0.6604849488322142
2.460499999999996,-1.5159179391244388,0.1864273440517743,0.6210684330051742
2.463999999999998,-1.5404188711639353,0.219450718828759,0.5763251723010476
2.467500000000001,-1.563855152359715,0.2514094427620272,0.5401060996636612
2.4709999999999965,-1.599011319482637,0.2918906094327836,0.4847093492053612
2.474499999999999,-1.6288389963992198,0.3174579376452486,0.4559463231324946
2.478000000000001,-1.6714512100866616,0.3579391043160051,0.4197272504951083
2.481499999999997,-1.7129970276011346,0.38350643252847,0.3898978282492732
2.4849999999999994,-1.7886343613948128,0.4207919013388249,0.3568744534722885
2.488500000000002,-1.8557475071217504,0.4431635316908882,0.3334381722765087
2.4919999999999973,-1.952690075094524,0.4761869064678729,0.314262239784847
2.4955,-2.0315213614193515,0.4985585368199362,0.3100018910807288
2.4990000000000023,-2.129528580235841,0.5315836569261729,0.3238510786953038
2.5024999999999977,-2.1966417259627797,0.5518242402615512,0.3483520107348002
2.506,-2.2616255700022845,0.5709984274239609,0.3941599222826434
2.509499999999996,-2.292519643091836,0.5741958706136145,0.4261186462159115
2.512999999999998,-2.295715340952237,0.5752605214573311,0.4634041150262664
2.5165000000000006,-2.273343710600174,0.5688691257365278,0.4836446983616446
2.519999999999996,-2.208359866560669,0.5518242402615512,0.4900360940824479
2.5234999999999985,-2.132724278096243,0.5251905158761178,0.4868403962220463
2.527000000000001,-2.014476475944375,0.4836446983616446,0.4612730680095813
2.5304999999999964,-1.9111425122507988,0.4399678338304866,0.4452945787075733
2.533999999999999,-1.7705230797468676,0.3792460838243518,0.4133358547743051
2.5375000000000014,-1.6735822571033467,0.3313071252598236,0.3930952714389268
2.540999999999997,-1.5659861993764004,0.2652586303766022,0.3590055004889736
2.5444999999999998,-1.512722241264037,0.2141239739516723,0.3355692192931938
2.548000000000002,-1.490350610911974,0.1491418752414194,0.2876302607286655
2.551499999999997,-1.5191136369848404,0.0926804739394028,0.2343645572870505
2.555,-1.6096630639075584,0.0266319790561814,0.1651203645434275
2.558500000000002,-1.7076702827240478,-0.0106534897541733,0.1054650107102613
2.5619999999999976,-1.866400996875924,-0.055395005129048,0.02769837522915
2.5655,-1.9953005434527131,-0.0735062867769931,-0.0255673282124649
2.5689999999999955,-2.1827925383482043,-0.0862890782185996,-0.0990718696602061
2.572499999999998,-2.38413372085827,-0.0745709376207097,-0.1736428072809158
2.5760000000000005,-2.546060132870548,-0.0628527970228197,-0.2237128128621291
2.579499999999996,-2.775097945280512,-0.0394165158270399,-0.2876302607286655
2.5829999999999984,-2.961525289332286,-0.0234362811957798,-0.3366338701369103
2.586500000000001,-3.2321106645859747,0.0117181405978899,-0.3867021303888716
2.5899999999999963,-3.4462363838668995,0.0479389585645282,-0.4122694586013365
2.593499999999999,-3.7381269932996832,0.0926804739394028,-0.4239875991992265
2.5970000000000013,-3.945859571530552,0.1352926876268444,-0.4122694586013365
2.6004999999999967,-4.183421572007256,0.1864273440517743,-0.3707236410868635
2.603999999999999,-4.331497051075707,0.2162550209683574,-0.3366338701369103
2.6075000000000017,-4.495552764775418,0.2535404897787122,-0.2844345628682639
2.610999999999997,-4.582908239166986,0.2716500260974054,-0.2535404897787122
2.6145,-4.657479176787696,0.2833681666952953,-0.2343645572870505
2.618000000000002,-4.6883715045479954,0.286565609884949,-0.2279731615662473
2.621499999999997,-4.689437900720964,0.2854992137119804,-0.2418223491808223
2.625,-4.6638705725085,0.2854992137119804,-0.2620629325162006
2.6284999999999954,-4.607409171206482,0.2780431671474606,-0.2844345628682639
2.631999999999998,-4.552014166077434,0.2716500260974054,-0.2982837504828389
2.6355000000000004,-4.461462993825465,0.2641939795328856,-0.302544099186957
2.638999999999996,-4.386892056204755,0.2556715367953973,-0.2940216564494687
2.6424999999999983,-4.293146931421636,0.2450180470412239,-0.2844345628682639
2.646000000000001,-4.219640644644643,0.2396913021641372,-0.2780431671474606
2.649499999999996,-4.128024821548957,0.2290395577392158,-0.274847469287059
2.6529999999999987,-4.0577159779616165,0.2151903701246408,-0.2844345628682639
2.656500000000001,-3.969295852726332,0.1885583910684593,-0.3100018910807288
2.6599999999999966,-3.90431375401608,0.1640557136997109,-0.3366338701369103
2.663499999999999,-3.8393299099765743,0.136357338470561,-0.3600701513326901
2.6670000000000016,-3.810566883903708,0.1289012919060412,-0.3707236410868635
2.670499999999997,-3.816958279624511,0.1331616406101593,-0.3579391043160051
2.6739999999999995,-3.8393299099765743,0.150206526085136,-0.3313071252598236
2.677500000000002,-3.901118056155677,0.1683160624038291,-0.2684543282370038
2.6809999999999974,-3.969295852726332,0.180035948330971,-0.219450718828759
2.6845,-4.069434118559506,0.1992101354933808,-0.1512729222581045
2.6880000000000024,-4.162114592498909,0.2151903701246408,-0.1022693128498597
2.691499999999998,-4.296342629282037,0.2428870000245388,-0.0490036094082447
2.6950000000000003,-4.410330082729787,0.2663250265495707,-0.0181095363186931
2.698499999999996,-4.58929963488779,0.288694911572382,0.0181095363186931
2.701999999999998,-4.726723369531319,0.3057397970473587,0.0426122136874415
2.7055000000000007,-4.937651645622591,0.3227846825223353,0.0745709376207097
2.708999999999996,-5.0953159636014975,0.3270467765557054,0.1065296615539778
2.7124999999999986,-5.288134703374075,0.3195889846619337,0.1683160624038291
2.716000000000001,-5.410642854230061,0.3046751462036421,0.2279731615662473
2.7194999999999965,-5.52036821364444,0.2695207244099723,0.3302424744161071
2.722999999999999,-5.556589031611079,0.2290395577392158,0.4058780628805333
2.726500000000001,-5.55552263543811,0.1715135055934827,0.5156034222949128
2.729999999999997,-5.5235639115048425,0.1342280367831279,0.5848476150385359
2.7335,-5.451124020900817,0.1001382658331746,0.6604849488322142
2.737000000000002,-5.387206573034281,0.0884201252352847,0.7030954171904037
2.7404999999999973,-5.299852843971965,0.0703088435873395,0.7425119330174437
2.744,-5.23486899993246,0.0639174478665363,0.7542300736153336
2.7475000000000023,-5.158168760624317,0.0543303542853314,0.7520990265986485
2.7509999999999977,-5.102772010166017,0.0575260521457331,0.7425119330174437
2.7545,-5.029267468718277,0.0617864008498512,0.7169446048049787
2.757999999999996,-4.979197463137062,0.0767019846373948,0.6828548338550254
2.761499999999998,-4.898235129795549,0.1033339636935762,0.626395177882261
2.765000000000001,-4.831121984068613,0.124639197872671,0.5741958706136145
2.768499999999996,-4.715003483604177,0.1619246666830259,0.4889714432387313
2.7719999999999985,-4.611669519910601,0.1896230419121759,0.4239875991992265
2.775500000000001,-4.446549155367173,0.2322352555996175,0.3323735214327921
2.7789999999999964,-4.313387514757014,0.2620629325162006,0.2716500260974054
2.782499999999999,-4.116306680951067,0.2972173543098703,0.2002765316663493
2.7860000000000014,-3.9746225976034175,0.3281114273994219,0.1640557136997109
2.7894999999999968,-3.798848743305818,0.3728546881035486,0.1171831513081512
2.7929999999999997,-3.6955147796122416,0.4048134120368167,0.0852244273748831
2.7965000000000018,-3.593247212091634,0.4506213235846599,0.0468725623915597
2.799999999999997,-3.5474393005437905,0.4761869064678729,0.0095870935812048
2.8035,-3.526132321035444,0.5156034222949128,-0.0245026773687483
2.807000000000002,-3.525067670191727,0.5443664483677794,-0.0426122136874415
2.8104999999999976,-3.5463729043708225,0.5709984274239609,-0.041545817514473
2.814,-3.5783316283040905,0.586978662055221,-0.0181095363186931
2.8174999999999955,-3.639055123639477,0.5933700577760241,0.02769837522915
2.820999999999998,-3.7093639672268166,0.6018925005135125,0.069244192743623
2.8245000000000005,-3.8393299099765743,0.6178727351447726,0.1012029166768912
2.827999999999996,-3.971426899743017,0.6381133184801508,0.1171831513081512
2.8314999999999984,-4.177030176286453,0.6562228547988439,0.1139874534477496
2.835000000000001,-4.350672983567369,0.6849858808717105,0.0980072188164895
2.838499999999996,-4.580777192150301,0.7244023966987505,0.0617864008498512
2.8419999999999987,-4.742701858833327,0.7489033287382468,0.0372854688103548
2.8455000000000013,-4.92167141099133,0.7819284488444836,0.0
2.8489999999999966,-5.012222583243299,0.8000379851631767,-0.0191759324916617
2.852499999999999,-5.084662473847325,0.8319967090964449,-0.055395005129048
2.8560000000000016,-5.102772010166017,0.8575640373089098,-0.0862890782185996
2.859499999999997,-5.065486541355663,0.8959141569629812,-0.1555332709622227
2.8629999999999995,-5.006895838366213,0.928939277069218,-0.2173214171413259
2.866500000000002,-4.862016057158163,0.958766953985801,-0.3131975889411305
2.869999999999997,-4.709678484056343,0.9768764903044942,-0.3920288752659583
2.8735,-4.442288806663056,0.9800739334941478,-0.4900360940824479
2.876999999999996,-4.205793202359319,0.9747471886170612,-0.5571509851386378
2.880499999999998,-3.865961889032756,0.942788464683793,-0.630655526586379
2.8840000000000003,-3.622010238164501,0.9278728808962494,-0.6828548338550254
2.887499999999996,-3.336509279123268,0.917221136471328,-0.7425119330174437
2.8909999999999982,-3.175651008613211,0.9065676467171546,-0.7851241467048852
2.8945000000000007,-3.031834132919626,0.8948495061192646,-0.8298656620797599
2.897999999999996,-2.9679166850530896,0.8841960163650913,-0.861824386013028
2.901499999999998,-2.935957961119821,0.8543683394485082,-0.8927184591025796
2.905000000000001,-2.9423493568406247,0.8085604279006651,-0.9001762509963515
2.9084999999999965,-2.9764391277905777,0.7222713496820654,-0.8841960163650913
2.911999999999999,-3.031834132919626,0.6402426201675839,-0.8607597351693115
2.915500000000001,-3.1511483312444626,0.5443664483677794,-0.8213432193422715
2.918999999999997,-3.275787529117133,0.480449000501243,-0.7979069381464917
2.9224999999999994,-3.5037624360126327,0.4016177141764152,-0.7446429800341288
2.926000000000002,-3.7082993163831,0.3536787556118869,-0.7073575112237738
2.9294999999999973,-4.008712368553372,0.2876302607286655,-0.644504714200954
2.933,-4.317647863461133,0.2226464166891606,-0.5656734278761262
2.9365000000000023,-4.5413606763232615,0.1640557136997109,-0.4985585368199362
2.9399999999999977,-4.827926286208211,0.0724398906040246,-0.4048134120368167
2.9435,-5.038854562299481,0.0170448854749766,-0.3398295679973119
2.946999999999996,-5.308375286709453,-0.0564614013020165,-0.2641939795328856
2.950499999999998,-5.504389724342433,-0.1043986145372928,-0.2162550209683574
2.9540000000000006,-5.750472422227373,-0.1406194325039311,-0.1864273440517743
2.957499999999996,-5.912398834239651,-0.152337573101821,-0.1832316461913727
2.9609999999999985,-6.074323500922676,-0.1427504795206162,-0.2002765316663493
2.964500000000001,-6.148894438543387,-0.1310323389227262,-0.2215817658454441
2.9679999999999964,-6.152090136403789,-0.0948115209560879,-0.2652586303766022
2.971499999999999,-6.090301990224685,-0.0756355884644262,-0.300413052170272
2.9750000000000014,-5.912398834239651,-0.0468725623915597,-0.3451563128743986
2.978499999999997,-5.717449047450388,-0.0319587239332681,-0.3824417816847534
2.9819999999999998,-5.396793666615486,-0.0191759324916617,-0.4346410889533998
2.985500000000002,-5.137926431959688,-0.0117181405978899,-0.4729912086074713
2.988999999999997,-4.785314072520769,0.002131047016685,-0.517734469311598
2.9925,-4.5253804416920005,0.0074577918937717,-0.5454328445407479
2.996000000000002,-4.204726806186351,0.0202405833353782,-0.5709984274239609
2.9994999999999976,-3.9746225976034175,0.0362208179666383,-0.5805872663344177
3.003,-3.628401633885304,0.0585907029894496,-0.6018925005135125
3.0064999999999955,-3.4963046441188608,0.0628527970228197,-0.6072192453905992
3.009999999999998,-3.260873690658842,0.0788312863248278,-0.6104149432510009
3.0135000000000005,-3.1159939094507925,0.0894847760790012,-0.6061545945468827
3.016999999999996,-2.966852034209373,0.0980072188164895,-0.5816519171781342
3.0204999999999984,-2.9008035393261515,0.0905494269227178,-0.5603466829990394
3.024000000000001,-2.880562955990773,0.0788312863248278,-0.5113430735907947
3.0274999999999963,-2.9114570290803248,0.0713752397603081,-0.4729912086074713
3.030999999999999,-3.0009418051593264,0.0617864008498512,-0.42292294835551
3.0345000000000013,-3.1000136748195324,0.0532657034416149,-0.3813771308410369
3.0379999999999967,-3.2427641543401484,0.041545817514473,-0.3227846825223353
3.041499999999999,-3.34396707101704,0.0223716303520633,-0.2791078179911772
3.0450000000000017,-3.477128711627199,0.0053267448770866,-0.2034722295267509
3.048499999999997,-3.567679883879169,-0.0085224427374883,-0.1416840833476476
3.052,-3.6742095454331465,-0.0287630260728665,-0.0777666354811113
3.055500000000002,-3.742387342003801,-0.0585907029894496,-0.0245026773687483
3.058999999999997,-3.811633280076676,-0.1097253594143795,0.029827676916583
3.0625,-3.853179097591149,-0.1416840833476476,0.0596570991624181
3.0659999999999954,-3.865961889032756,-0.1821652500184041,0.0980072188164895
3.069499999999998,-3.8521144467474326,-0.2130593231079557,0.124639197872671
3.0730000000000004,-3.793521998428731,-0.2482137449016255,0.1565979218059392
3.076499999999996,-3.726408852701793,-0.2769767709744921,0.1864273440517743
3.0799999999999983,-3.6092257013936417,-0.3238510786953038,0.2301042085829324
3.083500000000001,-3.526132321035444,-0.3664615470534934,0.2567361876391139
3.086999999999996,-3.412146612916946,-0.4261186462159115,0.2876302607286655
3.0904999999999987,-3.3290532325587483,-0.4634041150262664,0.300413052170272
3.094000000000001,-3.227850315881857,-0.5156034222949128,0.3036087500306735
3.0974999999999966,-3.1522129820881784,-0.5464974953844645,0.2972173543098703
3.100999999999999,-3.0456833205342004,-0.5805872663344177,0.2791078179911772
3.1045000000000016,-2.9583295914718843,-0.6040235475301975,0.2631275833599171
3.107999999999997,-2.832623997426245,-0.630655526586379,0.2418223491808223
3.1114999999999995,-2.735683174782724,-0.642373667184269,0.2290395577392158
3.115000000000002,-2.6142396747704546,-0.6402426201675839,0.2205171150017275
3.1184999999999974,-2.527950596551855,-0.6349176206197492,0.2226464166891606
3.122,-2.433139075595767,-0.6210684330051742,0.233299906443334
3.1255000000000024,-2.370286278572947,-0.6157416881280875,0.2418223491808223
3.128999999999998,-2.298911038812639,-0.5997614534968274,0.2695207244099723
3.1325000000000003,-2.245645335371024,-0.600827849669796,0.286565609884949
3.135999999999996,-2.188119283225291,-0.5912390107593392,0.3046751462036421
3.139499999999998,-2.147638116554534,-0.5827165680218508,0.3217200316786187
3.1430000000000007,-2.094374158442172,-0.5582156359823544,0.3387649171535954
3.146499999999996,-2.059219736648502,-0.5369104018032596,0.3472873598910836
3.1499999999999986,-2.0166075229610603,-0.4932317919428495,0.369657244913895
3.153500000000001,-1.992104845592312,-0.4687308599033531,0.3909642244222418
3.1569999999999965,-1.9761263562903035,-0.4335764381096833,0.4175962034784233
3.160499999999999,-1.975059960117335,-0.4090737607409349,0.43890318298677
3.164000000000001,-1.9835824028548237,-0.3845728287014385,0.4655351620429515
3.167499999999997,-2.0027583353464853,-0.3717882919305801,0.4783179534845579
3.171,-2.019803220821462,-0.3440916620306821,0.4740576047804398
3.174500000000002,-2.034717059279753,-0.3206536355056502,0.4634041150262664
3.1779999999999973,-2.0315213614193515,-0.2833681666952953,0.4420988808471717
3.1815,-2.015541126788092,-0.2514094427620272,0.4261186462159115
3.1850000000000023,-1.9644082156924136,-0.205601531214184,0.4058780628805333
3.1884999999999977,-1.9068821635466808,-0.1747092034538843,0.4026823650201317
3.192,-1.795025757115616,-0.138488385487246,0.4048134120368167
3.195499999999996,-1.6948874912824414,-0.1182478021518678,0.4005513180034466
3.198999999999998,-1.5297671267390138,-0.0916158230956863,0.3994866671597301
3.202500000000001,-1.3816899023413112,-0.0735062867769931,0.3813771308410369
3.205999999999996,-1.1505210429146622,-0.0521993072686464,0.3462209637181151
3.2094999999999985,-0.9577023031420844,-0.0308940730895516,0.3121311927681619
3.213000000000001,-0.6626142505196473,-0.0031956978604016,0.2556715367953973
3.2164999999999964,-0.4357057397971164,0.0170448854749766,0.2173214171413259
3.219999999999999,-0.1171831513081512,0.0500682602519613,0.180035948330971
3.2235000000000014,0.1203788491685528,0.0649838440395048,0.1587289688226243
3.2269999999999968,0.4303807402492817,0.0820287295144815,0.1512729222581045
3.2304999999999997,0.6615495996759307,0.0756355884644262,0.1534022239455376
3.2340000000000018,0.9545066052816829,0.0585907029894496,0.1565979218059392
3.237499999999997,1.1505210429146622,0.0362208179666383,0.1534022239455376
3.241,1.383820949357996,0.0,0.1374237346435295
3.244500000000002,1.5159179391244388,-0.0202405833353782,0.1065296615539778
3.2479999999999976,1.6533416737679685,-0.0404811666707564,0.0596570991624181
3.2515,1.7172591216345048,-0.0468725623915597,0.0191759324916617
3.2549999999999955,1.7588049391489775,-0.055395005129048,-0.0362208179666383
3.258499999999998,1.763067033182348,-0.0500682602519613,-0.0713752397603081
3.2620000000000005,1.7545445904448598,-0.0575260521457331,-0.1086607085706629
3.265499999999996,1.7332376109365126,-0.069244192743623,-0.1225098961852379
3.2689999999999984,1.7012788870032447,-0.1022693128498597,-0.1406194325039311
3.272500000000001,1.6874296993886695,-0.1214435000122694,-0.1480754790684509
3.275999999999996,1.6693201630699763,-0.1438151303643327,-0.1629910628559944
3.2794999999999987,1.6671891160532917,-0.1512729222581045,-0.1864273440517743
3.2830000000000013,1.6927564442657563,-0.1459461773810178,-0.2226464166891606
3.2864999999999966,1.7364333087969146,-0.1320969897664428,-0.2418223491808223
3.289999999999999,1.8429629703508923,-0.1235745470289545,-0.2450180470412239
3.2935000000000016,1.9622771686757288,-0.1193124529955843,-0.2343645572870505
3.296999999999997,2.166814049046196,-0.1257055940456395,-0.2098636252475541
3.3004999999999995,2.362828486679175,-0.1491418752414194,-0.1821652500184041
3.304000000000002,2.662176888005731,-0.1864273440517743,-0.1534022239455376
3.307499999999997,2.9934840132655545,-0.2503447919183106,-0.1352926876268444
3.311,3.24169775816718,-0.2972173543098703,-0.1342280367831279
3.314499999999996,3.569809185566602,-0.3600701513326901,-0.138488385487246
3.317999999999998,3.7977840924621016,-0.4026823650201317,-0.152337573101821
3.3215000000000003,4.077956561296995,-0.4516859744283765,-0.1747092034538843
3.324999999999996,4.2590571604716825,-0.492167141099133,-0.1811005991746876
3.3284999999999982,4.452940551087977,-0.5539552872782363,-0.1821652500184041
3.3320000000000007,4.553078816921151,-0.6125459902676859,-0.1789695521580025
3.335499999999996,4.583972890010703,-0.6775280889779387,-0.1885583910684593
3.338999999999998,4.520055442144167,-0.7030954171904037,-0.2109282760912707
3.342500000000001,4.314452165600731,-0.725467047542467,-0.2396913021641372
3.3459999999999965,4.081152259157396,-0.7105532090841755,-0.2695207244099723
3.349499999999999,3.6997768736456114,-0.6658099483800488,-0.3036087500306735
3.353000000000001,3.388710331721166,-0.6157416881280875,-0.314262239784847
3.356499999999997,2.992419362421838,-0.5241258650324012,-0.3227846825223353
3.3599999999999994,2.738878872643125,-0.4314453910929982,-0.3153286359578155
3.363500000000002,2.5013168721664214,-0.2897613077453506,-0.2918906094327836
3.3669999999999973,2.421419189668625,-0.1970790884766957,-0.2631275833599171
3.3705,2.444857216193657,-0.0767019846373948,-0.2237128128621291
3.3740000000000023,2.5631050183455244,-0.0010646508437165,-0.1853609478788057
3.3774999999999977,2.84647318504082,0.0798976824977964,-0.1534022239455376
3.381,3.129843097065367,0.1310323389227262,-0.1395530363309626
3.384499999999996,3.5793980244770585,0.1885583910684593,-0.1352926876268444
3.387999999999998,3.952250967251356,0.2087989744038376,-0.1427504795206162
3.3915000000000006,4.476376832283757,0.2151903701246408,-0.1555332709622227
3.394999999999996,4.868407452878968,0.2002765316663493,-0.1715135055934827
3.3984999999999985,5.374423781592675,0.1565979218059392,-0.1874919948954908
3.402000000000001,5.725971490187877,0.1054650107102613,-0.2002765316663493
3.4054999999999964,6.125458157347607,0.0266319790561814,-0.2258421145495622
3.408999999999999,6.361953761651343,-0.0362208179666383,-0.2503447919183106
3.4125000000000014,6.572882037742613,-0.1203788491685528,-0.2854992137119804
3.415999999999997,6.644257277502922,-0.1928187397725775,-0.3078708440640437
3.4194999999999998,6.611232157396684,-0.2908259585890671,-0.3185243338182171
3.423000000000002,6.504702495842706,-0.3717882919305801,-0.3259803803827369
3.426499999999997,6.2522284022369625,-0.4719265577637547,-0.3185243338182171
3.43,6.004012912006085,-0.5443664483677794,-0.2972173543098703
3.433500000000002,5.597070198281835,-0.6274598287259775,-0.2727164222703739
3.4369999999999976,5.264698422178295,-0.6764634381342222,-0.2343645572870505
3.4405,4.787445119537455,-0.7148135577882937,-0.1757738542976009
3.4439999999999955,4.427373222875512,-0.723336000525782,-0.1203788491685528
3.447499999999998,3.95438201426804,-0.7158799539612621,-0.0266319790561814
3.4510000000000005,3.6262705868686185,-0.7030954171904037,0.0532657034416149
3.454499999999996,3.24595985220055,-0.6828548338550254,0.1693824585767977
3.4579999999999984,2.999875408986357,-0.6711366932571355,0.2524758389349957
3.461500000000001,2.736747825626441,-0.6519625060947258,0.3451563128743986
3.4649999999999963,2.5865412995413046,-0.6338512244467807,0.3941599222826434
3.468499999999999,2.4523132627581767,-0.6018925005135125,0.4314453910929982
3.4720000000000013,2.387331164047924,-0.5731294744406459,0.4442281825346047
3.4754999999999967,2.3575017418020887,-0.5369104018032596,0.4367721359700849
3.478999999999999,2.370286278572947,-0.4974938859762197,0.4207919013388249
3.4825000000000017,2.4278123307186803,-0.4516859744283765,0.3845728287014385
3.485999999999997,2.4949254764456184,-0.4144005056180216,0.3440916620306821
3.4895,2.6110422315808006,-0.3728546881035486,0.2673896773932873
3.493000000000002,2.7186382893077474,-0.3323735214327921,0.1970790884766957
3.496499999999997,2.880562955990773,-0.2876302607286655,0.0916158230956863
3.5,3.015855643617618,-0.2524758389349957,0.0031956978604016
3.5034999999999954,3.203347638513109,-0.2034722295267509,-0.1033339636935762
3.506999999999998,3.352489513754528,-0.1683160624038291,-0.1715135055934827
3.5105000000000004,3.551699649247909,-0.1320969897664428,-0.247149094057909
3.513999999999996,3.689123383891438,-0.1129210572747811,-0.2972173543098703
3.5174999999999983,3.860636889484921,-0.096942567972773,-0.3771150368076668
3.521000000000001,3.971426899743017,-0.0798976824977964,-0.452750625272093
3.524499999999996,4.10352388950946,-0.0447432607041266,-0.5741958706136145
3.5279999999999987,4.194073316432178,-0.0202405833353782,-0.6679409953967339
3.531500000000001,4.325105655354904,0.0095870935812048,-0.7819284488444836
3.5349999999999966,4.427373222875512,0.0340897709499532,-0.8607597351693115
3.538499999999999,4.566928004535726,0.0596570991624181,-0.940657417667108
3.5420000000000016,4.680915457983477,0.0798976824977964,-0.9790075373211792
3.545499999999997,4.813012447749919,0.0862890782185996,-1.012032657427416
3.5489999999999995,4.88651698919766,0.0905494269227178,-1.0205551001649042
3.552500000000002,4.930193853728818,0.0905494269227178,-1.0248154488690224
3.5559999999999974,4.912084317410126,0.0926804739394028,-1.0205551001649042
3.5595,4.827926286208211,0.0852244273748831,-0.9939213757794708
3.5630000000000024,4.726723369531319,0.0798976824977964,-0.9598333501587696
3.566499999999998,4.563732306675325,0.0628527970228197,-0.903371948856753
3.5700000000000003,4.435895665613,0.0500682602519613,-0.8564993864651933
3.573499999999996,4.2729063480862575,0.0223716303520633,-0.7872551937215703
3.576999999999998,4.168507733548965,0.0063913957208032,-0.7339894902799553
3.5805000000000007,4.059847024978302,-0.0149138384582915,-0.6615495996759307
3.583999999999996,4.0044520198492535,-0.0308940730895516,-0.5944364539489927
3.5874999999999986,3.940532826653466,-0.0575260521457331,-0.4900360940824479
3.591000000000001,3.8915292172452207,-0.0767019846373948,-0.4165315526347067
3.5944999999999965,3.809502233059992,-0.0820287295144815,-0.3313071252598236
3.597999999999999,3.74345373817677,-0.0798976824977964,-0.2854992137119804
3.601500000000001,3.661425008662288,-0.0745709376207097,-0.2460844432141925
3.604999999999997,3.6305326809019887,-0.0873537290623162,-0.2237128128621291
3.6085,3.637988727466509,-0.1001382658331746,-0.2077325782308691
3.612000000000002,3.682731988170635,-0.1065296615539778,-0.1938833906162941
3.615499999999997,3.800979790322503,-0.1150521042914662,-0.1608600158393093
3.619,3.913900847597284,-0.1065296615539778,-0.1267702448893561
3.6225000000000014,4.093936795928255,-0.1054650107102613,-0.0745709376207097
3.6259999999999977,4.235620879275903,-0.1001382658331746,-0.0362208179666383
3.6295,4.414590431433905,-0.0884201252352847,0.0074577918937717
3.632999999999996,4.544556374183663,-0.083093380358198,0.0330233747769847
3.636499999999998,4.703285343006288,-0.0713752397603081,0.0596570991624181
3.640000000000001,4.8108814007332334,-0.0628527970228197,0.083093380358198
3.643499999999996,4.946174088360078,-0.0490036094082447,0.1235745470289545
3.6469999999999994,5.035658864439079,-0.0383501196540714,0.1587289688226243
3.650500000000001,5.117685848624308,-0.0255673282124649,0.1874919948954908
3.653999999999997,5.134730734099286,-0.01598023463126,0.2002765316663493
3.657499999999999,5.111294452903506,0.0095870935812048,0.1928187397725775
3.661000000000002,5.046312354193253,0.0234362811957798,0.180035948330971
3.6644999999999968,4.929129202885101,0.041545817514473,0.1640557136997109
3.6679999999999993,4.793836515258257,0.0585907029894496,0.1629910628559944
3.6715000000000018,4.692633598581367,0.0649838440395048,0.1715135055934827
3.674999999999997,4.580777192150301,0.0617864008498512,0.205601531214184
3.6785,4.521120092987883,0.0511346564249298,0.233299906443334
3.682000000000002,4.464660437015119,0.0308940730895516,0.2844345628682639
3.6854999999999976,4.444418108350488,0.0106534897541733,0.3110665419244454
3.689,4.407132639540134,-0.013849187614575,0.3302424744161071
3.692499999999996,4.363455775008975,-0.0266319790561814,0.3227846825223353
3.695999999999998,4.280362394650777,-0.0287630260728665,0.3068061932203272
3.699500000000001,4.194073316432178,-0.0202405833353782,0.2972173543098703
3.702999999999996,4.065173769855389,-0.0053267448770866,0.2929570056057522
3.7064999999999984,3.965035504022214,0.0,0.2940216564494687
3.710000000000001,3.848917003557779,0.0053267448770866,0.2961527034661538
3.713499999999996,3.7913909514120463,-0.0063913957208032,0.3057397970473587
3.716999999999999,3.759432227478778,-0.029827676916583,0.3281114273994219
3.720500000000001,3.769021066389235,-0.0713752397603081,0.3376985209806268
3.7239999999999966,3.821220373657881,-0.136357338470561,0.3238510786953038
3.727499999999999,3.870223983066126,-0.1736428072809158,0.2929570056057522
3.7310000000000016,3.925618988195174,-0.2226464166891606,0.2407576983371057
3.734499999999997,3.9607734099888434,-0.2524758389349957,0.1992101354933808
3.738,3.983145040340907,-0.2929570056057522,0.1512729222581045
3.741500000000002,3.9863407382013087,-0.3217200316786187,0.1289012919060412
3.744999999999997,3.9746225976034175,-0.355809802628572,0.1139874534477496
3.7485,3.973557946759702,-0.3845728287014385,0.1182478021518678
3.7519999999999953,3.988471785217994,-0.4431635316908882,0.138488385487246
3.755499999999998,4.018299462134577,-0.4953628389595346,0.1587289688226243
3.759,4.077956561296995,-0.5763251723010476,0.1768385051413174
3.762499999999996,4.117373077124035,-0.6413090163405525,0.1725781564371993
3.7659999999999982,4.162114592498909,-0.7030954171904037,0.1565979218059392
3.7695000000000007,4.183421572007256,-0.7489033287382468,0.1331616406101593
3.772999999999996,4.198335410465548,-0.7936465894423735,0.1054650107102613
3.776499999999999,4.205793202359319,-0.8192139176548384,0.0873537290623162
3.780000000000001,4.223902738678013,-0.8469105475547365,0.0724398906040246
3.783499999999997,4.263319254505053,-0.861824386013028,0.0724398906040246
3.786999999999999,4.319778910477817,-0.901240901840068,0.0820287295144815
3.7905000000000015,4.378371358796519,-0.940657417667108,0.0756355884644262
3.793999999999997,4.44015775964637,-0.9928567249357544,0.0500682602519613
3.7975,4.469985436562954,-1.022684401852337,0.0245026773687483
3.801000000000002,4.476376832283757,-1.0290775429023926,-0.029827676916583
3.804499999999997,4.458267295965063,-1.0130973082711323,-0.069244192743623
3.808,4.425243921188079,-0.9779428864774626,-0.1139874534477496
3.8115000000000014,4.39328519725481,-0.9374617198067065,-0.1395530363309626
3.8149999999999977,4.368782519886063,-0.8884581103984615,-0.1736428072809158
3.8185,4.358129030131889,-0.84584589671102,-0.1981454846496642
3.821999999999996,4.3538686814277705,-0.7968422873027752,-0.2226464166891606
3.825499999999998,4.354933332271487,-0.7499697249112154,-0.2375620004767041
3.8290000000000006,4.358129030131889,-0.6764634381342222,-0.2460844432141925
3.832499999999996,4.348541936550684,-0.6125459902676859,-0.2492801410745941
3.8359999999999994,4.343215191673598,-0.5315836569261729,-0.2396913021641372
3.839500000000001,4.3496065873944,-0.4793843496575265,-0.2279731615662473
3.842999999999997,4.360260077148574,-0.4058780628805333,-0.2077325782308691
3.846499999999999,4.380500660483952,-0.3504830577514853,-0.1949497867892626
3.8500000000000014,4.408199035713103,-0.2663250265495707,-0.1736428072809158
3.853499999999997,4.439093108802654,-0.1960144376329791,-0.1438151303643327
3.8569999999999993,4.488096718210898,-0.0958761717998045,-0.1022693128498597
3.860500000000002,4.532838233585773,-0.0308940730895516,-0.069244192743623
3.863999999999997,4.593559983591907,0.0468725623915597,-0.0330233747769847
3.8675,4.639367895139751,0.0926804739394028,-0.0202405833353782
3.871000000000002,4.679849061810508,0.1534022239455376,-0.0149138384582915
3.8744999999999976,4.692633598581367,0.191754088928861,-0.0149138384582915
3.878,4.692633598581367,0.2407576983371057,-0.0170448854749766
3.881499999999996,4.6745223169334205,0.2673896773932873,-0.0170448854749766
3.884999999999998,4.6361721972793495,0.3014794483432405,-0.0202405833353782
3.888500000000001,4.59675568145231,0.3334381722765087,-0.0308940730895516
3.891999999999996,4.5434917233399466,0.3685925940701784,-0.0436768645311581
3.8954999999999984,4.497683811792104,0.397355620143045,-0.0575260521457331
3.899000000000001,4.441222410490087,0.4218582975117934,-0.0809623333415129
3.902499999999996,4.4060679886964165,0.4367721359700849,-0.0948115209560879
3.905999999999999,4.36558682202566,0.4474238803950063,-0.1043986145372928
3.909500000000001,4.347477285706967,0.4410324846742031,-0.1118564064310645
3.9129999999999967,4.324041004511187,0.3803107346680683,-0.1033339636935762
3.916499999999999,4.302734025002841,0.3068061932203272,-0.0916158230956863
3.9200000000000017,4.270775301069572,0.2024058333537824,-0.0617864008498512
3.923499999999997,4.246274369030076,0.1235745470289545,-0.0383501196540714
3.927,4.216444946784241,0.0095870935812048,-0.0095870935812048
3.930500000000002,4.199400061309264,-0.0628527970228197,0.0010646508437165
3.9339999999999975,4.195139712605147,-0.1342280367831279,-0.002131047016685
3.9375,4.210053551063438,-0.1928187397725775,-0.0245026773687483
3.9409999999999954,4.24094762415299,-0.2716500260974054,-0.0628527970228197
3.944499999999998,4.267579603209171,-0.3345028231202252,-0.1022693128498597
3.948,4.295277978438321,-0.4058780628805333,-0.1406194325039311
3.951499999999996,4.297407280125754,-0.4570127193054631,-0.1693824585767977
3.9549999999999983,4.289951233561234,-0.5209301671719996,-0.1864273440517743
3.958500000000001,4.281428790823746,-0.561411333842756,-0.1981454846496642
3.961999999999996,4.270775301069572,-0.6125459902676859,-0.2130593231079557
3.965499999999999,4.264383905348769,-0.6519625060947258,-0.2311688594266489
3.969000000000001,4.250534717734194,-0.6924436727654824,-0.2556715367953973
3.9724999999999966,4.232425181415501,-0.7052264642070888,-0.2737810731140905
3.975999999999999,4.197270759621831,-0.7009661155029706,-0.2929570056057522
3.9795000000000016,4.167441337375997,-0.6860505317154271,-0.2982837504828389
3.982999999999997,4.117373077124035,-0.6477004120613556,-0.2993484013265554
3.9865,4.077956561296995,-0.5997614534968274,-0.2929570056057522
3.990000000000002,4.039606441642924,-0.5241258650324012,-0.2759121201307756
3.993499999999997,4.014039113430459,-0.4772533026408414,-0.2695207244099723
3.997,3.992733879251364,-0.425053995372195,-0.2759121201307756
4.000500000000002,3.979949342480505,-0.3920288752659583,-0.2908259585890671
4.003999999999998,3.958644108301411,-0.3547434064556034,-0.2940216564494687
4.0075,3.952250967251356,-0.3451563128743986,-0.2897613077453506
4.010999999999996,3.9426638736701514,-0.3451563128743986,-0.260998281672484
4.014499999999998,3.936272477949347,-0.3462209637181151,-0.2428870000245388
4.018000000000001,3.932010383915977,-0.3408942188410284,-0.219450718828759
4.021499999999996,3.936272477949347,-0.3387649171535954,-0.2151903701246408
4.024999999999999,3.947990618547237,-0.3504830577514853,-0.2226464166891606
4.028500000000001,3.958644108301411,-0.3845728287014385,-0.2514094427620272
4.0319999999999965,3.957577712128442,-0.3984202709867616,-0.2897613077453506
4.035499999999999,3.936272477949347,-0.4186608543221398,-0.3313071252598236
4.0390000000000015,3.912836196753567,-0.4218582975117934,-0.355809802628572
4.042499999999997,3.869157586893157,-0.4282496932325966,-0.3792460838243518
4.045999999999999,3.837198862959889,-0.4207919013388249,-0.3952245731263599
4.049500000000002,3.8222850245015976,-0.4101401569139035,-0.4165315526347067
4.052999999999997,3.832938514255771,-0.4069427137242498,-0.4303807402492817
4.0565,3.881942123664016,-0.4016177141764152,-0.4484902765679749
4.060000000000002,3.958644108301411,-0.3909642244222418,-0.4580773701491797
4.063499999999998,4.100328191649059,-0.3824417816847534,-0.4665998128866681
4.067,4.234554483102934,-0.3803107346680683,-0.4676662090596366
4.070499999999996,4.463594040842151,-0.3877685265618402,-0.4612730680095813
4.073999999999998,4.654281733598043,-0.3994866671597301,-0.4442281825346047
4.077500000000001,4.92167141099133,-0.4303807402492817,-0.3941599222826434
4.080999999999996,5.117685848624308,-0.4516859744283765,-0.3376985209806268
4.084499999999999,5.359508197805131,-0.4793843496575265,-0.2439533961975074
4.088000000000001,5.509716469219519,-0.4996249329929048,-0.1768385051413174
4.091499999999996,5.65779194828797,-0.5241258650324012,-0.0905494269227178
4.094999999999999,5.731298235064964,-0.5379750526469761,-0.0521993072686464
4.098500000000001,5.76006126113783,-0.5997614534968274,-0.013849187614575
4.101999999999997,5.7131869534170185,-0.6658099483800488,-0.0053267448770866
4.105499999999999,5.55232693757771,-0.7584921676487036,-0.0117181405978899
4.109000000000002,5.353116802084329,-0.8117561257610666,-0.0191759324916617
4.112499999999997,4.983459557170433,-0.8586286881526264,-0.0404811666707564
4.116,4.658543827631412,-0.8682175270630832,-0.0596570991624181
4.119500000000002,4.201531108325949,-0.8501062454151381,-0.1065296615539778
4.1229999999999976,3.869157586893157,-0.8266699642193582,-0.1544686201185061
4.1265,3.482455456504286,-0.780862052671515,-0.2364956043037356
4.129999999999996,3.2544822949380383,-0.7446429800341288,-0.3100018910807288
4.133499999999998,3.073381695763351,-0.713748906944577,-0.4335764381096833
4.1370000000000005,3.01905134147802,-0.6935083236091989,-0.5369104018032596
4.140499999999996,3.0382272739696807,-0.6775280889779387,-0.6711366932571355
4.143999999999998,3.1191896073111938,-0.6690056462404504,-0.7616878655091054
4.147500000000001,3.274722878273417,-0.6647452975363323,-0.8650218292026817
4.150999999999996,3.411080216743977,-0.6583539018155291,-0.9161547402983594
4.154499999999999,3.615617097114445,-0.6508961099217573,-0.947048813387911
4.158000000000001,3.767954670216266,-0.6391779693238674,-0.9534402091087144
4.161499999999997,3.961839806161812,-0.616806338971804,-0.9438531155275096
4.164999999999999,4.104588540353176,-0.600827849669796,-0.9236125321921312
4.168500000000002,4.29208228057792,-0.5741958706136145,-0.8884581103984615
4.171999999999997,4.442288806663056,-0.5550199381219528,-0.8533036886047917
4.1755,4.634041150262664,-0.5294526099094878,-0.8053647300402634
4.179000000000002,4.785314072520769,-0.5166698184678814,-0.7627525163528219
4.182499999999997,4.9589568798016845,-0.4942981881158181,-0.7041618133633722
4.186,5.068682239216065,-0.492167141099133,-0.6551582039551274
4.189499999999995,5.159233411468034,-0.4879067923950148,-0.5773915684740161
4.192999999999998,5.178409343959696,-0.4900360940824479,-0.5230612141886847
4.1965,5.147515270870144,-0.5060163287137079,-0.4559463231324946
4.199999999999996,5.07400898409315,-0.5251905158761178,-0.4122694586013365
4.203499999999998,4.930193853728818,-0.5709984274239609,-0.3685925940701784
4.207000000000001,4.789574421224887,-0.6210684330051742,-0.3483520107348002
4.210499999999996,4.554145213094119,-0.7009661155029706,-0.3291760782431385
4.213999999999999,4.3538686814277705,-0.7638171671965385,-0.3185243338182171
4.217500000000001,4.063042722838703,-0.8511726415881066,-0.3068061932203272
4.2209999999999965,3.832938514255771,-0.9076322975608712,-0.3078708440640437
4.224499999999999,3.5282633680521287,-0.9800739334941478,-0.3068061932203272
4.2280000000000015,3.313072997927488,-1.0312068445898257,-0.3174579376452486
4.231499999999997,3.070185997902949,-1.0940596416126456,-0.3345028231202252
4.234999999999999,2.933826914103136,-1.1430632510208902,-0.3451563128743986
4.238500000000002,2.82303690384504,-1.1984582561499384,-0.3611348021764067
4.241999999999997,2.7964049247888583,-1.2304187254124583,-0.3707236410868635
4.2455,2.826232601705441,-1.2602464023290416,-0.3781796876513833
4.249000000000002,2.892281096588663,-1.2762248916310497,-0.3739193389472651
4.252499999999998,3.029704831232193,-1.2602464023290416,-0.3504830577514853
4.256,3.161801820998636,-1.2389411681499467,-0.3302424744161071
4.259499999999996,3.35568521161493,-1.1952625582895369,-0.2961527034661538
4.262999999999998,3.5090874355604678,-1.1515856937583784,-0.2727164222703739
4.266500000000001,3.7210821078247065,-1.0780811523106375,-0.2301042085829324
4.269999999999996,3.864897238189039,-1.0045748655336442,-0.180035948330971
4.273499999999999,4.038540045469955,-0.8937848552755481,-0.0916158230956863
4.277000000000001,4.152527498917705,-0.7979069381464917,-0.01598023463126
4.280499999999996,4.27610204594666,-0.6753987872905056,0.0681795418999064
4.283999999999999,4.351737634411085,-0.5709984274239609,0.1278348957330726
4.287500000000001,4.425243921188079,-0.4399678338304866,0.1789695521580025
4.290999999999997,4.469985436562954,-0.3515477085952018,0.2141239739516723
4.294499999999999,4.501944160496222,-0.2301042085829324,0.2428870000245388
4.298000000000002,4.501944160496222,-0.1480754790684509,0.2535404897787122
4.301499999999997,4.468920785719237,-0.0617864008498512,0.260998281672484
4.305,4.414590431433905,-0.0170448854749766,0.260998281672484
4.308500000000002,4.3155185617737,0.0255673282124649,0.247149094057909
4.311999999999998,4.217511342957209,0.0394165158270399,0.2322352555996175
4.3155,4.0577159779616165,0.0234362811957798,0.1928187397725775
4.318999999999996,3.922423290334773,-0.0010646508437165,0.1651203645434275
4.322499999999998,3.741322691160085,-0.041545817514473,0.1171831513081512
4.3260000000000005,3.613487795427012,-0.0767019846373948,0.0862890782185996
4.329499999999996,3.4558234774481043,-0.124639197872671,0.0564614013020165
4.332999999999998,3.354620560771213,-0.1629910628559944,0.0585907029894496
4.336500000000001,3.24169775816718,-0.2279731615662473,0.0490036094082447
4.339999999999996,3.1703242637361235,-0.2641939795328856,0.0468725623915597
4.343499999999999,3.090426581238328,-0.3249157295390203,0.0394165158270399
4.347000000000001,3.0605989043217443,-0.3632658491930918,0.0223716303520633
4.350499999999997,3.061663555165461,-0.4218582975117934,-0.0117181405978899
4.353999999999999,3.0957533261154144,-0.4612730680095813,-0.0245026773687483
4.357500000000002,3.164997518859037,-0.5145387714511963,-0.01598023463126
4.360999999999997,3.228914966725573,-0.5496931932448661,-0.0042603487041181
4.3645,3.323726487681661,-0.5741958706136145,0.0095870935812048
4.368000000000002,3.389774982564883,-0.5859140112115044,0.0234362811957798
4.3714999999999975,3.4760640607834827,-0.5720648235969293,0.0426122136874415
4.375,3.5357211599459006,-0.5486285424011496,0.0735062867769931
4.378499999999995,3.587920467214547,-0.5006895838366213,0.1171831513081512
4.381999999999998,3.6070946543769566,-0.4463592295512898,0.1512729222581045
4.3855,3.6070946543769566,-0.3707236410868635,0.1960144376329791
4.388999999999996,3.585789420197862,-0.2844345628682639,0.2354309534600191
4.392499999999998,3.5591574411416804,-0.219450718828759,0.2631275833599171
4.396000000000001,3.497369294962577,-0.1161167551351827,0.2972173543098703
4.399499999999996,3.4291914983919227,-0.0426122136874415,0.3206536355056502
4.402999999999999,3.3141393941004567,0.0468725623915597,0.3376985209806268
4.406500000000001,3.2086743833901954,0.1043986145372928,0.3451563128743986
4.409999999999997,3.055272159444658,0.1544686201185061,0.341960615013997
4.413499999999999,2.9370243572927897,0.1725781564371993,0.3291760782431385
4.417000000000002,2.7868160858784017,0.177904901314286,0.3153286359578155
4.420499999999997,2.6888088670619124,0.1651203645434275,0.2972173543098703
4.424,2.5790835076475327,0.1352926876268444,0.2663250265495707
4.427500000000002,2.505578966199792,0.1012029166768912,0.2386266513204207
4.430999999999997,2.4299416324061136,0.0436768645311581,0.2013411825100658
4.4345,2.383069070014554,-0.0149138384582915,0.1821652500184041
4.438000000000002,2.320216272991734,-0.0948115209560879,0.1587289688226243
4.441499999999998,2.276539408460576,-0.1565979218059392,0.1448797812080492
4.445,2.227535799052331,-0.2279731615662473,0.1438151303643327
4.448499999999996,2.193446028102377,-0.2833681666952953,0.1544686201185061
4.451999999999998,2.143377767850416,-0.3355692192931938,0.1725781564371993
4.455500000000001,2.107156949883778,-0.3685925940701784,0.1906876927558924
4.458999999999996,2.059219736648502,-0.4080091098972184,0.2077325782308691
4.462499999999999,2.0251299656985484,-0.4367721359700849,0.2162550209683574
4.466000000000001,1.972930658429902,-0.4772533026408414,0.2226464166891606
4.4694999999999965,1.922860652848689,-0.5028206308533064,0.2290395577392158
4.472999999999999,1.849356111400948,-0.5326483077698895,0.2258421145495622
4.4765000000000015,1.779045522484356,-0.5550199381219528,0.2162550209683574
4.479999999999997,1.6810383036678664,-0.5688691257365278,0.1992101354933808
4.483499999999999,1.6022070173430385,-0.5688691257365278,0.1789695521580025
4.487000000000002,1.498873053649462,-0.5656734278761262,0.138488385487246
4.490499999999997,1.421106418168351,-0.5582156359823544,0.1129210572747811
4.494,1.3177724544747746,-0.533712958613606,0.0500682602519613
4.497500000000002,1.2346790741165767,-0.5092120265741096,0.0031956978604016
4.500999999999998,1.106844178383504,-0.4506213235846599,-0.0607217500061347
4.5045,0.9992481206565574,-0.3930952714389268,-0.1097253594143795
4.507999999999996,0.8277363603923268,-0.302544099186957,-0.150206526085136
4.511499999999998,0.6860505317154271,-0.2301042085829324,-0.1853609478788057
4.515000000000001,0.4836446983616446,-0.1225098961852379,-0.219450718828759
4.518499999999996,0.3281114273994219,-0.0426122136874415,-0.2492801410745941
4.521999999999999,0.110790010258096,0.0468725623915597,-0.286565609884949
4.525500000000001,-0.0490036094082447,0.1097253594143795,-0.314262239784847
4.528999999999996,-0.2503447919183106,0.1608600158393093,-0.3451563128743986
4.532499999999999,-0.4037470158638482,0.1992101354933808,-0.3600701513326901
4.536000000000001,-0.5891097090719061,0.2482137449016255,-0.3717882919305801
4.539499999999997,-0.7286627454028686,0.2940216564494687,-0.3611348021764067
4.542999999999999,-0.9108279954212728,0.3451563128743986,-0.3398295679973119
4.546500000000002,-1.0525138240981724,0.3930952714389268,-0.3153286359578155
4.549999999999997,-1.235743724960293,0.4314453910929982,-0.274847469287059
4.5535,-1.3880812980621142,0.4452945787075733,-0.247149094057909
4.557000000000002,-1.5979449233096683,0.4506213235846599,-0.2045368803704674
4.5604999999999976,-1.765196334869781,0.4452945787075733,-0.1640557136997109
4.564,-2.0091497310672883,0.4197272504951083,-0.0990718696602061
4.567499999999996,-2.1998374238231806,0.4016177141764152,-0.0447432607041266
4.570999999999998,-2.4725538460935548,0.3622011983493752,0.0308940730895516
4.5745000000000005,-2.686679565374479,0.3270467765557054,0.0916158230956863
4.577999999999996,-2.980701221823948,0.2705853752536888,0.1715135055934827
4.581499999999998,-3.2129347320943134,0.2162550209683574,0.2322352555996175
4.585000000000001,-3.532525462085499,0.136357338470561,0.3057397970473587
4.588499999999996,-3.793521998428731,0.069244192743623,0.355809802628572
4.591999999999999,-4.156787847621823,-0.0191759324916617,0.4122694586013365
4.595500000000001,-4.435895665613,-0.0671131457269379,0.4516859744283765
4.598999999999997,-4.779987327643682,-0.1235745470289545,0.5049499325407395
4.602499999999999,-4.982393160997464,-0.1544686201185061,0.5379750526469761
4.606000000000002,-5.153906666590947,-0.1725781564371993,0.586978662055221
4.609499999999997,-5.178409343959696,-0.1736428072809158,0.6189373859884891
4.613,-5.07081328623275,-0.1619246666830259,0.6508961099217573
4.616500000000002,-4.897170478951834,-0.136357338470561,0.6775280889779387
4.619999999999997,-4.574385796429499,-0.0873537290623162,0.7041618133633722
4.6235,-4.293146931421636,-0.0319587239332681,0.7297291415758372
4.626999999999995,-3.9170965454576856,0.0543303542853314,0.7595568184924202
4.630499999999998,-3.65716465995817,0.1257055940456395,0.7797974018277984
4.634,-3.372730097089906,0.2290395577392158,0.7829930996882002
4.637499999999996,-3.2161321752839678,0.2929570056057522,0.7723396099340267
4.640999999999998,-3.0850998363612407,0.38350643252847,0.7499697249112154
4.644500000000001,-3.044618669690484,0.43890318298677,0.725467047542467
4.647999999999996,-3.0531411124279724,0.503885281697023,0.6753987872905056
4.651499999999999,-3.1096025137299894,0.5518242402615512,0.6317219227593476
4.655000000000001,-3.237437409463062,0.6018925005135125,0.5731294744406459
4.6584999999999965,-3.371665446246189,0.6338512244467807,0.5273215628928027
4.661999999999999,-3.5985722116394685,0.6679409953967339,0.4687308599033531
4.6655000000000015,-3.798848743305818,0.697768672313317,0.4357057397971164
4.668999999999997,-4.082218655330365,0.7478386778945303,0.3994866671597301
4.672499999999999,-4.29208228057792,0.7904508915819718,0.3952245731263599
4.676000000000002,-4.533904629758742,0.84584589671102,0.4090737607409349
4.679499999999997,-4.658543827631412,0.8927184591025796,0.4207919013388249
4.683,-4.727788020375035,0.960898001002486,0.4367721359700849
4.686500000000002,-4.717134530620863,1.0109662612544474,0.4452945787075733
4.689999999999998,-4.622323009664775,1.0663630117127476,0.4314453910929982
4.6935,-4.51046660323371,1.0961906886293304,0.4133358547743051
4.696999999999996,-4.335759145109078,1.1196269698251105,0.3803107346680683
4.700499999999998,-4.204726806186351,1.1196269698251105,0.3515477085952018
4.704000000000001,-4.049193535224129,1.1100398762439057,0.3036087500306735
4.707499999999996,-3.9501216655639215,1.0866035950481256,0.2684543282370038
4.710999999999999,-3.856374795451551,1.0386646364835974,0.2183860679850424
4.714500000000001,-3.8126979309203928,0.996052422796156,0.1725781564371993
4.717999999999996,-3.806306535199589,0.9140254386109264,0.1022693128498597
4.721499999999999,-3.845721305697378,0.8394545009902167,0.0426122136874415
4.725000000000001,-3.958644108301411,0.725467047542467,-0.0404811666707564
4.728499999999997,-4.072629816419909,0.6359822714634658,-0.0980072188164895
4.731999999999999,-4.262252858332085,0.5219948180157161,-0.1789695521580025
4.735500000000002,-4.4060679886964165,0.4399678338304866,-0.2396913021641372
4.738999999999997,-4.591428936575223,0.3462209637181151,-0.3217200316786187
4.7425,-4.735244066939556,0.2482137449016255,-0.4026823650201317
4.746000000000002,-4.799163260135344,0.1832316461913727,-0.4623394641825499
4.749499999999998,-4.831121984068613,0.1022693128498597,-0.5315836569261729
4.753,-4.816208145610321,0.0458079115478431,-0.5624759846864725
4.756499999999996,-4.758682093464588,-0.0117181405978899,-0.5667380787198427
4.759999999999998,-4.6905025515646805,-0.0394165158270399,-0.5411707505073777
4.7635000000000005,-4.564796957519042,-0.0798976824977964,-0.4687308599033531
4.766999999999996,-4.45187590024426,-0.1043986145372928,-0.4058780628805333
4.770499999999998,-4.270775301069572,-0.1491418752414194,-0.314262239784847
4.774000000000001,-4.13867831130313,-0.1811005991746876,-0.2503447919183106
4.777499999999996,-3.9469259677035207,-0.2183860679850424,-0.1789695521580025
4.780999999999999,-3.814828977937078,-0.2301042085829324,-0.1331616406101593
4.784500000000001,-3.655033612941485,-0.2183860679850424,-0.0745709376207097
4.787999999999997,-3.5548953471083102,-0.1960144376329791,-0.0372854688103548
4.791499999999999,-3.453692430431419,-0.150206526085136,-0.01598023463126
4.795000000000002,-3.4100155659002613,-0.1022693128498597,-0.01598023463126
4.798499999999997,-3.4014931231627727,-0.0436768645311581,-0.0404811666707564
4.802,-3.439843242816844,-0.0053267448770866,-0.0703088435873395
4.805500000000002,-3.555961743281279,0.0436768645311581,-0.1299659427497577
4.8089999999999975,-3.6774052432935487,0.0873537290623162,-0.1715135055934827
4.8125,-3.8915292172452207,0.1406194325039311,-0.2375620004767041
4.815999999999995,-4.053453883928246,0.1789695521580025,-0.286565609884949
4.819499999999998,-4.260121811315399,0.2301042085829324,-0.3472873598910836
4.823,-4.382631707500638,0.2556715367953973,-0.3856374795451551
4.826499999999996,-4.47531218144004,0.2673896773932873,-0.4420988808471717
4.829999999999998,-4.497683811792104,0.2684543282370038,-0.4772533026408414
4.833500000000001,-4.464660437015119,0.2343645572870505,-0.5273215628928027
4.836999999999996,-4.410330082729787,0.2013411825100658,-0.5518242402615512
4.840499999999999,-4.330432400231991,0.1320969897664428,-0.5837829641948193
4.844000000000001,-4.2878201865445495,0.0617864008498512,-0.6072192453905992
4.847499999999997,-4.249470066890478,-0.0596570991624181,-0.6253287817092923
4.850999999999999,-4.250534717734194,-0.1534022239455376,-0.6338512244467807
4.854500000000002,-4.273970998929975,-0.2727164222703739,-0.642373667184269
4.857999999999997,-4.295277978438321,-0.3483520107348002,-0.6317219227593476
4.8615,-4.306996119036211,-0.4357057397971164,-0.5944364539489927
4.865000000000002,-4.2878201865445495,-0.4889714432387313,-0.547562146228181
4.868499999999997,-4.201531108325949,-0.5390397034906926,-0.4623394641825499
4.872,-4.096066097615688,-0.5688691257365278,-0.397355620143045
4.875499999999995,-3.897922358295276,-0.5912390107593392,-0.3036087500306735
4.878999999999998,-3.7306692014059113,-0.6082838962343158,-0.2418223491808223
4.8825,-3.501631388995948,-0.6114795940947174,-0.1544686201185061
4.885999999999996,-3.3514248629108114,-0.6093502924072843,-0.0905494269227178
4.889499999999998,-3.175651008613211,-0.5741958706136145,-0.0042603487041181
4.893000000000001,-3.072317044919634,-0.5273215628928027,0.0607217500061347
4.896499999999996,-2.9647209871926883,-0.4570127193054631,0.1587289688226243
4.899999999999999,-2.9071949350469546,-0.397355620143045,0.233299906443334
4.903500000000001,-2.83475504444293,-0.3174579376452486,0.3259803803827369
4.9069999999999965,-2.797469575632575,-0.2524758389349957,0.38350643252847
4.910499999999999,-2.758053059805535,-0.1672514115601126,0.4623394641825499
4.9140000000000015,-2.7410081743305588,-0.1043986145372928,0.5092120265741096
4.917499999999997,-2.7303564299056373,-0.029827676916583,0.5741958706136145
4.920999999999999,-2.727160732045236,0.0127827914416064,0.6136106411114024
4.924500000000002,-2.728225382888952,0.069244192743623,0.6594185526592456
4.927999999999997,-2.723965034184834,0.1150521042914662,0.6849858808717105
4.9315,-2.712246893586944,0.1576643179789077,0.7062911150508053
4.935000000000002,-2.6962666589556843,0.191754088928861,0.7148135577882937
4.938499999999998,-2.678157122636991,0.2247774637058457,0.7169446048049787
4.942,-2.662176888005731,0.2482137449016255,0.7052264642070888
4.945499999999996,-2.636609559793266,0.2727164222703739,0.6913772765925138
4.948999999999998,-2.617435372630856,0.2918906094327836,0.670072042413419
4.952500000000001,-2.5748231589434147,0.3078708440640437,0.6359822714634658
4.955999999999996,-2.5364712939600915,0.3195889846619337,0.6072192453905992
4.959499999999999,-2.478945241814358,0.3398295679973119,0.5678027295635593
4.963000000000001,-2.43953047131657,0.3611348021764067,0.5411707505073777
4.966499999999996,-2.386264767874956,0.3962909692993285,0.5156034222949128
4.969999999999999,-2.362828486679175,0.4271832970596281,0.4900360940824479
4.973500000000001,-2.3436525541875133,0.4708619069200382,0.4665998128866681
4.976999999999997,-2.345783601204199,0.5060163287137079,0.452750625272093
4.980499999999999,-2.359632788818774,0.5720648235969293,0.4463592295512898
4.984000000000002,-2.370286278572947,0.6317219227593476,0.452750625272093
4.987499999999997,-2.3692198823999786,0.7030954171904037,0.4857757453783297
4.991,-2.351110346081285,0.7595568184924202,0.5251905158761178
4.994500000000002,-2.285061851198064,0.8309320582527283,0.5880433128989375
4.9979999999999976,-2.221144403331528,0.8799356676609732,0.628524479569694
5.0015,-2.095438809285888,0.9300039279129344,0.6668763445530174
5.004999999999996,-1.9867781007152248,0.9555712561253994,0.6892479749050807
5.008499999999998,-1.8312448297530024,0.9768764903044942,0.7041618133633722
5.0120000000000005,-1.700214236159528,0.984334282198266,0.7158799539612621
5.015499999999996,-1.4722410745932808,0.9949877719524394,0.7190756518216638
5.018999999999998,-1.377429553637193,0.996052422796156,0.7169446048049787
5.022500000000001,-1.1633038343562685,0.9981834698128408,0.7062911150508053
5.025999999999996,-0.996052422796156,0.9928567249357544,0.697768672313317
5.029499999999999,-0.7648835633695069,0.9768764903044942,0.6722030894301041
5.033000000000001,-0.5986968026531109,0.960898001002486,0.6434400633572375
5.036499999999997,-0.3930952714389268,0.9385263706504228,0.602958896686481
5.039999999999999,-0.2641939795328856,0.921481485175446,0.5688691257365278
5.043500000000002,-0.1427504795206162,0.903371948856753,0.5187991201553145
5.046999999999997,-0.0862890782185996,0.8916538082588631,0.4847093492053612
5.0505,-0.0767019846373948,0.8767399698005716,0.4357057397971164
5.054000000000002,-0.1118564064310645,0.8660864800463982,0.3909642244222418
5.057499999999997,-0.2237128128621291,0.8607597351693115,0.3291760782431385
5.061,-0.3323735214327921,0.8575640373089098,0.2823035158515788
5.064499999999995,-0.4985585368199362,0.8628907821859965,0.2258421145495622
5.067999999999998,-0.6317219227593476,0.8660864800463982,0.1853609478788057
5.0715,-0.8074957770569485,0.8820667146776582,0.1214435000122694
5.074999999999996,-0.9204168343317296,0.8873917142254929,0.0809623333415129
5.078499999999998,-1.055709521958574,0.9086986937338396,0.0255673282124649
5.082000000000001,-1.132411506595969,0.917221136471328,-0.0085224427374883
5.085499999999996,-1.2112427929207967,0.9342660219463046,-0.0404811666707564
5.088999999999999,-1.2442661676977815,0.9459841625441944,-0.0532657034416149
5.092500000000001,-1.2698334959102464,0.9577023031420844,-0.0447432607041266
5.0959999999999965,-1.254919657451955,0.956635906969116,-0.0319587239332681
5.099499999999999,-1.21017814207708,0.9545066052816829,-0.0042603487041181
5.1030000000000015,-1.1515856937583784,0.9385263706504228,0.0170448854749766
5.106499999999997,-1.037599985639881,0.9193504381587612,0.0340897709499532
5.109999999999999,-0.9363953236337376,0.8959141569629812,0.0479389585645282
5.113500000000002,-0.767014610386192,0.8607597351693115,0.0521993072686464
5.116999999999997,-0.5805872663344177,0.8234742663589566,0.0511346564249298
5.1205,-0.4261186462159115,0.8043000791965469,0.0543303542853314
5.124000000000002,-0.2247774637058457,0.7702103082465936,0.0564614013020165
5.127499999999998,-0.0798976824977964,0.7435765838611602,0.0564614013020165
5.131,0.0884201252352847,0.713748906944577,0.055395005129048
5.134499999999996,0.1928187397725775,0.6860505317154271,0.0617864008498512
5.137999999999998,0.2940216564494687,0.6487650629050722,0.0671131457269379
5.141500000000001,0.3440916620306821,0.6253287817092923,0.0745709376207097
5.144999999999996,0.3877685265618402,0.586978662055221,0.0788312863248278
5.148499999999999,0.3994866671597301,0.5560845889656694,0.0841580312019145
5.152000000000001,0.4037470158638482,0.5326483077698895,0.0916158230956863
5.155499999999996,0.4080091098972184,0.5134723752782278,0.0980072188164895
5.158999999999999,0.4026823650201317,0.4932317919428495,0.1086607085706629
5.162500000000001,0.4037470158638482,0.4783179534845579,0.1299659427497577
5.165999999999997,0.38350643252847,0.4665998128866681,0.1640557136997109
5.169499999999999,0.3547434064556034,0.4793843496575265,0.1960144376329791
5.173000000000002,0.2993484013265554,0.4953628389595346,0.274847469287059
5.176499999999997,0.2524758389349957,0.5262569120490862,0.341960615013997
5.18,0.1981454846496642,0.5656734278761262,0.4399678338304866
5.183500000000002,0.1597953649955928,0.6061545945468827,0.5060163287137079
5.186999999999998,0.1150521042914662,0.6722030894301041,0.5741958706136145
5.1905,0.0724398906040246,0.7201403026653803,0.5986968026531109
5.193999999999996,0.0053267448770866,0.7766017039673969,0.6178727351447726
5.197499999999998,-0.0671131457269379,0.8160182197944368,0.614677037284371
5.2010000000000005,-0.1981454846496642,0.8660864800463982,0.600827849669796
5.204499999999996,-0.314262239784847,0.8927184591025796,0.5773915684740161
5.207999999999998,-0.4697955107470696,0.9204168343317296,0.5464974953844645
5.211500000000001,-0.5912390107593392,0.9236125321921312,0.5145387714511963
5.214999999999996,-0.7318584432632703,0.921481485175446,0.4729912086074713
5.218499999999999,-0.81069147491735,0.8991098548233829,0.42292294835551
5.222000000000001,-0.8873917142254929,0.8628907821859965,0.3653968962097769
5.225499999999997,-0.9182857873150446,0.8170828706381533,0.3195889846619337
5.228999999999999,-0.9268082300525328,0.7542300736153336,0.2450180470412239
5.232500000000002,-0.9108279954212728,0.7073575112237738,0.2045368803704674
5.235999999999997,-0.8554329902922247,0.6466357612176391,0.1416840833476476
5.2395,-0.7925801932694049,0.600827849669796,0.1012029166768912
5.243000000000002,-0.6903126257487973,0.5315836569261729,0.041545817514473
5.2464999999999975,-0.5986968026531109,0.4793843496575265,-0.0010646508437165
5.25,-0.4687308599033531,0.4090737607409349,-0.0585907029894496
5.253499999999995,-0.3685925940701784,0.3515477085952018,-0.096942567972773
5.256999999999998,-0.2418223491808223,0.274847469287059,-0.1470108282247343
5.2605,-0.1555332709622227,0.2183860679850424,-0.1704471094205142
5.263999999999996,-0.055395005129048,0.1438151303643327,-0.2002765316663493
5.267499999999998,0.0085224427374883,0.083093380358198,-0.2119946722642392
5.271000000000001,0.0735062867769931,0.0170448854749766,-0.2087989744038376
5.274499999999996,0.1171831513081512,-0.0351544217936697,-0.2013411825100658
5.277999999999999,0.1544686201185061,-0.1097253594143795,-0.1629910628559944
5.281500000000001,0.1757738542976009,-0.1587289688226243,-0.1097253594143795
5.284999999999997,0.2098636252475541,-0.2119946722642392,-0.0202405833353782
5.288499999999999,0.2311688594266489,-0.2407576983371057,0.0543303542853314
5.292000000000002,0.2663250265495707,-0.2727164222703739,0.1534022239455376
5.295499999999997,0.3057397970473587,-0.2918906094327836,0.2269085107225308
5.299,0.3590055004889736,-0.3089354949077603,0.3089354949077603
5.302500000000002,0.3984202709867616,-0.316393286801532,0.3579391043160051
5.305999999999997,0.4452945787075733,-0.3238510786953038,0.4080091098972184
5.3095,0.4591437663221482,-0.3227846825223353,0.4325100419367148
5.312999999999995,0.4452945787075733,-0.3259803803827369,0.4495549274116914
5.316499999999998,0.4090737607409349,-0.3259803803827369,0.452750625272093
5.32,0.3227846825223353,-0.3227846825223353,0.452750625272093
5.323499999999996,0.2343645572870505,-0.3206536355056502,0.4431635316908882
5.326999999999998,0.1097253594143795,-0.3281114273994219,0.4207919013388249
5.330500000000001,0.0191759324916617,-0.3345028231202252,0.3941599222826434
5.333999999999996,-0.0916158230956863,-0.3526141047681703,0.3462209637181151
5.337499999999999,-0.1629910628559944,-0.3675279432264619,0.3014794483432405
5.341000000000001,-0.2290395577392158,-0.3856374795451551,0.2354309534600191
5.3444999999999965,-0.2673896773932873,-0.4016177141764152,0.1864273440517743
5.347999999999999,-0.2993484013265554,-0.4133358547743051,0.1182478021518678
5.3515000000000015,-0.3238510786953038,-0.4154651564617382,0.0649838440395048
5.354999999999997,-0.3355692192931938,-0.4175962034784233,-0.0031956978604016
5.358499999999999,-0.341960615013997,-0.4175962034784233,-0.0490036094082447
5.362000000000002,-0.3398295679973119,-0.4186608543221398,-0.1043986145372928
5.365499999999997,-0.3345028231202252,-0.4218582975117934,-0.1438151303643327
5.369,-0.314262239784847,-0.4314453910929982,-0.1842962970350892
5.372500000000002,-0.2972173543098703,-0.4357057397971164,-0.2258421145495622
5.375999999999998,-0.2769767709744921,-0.4431635316908882,-0.2503447919183106
5.3795,-0.2684543282370038,-0.4442281825346047,-0.260998281672484
5.382999999999996,-0.2578025838120824,-0.4506213235846599,-0.2567361876391139
5.386499999999998,-0.2599318854995155,-0.4463592295512898,-0.2386266513204207
5.390000000000001,-0.2620629325162006,-0.4378367868138015,-0.1992101354933808
5.393499999999996,-0.2652586303766022,-0.4175962034784233,-0.1534022239455376
5.396999999999999,-1.5489413139014236,-0.2908259585890671,-0.1054650107102613
5.400500000000001,-0.1864273440517743,0.2269085107225308,-0.2791078179911772
5.403999999999996,-0.2759121201307756,1.1462589488812918,-0.6583539018155291
5.407499999999999,-0.286565609884949,1.1973936053062215,-0.8288010112360433
5.411000000000001,-0.124639197872671,1.0748854544502358,-0.889522761242178
5.414499999999997,0.1619246666830259,1.2378747719769785,-0.9140254386109264
5.417999999999999,0.3898978282492732,1.310314662581003,-0.9246771830358478
5.421500000000002,0.5219948180157161,1.2645067510331598,-0.9097633445775564
5.424999999999997,0.614677037284371,1.18247976684793,-0.8469105475547365
5.4285,0.616806338971804,1.0727544074335509,-0.7755353077944284
5.432000000000002,0.5699337765802444,0.8937848552755481,-0.6647452975363323
5.4354999999999976,0.4879067923950148,0.7606214693361367,-0.5827165680218508
5.439,0.3345028231202252,0.5827165680218508,-0.4729912086074713
5.442499999999996,0.1992101354933808,0.4420988808471717,-0.4016177141764152
5.445999999999998,0.0117181405978899,0.258867234655799,-0.3078708440640437
5.4495000000000005,-0.1171831513081512,0.1310323389227262,-0.2375620004767041
5.452999999999996,-0.2652586303766022,-0.0287630260728665,-0.1576643179789077
5.456499999999998,-0.3408942188410284,-0.1470108282247343,-0.1054650107102613
5.460000000000001,-0.4090737607409349,-0.2897613077453506,-0.0490036094082447
5.463499999999996,-0.4303807402492817,-0.3867021303888716,-0.01598023463126
5.466999999999999,-0.4314453910929982,-0.5241258650324012,0.0266319790561814
5.470500000000001,-0.4122694586013365,-0.6327865736030641,0.0500682602519613
5.473999999999997,-0.3877685265618402,-0.7723396099340267,0.0990718696602061
5.477499999999999,-0.369657244913895,-0.8692821779067997,0.1267702448893561
5.481000000000002,-0.3590055004889736,-0.9832696313545496,0.1725781564371993
5.484499999999997,-0.3472873598910836,-1.079145803154354,0.2279731615662473
5.488,-0.341960615013997,-1.1356072044563703,0.2673896773932873
5.491500000000002,-0.316393286801532,-1.2027203501833084,0.3206536355056502
5.494999999999997,-0.2812388650078622,-1.23361442327286,0.3600701513326901
5.4985,-0.2119946722642392,-1.2645067510331598,0.4016177141764152
5.501999999999995,-0.1448797812080492,-1.275160240787333,0.42292294835551
5.505499999999998,-0.0617864008498512,-1.2815516365081363,0.4495549274116914
5.509,0.0010646508437165,-1.2740955899436164,0.4634041150262664
5.512499999999996,0.0703088435873395,-1.24533256387075,0.4900360940824479
5.515999999999998,0.1214435000122694,-1.2069806988874263,0.5049499325407395
5.519500000000001,0.1725781564371993,-1.138802902316772,0.5134723752782278
5.522999999999996,0.2098636252475541,-1.073819058277267,0.517734469311598
5.526499999999999,0.2599318854995155,-0.9779428864774626,0.5028206308533064
5.530000000000001,0.2982837504828389,-0.8980452039796664,0.480449000501243
5.5334999999999965,0.3526141047681703,-0.7840577505319166,0.4431635316908882
5.536999999999999,0.38350643252847,-0.6967040214696004,0.4133358547743051
5.5405000000000015,0.4058780628805333,-0.5646070317031576,0.3664615470534934
5.543999999999997,0.3941599222826434,-0.4751222556241564,0.3291760782431385
5.547499999999999,0.3398295679973119,-0.3440916620306821,0.2705853752536888
5.551000000000002,0.2652586303766022,-0.2524758389349957,0.2226464166891606
5.554499999999997,0.1267702448893561,-0.1182478021518678,0.1565979218059392
5.558,0.0031956978604016,-0.0181095363186931,0.0990718696602061
5.561500000000002,-0.1629910628559944,0.1193124529955843,0.0223716303520633
5.564999999999998,-0.2876302607286655,0.2151903701246408,-0.0383501196540714
5.5685,-0.4154651564617382,0.3430252658577135,-0.1203788491685528
5.571999999999996,-0.4847093492053612,0.4282496932325966,-0.1821652500184041
5.575499999999998,-0.5305172607532044,0.519865516328283,-0.260998281672484
5.579000000000001,-0.5401060996636612,0.5763251723010476,-0.3174579376452486
5.582499999999996,-0.517734469311598,0.6391779693238674,-0.3760503859639502
5.585999999999999,-0.4836446983616446,0.6711366932571355,-0.4154651564617382
5.589500000000001,-0.4303807402492817,0.6998997193300021,-0.4548816722887781
