time,Gyr_X,Gyr_Y,Gyr_Z
0.0,0.0063913957208032,0.002131047016685,-0.0031956978604016
0.0035000000000025,0.0031956978604016,0.0010646508437165,-0.002131047016685
0.0069999999999978,0.0042603487041181,0.0010646508437165,-0.0053267448770866
0.0105000000000003,0.0042603487041181,0.002131047016685,0.0
0.0140000000000028,0.0063913957208032,0.002131047016685,-0.0031956978604016
0.0174999999999982,0.0031956978604016,0.0010646508437165,-0.0042603487041181
0.0210000000000007,0.0042603487041181,0.002131047016685,-0.0063913957208032
0.0245000000000032,0.0053267448770866,0.002131047016685,-0.0042603487041181
0.0279999999999986,0.0010646508437165,0.0031956978604016,-0.002131047016685
0.0315000000000011,0.0010646508437165,-1.3038212479669908e-19,-0.0042603487041181
0.0350000000000036,0.002131047016685,0.0053267448770866,-0.0042603487041181
0.038499999999999,0.0042603487041181,0.002131047016685,-0.0063913957208032
0.0420000000000015,0.0042603487041181,0.002131047016685,-0.0042603487041181
0.045500000000004,0.002131047016685,0.0010646508437165,-0.0010646508437165
0.0489999999999994,0.0053267448770866,0.0010646508437165,-0.002131047016685
0.0525000000000019,0.002131047016685,0.0010646508437165,-0.0031956978604016
0.0559999999999973,0.0042603487041181,0.0031956978604016,-0.0031956978604016
0.0594999999999998,0.0010646508437165,-1.3038212479669908e-19,-0.0063913957208032
0.0630000000000023,0.0053267448770866,0.002131047016685,-0.0031956978604016
0.0664999999999977,0.0042603487041181,0.002131047016685,-0.0053267448770866
0.0700000000000002,0.0010646508437165,0.002131047016685,-0.0063913957208032
0.0735000000000027,0.0063913957208032,0.0031956978604016,-0.0042603487041181
0.0769999999999981,1.3038212479669908e-19,0.0010646508437165,-0.0031956978604016
0.0805000000000006,0.0031956978604016,-3.913601155782886e-19,-0.002131047016685
0.0840000000000031,0.0031956978604016,0.002131047016685,-0.0053267448770866
0.0874999999999985,0.0042603487041181,0.0010646508437165,-0.002131047016685
0.091000000000001,0.002131047016685,0.002131047016685,-0.002131047016685
0.0945000000000035,0.002131047016685,0.0042603487041181,-0.002131047016685
0.0979999999999989,0.0063913957208032,0.0010646508437165,-0.0031956978604016
0.1015000000000014,0.002131047016685,0.002131047016685,-0.0053267448770866
0.1050000000000039,0.002131047016685,0.0042603487041181,-0.0053267448770866
0.1084999999999993,0.0031956978604016,0.0010646508437165,-0.0010646508437165
0.1120000000000018,0.0031956978604016,0.002131047016685,-0.0010646508437165
0.1155000000000043,0.002131047016685,0.002131047016685,-0.0042603487041181
0.1189999999999997,0.0031956978604016,0.002131047016685,-0.0031956978604016
0.1225000000000022,0.002131047016685,0.002131047016685,-0.0042603487041181
0.1259999999999976,0.0042603487041181,0.0010646508437165,-0.0031956978604016
0.1295000000000001,0.0031956978604016,0.0031956978604016,-0.0031956978604016
0.1330000000000026,0.0053267448770866,0.002131047016685,-0.0053267448770866
0.136499999999998,0.0042603487041181,0.002131047016685,-0.0063913957208032
0.1400000000000005,0.0010646508437165,0.002131047016685,-0.0074577918937717
0.143500000000003,0.0074577918937717,-9.133160971414677e-19,-0.0053267448770866
0.1469999999999984,0.0010646508437165,0.0031956978604016,-0.0074577918937717
0.1505000000000009,0.0042603487041181,-5.217422403749877e-19,-0.0042603487041181
0.1540000000000034,0.0053267448770866,0.0031956978604016,0.0
0.1574999999999988,0.0010646508437165,0.0053267448770866,-0.0053267448770866
0.1610000000000013,0.0010646508437165,0.002131047016685,-0.002131047016685
0.1645000000000038,0.0053267448770866,0.0042603487041181,-0.002131047016685
0.1679999999999992,0.0042603487041181,0.002131047016685,-0.0031956978604016
0.1715000000000017,0.0053267448770866,-6.523381063598781e-19,-0.0031956978604016
0.1750000000000042,0.0042603487041181,0.002131047016685,-0.0053267448770866
0.1784999999999996,0.0031956978604016,0.0031956978604016,-0.0053267448770866
0.1820000000000021,0.0063913957208032,0.002131047016685,-0.0042603487041181
0.1854999999999975,0.0042603487041181,0.0010646508437165,-0.0031956978604016
0.189,0.0053267448770866,0.0031956978604016,-0.0031956978604016
0.1925000000000025,0.0063913957208032,0.0042603487041181,-0.002131047016685
0.1959999999999979,0.0042603487041181,0.002131047016685,-0.0053267448770866
0.1995000000000004,0.0010646508437165,0.0010646508437165,0.0
0.2030000000000029,2.6097799078158957e-19,0.002131047016685,-0.0042603487041181
0.2064999999999983,0.0042603487041181,0.0010646508437165,-0.0031956978604016
0.2100000000000008,0.0053267448770866,0.002131047016685,-0.0042603487041181
0.2135000000000033,0.0042603487041181,0.002131047016685,-0.0053267448770866
0.2169999999999987,0.0010646508437165,0.0031956978604016,-0.0053267448770866
0.2205000000000012,0.0010646508437165,0.0031956978604016,-0.0042603487041181
0.2240000000000037,0.0031956978604016,0.0042603487041181,-0.002131047016685
0.2274999999999991,0.0074577918937717,0.0031956978604016,-0.0010646508437165
0.2310000000000016,0.002131047016685,0.0010646508437165,-0.0031956978604016
0.2345000000000041,0.0074577918937717,0.0010646508437165,-0.0031956978604016
0.2379999999999995,0.0042603487041181,-5.217422403749877e-19,-0.0010646508437165
0.241500000000002,0.0031956978604016,0.0010646508437165,-0.0063913957208032
0.2449999999999974,0.0031956978604016,0.0010646508437165,-0.0063913957208032
0.2484999999999999,0.0031956978604016,-3.913601155782886e-19,-0.0031956978604016
0.2520000000000024,0.0010646508437165,0.0031956978604016,-0.002131047016685
0.2554999999999978,0.0042603487041181,0.002131047016685,-0.0074577918937717
0.2590000000000003,0.0042603487041181,0.002131047016685,-0.0063913957208032
0.2625000000000028,0.0042603487041181,0.0042603487041181,-0.0010646508437165
0.2659999999999982,0.0031956978604016,0.002131047016685,-0.002131047016685
0.2695000000000007,0.002131047016685,0.0031956978604016,-0.0042603487041181
0.2730000000000032,0.002131047016685,0.0010646508437165,-0.002131047016685
0.2764999999999986,0.002131047016685,0.0031956978604016,-0.0042603487041181
0.2800000000000011,0.0031956978604016,-3.913601155782886e-19,-0.0031956978604016
0.2835000000000036,0.0042603487041181,0.002131047016685,-0.0074577918937717
0.286999999999999,0.002131047016685,0.002131047016685,-0.0042603487041181
0.2905000000000015,0.0031956978604016,0.002131047016685,-0.0053267448770866
0.294000000000004,0.002131047016685,0.002131047016685,-0.0053267448770866
0.2974999999999994,0.002131047016685,0.0010646508437165,-0.002131047016685
0.3010000000000019,0.0010646508437165,0.002131047016685,-0.002131047016685
0.3045000000000044,0.0042603487041181,0.002131047016685,-0.0042603487041181
0.3079999999999998,0.0010646508437165,0.002131047016685,-0.0010646508437165
0.3115000000000023,0.002131047016685,0.0031956978604016,0.0
0.3149999999999977,0.002131047016685,0.0031956978604016,-0.0063913957208032
0.3185000000000002,0.002131047016685,0.0074577918937717,-0.0042603487041181
0.3220000000000027,0.002131047016685,0.0063913957208032,-0.0053267448770866
0.3254999999999981,0.002131047016685,0.0085224427374883,-0.0031956978604016
0.3290000000000006,0.0031956978604016,0.0095870935812048,-0.0042603487041181
0.3325000000000031,1.4350583375164553e-18,0.0117181405978899,-0.0031956978604016
0.3359999999999985,0.002131047016685,0.0213052341790947,-0.0031956978604016
0.339500000000001,0.0042603487041181,0.0223716303520633,-0.002131047016685
0.3430000000000035,0.0031956978604016,0.0255673282124649,-0.0031956978604016
0.3464999999999989,0.0053267448770866,0.0266319790561814,-0.0042603487041181
0.3500000000000014,0.0106534897541733,0.0351544217936697,-0.0042603487041181
0.3535000000000039,0.0095870935812048,0.0383501196540714,-0.0042603487041181
0.3569999999999993,0.0127827914416064,0.0436768645311581,-0.0042603487041181
0.3605000000000018,0.0170448854749766,0.0447432607041266,-0.0074577918937717
0.3640000000000043,0.0149138384582915,0.0426122136874415,-0.0010646508437165
0.3674999999999997,0.0106534897541733,0.041545817514473,0.0
0.3710000000000022,0.0117181405978899,0.0564614013020165,0.0031956978604016
0.3744999999999976,0.0117181405978899,0.0681795418999064,0.0
0.3780000000000001,0.0213052341790947,0.0671131457269379,-0.0074577918937717
0.3815000000000026,0.0266319790561814,0.0639174478665363,-0.0063913957208032
0.384999999999998,0.02769837522915,0.0479389585645282,0.0042603487041181
0.3885000000000005,0.0287630260728665,0.0351544217936697,-0.002131047016685
0.392000000000003,0.0170448854749766,0.0085224427374883,-0.0106534897541733
0.3954999999999984,0.0042603487041181,-0.0042603487041181,0.0
0.3990000000000009,0.0010646508437165,-0.0223716303520633,-0.0117181405978899
0.4025000000000034,0.0010646508437165,-0.0319587239332681,-0.0085224427374883
0.4059999999999988,0.0095870935812048,-0.0319587239332681,-0.0010646508437165
0.4095000000000013,0.0010646508437165,-0.029827676916583,0.0
0.4130000000000038,0.0063913957208032,-0.0255673282124649,-0.0042603487041181
0.4164999999999992,0.0010646508437165,-0.0255673282124649,-0.0063913957208032
0.4200000000000017,-0.0042603487041181,-0.0319587239332681,-0.002131047016685
0.4235000000000042,-0.0042603487041181,-0.0319587239332681,0.0
0.4269999999999996,0.0106534897541733,-0.0287630260728665,0.0
0.4305000000000021,0.0095870935812048,-0.0255673282124649,-0.002131047016685
0.4339999999999975,0.0117181405978899,-0.0181095363186931,0.0
0.4375,0.0095870935812048,-0.0127827914416064,-0.0127827914416064
0.4410000000000025,0.0053267448770866,-0.0063913957208032,-0.0010646508437165
0.4444999999999979,0.0095870935812048,-1.1740803467348658e-18,0.0010646508437165
0.4480000000000004,0.0117181405978899,0.002131047016685,-0.0085224427374883
0.4515000000000029,0.0149138384582915,0.0063913957208032,-0.0063913957208032
0.4549999999999983,0.0042603487041181,0.0063913957208032,0.0
0.4585000000000008,0.0010646508437165,0.0031956978604016,0.0053267448770866
0.4620000000000033,0.0042603487041181,-0.0031956978604016,-0.0031956978604016
0.4654999999999987,0.0042603487041181,-0.0010646508437165,-0.0031956978604016
0.4690000000000012,0.0053267448770866,0.013849187614575,0.0
0.4725000000000037,0.013849187614575,0.02769837522915,-0.002131047016685
0.4759999999999991,0.0245026773687483,0.0362208179666383,-0.0031956978604016
0.4795000000000016,0.0234362811957798,0.0362208179666383,-0.0031956978604016
0.4830000000000041,0.0340897709499532,0.0426122136874415,0.0
0.4864999999999995,0.0351544217936697,0.0458079115478431,0.002131047016685
0.490000000000002,0.0362208179666383,0.0330233747769847,0.0010646508437165
0.4934999999999974,0.0383501196540714,0.0181095363186931,0.0031956978604016
0.4969999999999999,0.0394165158270399,-0.002131047016685,0.0031956978604016
0.5005000000000024,0.0330233747769847,-0.0053267448770866,0.0042603487041181
0.5039999999999978,0.02769837522915,0.0053267448770866,0.002131047016685
0.5075000000000003,0.0191759324916617,0.0085224427374883,-0.0031956978604016
0.5110000000000028,0.0266319790561814,-0.0010646508437165,-0.0063913957208032
0.5144999999999982,0.0213052341790947,-0.0117181405978899,-0.0095870935812048
0.5180000000000007,-4.1747928877526666e-18,-0.0340897709499532,-0.0106534897541733
0.5215000000000032,-0.0170448854749766,-0.0468725623915597,-0.0095870935812048
0.5249999999999986,-0.02769837522915,-0.0575260521457331,-0.0149138384582915
0.5285000000000011,-0.0266319790561814,-0.0628527970228197,-0.0149138384582915
0.5320000000000036,-0.0181095363186931,-0.0607217500061347,-0.0181095363186931
0.535499999999999,-0.0117181405978899,-0.0521993072686464,-0.0149138384582915
0.5390000000000015,-0.0127827914416064,-0.0436768645311581,-0.0170448854749766
0.542500000000004,-0.0117181405978899,-0.0394165158270399,-0.01598023463126
0.5459999999999994,-0.0053267448770866,-0.0372854688103548,-0.0234362811957798
0.5495000000000019,0.002131047016685,-0.0362208179666383,-0.0213052341790947
0.5530000000000044,0.0266319790561814,-0.0372854688103548,-0.0234362811957798
0.5564999999999998,0.0447432607041266,-0.0362208179666383,-0.0266319790561814
0.5600000000000023,0.0607217500061347,-0.0404811666707564,-0.0202405833353782
0.5634999999999977,0.0596570991624181,-0.0426122136874415,-0.0170448854749766
0.5670000000000002,0.0564614013020165,-0.0266319790561814,-0.0095870935812048
0.5705000000000027,0.0458079115478431,-0.0127827914416064,-0.0063913957208032
0.5739999999999981,0.0308940730895516,0.0074577918937717,0.0
0.5775000000000006,0.0202405833353782,0.0213052341790947,0.0042603487041181
0.5810000000000031,0.0170448854749766,0.0383501196540714,0.0085224427374883
0.5844999999999985,0.0202405833353782,0.0511346564249298,0.0117181405978899
0.588000000000001,0.0095870935812048,0.0468725623915597,0.0213052341790947
0.5915000000000035,0.0095870935812048,0.0447432607041266,0.0181095363186931
0.5949999999999989,0.0063913957208032,0.0351544217936697,0.01598023463126
0.5985000000000014,0.0074577918937717,0.0351544217936697,0.013849187614575
0.6020000000000039,0.0031956978604016,0.0394165158270399,0.013849187614575
0.6054999999999993,0.002131047016685,0.0490036094082447,0.0191759324916617
0.6090000000000018,0.0053267448770867,0.0479389585645282,0.0223716303520633
0.6125000000000043,0.0149138384582915,0.0490036094082447,0.0266319790561814
0.6159999999999997,0.0234362811957798,0.0458079115478431,0.0287630260728665
0.6195000000000022,0.0266319790561814,0.0330233747769847,0.0362208179666383
0.6229999999999976,0.02769837522915,0.0234362811957798,0.029827676916583
0.6265000000000001,0.02769837522915,0.0074577918937717,0.0255673282124649
0.6300000000000026,0.0255673282124649,-0.0074577918937717,0.0191759324916617
0.633499999999998,0.0266319790561814,-0.0234362811957798,0.0202405833353782
0.6370000000000005,0.0330233747769847,-0.0319587239332681,0.0170448854749766
0.640500000000003,0.029827676916583,-0.0372854688103548,0.013849187614575
0.6439999999999984,0.0213052341790947,-0.0383501196540714,0.0095870935812048
0.6475000000000009,0.0117181405978899,-0.041545817514473,0.0149138384582915
0.6510000000000034,0.0095870935812048,-0.0372854688103548,0.0202405833353782
0.6544999999999987,0.0095870935812048,-0.0362208179666383,0.01598023463126
0.6580000000000013,0.0202405833353782,-0.0319587239332681,0.0170448854749766
0.6615000000000038,0.0266319790561814,-0.0255673282124649,0.013849187614575
0.6649999999999991,0.0372854688103548,-0.0191759324916617,0.0181095363186931
0.6685000000000016,0.041545817514473,-0.0106534897541733,0.01598023463126
0.6720000000000041,0.0575260521457331,0.002131047016685,0.0106534897541733
0.6754999999999995,0.0713752397603081,0.0074577918937717,0.0063913957208032
0.679000000000002,0.0809623333415129,0.0181095363186931,-0.0010646508437165
0.6824999999999974,0.0873537290623162,0.0308940730895516,-0.0074577918937717
0.6859999999999999,0.0862890782185996,0.029827676916583,-0.0117181405978899
0.6895000000000024,0.0873537290623162,0.0330233747769846,-0.013849187614575
0.6929999999999978,0.0852244273748831,0.0234362811957798,-0.0149138384582915
0.6965000000000003,0.0894847760790012,0.0095870935812048,-0.0191759324916617
0.7000000000000028,0.0926804739394028,-0.0106534897541734,-0.0170448854749766
0.7034999999999982,0.0873537290623162,-0.0181095363186931,-0.0255673282124649
0.7070000000000007,0.0873537290623162,-0.0308940730895516,-0.0330233747769847
0.7105000000000032,0.096942567972773,-0.0426122136874415,-0.0404811666707564
0.7139999999999986,0.1342280367831279,-0.0458079115478431,-0.0564614013020165
0.7175000000000011,0.1597953649955928,-0.0500682602519613,-0.069244192743623
0.7210000000000036,0.191754088928861,-0.0468725623915597,-0.0809623333415129
0.724499999999999,0.2098636252475541,-0.0436768645311581,-0.0862890782185996
0.7280000000000015,0.2269085107225308,-0.0266319790561815,-0.0873537290623162
0.731500000000004,0.2343645572870505,-0.0117181405978899,-0.0788312863248278
0.7349999999999994,0.2492801410745941,0.0127827914416064,-0.0596570991624181
0.7385000000000019,0.2620629325162006,0.029827676916583,-0.0404811666707564
0.7420000000000044,0.2972173543098703,0.0617864008498512,-0.01598023463126
0.7454999999999998,0.3366338701369103,0.0884201252352846,0.0010646508437165
0.7490000000000023,0.4026823650201317,0.1182478021518677,0.0223716303520633
0.7524999999999977,0.4538170214450616,0.1363573384705609,0.0266319790561814
0.7560000000000002,0.508147375730393,0.1342280367831278,0.0362208179666383
0.7595000000000027,0.5401060996636612,0.1225098961852379,0.0330233747769847
0.7629999999999981,0.614677037284371,0.0862890782185995,-0.0031956978604016
0.7665000000000006,0.6924436727654824,0.0564614013020164,-0.0351544217936697
0.7700000000000031,0.780862052671515,0.0095870935812047,-0.0458079115478431
0.7734999999999985,0.8298656620797599,-0.0234362811957799,-0.0468725623915597
0.777000000000001,0.8469105475547365,-0.067113145726938,-0.0351544217936697
0.7805000000000035,0.8319967090964449,-0.0926804739394029,-0.0383501196540714
0.7839999999999989,0.7840577505319166,-0.1182478021518679,-0.0351544217936697
0.7875000000000014,0.7393162351570419,-0.1320969897664429,-0.0351544217936697
0.7910000000000039,0.6711366932571355,-0.1352926876268445,-0.0372854688103548
0.7944999999999993,0.5965657556364258,-0.1406194325039312,-0.0394165158270399
0.7980000000000018,0.4836446983616446,-0.1470108282247344,-0.0404811666707564
0.8015000000000043,0.3771150368076668,-0.1619246666830259,-0.0447432607041266
0.8049999999999997,0.2823035158515788,-0.191754088928861,-0.0777666354811113
0.8085000000000022,0.2301042085829323,-0.191754088928861,-0.0990718696602061
0.8119999999999976,0.1395530363309625,-0.2237128128621292,-0.1065296615539778
0.8155000000000001,0.043676864531158,-0.2641939795328856,-0.124639197872671
0.8190000000000026,-0.0926804739394029,-0.3174579376452486,-0.1747092034538843
0.822499999999998,-0.2130593231079558,-0.3717882919305801,-0.2258421145495622
0.8260000000000005,-0.3334381722765087,-0.4367721359700849,-0.2759121201307756
0.829500000000003,-0.4101401569139035,-0.4793843496575264,-0.300413052170272
0.8329999999999984,-0.4932317919428496,-0.5369104018032594,-0.3174579376452486
0.8365000000000009,-0.5369104018032597,-0.5699337765802442,-0.3217200316786187
0.8400000000000034,-0.5773915684740162,-0.6072192453905991,-0.3185243338182171
0.8434999999999988,-0.598696802653111,-0.6338512244467805,-0.3078708440640437
0.8470000000000013,-0.6093502924072844,-0.6626142505196472,-0.2897613077453506
0.8505000000000038,-0.612545990267686,-0.6796591359946238,-0.2737810731140905
0.8539999999999992,-0.6093502924072844,-0.7030954171904036,-0.2578025838120824
0.8575000000000017,-0.6040235475301976,-0.715879953961262,-0.2439533961975074
0.8610000000000042,-0.5997614534968275,-0.7371851881403568,-0.233299906443334
0.8644999999999996,-0.6008278496697961,-0.7531654227716169,-0.2258421145495622
0.8680000000000021,-0.612545990267686,-0.7648835633695068,-0.2215817658454441
0.8714999999999975,-0.6285244795696941,-0.7670146103861919,-0.219450718828759
0.875,-0.6604849488322143,-0.7723396099340266,-0.2237128128621291
0.8785000000000025,-0.6871169278883956,-0.7595568184924201,-0.2205171150017275
0.8819999999999979,-0.7286627454028687,-0.7393162351570418,-0.219450718828759
0.8855000000000004,-0.7584921676487038,-0.7094885582404589,-0.2141239739516723
0.8890000000000029,-0.792580193269405,-0.6594185526592455,-0.2066679273871525
0.8924999999999983,-0.8106914749173502,-0.6093502924072842,-0.1981454846496642
0.8960000000000008,-0.8224096155152402,-0.5305172607532043,-0.1885583910684593
0.8995000000000033,-0.8160182197944369,-0.4676662090596365,-0.1715135055934827
0.9029999999999988,-0.7915155424256883,-0.3909642244222417,-0.1470108282247343
0.9065000000000012,-0.7638171671965385,-0.3430252658577134,-0.124639197872671
0.9100000000000036,-0.7020307663466872,-0.2727164222703738,-0.1065296615539778
0.9134999999999992,-0.6519625060947258,-0.2226464166891605,-0.1001382658331746
0.9170000000000016,-0.5731294744406459,-0.152337573101821,-0.0990718696602061
0.920500000000004,-0.519865516328283,-0.1022693128498596,-0.1033339636935762
0.9239999999999996,-0.4378367868138015,-0.0319587239332681,-0.1043986145372928
0.927500000000002,-0.3856374795451551,0.0063913957208032,-0.1054650107102613
0.9309999999999974,-0.3195889846619337,0.0596570991624182,-0.1012029166768912
0.9345,-0.2769767709744921,0.0926804739394029,-0.0990718696602061
0.9380000000000024,-0.2247774637058457,0.1299659427497577,-0.0905494269227178
0.9414999999999978,-0.193883390616294,0.1597953649955928,-0.083093380358198
0.9450000000000004,-0.1597953649955928,0.1938833906162941,-0.0649838440395048
0.9485000000000028,-0.1299659427497577,0.2173214171413259,-0.0521993072686464
0.9519999999999982,-0.099071869660206,0.2450180470412239,-0.0287630260728665
0.9555000000000008,-0.0703088435873395,0.2641939795328856,-0.0127827914416064
0.9590000000000032,-0.0372854688103548,0.2918906094327836,0.0
0.9624999999999986,-0.0031956978604015,0.3078708440640437,0.0106534897541733
0.9660000000000012,0.0330233747769847,0.3313071252598236,0.0202405833353782
0.9695000000000036,0.0628527970228198,0.3568744534722885,0.0308940730895516
0.972999999999999,0.1043986145372928,0.3962909692993285,0.0394165158270399
0.9765000000000016,0.1310323389227263,0.4282496932325966,0.0479389585645282
0.980000000000004,0.1725781564371993,0.4783179534845579,0.0564614013020165
0.9834999999999994,0.1981454846496643,0.519865516328283,0.0596570991624181
0.987000000000002,0.231168859426649,0.5741958706136145,0.0607217500061347
0.9905000000000044,0.2546051406224288,0.6189373859884891,0.0639174478665363
0.9939999999999998,0.2791078179911772,0.6658099483800488,0.0575260521457331
0.9975000000000024,0.2865656098849491,0.6935083236091989,0.0564614013020165
1.0009999999999977,0.2950880526224373,0.7318584432632703,0.0617864008498512
1.0045000000000002,0.2886949115723821,0.7457076308778453,0.0596570991624181
1.008000000000003,0.2791078179911773,0.7595568184924202,0.0564614013020165
1.011499999999998,0.2641939795328857,0.7584921676487036,0.0511346564249298
1.0150000000000006,0.2364956043037357,0.7563611206320187,0.0340897709499532
1.018500000000003,0.2098636252475542,0.753165422771617,0.0149138384582915
1.0219999999999985,0.1597953649955929,0.7361205372966404,-0.0053267448770866
1.025500000000001,0.1246391978726711,0.7222713496820654,-0.02769837522915
1.0290000000000037,0.0660484948832215,0.6913772765925138,-0.0426122136874415
1.0324999999999989,0.025567328212465,0.6636806466926157,-0.055395005129048
1.0360000000000014,-0.029827676916583,0.6210684330051742,-0.069244192743623
1.039500000000004,-0.071375239760308,0.5848476150385359,-0.0756355884644262
1.0429999999999993,-0.1235745470289544,0.5294526099094878,-0.0905494269227178
1.0465000000000018,-0.1640557136997109,0.4868403962220463,-0.096942567972773
1.0500000000000045,-0.207732578230869,0.4197272504951083,-0.110790010258096
1.0534999999999997,-0.2247774637058456,0.3664615470534934,-0.1139874534477496
1.0570000000000022,-0.2439533961975073,0.2950880526224373,-0.1193124529955843
1.0604999999999976,-0.2418223491808223,0.2439533961975074,-0.1203788491685528
1.064,-0.2322352555996174,0.1832316461913727,-0.1257055940456395
1.0675000000000026,-0.2087989744038376,0.1448797812080493,-0.1225098961852379
1.070999999999998,-0.1683160624038291,0.1054650107102613,-0.1225098961852379
1.0745000000000005,-0.1289012919060412,0.0862890782185996,-0.1171831513081512
1.078000000000003,-0.0756355884644262,0.0703088435873395,-0.110790010258096
1.0814999999999984,-0.0245026773687483,0.0564614013020165,-0.1033339636935762
1.0850000000000009,0.041545817514473,0.0521993072686464,-0.0958761717998045
1.0885000000000034,0.0926804739394028,0.0490036094082447,-0.0958761717998045
1.0919999999999987,0.1619246666830259,0.0511346564249298,-0.096942567972773
1.0955000000000013,0.205601531214184,0.0532657034416149,-0.1012029166768912
1.0990000000000038,0.2673896773932873,0.0649838440395048,-0.110790010258096
1.1024999999999991,0.300413052170272,0.0692441927436229,-0.1171831513081512
1.1060000000000016,0.3334381722765087,0.0617864008498512,-0.1289012919060412
1.109500000000004,0.3451563128743986,0.0553950051290479,-0.136357338470561
1.1129999999999995,0.3451563128743986,0.043676864531158,-0.1491418752414194
1.116500000000002,0.3291760782431385,0.0287630260728665,-0.1619246666830259
1.1199999999999974,0.2940216564494687,0.0031956978604015,-0.1725781564371993
1.1235,0.2652586303766022,-0.0117181405978899,-0.180035948330971
1.1270000000000024,0.2237128128621291,-0.0372854688103548,-0.1864273440517743
1.1304999999999978,0.1896230419121759,-0.0564614013020165,-0.191754088928861
1.1340000000000003,0.1565979218059392,-0.0894847760790013,-0.1885583910684593
1.1375000000000028,0.138488385487246,-0.1150521042914662,-0.1864273440517743
1.1409999999999982,0.1203788491685528,-0.1555332709622227,-0.177904901314286
1.1445000000000007,0.1139874534477496,-0.1789695521580026,-0.1747092034538843
1.1480000000000032,0.1097253594143794,-0.219450718828759,-0.1544686201185061
1.1514999999999986,0.1086607085706629,-0.2439533961975074,-0.1406194325039311
1.1550000000000011,0.1139874534477496,-0.2705853752536888,-0.1193124529955843
1.1585000000000036,0.1171831513081512,-0.2897613077453506,-0.1012029166768912
1.161999999999999,0.1225098961852379,-0.300413052170272,-0.0820287295144815
1.1655000000000015,0.1278348957330726,-0.2993484013265554,-0.0660484948832214
1.169000000000004,0.1299659427497577,-0.2844345628682639,-0.0436768645311581
1.1724999999999994,0.1320969897664428,-0.2737810731140905,-0.0266319790561814
1.176000000000002,0.1342280367831278,-0.2514094427620272,-0.0095870935812048
1.1795000000000044,0.1278348957330726,-0.2247774637058457,0.0042603487041181
1.1829999999999998,0.1118564064310645,-0.1906876927558924,0.0127827914416064
1.1865000000000023,0.0990718696602061,-0.1640557136997109,0.01598023463126
1.1899999999999975,0.0798976824977964,-0.1278348957330726,0.01598023463126
1.1935000000000002,0.0628527970228197,-0.1022693128498597,0.0149138384582915
1.1970000000000027,0.0340897709499532,-0.0681795418999064,0.0181095363186931
1.200499999999998,0.01598023463126,-0.0511346564249298,0.0255673282124649
1.2040000000000006,-0.013849187614575,-0.0319587239332681,0.0213052341790947
1.2075000000000031,-0.0394165158270399,-0.01598023463126,0.0255673282124649
1.2109999999999983,-0.0767019846373948,-0.0031956978604016,0.0202405833353782
1.214500000000001,-0.0990718696602061,0.0053267448770867,0.0191759324916617
1.2180000000000035,-0.1416840833476476,0.0127827914416064,0.013849187614575
1.221499999999999,-0.1715135055934827,0.0245026773687484,0.0074577918937717
1.2250000000000014,-0.2098636252475541,0.02769837522915,0.0010646508437165
1.228500000000004,-0.2428870000245388,0.0298276769165831,-0.0053267448770866
1.231999999999999,-0.2801724688348938,0.0351544217936698,-0.013849187614575
1.2355000000000018,-0.3078708440640437,0.0372854688103548,-0.0191759324916617
1.2390000000000043,-0.3323735214327921,0.0447432607041266,-0.0255673282124649
1.2424999999999995,-0.3504830577514853,0.0490036094082448,-0.0266319790561814
1.2460000000000022,-0.3685925940701784,0.0532657034416149,-0.02769837522915
1.2494999999999976,-0.3707236410868635,0.0543303542853315,-0.0245026773687483
1.253,-0.3707236410868635,0.0543303542853315,-0.0149138384582915
1.2565000000000026,-0.3590055004889736,0.0575260521457331,-0.0085224427374883
1.259999999999998,-0.3387649171535954,0.0521993072686464,0.0
1.2635000000000003,-0.3121311927681619,0.0521993072686464,0.0074577918937717
1.267000000000003,-0.2727164222703739,0.0543303542853315,0.0191759324916617
1.2704999999999984,-0.2407576983371057,0.0468725623915597,0.0191759324916617
1.274000000000001,-0.1885583910684593,0.0447432607041266,0.0266319790561814
1.2775000000000034,-0.1555332709622227,0.0340897709499532,0.0245026773687483
1.2809999999999988,-0.1075943123976944,0.0202405833353782,0.0266319790561814
1.2845000000000013,-0.0767019846373948,0.0127827914416064,0.0234362811957798
1.2880000000000038,-0.0468725623915597,0.0031956978604016,0.0245026773687483
1.2914999999999992,-0.0287630260728665,-0.002131047016685,0.0330233747769847
1.2950000000000017,-0.0063913957208032,-0.01598023463126,0.0479389585645282
1.2985000000000042,0.0010646508437165,-0.0255673282124649,0.0596570991624181
1.3019999999999996,0.0117181405978899,-0.041545817514473,0.0724398906040246
1.305500000000002,0.0181095363186931,-0.0511346564249298,0.0788312863248278
1.3089999999999975,0.0255673282124649,-0.0660484948832214,0.0820287295144815
1.3125,0.0351544217936697,-0.0788312863248278,0.0873537290623162
1.3160000000000025,0.0511346564249298,-0.1001382658331746,0.0862890782185996
1.319499999999998,0.0660484948832214,-0.1150521042914662,0.0820287295144815
1.3230000000000004,0.0937468701123714,-0.1267702448893561,0.0820287295144815
1.326500000000003,0.1193124529955843,-0.1384883854872461,0.0809623333415129
1.3299999999999983,0.1608600158393093,-0.1491418752414194,0.0841580312019145
1.3335000000000008,0.1949497867892626,-0.1544686201185061,0.0777666354811113
1.3370000000000033,0.2386266513204206,-0.1608600158393094,0.0703088435873395
1.3404999999999987,0.2705853752536888,-0.1608600158393094,0.0607217500061347
1.3440000000000012,0.3131975889411305,-0.1565979218059392,0.0490036094082447
1.3475000000000037,0.3376985209806268,-0.1480754790684509,0.0362208179666383
1.350999999999999,0.3685925940701784,-0.1331616406101594,0.0191759324916617
1.3545000000000016,0.3845728287014385,-0.1235745470289545,0.002131047016685
1.358000000000004,0.4026823650201317,-0.1001382658331747,-0.0181095363186931
1.3614999999999997,0.4154651564617382,-0.0937468701123714,-0.0266319790561814
1.365000000000002,0.42292294835551,-0.0788312863248279,-0.0394165158270399
1.3684999999999974,0.42292294835551,-0.069244192743623,-0.0532657034416149
1.372,0.4271832970596281,-0.0521993072686464,-0.0628527970228197
1.3755000000000024,0.4239875991992265,-0.0330233747769847,-0.0713752397603081
1.3789999999999978,0.4133358547743051,-0.0031956978604016,-0.0756355884644262
1.3825000000000005,0.3952245731263599,0.0213052341790947,-0.0777666354811113
1.3860000000000028,0.369657244913895,0.0543303542853314,-0.0767019846373948
1.3894999999999982,0.341960615013997,0.0841580312019145,-0.0735062867769931
1.393000000000001,0.300413052170272,0.1182478021518677,-0.0628527970228197
1.3965000000000032,0.2673896773932873,0.1448797812080492,-0.0543303542853314
1.3999999999999986,0.2205171150017276,0.180035948330971,-0.0351544217936697
1.403500000000001,0.1768385051413175,0.207732578230869,-0.0191759324916617
1.4070000000000036,0.1171831513081513,0.2418223491808223,0.0149138384582915
1.410499999999999,0.0820287295144815,0.2673896773932873,0.0383501196540714
1.4140000000000017,0.0266319790561815,0.2918906094327836,0.0777666354811113
1.417500000000004,-0.0106534897541733,0.3153286359578155,0.0980072188164895
1.4209999999999994,-0.0500682602519612,0.3408942188410284,0.1267702448893561
1.424500000000002,-0.0809623333415129,0.355809802628572,0.1416840833476476
1.4280000000000044,-0.1097253594143794,0.3717882919305801,0.1491418752414194
1.4314999999999998,-0.1289012919060411,0.3781796876513833,0.1544686201185061
1.4350000000000025,-0.1470108282247343,0.3898978282492732,0.1491418752414194
1.4384999999999977,-0.1534022239455375,0.3888331774055567,0.1406194325039311
1.4420000000000002,-0.1459461773810177,0.3856374795451551,0.1342280367831279
1.445500000000003,-0.1395530363309625,0.3845728287014385,0.1203788491685528
1.448999999999998,-0.1182478021518677,0.3760503859639502,0.1054650107102613
1.4525000000000006,-0.0937468701123713,0.3632658491930918,0.0852244273748831
1.456000000000003,-0.0628527970228197,0.3440916620306821,0.0628527970228197
1.4594999999999985,-0.0330233747769846,0.3259803803827369,0.0404811666707564
1.463000000000001,0.0063913957208032,0.2982837504828389,0.0053267448770866
1.4665000000000037,0.0394165158270399,0.2737810731140905,-0.0202405833353782
1.4699999999999989,0.0820287295144815,0.2354309534600191,-0.055395005129048
1.4735000000000014,0.1161167551351827,0.2066679273871525,-0.0798976824977964
1.477000000000004,0.1608600158393094,0.1587289688226242,-0.1118564064310645
1.4804999999999993,0.1938833906162941,0.1278348957330726,-0.1342280367831279
1.4840000000000018,0.2354309534600191,0.0873537290623161,-0.1640557136997109
1.4875000000000045,0.2652586303766022,0.0596570991624181,-0.1736428072809158
1.4909999999999997,0.2918906094327836,0.0287630260728665,-0.1842962970350892
1.4945000000000022,0.3089354949077603,0.0095870935812048,-0.1885583910684593
1.4979999999999976,0.3217200316786187,-0.0170448854749766,-0.1768385051413174
1.5015,0.3249157295390203,-0.0340897709499532,-0.1640557136997109
1.5050000000000026,0.3206536355056502,-0.0617864008498513,-0.1459461773810178
1.508499999999998,0.3057397970473587,-0.0788312863248279,-0.1299659427497577
1.5120000000000005,0.2844345628682639,-0.1001382658331747,-0.1075943123976944
1.515500000000003,0.2673896773932873,-0.1235745470289545,-0.0905494269227178
1.5189999999999984,0.247149094057909,-0.150206526085136,-0.0703088435873395
1.5225000000000009,0.2343645572870505,-0.1768385051413175,-0.0585907029894496
1.5260000000000034,0.2279731615662473,-0.2109282760912707,-0.0436768645311581
1.5294999999999987,0.2269085107225307,-0.2396913021641372,-0.0372854688103548
1.5330000000000013,0.2301042085829323,-0.2748474692870591,-0.0351544217936697
1.5365000000000038,0.2386266513204206,-0.2972173543098704,-0.0351544217936697
1.5399999999999991,0.2514094427620271,-0.3163932868015321,-0.0490036094082447
1.5435000000000016,0.263127583359917,-0.3291760782431385,-0.0564614013020165
1.547000000000004,0.2695207244099722,-0.3376985209806269,-0.0745709376207097
1.5504999999999995,0.2705853752536888,-0.3345028231202253,-0.0926804739394028
1.554000000000002,0.263127583359917,-0.3334381722765087,-0.1086607085706629
1.5574999999999974,0.2556715367953973,-0.3313071252598237,-0.1225098961852379
1.561,0.2386266513204206,-0.3217200316786188,-0.138488385487246
1.5645000000000024,0.2205171150017275,-0.3110665419244454,-0.1491418752414194
1.5679999999999978,0.1970790884766956,-0.2972173543098703,-0.1640557136997109
1.5715000000000003,0.1725781564371993,-0.2791078179911772,-0.166186760716396
1.5750000000000028,0.1352926876268444,-0.260998281672484,-0.1704471094205142
1.5784999999999982,0.1033339636935762,-0.2354309534600191,-0.166186760716396
1.5820000000000007,0.0543303542853314,-0.2109282760912707,-0.1619246666830259
1.5855000000000032,0.0149138384582915,-0.1906876927558924,-0.1544686201185061
1.5889999999999986,-0.0362208179666383,-0.1629910628559944,-0.1416840833476476
1.5925000000000011,-0.0681795418999065,-0.1416840833476476,-0.1267702448893561
1.5960000000000036,-0.1182478021518678,-0.1193124529955843,-0.1129210572747811
1.599499999999999,-0.1544686201185061,-0.1012029166768911,-0.1065296615539778
1.6030000000000015,-0.1906876927558924,-0.0777666354811113,-0.0905494269227178
1.606500000000004,-0.2173214171413259,-0.0617864008498512,-0.0809623333415129
1.6099999999999994,-0.2396913021641372,-0.043676864531158,-0.0543303542853314
1.613500000000002,-0.2546051406224288,-0.0351544217936697,-0.0383501196540714
1.616999999999997,-0.2695207244099723,-0.0170448854749765,-0.0053267448770866
1.6204999999999998,-0.2716500260974054,-0.0095870935812048,0.01598023463126
1.6240000000000023,-0.2663250265495707,0.0042603487041181,0.0479389585645282
1.6274999999999975,-0.260998281672484,0.0053267448770867,0.069244192743623
1.6310000000000002,-0.2354309534600191,0.0042603487041181,0.0958761717998045
1.6345000000000027,-0.2205171150017275,0.0021310470166851,0.1139874534477496
1.637999999999998,-0.1853609478788057,-0.0010646508437165,0.1331616406101593
1.6415000000000006,-0.1619246666830259,-0.0053267448770866,0.1395530363309626
1.6450000000000031,-0.1267702448893561,-0.0095870935812048,0.150206526085136
1.6484999999999983,-0.0980072188164895,-0.0074577918937717,0.1565979218059392
1.652000000000001,-0.0703088435873395,0.0010646508437165,0.1576643179789077
1.6555000000000035,-0.0532657034416149,0.01598023463126,0.1597953649955928
1.658999999999999,-0.0447432607041266,0.0330233747769847,0.1555332709622227
1.6625000000000014,-0.041545817514473,0.0479389585645282,0.1576643179789077
1.666000000000004,-0.0490036094082447,0.0628527970228197,0.152337573101821
1.669499999999999,-0.0479389585645282,0.0703088435873395,0.1512729222581045
1.6730000000000018,-0.043676864531158,0.083093380358198,0.1534022239455376
1.6765000000000043,-0.0351544217936697,0.0916158230956863,0.1544686201185061
1.6799999999999995,-0.002131047016685,0.0948115209560879,0.1651203645434275
1.6835000000000022,0.0319587239332681,0.1012029166768912,0.1747092034538843
1.6869999999999976,0.1022693128498597,0.0937468701123714,0.1906876927558924
1.6905,0.1683160624038291,0.0862890782185996,0.205601531214184
1.6940000000000026,0.2684543282370038,0.0756355884644262,0.2354309534600191
1.697499999999998,0.3579391043160051,0.0681795418999064,0.258867234655799
1.7010000000000003,0.4761869064678729,0.0521993072686463,0.2833681666952953
1.704500000000003,0.5688691257365278,0.0426122136874414,0.3046751462036421
1.7079999999999984,0.6849858808717105,0.0383501196540713,0.3249157295390203
1.711500000000001,0.7648835633695069,0.0330233747769846,0.3376985209806268
1.7150000000000034,0.8490415945714216,0.0298276769165829,0.3526141047681703
1.7184999999999988,0.8959141569629812,0.0362208179666382,0.3632658491930918
1.7220000000000013,0.9374617198067065,0.0372854688103547,0.3707236410868635
1.7255000000000038,0.952375558264998,0.0372854688103547,0.3664615470534934
1.7289999999999992,0.9481134642316276,0.0372854688103547,0.3611348021764067
1.7325000000000017,0.9321349749296196,0.0362208179666382,0.3472873598910836
1.7360000000000042,0.8799356676609732,0.0330233747769845,0.3291760782431385
1.7394999999999996,0.8341277561131301,0.0351544217936696,0.3078708440640437
1.743000000000002,0.7563611206320187,0.0468725623915596,0.274847469287059
1.7464999999999975,0.6871169278883955,0.0511346564249297,0.2450180470412239
1.75,0.5837829641948193,0.071375239760308,0.2109282760912707
1.7535000000000025,0.4964292351325031,0.0905494269227177,0.1864273440517743
1.756999999999998,0.3717882919305801,0.1193124529955843,0.1565979218059392
1.7605000000000004,0.2759121201307756,0.1459461773810178,0.136357338470561
1.764000000000003,0.1480754790684509,0.1832316461913726,0.1225098961852379
1.7674999999999983,0.0575260521457331,0.2077325782308691,0.1118564064310645
1.7710000000000008,-0.055395005129048,0.2407576983371057,0.0873537290623162
1.7745000000000033,-0.1374237346435295,0.2695207244099723,0.0724398906040246
1.7779999999999987,-0.233299906443334,0.2982837504828389,0.0383501196540714
1.7815000000000012,-0.2993484013265554,0.312131192768162,0.013849187614575
1.7850000000000037,-0.3749839897909816,0.3291760782431385,-0.0181095363186931
1.788499999999999,-0.4239875991992264,0.3387649171535954,-0.0479389585645282
1.7920000000000016,-0.4793843496575264,0.3366338701369104,-0.0745709376207097
1.795500000000004,-0.5156034222949128,0.3355692192931938,-0.0862890782185996
1.7989999999999997,-0.5560845889656694,0.3227846825223353,-0.0990718696602061
1.802500000000002,-0.5795208701614492,0.3153286359578156,-0.1012029166768912
1.8059999999999972,-0.5965657556364258,0.3078708440640438,-0.1012029166768912
1.8095,-0.605088198373914,0.2982837504828389,-0.0905494269227178
1.8130000000000024,-0.5986968026531109,0.2876302607286656,-0.0841580312019145
1.8164999999999976,-0.5837829641948193,0.2716500260974054,-0.0777666354811113
1.8200000000000005,-0.5443664483677794,0.2535404897787123,-0.0767019846373948
1.8235000000000028,-0.5102766774178261,0.2386266513204207,-0.0788312863248278
1.8269999999999984,-0.4506213235846599,0.2087989744038376,-0.0916158230956863
1.830500000000001,-0.3941599222826434,0.1853609478788058,-0.1033339636935762
1.8340000000000032,-0.3249157295390203,0.1619246666830259,-0.124639197872671
1.8374999999999984,-0.2641939795328856,0.1459461773810178,-0.1459461773810178
1.841000000000001,-0.1917540889288609,0.1235745470289545,-0.177904901314286
1.844500000000004,-0.1448797812080492,0.1086607085706629,-0.2034722295267509
1.847999999999999,-0.0820287295144815,0.0905494269227178,-0.2364956043037356
1.8515000000000013,-0.0511346564249298,0.0745709376207097,-0.2578025838120824
1.855000000000004,-0.0287630260728665,0.055395005129048,-0.2812388650078622
1.8584999999999996,-0.0149138384582915,0.0404811666707564,-0.300413052170272
1.8620000000000017,-0.013849187614575,0.029827676916583,-0.3259803803827369
1.8655000000000044,-0.0170448854749766,0.0202405833353782,-0.3504830577514853
1.869,-0.0351544217936697,0.0106534897541733,-0.3824417816847534
1.8725000000000025,-0.0564614013020165,0.0010646508437165,-0.4090737607409349
1.8759999999999977,-0.0852244273748831,-0.0085224427374883,-0.4420988808471717
1.8795,-0.1118564064310645,-0.0170448854749766,-0.4612730680095813
1.883000000000003,-0.1555332709622227,-0.0223716303520633,-0.4847093492053612
1.886499999999998,-0.1864273440517743,-0.029827676916583,-0.492167141099133
1.8900000000000008,-0.2407576983371057,-0.0095870935812048,-0.4974938859762197
1.893500000000003,-0.2780431671474606,-0.002131047016685,-0.4889714432387313
1.8969999999999985,-0.3355692192931938,0.0223716303520633,-0.4687308599033531
1.900500000000001,-0.3739193389472651,0.0458079115478432,-0.4335764381096833
1.9040000000000037,-0.4154651564617382,0.0894847760790013,-0.3813771308410369
1.9074999999999989,-0.4399678338304866,0.1203788491685529,-0.3366338701369103
1.9110000000000011,-0.4580773701491797,0.1672514115601126,-0.2673896773932873
1.914500000000004,-0.4548816722887781,0.2002765316663493,-0.2077325782308691
1.9179999999999997,-0.4357057397971163,0.2428870000245389,-0.1342280367831279
1.9215000000000015,-0.4026823650201316,0.272716422270374,-0.0798976824977964
1.9250000000000045,-0.3408942188410284,0.3046751462036422,-0.0213052341790947
1.9285,-0.2812388650078622,0.3249157295390204,0.0127827914416064
1.9320000000000024,-0.1906876927558924,0.3504830577514853,0.0532657034416149
1.9354999999999976,-0.1161167551351827,0.3600701513326901,0.0660484948832214
1.939,-0.0181095363186931,0.3632658491930918,0.0788312863248278
1.9425000000000023,0.0500682602519613,0.3547434064556034,0.083093380358198
1.945999999999998,0.1257055940456396,0.3387649171535954,0.0862890782185996
1.9495000000000005,0.1651203645434275,0.3174579376452486,0.0852244273748831
1.953000000000003,0.2077325782308691,0.2780431671474606,0.0798976824977964
1.9564999999999984,0.2141239739516723,0.2428870000245388,0.0777666354811113
1.9600000000000009,0.2162550209683574,0.193883390616294,0.0703088435873395
1.9635000000000036,0.2034722295267509,0.1534022239455376,0.0617864008498512
1.9669999999999987,0.177904901314286,0.0862890782185996,0.0426122136874415
1.9705000000000013,0.1555332709622227,0.0351544217936697,0.0266319790561814
1.974000000000004,0.124639197872671,-0.0362208179666383,0.0106534897541733
1.9774999999999991,0.1075943123976944,-0.0894847760790013,-0.0074577918937717
1.9810000000000016,0.0852244273748831,-0.1629910628559944,-0.0287630260728665
1.984500000000004,0.071375239760308,-0.2173214171413259,-0.0394165158270399
1.9879999999999995,0.0532657034416149,-0.2780431671474606,-0.0490036094082447
1.991500000000002,0.0447432607041265,-0.3121311927681619,-0.0500682602519613
1.9949999999999972,0.0330233747769846,-0.3504830577514853,-0.0490036094082447
1.9985,0.0191759324916616,-0.3685925940701784,-0.0458079115478431
2.0020000000000024,0.0074577918937717,-0.3824417816847534,-0.0245026773687483
2.005499999999998,-0.0053267448770867,-0.3856374795451551,-0.0106534897541733
2.0090000000000003,-0.0170448854749766,-0.3792460838243518,0.0063913957208032
2.012500000000003,-0.0255673282124649,-0.369657244913895,0.0149138384582915
2.0159999999999982,-0.0404811666707565,-0.3494166615785167,0.029827676916583
2.0195000000000007,-0.0511346564249299,-0.3345028231202252,0.0319587239332681
2.0230000000000032,-0.0756355884644263,-0.300413052170272,0.041545817514473
2.026499999999998,-0.096942567972773,-0.2684543282370038,0.0426122136874415
2.030000000000001,-0.1203788491685529,-0.2301042085829323,0.0458079115478431
2.033500000000004,-0.1651203645434275,-0.1747092034538843,0.0436768645311581
2.036999999999999,-0.2098636252475542,-0.1139874534477496,0.0436768645311581
2.040500000000001,-0.2407576983371057,-0.071375239760308,0.0426122136874415
2.044000000000004,-0.274847469287059,-0.0287630260728665,0.0468725623915597
2.0474999999999994,-0.314262239784847,0.0213052341790948,0.0596570991624181
2.051000000000002,-0.3408942188410284,0.0649838440395049,0.0809623333415129
2.0544999999999973,-0.3515477085952018,0.096942567972773,0.0926804739394028
2.058,-0.3462209637181151,0.1214435000122694,0.1075943123976944
2.0615000000000023,-0.3259803803827369,0.1534022239455376,0.1235745470289545
2.0649999999999977,-0.2993484013265554,0.1736428072809158,0.136357338470561
2.0685,-0.247149094057909,0.2002765316663493,0.1470108282247343
2.0720000000000027,-0.2002765316663493,0.2173214171413259,0.1534022239455376
2.075499999999998,-0.1395530363309625,0.2375620004767042,0.1576643179789077
2.0790000000000006,-0.0884201252352847,0.2546051406224288,0.1544686201185061
2.082500000000003,-0.0255673282124649,0.2652586303766022,0.1608600158393093
2.0859999999999985,0.0170448854749766,0.274847469287059,0.1651203645434275
2.089500000000001,0.0617864008498512,0.2833681666952953,0.1672514115601126
2.0930000000000035,0.0862890782185997,0.2908259585890671,0.1619246666830259
2.096499999999999,0.1065296615539779,0.2908259585890671,0.1597953649955928
2.1000000000000014,0.1075943123976944,0.2908259585890671,0.1587289688226243
2.103500000000004,0.1054650107102613,0.286565609884949,0.1576643179789077
2.1069999999999998,0.0937468701123714,0.2854992137119804,0.1576643179789077
2.110500000000002,0.0809623333415129,0.2823035158515788,0.1672514115601126
2.1140000000000043,0.0681795418999065,0.2833681666952953,0.1789695521580025
2.1175,0.067113145726938,0.2876302607286655,0.1960144376329791
2.121000000000002,0.0724398906040246,0.2876302607286655,0.2119946722642392
2.1244999999999976,0.0852244273748831,0.2940216564494687,0.2290395577392158
2.128,0.108660708570663,0.3036087500306735,0.2375620004767041
2.1315000000000026,0.1491418752414194,0.3068061932203272,0.2428870000245388
2.134999999999998,0.1800359483309711,0.3100018910807288,0.247149094057909
2.1385000000000005,0.2258421145495623,0.3078708440640437,0.2439533961975074
2.142000000000003,0.2641939795328857,0.3025440991869569,0.2396913021641372
2.1454999999999984,0.3089354949077603,0.2940216564494687,0.2322352555996175
2.149000000000001,0.3376985209806269,0.2812388650078622,0.2258421145495622
2.1525000000000034,0.3600701513326902,0.2567361876391138,0.2119946722642392
2.155999999999999,0.3760503859639503,0.2396913021641372,0.2045368803704674
2.1595000000000013,0.3717882919305801,0.2045368803704674,0.191754088928861
2.163000000000004,0.355809802628572,0.1789695521580025,0.1821652500184041
2.166499999999999,0.3110665419244454,0.1459461773810178,0.1715135055934827
2.1700000000000017,0.2663250265495707,0.1320969897664428,0.1672514115601126
2.173500000000004,0.191754088928861,0.1054650107102613,0.1704471094205142
2.177,0.1235745470289545,0.096942567972773,0.1842962970350892
2.180500000000002,0.02769837522915,0.0905494269227178,0.2045368803704674
2.183999999999997,-0.0383501196540713,0.0862890782185996,0.2258421145495622
2.1875,-0.1235745470289545,0.0820287295144815,0.2418223491808223
2.1910000000000025,-0.1768385051413174,0.0862890782185996,0.2535404897787122
2.194499999999998,-0.2364956043037356,0.0852244273748831,0.2514094427620272
2.1980000000000004,-0.2716500260974054,0.0926804739394029,0.2514094427620272
2.201500000000003,-0.3014794483432405,0.0980072188164896,0.233299906443334
2.2049999999999983,-0.3270467765557054,0.1065296615539779,0.2162550209683574
2.208500000000001,-0.3504830577514853,0.1171831513081513,0.191754088928861
2.2120000000000037,-0.3717882919305801,0.1331616406101594,0.1747092034538843
2.2154999999999987,-0.3994866671597301,0.1438151303643328,0.1512729222581045
2.219000000000001,-0.4218582975117934,0.1565979218059393,0.1299659427497577
2.222500000000004,-0.4591437663221482,0.1725781564371993,0.1012029166768912
2.225999999999999,-0.4900360940824479,0.1800359483309711,0.0767019846373948
2.2295000000000016,-0.5326483077698895,0.1970790884766957,0.0521993072686464
2.233000000000004,-0.5571509851386378,0.2077325782308691,0.0330233747769847
2.2364999999999995,-0.5859140112115044,0.2237128128621292,0.0202405833353782
2.240000000000002,-0.5997614534968274,0.2396913021641373,0.0127827914416064
2.2434999999999974,-0.5955011047927092,0.258867234655799,0.01598023463126
2.247,-0.586978662055221,0.2748474692870591,0.0170448854749766
2.2505000000000024,-0.5582156359823544,0.2876302607286656,0.02769837522915
2.253999999999998,-0.5209301671719996,0.2940216564494688,0.029827676916583
2.2575000000000003,-0.4602084171658647,0.3014794483432405,0.0351544217936697
2.261000000000003,-0.4101401569139034,0.2972173543098704,0.0319587239332681
2.264499999999998,-0.3408942188410284,0.2929570056057523,0.02769837522915
2.2680000000000007,-0.2897613077453505,0.2886949115723821,0.0223716303520633
2.271500000000003,-0.2226464166891606,0.2801724688348938,0.0170448854749766
2.2749999999999986,-0.1842962970350892,0.2727164222703739,0.0127827914416064
2.278500000000001,-0.1395530363309625,0.2620629325162006,0.0053267448770866
2.282000000000004,-0.1129210572747811,0.2492801410745941,0.0042603487041181
2.285499999999999,-0.0958761717998044,0.2396913021641372,-0.0010646508437165
2.289000000000001,-0.0937468701123713,0.2322352555996175,-0.0042603487041181
2.292500000000004,-0.1022693128498597,0.2205171150017275,-0.013849187614575
2.296,-0.1203788491685528,0.2066679273871526,-0.0223716303520633
2.299500000000002,-0.1576643179789077,0.1832316461913727,-0.0372854688103548
2.3030000000000044,-0.1949497867892626,0.1608600158393094,-0.0468725623915597
2.3065,-0.2439533961975073,0.1267702448893561,-0.0532657034416149
2.3100000000000023,-0.286565609884949,0.1054650107102613,-0.0649838440395048
2.3134999999999977,-0.341960615013997,0.0798976824977964,-0.0735062867769931
2.317,-0.38350643252847,0.0607217500061347,-0.0809623333415129
2.3205000000000027,-0.4357057397971164,0.0394165158270399,-0.0905494269227178
2.323999999999998,-0.4676662090596366,0.02769837522915,-0.0980072188164895
2.327500000000001,-0.5113430735907947,0.0202405833353783,-0.1043986145372928
2.331000000000003,-0.5358440056302911,0.0149138384582916,-0.1054650107102613
2.3344999999999985,-0.5635423808594411,0.0149138384582916,-0.1075943123976944
2.338000000000001,-0.5763251723010476,0.0127827914416065,-0.1097253594143795
2.3415000000000035,-0.5805872663344177,0.0159802346312601,-0.1065296615539778
2.344999999999999,-0.5741958706136145,0.0181095363186932,-0.1022693128498597
2.3485000000000014,-0.547562146228181,0.0223716303520633,-0.096942567972773
2.352000000000004,-0.5219948180157161,0.0234362811957799,-0.0894847760790012
2.3554999999999997,-0.4729912086074713,0.0234362811957799,-0.0894847760790012
2.3590000000000018,-0.4293143440763132,0.0223716303520633,-0.0916158230956863
2.3625000000000043,-0.3717882919305801,0.0127827914416065,-0.0948115209560879
2.366,-0.3227846825223353,0.0085224427374883,-0.096942567972773
2.369500000000002,-0.2663250265495707,0.0031956978604016,-0.1075943123976944
2.3729999999999976,-0.2247774637058457,2.7527300144782437e-17,-0.1150521042914662
2.3765,-0.1736428072809158,2.1265110813153428e-17,-0.1182478021518678
2.3800000000000026,-0.1299659427497577,-0.002131047016685,-0.1171831513081512
2.383499999999998,-0.0862890782185996,1.0567364344178366e-17,-0.1065296615539778
2.3870000000000005,-0.0468725623915597,0.0063913957208032,-0.0958761717998045
2.390500000000003,0.0106534897541733,0.0213052341790947,-0.083093380358198
2.3939999999999984,0.0575260521457331,0.029827676916583,-0.0756355884644262
2.397500000000001,0.1235745470289545,0.0468725623915597,-0.0596570991624181
2.401000000000004,0.1715135055934827,0.0564614013020165,-0.0490036094082447
2.4044999999999987,0.2343645572870505,0.0660484948832213,-0.0330233747769847
2.4080000000000013,0.2791078179911772,0.0660484948832213,-0.0223716303520633
2.411500000000004,0.3270467765557054,0.0681795418999064,0.0031956978604016
2.414999999999999,0.3494166615785167,0.071375239760308,0.0255673282124649
2.4185000000000016,0.3707236410868635,0.0745709376207096,0.0521993072686464
2.422000000000004,0.3771150368076668,0.0756355884644262,0.0745709376207097
2.4254999999999995,0.3664615470534934,0.0841580312019145,0.1033339636935762
2.429000000000002,0.3430252658577135,0.0926804739394028,0.1225098961852379
2.432499999999997,0.2972173543098703,0.110790010258096,0.1395530363309626
2.436,0.2524758389349957,0.1214435000122694,0.1512729222581045
2.4395000000000024,0.1800359483309711,0.1320969897664428,0.1597953649955928
2.442999999999998,0.122509896185238,0.1406194325039311,0.1651203645434275
2.4465000000000003,0.0330233747769847,0.1427504795206162,0.166186760716396
2.450000000000003,-0.0266319790561814,0.1406194325039311,0.1597953649955928
2.4534999999999982,-0.1097253594143795,0.1299659427497577,0.1587289688226243
2.4570000000000007,-0.1672514115601125,0.124639197872671,0.1480754790684509
2.4605000000000032,-0.2301042085829324,0.1118564064310646,0.1342280367831279
2.463999999999998,-0.2673896773932873,0.0980072188164896,0.1257055940456395
2.467500000000001,-0.3110665419244454,0.0820287295144815,0.1022693128498597
2.471000000000004,-0.3249157295390203,0.0628527970228198,0.0884201252352847
2.474499999999999,-0.3387649171535954,0.0394165158270399,0.0756355884644262
2.478000000000001,-0.3323735214327921,0.0234362811957799,0.0628527970228197
2.481500000000004,-0.314262239784847,0.0021310470166851,0.0543303542853314
2.4849999999999994,-0.2929570056057522,-0.0095870935812048,0.0468725623915597
2.488500000000002,-0.2556715367953973,-0.0287630260728665,0.0404811666707564
2.4919999999999973,-0.2301042085829324,-0.0394165158270399,0.0362208179666383
2.4955,-0.2013411825100658,-0.0628527970228197,0.0245026773687483
2.4990000000000023,-0.1821652500184041,-0.083093380358198,0.0213052341790947
2.5024999999999977,-0.1672514115601126,-0.1139874534477496,0.0149138384582915
2.506,-0.164055713699711,-0.1416840833476476,0.013849187614575
2.5095000000000027,-0.1629910628559944,-0.1736428072809158,0.0042603487041181
2.512999999999998,-0.1693824585767977,-0.2002765316663493,-0.0031956978604016
2.5165000000000006,-0.1885583910684594,-0.235430953460019,-0.0117181405978899
2.520000000000003,-0.2098636252475542,-0.260998281672484,-0.0266319790561814
2.5234999999999985,-0.2514094427620272,-0.2950880526224372,-0.0436768645311581
2.527000000000001,-0.2833681666952954,-0.3206536355056502,-0.0585907029894496
2.5305000000000035,-0.3313071252598237,-0.3515477085952018,-0.0788312863248278
2.533999999999999,-0.369657244913895,-0.3675279432264619,-0.0937468701123714
2.5375000000000014,-0.4218582975117935,-0.397355620143045,-0.1033339636935762
2.541000000000004,-0.4495549274116915,-0.4101401569139034,-0.1139874534477496
2.5444999999999998,-0.4879067923950148,-0.4250539953721949,-0.1203788491685528
2.548000000000002,-0.5049499325407395,-0.4378367868138014,-0.1278348957330726
2.5515000000000043,-0.5156034222949128,-0.4410324846742031,-0.1331616406101593
2.555,-0.5230612141886847,-0.4442281825346046,-0.1352926876268444
2.558500000000002,-0.519865516328283,-0.4474238803950063,-0.1427504795206162
2.5619999999999976,-0.5124077244345112,-0.4452945787075732,-0.1438151303643327
2.5655,-0.5017542346803379,-0.4378367868138014,-0.1544686201185061
2.5690000000000026,-0.4964292351325032,-0.4261186462159115,-0.1544686201185061
2.572499999999998,-0.4889714432387314,-0.4058780628805332,-0.1597953649955928
2.5760000000000005,-0.492167141099133,-0.3909642244222417,-0.1629910628559944
2.579500000000003,-0.4974938859762197,-0.3643322453660603,-0.1672514115601126
2.5829999999999984,-0.5156034222949128,-0.3408942188410284,-0.1672514115601126
2.586500000000001,-0.5294526099094878,-0.3153286359578154,-0.166186760716396
2.5900000000000034,-0.5486285424011496,-0.2929570056057521,-0.166186760716396
2.593499999999999,-0.5805872663344177,-0.2652586303766021,-0.1704471094205142
2.5970000000000013,-0.602958896686481,-0.2418223491808222,-0.1757738542976009
2.600500000000004,-0.6327865736030641,-0.2141239739516722,-0.177904901314286
2.603999999999999,-0.6540918077821589,-0.1906876927558923,-0.1704471094205142
2.6075000000000017,-0.6764634381342222,-0.1651203645434274,-0.1459461773810178
2.611000000000004,-0.6828548338550254,-0.1491418752414193,-0.1278348957330726
2.6145,-0.6892479749050807,-0.1384883854872459,-0.0958761717998045
2.618000000000002,-0.6764634381342222,-0.126770244889356,-0.0703088435873395
2.621499999999997,-0.6434400633572375,-0.1161167551351826,-0.0500682602519613
2.625,-0.6125459902676859,-0.1118564064310645,-0.0319587239332681
2.6285000000000025,-0.5528888911052677,-0.1086607085706628,-0.0234362811957798
2.631999999999998,-0.5092120265741096,-0.112921057274781,-0.0117181405978899
2.6355000000000004,-0.4474238803950063,-0.1203788491685528,-0.0063913957208032
2.639000000000003,-0.4026823650201317,-0.1289012919060411,-0.0042603487041181
2.6424999999999983,-0.3622011983493752,-0.1289012919060411,-0.0031956978604016
2.646000000000001,-0.3408942188410284,-0.1352926876268443,0.0010646508437165
2.6495000000000037,-0.3281114273994219,-0.1342280367831278,0.0063913957208032
2.6529999999999987,-0.3249157295390203,-0.1342280367831278,0.0063913957208032
2.656500000000001,-0.3366338701369103,-0.1363573384705609,0.0053267448770866
2.660000000000004,-0.3590055004889736,-0.138488385487246,-0.0031956978604016
2.663499999999999,-0.4005513180034466,-0.1448797812080492,-0.0127827914416064
2.6670000000000016,-0.4399678338304866,-0.152337573101821,-0.0202405833353782
2.670500000000004,-0.4964292351325031,-0.166186760716396,-0.0319587239332681
2.6739999999999995,-0.5411707505073777,-0.1768385051413174,-0.041545817514473
2.677500000000002,-0.6018925005135125,-0.1864273440517742,-0.0543303542853314
2.6809999999999974,-0.644504714200954,-0.1853609478788057,-0.0564614013020165
2.6845,-0.6988350684862855,-0.1736428072809157,-0.0617864008498512
2.6880000000000024,-0.7265316983861836,-0.1587289688226242,-0.0585907029894496
2.691499999999998,-0.7606214693361367,-0.1289012919060411,-0.0543303542853314
2.6950000000000003,-0.7819284488444836,-0.1001382658331745,-0.0479389585645282
2.698500000000003,-0.8021690321798618,-0.0607217500061346,-0.0340897709499532
2.701999999999998,-0.80642938088398,-0.0276983752291499,-0.0191759324916617
2.7055000000000007,-0.8053647300402634,0.0053267448770867,0.002131047016685
2.709000000000003,-0.7957776364590586,0.0276983752291501,0.0223716303520633
2.7124999999999986,-0.7734060061069953,0.0564614013020166,0.0490036094082447
2.716000000000001,-0.7574257714757352,0.0703088435873396,0.0671131457269379
2.719500000000004,-0.7222713496820654,0.0788312863248279,0.0926804739394028
2.722999999999999,-0.7030954171904037,0.0830933803581981,0.1065296615539778
2.726500000000001,-0.6753987872905056,0.0756355884644263,0.1214435000122694
2.730000000000004,-0.6626142505196473,0.0617864008498513,0.1289012919060412
2.7335,-0.6562228547988439,0.0340897709499533,0.1331616406101593
2.737000000000002,-0.6647452975363323,0.0095870935812049,0.1331616406101593
2.7405000000000044,-0.6924436727654824,-0.0245026773687483,0.1203788491685528
2.744,-0.7116178599278921,-0.0415458175144729,0.1171831513081512
2.7475000000000023,-0.753165422771617,-0.0756355884644261,0.1182478021518678
2.7509999999999977,-0.780862052671515,-0.0969425679727729,0.1225098961852379
2.7545,-0.8213432193422715,-0.1278348957330725,0.1310323389227262
2.7580000000000027,-0.8447812458673034,-0.1448797812080491,0.1395530363309626
2.761499999999998,-0.8628907821859965,-0.1768385051413173,0.1491418752414194
2.765000000000001,-0.875673573627603,-0.1906876927558923,0.1470108282247343
2.768500000000003,-0.875673573627603,-0.221581765845444,0.1427504795206162
2.7719999999999985,-0.8692821779067997,-0.2364956043037355,0.1342280367831279
2.775500000000001,-0.8607597351693115,-0.2652586303766021,0.1257055940456395
2.7790000000000035,-0.8564993864651933,-0.2812388650078621,0.1214435000122694
2.782499999999999,-0.8533036886047917,-0.2961527034661537,0.1171831513081512
2.7860000000000014,-0.8660864800463982,-0.3004130521702718,0.110790010258096
2.789500000000004,-0.8905874120858945,-0.2886949115723819,0.110790010258096
2.7929999999999997,-0.9268082300525328,-0.2673896773932872,0.1161167551351827
2.7965000000000018,-0.9896610270753528,-0.2386266513204206,0.1342280367831279
2.8000000000000043,-1.0407956835002825,-0.2205171150017274,0.1459461773810178
2.8035,-1.1079088292272203,-0.196014437632979,0.1544686201185061
2.807000000000002,-1.1558477877917488,-0.1779049013142858,0.1491418752414194
2.8104999999999976,-1.2112427929207967,-0.1565979218059391,0.1374237346435295
2.814,-1.2517239595915532,-0.1310323389227261,0.1278348957330726
2.8175000000000026,-1.2932697771060262,-0.1043986145372926,0.1129210572747811
2.820999999999998,-1.3188371053184913,-0.0862890782185994,0.1012029166768912
2.8245000000000005,-1.3316216420893496,-0.0681795418999063,0.0777666354811113
2.828000000000003,-1.3348173399497512,-0.0607217500061345,0.055395005129048
2.8314999999999984,-1.3273595480559794,-0.0521993072686462,0.0266319790561814
2.835000000000001,-1.3124457095976878,-0.0490036094082446,0.0042603487041181
2.838500000000004,-1.2836826835248214,-0.0404811666707563,-0.0181095363186931
2.8419999999999987,-1.2527886104352697,-0.034089770949953,-0.0330233747769847
2.8455000000000013,-1.1899375587417018,-0.0245026773687482,-0.0532657034416149
2.849000000000004,-1.1292140634063152,-0.0287630260728664,-0.0649838440395048
2.852499999999999,-1.022684401852337,-0.031958723933268,-0.083093380358198
2.8560000000000016,-0.9321349749296196,-0.0340897709499531,-0.1001382658331746
2.859500000000004,-0.7925801932694049,-0.0426122136874414,-0.1193124529955843
2.8629999999999995,-0.6828548338550254,-0.0543303542853313,-0.1352926876268444
2.866500000000002,-0.5486285424011496,-0.0660484948832213,-0.152337573101821
2.869999999999997,-0.4580773701491797,-0.071375239760308,-0.1619246666830259
2.8735,-0.3590055004889736,-0.0767019846373947,-0.166186760716396
2.8770000000000024,-0.2972173543098703,-0.0841580312019145,-0.1608600158393093
2.880499999999998,-0.2524758389349957,-0.0916158230956863,-0.1544686201185061
2.8840000000000003,-0.2375620004767041,-0.0916158230956863,-0.1427504795206162
2.887500000000003,-0.2364956043037356,-0.1022693128498597,-0.1320969897664428
2.8909999999999982,-0.2460844432141925,-0.110790010258096,-0.1278348957330726
2.8945000000000007,-0.2695207244099723,-0.124639197872671,-0.1235745470289545
2.8980000000000032,-0.302544099186957,-0.1406194325039311,-0.1278348957330726
2.901499999999998,-0.3472873598910836,-0.1736428072809158,-0.1331616406101593
2.905000000000001,-0.3898978282492732,-0.1928187397725775,-0.1395530363309626
2.908500000000004,-0.4676662090596366,-0.221581765845444,-0.1480754790684509
2.911999999999999,-0.5379750526469761,-0.2364956043037356,-0.1576643179789077
2.915500000000001,-0.6434400633572375,-0.2460844432141924,-0.1608600158393093
2.919000000000004,-0.727598094559152,-0.2460844432141924,-0.1608600158393093
2.9224999999999994,-0.8405191518339332,-0.2332999064433339,-0.1534022239455376
2.926000000000002,-0.9193504381587612,-0.209863625247554,-0.1427504795206162
2.9294999999999973,-1.0067059125503293,-0.182165250018404,-0.1310323389227262
2.933,-1.0621009176793774,-0.1555332709622225,-0.1203788491685528
2.9365000000000023,-1.1174959228084254,-0.1225098961852378,-0.1129210572747811
2.9399999999999977,-1.145194298037575,-0.0926804739394027,-0.1043986145372928
2.9435,-1.173957324110442,-0.0617864008498511,-0.0884201252352847
2.9470000000000027,-1.1888711625687334,-0.0404811666707563,-0.0820287295144815
2.950499999999998,-1.20591604804371,-0.0085224427374881,-0.0735062867769931
2.9540000000000006,-1.2133738399374818,0.0085224427374884,-0.069244192743623
2.957500000000003,-1.2165695377978836,0.0404811666707566,-0.0607217500061347
2.9609999999999985,-1.2123074437645132,0.0596570991624183,-0.0511346564249298
2.964500000000001,-1.192066860429135,0.0798976824977965,-0.0426122136874415
2.9680000000000035,-1.164370230529237,0.0990718696602062,-0.0340897709499532
2.971499999999999,-1.1153666211209925,0.1161167551351828,-0.0287630260728665
2.9750000000000014,-1.0695587095731491,0.1257055940456397,-0.02769837522915
2.978500000000004,-1.002443818516959,0.1310323389227264,-0.0330233747769847
2.9819999999999998,-0.9545066052816829,0.1310323389227264,-0.0319587239332681
2.985500000000002,-0.8841960163650913,0.1320969897664429,-0.0319587239332681
2.9890000000000043,-0.8288010112360433,0.1352926876268445,-0.0340897709499532
2.9925,-0.7563611206320187,0.1448797812080493,-0.0394165158270399
2.996000000000002,-0.697768672313317,0.1491418752414195,-0.0404811666707564
2.9994999999999976,-0.626395177882261,0.150206526085136,-0.0436768645311581
3.003,-0.5805872663344177,0.150206526085136,-0.0468725623915597
3.0065000000000026,-0.5113430735907947,0.150206526085136,-0.0362208179666383
3.009999999999998,-0.4676662090596366,0.1523375731018211,-0.0255673282124649
3.0135000000000005,-0.4101401569139035,0.150206526085136,0.0063913957208032
3.017000000000003,-0.3717882919305801,0.150206526085136,0.029827676916583
3.0204999999999984,-0.3206536355056502,0.150206526085136,0.0671131457269379
3.024000000000001,-0.286565609884949,0.1427504795206162,0.0873537290623162
3.0275000000000034,-0.2567361876391139,0.1406194325039311,0.1012029166768912
3.030999999999999,-0.2396913021641372,0.1352926876268444,0.1075943123976944
3.0345000000000013,-0.2386266513204206,0.1289012919060412,0.1022693128498597
3.038000000000004,-0.2428870000245388,0.1182478021518678,0.0948115209560879
3.041499999999999,-0.2599318854995155,0.1139874534477496,0.0884201252352847
3.0450000000000017,-0.2812388650078622,0.1075943123976944,0.0820287295144815
3.048500000000004,-0.3174579376452486,0.1022693128498597,0.0862890782185996
3.052,-0.3494166615785167,0.0937468701123714,0.0948115209560879
3.055500000000002,-0.4005513180034466,0.0894847760790013,0.1097253594143795
3.058999999999997,-0.4452945787075733,0.0798976824977964,0.1171831513081512
3.0625,-0.5113430735907947,0.067113145726938,0.1171831513081512
3.0660000000000025,-0.5699337765802444,0.053265703441615,0.1139874534477496
3.069499999999998,-0.6466357612176391,0.0362208179666384,0.1012029166768912
3.0730000000000004,-0.7084221620674903,0.0266319790561815,0.0820287295144815
3.076500000000003,-0.7968422873027752,0.0159802346312601,0.0585907029894496
3.0799999999999983,-0.8682175270630832,0.0063913957208033,0.041545817514473
3.083500000000001,-0.9577023031420844,-0.0021310470166849,0.013849187614575
3.0870000000000037,-1.0237507980253058,-0.0159802346312599,-0.0095870935812048
3.0904999999999987,-1.1047131313668188,-0.0159802346312599,-0.0436768645311581
3.094000000000001,-1.164370230529237,-0.0085224427374881,-0.0713752397603081
3.097500000000004,-1.2346790741165767,-0.0031956978604014,-0.1086607085706629
3.100999999999999,-1.2858137305415065,0.0085224427374884,-0.1342280367831279
3.1045000000000016,-1.3465354805476413,0.0223716303520634,-0.1747092034538843
3.108000000000004,-1.3752985066205077,0.0415458175144731,-0.191754088928861
3.1114999999999995,-1.4008658348329728,0.0681795418999066,-0.2109282760912707
3.115000000000002,-1.3966037407996024,0.0905494269227179,-0.2215817658454441
3.1184999999999974,-1.3710364125871377,0.1171831513081514,-0.2247774637058457
3.122,-1.338013037810153,0.134228036783128,-0.2226464166891606
3.1255000000000024,-1.2655731472061282,0.1534022239455378,-0.2183860679850424
3.128999999999998,-1.1984582561499384,0.1651203645434276,-0.2173214171413259
3.1325000000000003,-1.0993863864897322,0.1704471094205143,-0.2087989744038376
3.136000000000003,-1.0205551001649042,0.1640557136997111,-0.1992101354933808
3.139499999999998,-0.9204168343317296,0.1629910628559945,-0.1896230419121759
3.1430000000000007,-0.8415838026776498,0.161924666683026,-0.1842962970350892
3.146500000000003,-0.7467722817215618,0.1491418752414195,-0.1757738542976009
3.1499999999999986,-0.6828548338550254,0.1459461773810179,-0.1683160624038291
3.153500000000001,-0.6061545945468827,0.1470108282247344,-0.1555332709622227
3.157000000000004,-0.5603466829990394,0.1459461773810179,-0.138488385487246
3.160499999999999,-0.5028206308533064,0.1544686201185062,-0.1150521042914662
3.164000000000001,-0.4591437663221482,0.1512729222581045,-0.0958761717998045
3.167500000000004,-0.4197272504951083,0.1459461773810179,-0.0671131457269379
3.171,-0.3920288752659583,0.1310323389227263,-0.0436768645311581
3.174500000000002,-0.3664615470534934,0.1033339636935763,-0.0095870935812048
3.1780000000000044,-0.355809802628572,0.0777666354811113,0.0127827914416064
3.1815,-0.3664615470534934,0.0404811666707565,0.0426122136874415
3.1850000000000023,-0.3781796876513833,0.0191759324916617,0.0671131457269379
3.1884999999999977,-0.4218582975117934,-0.0042603487041181,0.0980072188164895
3.192,-0.4655351620429515,-0.01598023463126,0.1193124529955843
3.1955000000000027,-0.5347793547865746,-0.0117181405978898,0.1406194325039311
3.198999999999998,-0.5944364539489927,-0.0031956978604015,0.1512729222581045
3.202500000000001,-0.6956393706258839,0.0042603487041182,0.166186760716396
3.206000000000003,-0.7776663548111135,0.0042603487041182,0.1747092034538843
3.2094999999999985,-0.8991098548233829,1.1010920057912971e-16,0.1842962970350892
3.213000000000001,-0.9853989330419826,-0.0010646508437164,0.1906876927558924
3.2165000000000035,-1.0961906886293304,-0.0085224427374881,0.2066679273871525
3.219999999999999,-1.160108136495867,-0.020240583335378,0.219450718828759
3.2235000000000014,-1.23361442327286,-0.0255673282124647,0.2460844432141925
3.227000000000004,-1.267704194222813,-0.0362208179666381,0.2641939795328856
3.2304999999999997,-1.284747334368538,-0.0362208179666381,0.286565609884949
3.2340000000000018,-1.2836826835248214,-0.0383501196540712,0.2993484013265554
3.2375000000000043,-1.2655731472061282,-0.0404811666707563,0.3121311927681619
3.241,-1.2368101211332618,-0.0394165158270397,0.3121311927681619
3.244500000000002,-1.1910022095854185,-0.0372854688103547,0.3068061932203272
3.2479999999999976,-1.160108136495867,-0.0298276769165829,0.2929570056057522
3.2515,-1.1217580168417955,-0.0170448854749764,0.2759121201307756
3.2550000000000026,-1.0961906886293304,-0.0031956978604014,0.2620629325162006
3.258499999999998,-1.0866035950481256,0.0106534897541735,0.2460844432141925
3.2620000000000005,-1.0802104539980706,0.0202405833353783,0.2290395577392158
3.265500000000003,-1.0748854544502358,0.0298276769165832,0.2119946722642392
3.2689999999999984,-1.0663630117127476,0.0351544217936699,0.1970790884766957
3.272500000000001,-1.043991381360684,0.0340897709499533,0.1736428072809158
3.276000000000004,-1.016293006131534,0.025567328212465,0.150206526085136
3.2794999999999987,-0.9672893967232892,0.0138491876145751,0.124639197872671
3.2830000000000013,-0.9321349749296196,0.0053267448770868,0.1139874534477496
3.286500000000004,-0.8746089227838865,0.0010646508437166,0.1118564064310645
3.289999999999999,-0.8319967090964449,0.0053267448770867,0.1171831513081512
3.2935000000000016,-0.7638171671965385,0.0095870935812049,0.1289012919060412
3.297000000000004,-0.7180110009779472,0.0191759324916617,0.1342280367831279
3.3004999999999995,-0.6551582039551274,0.0362208179666384,0.1416840833476476
3.304000000000002,-0.616806338971804,0.0468725623915597,0.1406194325039311
3.307499999999997,-0.5699337765802444,0.0543303542853315,0.1289012919060412
3.311,-0.5486285424011496,0.053265703441615,0.1214435000122694
3.3145000000000024,-0.5305172607532044,0.0490036094082448,0.1065296615539778
3.317999999999998,-0.5347793547865746,0.0351544217936698,0.0937468701123714
3.3215000000000003,-0.547562146228181,0.0202405833353783,0.0820287295144815
3.325000000000003,-0.5678027295635593,0.0159802346312601,0.0703088435873395
3.3284999999999982,-0.605088198373914,0.0031956978604016,0.0607217500061347
3.3320000000000007,-0.628524479569694,7.697204920907818e-17,0.0490036094082447
3.3355000000000032,-0.6647452975363323,-0.0085224427374882,0.0266319790561814
3.338999999999998,-0.6860505317154271,-0.0149138384582914,0.0117181405978899
3.342500000000001,-0.7105532090841755,-0.0159802346312599,-0.0106534897541733
3.346000000000004,-0.7297291415758372,-0.0213052341790946,-0.029827676916583
3.349499999999999,-0.7616878655091054,-0.0266319790561813,-0.0500682602519613
3.353000000000001,-0.7861887975486017,-0.0287630260728664,-0.0671131457269379
3.356500000000004,-0.8192139176548384,-0.0372854688103547,-0.083093380358198
3.3599999999999994,-0.847976943727705,-0.0394165158270398,-0.0980072188164895
3.363500000000002,-0.8735442719401699,-0.0479389585645281,-0.110790010258096
3.3669999999999973,-0.8884581103984615,-0.0490036094082446,-0.1182478021518678
3.3705,-0.8810003185046897,-0.0404811666707563,-0.1225098961852379
3.3740000000000023,-0.8650218292026817,-0.0340897709499531,-0.1161167551351827
3.3774999999999977,-0.8234742663589566,-0.0234362811957797,-0.1075943123976944
3.381,-0.7819284488444836,-0.0159802346312599,-0.1012029166768912
3.3845000000000027,-0.7297291415758372,-0.004260348704118,-0.0980072188164895
3.387999999999998,-0.6935083236091989,-0.0053267448770866,-0.0980072188164895
3.3915000000000006,-0.6636806466926157,-0.0031956978604015,-0.1033339636935762
3.395000000000003,-0.6519625060947258,-0.0149138384582914,-0.1043986145372928
3.3984999999999985,-0.6615495996759307,-0.0202405833353781,-0.110790010258096
3.402000000000001,-0.6871169278883955,-0.0213052341790946,-0.1097253594143795
3.4055000000000035,-0.7350541411236718,-0.0234362811957797,-0.1033339636935762
3.408999999999999,-0.7755353077944284,-0.0202405833353781,-0.0894847760790012
3.4125000000000014,-0.8277363603923268,-0.0191759324916616,-0.0681795418999064
3.416000000000004,-0.8575640373089098,-0.0202405833353781,-0.0543303542853314
3.4194999999999998,-0.8863270633817765,-0.0223716303520632,-0.0383501196540714
3.423000000000002,-0.9118943915942412,-0.0266319790561813,-0.0319587239332681
3.4265000000000043,-0.9459841625441944,-0.031958723933268,-0.0223716303520633
3.43,-0.972616141600376,-0.031958723933268,-0.0202405833353782
3.433500000000002,-1.0237507980253058,-0.0394165158270398,-0.0127827914416064
3.4369999999999976,-1.063165568523094,-0.0468725623915595,-0.0117181405978899
3.4405,-1.124953714702197,-0.0585907029894495,-0.0063913957208032
3.4440000000000026,-1.1590434856521503,-0.0724398906040245,0.0053267448770866
3.447499999999998,-1.2027203501833084,-0.1022693128498595,0.0181095363186931
3.4510000000000005,-1.2144384907811985,-0.1225098961852378,0.0319587239332681
3.454500000000003,-1.2165695377978836,-0.1438151303643326,0.0468725623915597
3.4579999999999984,-1.1995246523229068,-0.1555332709622225,0.0543303542853314
3.461500000000001,-1.16649953221667,-0.1693824585767975,0.0543303542853314
3.4650000000000034,-1.1334761574396854,-0.1811005991746875,0.0490036094082447
3.468499999999999,-1.0908639437522438,-0.1885583910684592,0.0383501196540714
3.4720000000000013,-1.0610362668356608,-0.1864273440517741,0.0287630260728665
3.475500000000004,-1.0269464958857075,-0.1917540889288608,0.013849187614575
3.478999999999999,-1.007770563394046,-0.1917540889288609,0.002131047016685
3.4825000000000017,-0.984334282198266,-0.1949497867892625,-0.0053267448770866
3.486000000000004,-0.9715514907566596,-0.1906876927558923,-0.0181095363186931
3.4895,-0.9513109074212812,-0.1779049013142858,-0.0266319790561814
3.493000000000002,-0.9385263706504228,-0.1725781564371992,-0.041545817514473
3.496499999999997,-0.9300039279129344,-0.1565979218059391,-0.0511346564249298
3.5,-0.928939277069218,-0.1395530363309625,-0.0564614013020165
3.5035000000000025,-0.944917766371226,-0.1171831513081511,-0.0532657034416149
3.506999999999998,-0.9640936988628878,-0.1001382658331745,-0.0532657034416149
3.5105000000000004,-0.9949877719524394,-0.0841580312019144,-0.0479389585645282
3.514000000000003,-1.021619751008621,-0.0703088435873394,-0.0340897709499532
3.5174999999999983,-1.053578474941889,-0.0521993072686462,-0.0213052341790947
3.521000000000001,-1.0759501052939522,-0.0383501196540712,-0.0063913957208032
3.5245000000000037,-1.1004510373334488,-0.0202405833353781,0.0063913957208032
3.5279999999999987,-1.1196269698251105,-0.004260348704118,0.0170448854749766
3.531500000000001,-1.1398675531604887,0.0159802346312602,0.0362208179666383
3.535000000000004,-1.1547813916187804,0.0362208179666384,0.0447432607041266
3.538499999999999,-1.1888711625687334,0.0490036094082449,0.0660484948832214
3.5420000000000016,-1.2165695377978836,0.064983844039505,0.0745709376207097
3.545500000000004,-1.2581153553123563,0.0735062867769933,0.0841580312019145
3.5489999999999995,-1.289009428401908,0.0809623333415131,0.0894847760790012
3.552500000000002,-1.3156414074580896,0.0809623333415131,0.0916158230956863
3.5559999999999974,-1.3252302463685464,0.078831286324828,0.0884201252352847
3.5595,-1.326294897212263,0.0809623333415131,0.0862890782185996
3.5630000000000024,-1.3230991993518617,0.0809623333415131,0.0841580312019145
3.566499999999998,-1.3081853608935698,0.0873537290623163,0.0756355884644262
3.5700000000000003,-1.290074079245625,0.0958761717998046,0.0671131457269379
3.573500000000003,-1.261311053172758,0.1086607085706631,0.0564614013020165
3.576999999999998,-1.2325480270998914,0.1139874534477498,0.0372854688103548
3.5805000000000007,-1.2048513971999937,0.1235745470289546,0.0042603487041181
3.584000000000003,-1.18247976684793,0.1278348957330728,-0.0202405833353782
3.5874999999999986,-1.164370230529237,0.1384883854872462,-0.0639174478665363
3.591000000000001,-1.1622391835125518,0.1459461773810179,-0.0980072188164895
3.594500000000004,-1.1803487198312452,0.1597953649955929,-0.138488385487246
3.597999999999999,-1.203785001027025,0.173642807280916,-0.1651203645434275
3.601500000000001,-1.2506593087478366,0.1917540889288611,-0.2013411825100658
3.605000000000004,-1.2815516365081363,0.1970790884766958,-0.2226464166891606
3.6085,-1.3390776886538696,0.2098636252475543,-0.2524758389349957
3.612000000000002,-1.379558855324626,0.2141239739516724,-0.2652586303766022
3.615499999999997,-1.4370849074703589,0.2215817658454442,-0.2780431671474606
3.619,-1.4796971211578005,0.229039557739216,-0.2908259585890671
3.6225000000000014,-1.5297671267390138,0.2439533961975075,-0.2961527034661538
3.6259999999999977,-1.563855152359715,0.2524758389349958,-0.2972173543098703
3.6295,-1.5936845746055504,0.2641939795328858,-0.3036087500306735
3.6330000000000022,-1.5979449233096683,0.2705853752536891,-0.302544099186957
3.636499999999998,-1.573443991270172,0.2716500260974056,-0.3046751462036421
3.640000000000001,-1.527636079722329,0.268454328237004,-0.3100018910807288
3.643500000000003,-1.4402806053307606,0.2503447919183108,-0.3078708440640437
3.6469999999999994,-1.3603846681622165,0.2343645572870507,-0.2993484013265554
3.650500000000001,-1.24533256387075,0.2087989744038377,-0.2823035158515788
3.654000000000004,-1.1590434856521503,0.1928187397725776,-0.2620629325162006
3.657499999999999,-1.051447427925204,0.1661867607163962,-0.2375620004767041
3.661000000000002,-0.9800739334941478,0.1416840833476478,-0.2183860679850424
3.664500000000004,-0.8873917142254929,0.1097253594143796,-0.1949497867892626
3.6679999999999993,-0.8341277561131301,0.0862890782185997,-0.1842962970350892
3.6715000000000018,-0.7691439120736251,0.0607217500061348,-0.1768385051413174
3.675000000000004,-0.7286627454028686,0.0372854688103549,-0.1672514115601126
3.6785,-0.6892479749050807,0.0149138384582916,-0.150206526085136
3.682000000000002,-0.670072042413419,8.206015819397231e-17,-0.1395530363309626
3.6854999999999976,-0.6551582039551274,-0.0213052341790947,-0.1150521042914662
3.689,-0.6498314590780407,-0.0276983752291499,-0.0958761717998045
3.6925000000000026,-0.6690056462404504,-0.0426122136874414,-0.0596570991624181
3.695999999999998,-0.6967040214696004,-0.0511346564249297,-0.0394165158270399
3.699500000000001,-0.7350541411236718,-0.0703088435873394,-0.0063913957208032
3.703000000000003,-0.7787327509840819,-0.0894847760790011,0.0127827914416064
3.7064999999999984,-0.8437148496943347,-0.1107900102580959,0.0266319790561814
3.710000000000001,-0.8863270633817765,-0.1278348957330725,0.041545817514473
3.7135000000000034,-0.9491798604045962,-0.154468620118506,0.0543303542853314
3.716999999999999,-0.9949877719524394,-0.1693824585767976,0.0617864008498512
3.720500000000001,-1.0461224283773694,-0.1779049013142858,0.083093380358198
3.724000000000004,-1.0887328967355587,-0.1736428072809157,0.0926804739394028
3.727499999999999,-1.1281494125625986,-0.1651203645434273,0.1161167551351827
3.7310000000000016,-1.1526520899313473,-0.1576643179789076,0.1374237346435295
3.734500000000004,-1.1814151160042137,-0.1427504795206161,0.1587289688226243
3.738,-1.1995246523229068,-0.1310323389227261,0.180035948330971
3.741500000000002,-1.2186988394853169,-0.1118564064310644,0.2034722295267509
3.744999999999997,-1.2250919805353715,-0.0990718696602059,0.2151903701246408
3.7485,-1.231483376256175,-0.0798976824977962,0.2258421145495622
3.7520000000000016,-1.22935232923949,-0.0724398906040244,0.233299906443334
3.755499999999998,-1.2282876783957732,-0.0553950051290478,0.2354309534600191
3.759,-1.2176341886416,-0.0511346564249297,0.2396913021641372
3.762500000000003,-1.2112427929207967,-0.0436768645311579,0.2482137449016255
3.7659999999999982,-1.1910022095854185,-0.0383501196540712,0.2556715367953973
3.7695000000000007,-1.1622391835125518,-0.0287630260728664,0.2652586303766022
3.7730000000000032,-1.134540808283402,-0.0170448854749764,0.2769767709744921
3.776499999999999,-1.0961906886293304,1.3424464180850424e-16,0.2982837504828389
3.780000000000001,-1.0621009176793774,0.0138491876145751,0.3217200316786187
3.783500000000004,-1.0194887039919358,0.0351544217936699,0.3430252658577135
3.786999999999999,-1.000314516829526,0.0468725623915598,0.3579391043160051
3.7905000000000015,-0.984334282198266,0.064983844039505,0.3792460838243518
3.794000000000004,-0.9853989330419826,0.0745709376207098,0.3845728287014385
3.7975,-1.0035102146899275,0.0852244273748832,0.3984202709867616
3.801000000000002,-1.0312068445898257,0.092680473939403,0.3952245731263599
3.804499999999997,-1.073819058277267,0.1033339636935764,0.4005513180034466
3.808,-1.111104527087622,0.1054650107102614,0.4026823650201317
3.8115000000000014,-1.1611727873395834,0.106529661553978,0.4016177141764152
3.8149999999999977,-1.1941979074458202,0.1043986145372929,0.4069427137242498
3.8185,-1.2272212822228048,0.092680473939403,0.4090737607409349
3.8220000000000023,-1.24533256387075,0.0830933803581981,0.4133358547743051
3.825499999999998,-1.2645067510331598,0.0756355884644264,0.4037470158638482
3.8290000000000006,-1.2772912878040183,0.0628527970228199,0.4005513180034466
3.832500000000003,-1.2975318711393966,0.0521993072686465,0.3909642244222418
3.8359999999999994,-1.3092500117372865,0.037285468810355,0.3824417816847534
3.839500000000001,-1.328425944228948,0.0191759324916618,0.3664615470534934
3.843000000000004,-1.340144084826838,0.0042603487041183,0.3451563128743986
3.846499999999999,-1.351862225424728,-0.0159802346312599,0.3206536355056502
3.8500000000000014,-1.3603846681622165,-0.0298276769165829,0.3036087500306735
3.853500000000004,-1.361449319005933,-0.0447432607041264,0.2780431671474606
3.8569999999999993,-1.3625139698496491,-0.0490036094082446,0.2599318854995155
3.860500000000002,-1.367840714726736,-0.0532657034416147,0.2439533961975074
3.864000000000004,-1.367840714726736,-0.0500682602519611,0.219450718828759
3.8675,-1.379558855324626,-0.0447432607041264,0.1874919948954908
3.871000000000002,-1.3944744391121693,-0.045807911547843,0.1672514115601126
3.8744999999999976,-1.4264331630454377,-0.0383501196540712,0.1289012919060412
3.878,-1.455196189118304,-0.0330233747769845,0.0948115209560879
3.8815000000000026,-1.4935463087723757,-0.0266319790561812,0.0532657034416149
3.884999999999998,-1.522309334845242,-0.0234362811957796,0.0223716303520633
3.888500000000001,-1.563855152359715,-0.0234362811957796,-0.0191759324916617
3.892000000000003,-1.5926181784325817,-0.0298276769165828,-0.0479389585645282
3.8954999999999984,-1.6213812045054483,-0.0319587239332679,-0.0777666354811113
3.899000000000001,-1.6416217878408266,-0.0351544217936695,-0.1022693128498597
3.9025000000000034,-1.6671891160532917,-0.0372854688103546,-0.1310323389227262
3.905999999999999,-1.6895607464053546,-0.0362208179666381,-0.1534022239455376
3.909500000000001,-1.730041913076111,-0.0276983752291497,-0.1789695521580025
3.913000000000004,-1.7662627310427494,-0.0181095363186929,-0.1960144376329791
3.916499999999999,-1.8280491318926009,-0.0074577918937715,-0.2013411825100658
3.9200000000000017,-1.8791837883175309,0.0021310470166853,-0.2002765316663493
3.923500000000004,-1.9420365853403505,0.0170448854749768,-0.1938833906162941
3.927,-1.9910401947485952,0.0287630260728667,-0.1821652500184041
3.930500000000002,-2.0251299656985484,0.0372854688103551,-0.1704471094205142
3.9339999999999975,-2.0730671789338246,0.0479389585645285,-0.1512729222581045
3.9375,-2.094374158442172,0.0521993072686466,-0.138488385487246
3.9410000000000025,-2.111419043917148,0.0607217500061349,-0.1278348957330726
3.944499999999998,-2.1263328823754395,0.0692441927436233,-0.1171831513081512
3.948,-2.134855325112928,0.0703088435873398,-0.110790010258096
3.951500000000003,-2.136986372129613,0.0703088435873398,-0.0980072188164895
3.9549999999999983,-2.1263328823754395,0.0745709376207099,-0.1001382658331746
3.958500000000001,-2.107156949883778,0.0830933803581983,-0.0990718696602061
3.9620000000000033,-2.080524970827597,0.0884201252352849,-0.1001382658331746
3.965499999999999,-2.05176194475473,0.090549426922718,-0.1012029166768912
3.969000000000001,-2.0006272883298,0.0948115209560882,-0.1022693128498597
3.972500000000004,-1.9580150746423584,0.090549426922718,-0.1012029166768912
3.975999999999999,-1.8951640229487907,0.0884201252352849,-0.0980072188164895
3.9795000000000016,-1.8514854130883809,0.0830933803581982,-0.1012029166768912
3.983000000000004,-1.7801119186573249,0.0798976824977966,-0.1033339636935762
3.9865,-1.7268462152157096,0.076701984637395,-0.1161167551351827
3.990000000000002,-1.65653737162837,0.0735062867769933,-0.1182478021518678
3.993499999999997,-1.60114062117007,0.0692441927436232,-0.1193124529955843
3.997,-1.531896428426447,0.0713752397603083,-0.1182478021518678
4.000500000000002,-1.4871549130515724,0.0703088435873397,-0.1193124529955843
4.003999999999998,-1.4338892096099574,0.0756355884644264,-0.1065296615539778
4.0075,-1.4061925797100594,0.078831286324828,-0.0926804739394028
4.011000000000003,-1.374233855776791,0.0809623333415131,-0.0671131457269379
4.014499999999998,-1.358253621145531,0.0777666354811115,-0.0500682602519613
4.018000000000001,-1.3444044335309562,0.0692441927436232,-0.0351544217936697
4.021500000000003,-1.3273595480559794,0.0575260521457332,-0.029827676916583
4.024999999999999,-1.3028586160164832,0.05113465642493,-0.0308940730895516
4.028500000000001,-1.28048698566442,0.0415458175144731,-0.0351544217936697
4.032000000000004,-1.24533256387075,0.0298276769165832,-0.0511346564249298
4.035499999999999,-1.2176341886416,0.025567328212465,-0.0628527970228197
4.0390000000000015,-1.1867401155520485,0.0202405833353783,-0.0724398906040246
4.042500000000004,-1.17821767281456,0.0213052341790949,-0.0820287295144815
4.045999999999999,-1.18247976684793,0.0276983752291501,-0.0958761717998045
4.049500000000002,-1.2048513971999937,0.0308940730895517,-0.1001382658331746
4.052999999999997,-1.2346790741165767,0.0415458175144731,-0.1075943123976944
4.0565,-1.254919657451955,0.0436768645311582,-0.1171831513081512
4.060000000000002,-1.2645067510331598,0.053265703441615,-0.1257055940456395
4.063499999999998,-1.254919657451955,0.0575260521457332,-0.1299659427497577
4.067,-1.215503141624915,0.0617864008498514,-0.1374237346435295
4.070500000000003,-1.1696952300770718,0.0585907029894497,-0.1416840833476476
4.073999999999998,-1.1238890638584804,0.0596570991624183,-0.1480754790684509
4.077500000000001,-1.108973480070937,0.0575260521457332,-0.1544686201185061
4.081000000000003,-1.1270847617188822,0.053265703441615,-0.1597953649955928
4.084499999999999,-1.17821767281456,0.0404811666707566,-0.1640557136997109
4.088000000000001,-1.28048698566442,0.0276983752291501,-0.1651203645434275
4.091500000000004,-1.3827562985142796,0.01171814059789,-0.1640557136997109
4.094999999999999,-1.5297671267390138,0.0053267448770868,-0.1629910628559944
4.098500000000001,-1.6458838818741963,0.0042603487041183,-0.1555332709622227
4.102000000000004,-1.7833076165177262,0.0063913957208034,-0.1406194325039311
4.105499999999999,-1.8642699498592392,0.0138491876145752,-0.1235745470289545
4.109000000000002,-1.947363330217437,0.0181095363186934,-0.1001382658331746
4.112500000000004,-1.984648799027792,0.0138491876145752,-0.0862890782185996
4.116,-2.02406356952558,0.0170448854749768,-0.0703088435873395
4.119500000000002,-2.0528265955984466,0.0149138384582917,-0.0660484948832214
4.1229999999999976,-2.0783939238109115,0.0095870935812051,-0.0628527970228197
4.1265,-2.10289660117966,0.0085224427374885,-0.0660484948832214
4.130000000000003,-2.127397533219156,0.0063913957208034,-0.0713752397603081
4.133499999999998,-2.140182069990015,0.0138491876145752,-0.0820287295144815
4.1370000000000005,-2.143377767850416,0.0276983752291502,-0.0841580312019145
4.140500000000003,-2.132724278096243,0.0415458175144732,-0.0820287295144815
4.143999999999998,-2.1039612520233764,0.0724398906040249,-0.0820287295144815
4.147500000000001,-2.070937877246392,0.0916158230956866,-0.0777666354811113
4.151000000000003,-2.003822986190201,0.1214435000122696,-0.069244192743623
4.154499999999999,-1.947363330217437,0.1384883854872463,-0.0628527970228197
4.158000000000001,-1.8610742519988372,0.1523375731018213,-0.0479389585645282
4.161500000000004,-1.7769144754676711,0.159795364995593,-0.0436768645311581
4.164999999999999,-1.652275277595,0.1587289688226245,-0.0340897709499532
4.168500000000002,-1.5478766630577072,0.1576643179789079,-0.0362208179666383
4.172000000000004,-1.390212345078799,0.1470108282247345,-0.0319587239332681
4.1755,-1.2602464023290416,0.1395530363309627,-0.029827676916583
4.179000000000002,-1.0908639437522438,0.1299659427497579,-0.0287630260728665
4.182499999999997,-0.9779428864774626,0.1267702448893562,-0.0266319790561814
4.186,-0.84584589671102,0.1310323389227264,-0.0245026773687483
4.189500000000002,-0.7723396099340267,0.1384883854872461,-0.0223716303520633
4.192999999999998,-0.7073575112237738,0.136357338470561,-0.01598023463126
4.1965,-0.6764634381342222,0.1267702448893562,-0.0095870935812048
4.200000000000003,-0.6615495996759307,0.1054650107102614,0.0063913957208032
4.203499999999998,-0.6562228547988439,0.0894847760790013,0.0106534897541733
4.207000000000001,-0.6615495996759307,0.0575260521457331,0.0181095363186931
4.210500000000003,-0.6743323911175372,0.0330233747769847,0.02769837522915
4.213999999999999,-0.709488558240459,-0.0031956978604015,0.0383501196540714
4.217500000000001,-0.767014610386192,-0.031958723933268,0.0532657034416149
4.221000000000004,-0.8820667146776582,-0.0585907029894495,0.0628527970228197
4.224499999999999,-1.0088369595670144,-0.0767019846373946,0.083093380358198
4.2280000000000015,-1.2112427929207967,-0.0948115209560878,0.1012029166768912
4.231500000000004,-1.395539089955886,-0.1022693128498595,0.110790010258096
4.234999999999999,-1.6597330694887715,-0.103333963693576,0.1171831513081512
4.238500000000002,-1.844029366523861,-0.1012029166768909,0.1182478021518678
4.241999999999997,-2.0751982259505097,-0.0916158230956861,0.1182478021518678
4.2455,-2.219013356314843,-0.077766635481111,0.1139874534477496
4.249000000000002,-2.3670905807125457,-0.0564614013020162,0.1001382658331746
4.252499999999998,-2.441661518333255,-0.0415458175144727,0.0937468701123714
4.256,-2.4949254764456184,-0.024502677368748,0.0756355884644262
4.259500000000003,-2.49812117430602,-0.0074577918937714,0.0617864008498512
4.262999999999998,-2.453379658931145,0.0138491876145753,0.0383501196540714
4.266500000000001,-2.378808721310436,0.033023374776985,0.0095870935812048
4.270000000000003,-2.2349935909461025,0.0564614013020168,-0.0191759324916617
4.273499999999999,-2.106092299040061,0.0788312863248281,-0.0426122136874415
4.277000000000001,-1.8962286737925071,0.1075943123976946,-0.0596570991624181
4.280500000000004,-1.7268462152157096,0.1342280367831281,-0.0777666354811113
4.283999999999999,-1.4967420066327772,0.1661867607163962,-0.0884201252352847
4.287500000000001,-1.3273595480559794,0.1864273440517744,-0.0926804739394028
4.291000000000004,-1.0983217356460158,0.2130593231079559,-0.0937468701123714
4.294499999999999,-0.9363953236337376,0.2290395577392159,-0.0905494269227178
4.298000000000002,-0.7212066988383489,0.2386266513204208,-0.0862890782185996
4.301500000000004,-0.5731294744406459,0.2364956043037357,-0.0767019846373948
4.305,-0.3856374795451551,0.2237128128621292,-0.0724398906040246
4.308500000000002,-0.258867234655799,0.205601531214184,-0.0671131457269379
4.311999999999998,-0.124639197872671,0.1928187397725775,-0.0607217500061347
4.3155,-0.0532657034416149,0.1747092034538843,-0.0575260521457331
4.319000000000003,-0.0042603487041181,0.1576643179789077,-0.0511346564249298
4.322499999999998,0.0042603487041181,0.1438151303643327,-0.0468725623915597
4.3260000000000005,-0.0394165158270399,0.1267702448893561,-0.0394165158270399
4.329500000000003,-0.0990718696602061,0.1075943123976944,-0.029827676916583
4.332999999999998,-0.2173214171413259,0.0809623333415129,-0.0117181405978899
4.336500000000001,-0.3323735214327921,0.0532657034416149,-0.0042603487041181
4.340000000000003,-0.508147375730393,0.0191759324916617,0.0042603487041181
4.343499999999999,-0.6668763445530174,-0.0053267448770866,0.0170448854749766
4.347000000000001,-0.8927184591025796,-0.0404811666707563,0.0255673282124649
4.350500000000004,-1.081276850171039,-0.0639174478665361,0.0340897709499532
4.353999999999999,-1.340144084826838,-0.0884201252352845,0.0404811666707564
4.357500000000002,-1.5308317775827305,-0.1001382658331744,0.041545817514473
4.361000000000004,-1.7641316840260644,-0.103333963693576,0.041545817514473
4.3645,-1.9186003041445707,-0.0948115209560877,0.0404811666707564
4.368000000000002,-2.070937877246392,-0.0798976824977961,0.0351544217936697
4.3714999999999975,-2.142311371677448,-0.0617864008498509,0.029827676916583
4.375,-2.1753364917836846,-0.0372854688103546,0.0245026773687483
4.3785000000000025,-2.150833814414936,-0.0159802346312598,0.0223716303520633
4.381999999999998,-2.0762646221234786,0.0021310470166853,0.02769837522915
4.3855,-1.9761263562903035,0.0191759324916619,0.0308940730895516
4.389000000000003,-1.8195266891551125,0.0308940730895518,0.0245026773687483
4.392499999999998,-1.6757115587907798,0.0383501196540716,0.0181095363186931
4.396000000000001,-1.4786324703140838,0.0564614013020167,0.0095870935812048
4.399500000000003,-1.3199035014914595,0.0756355884644264,-0.0063913957208032
4.402999999999999,-1.1079088292272203,0.0980072188164897,-0.0202405833353782
4.406500000000001,-0.956635906969116,0.1161167551351828,-0.0255673282124649
4.410000000000004,-0.7606214693361367,0.1395530363309627,-0.0362208179666383
4.413499999999999,-0.6338512244467807,0.1587289688226243,-0.0351544217936697
4.417000000000002,-0.4974938859762197,0.1853609478788058,-0.0458079115478431
4.420500000000004,-0.42292294835551,0.2077325782308691,-0.0479389585645282
4.424,-0.3675279432264619,0.2301042085829324,-0.0564614013020165
4.427500000000002,-0.3526141047681703,0.2407576983371058,-0.055395005129048
4.430999999999997,-0.3632658491930917,0.2535404897787123,-0.0575260521457331
4.4345,-0.3845728287014385,0.2556715367953974,-0.0564614013020165
4.438000000000002,-0.4197272504951083,0.245018047041224,-0.055395005129048
4.441499999999998,-0.4506213235846599,0.2428870000245389,-0.0511346564249298
4.445,-0.4985585368199362,0.2247774637058457,-0.0447432607041266
4.448500000000003,-0.5401060996636612,0.2087989744038376,-0.0362208179666383
4.451999999999998,-0.6200020368322057,0.1821652500184042,-0.0213052341790947
4.455500000000001,-0.697768672313317,0.1597953649955929,-0.0031956978604016
4.459000000000003,-0.8319967090964449,0.1267702448893562,0.01598023463126
4.462499999999999,-0.947048813387911,0.1054650107102614,0.0330233747769847
4.466000000000001,-1.1164312719647087,0.078831286324828,0.0468725623915597
4.469500000000004,-1.2421368660103485,0.053265703441615,0.0532657034416149
4.472999999999999,-1.3944744391121693,0.0415458175144731,0.0596570991624181
4.4765000000000015,-1.483959215191171,0.0245026773687485,0.0617864008498512
4.480000000000004,-1.561725850672282,0.0170448854749768,0.0575260521457331
4.483499999999999,-1.6022070173430385,0.0159802346312602,0.0564614013020165
4.487000000000002,-1.624578647695102,0.0106534897541735,0.0607217500061347
4.490499999999997,-1.6160562049576137,0.0063913957208034,0.0607217500061347
4.494,-1.5979449233096683,-0.0010646508437163,0.0575260521457331
4.497500000000002,-1.5787707361472587,-0.0085224427374881,0.0447432607041266
4.500999999999998,-1.5489413139014236,-0.0127827914416062,0.0213052341790947
4.5045,-1.5233739856889583,-0.0138491876145748,0.0
4.508000000000003,-1.486088516878604,-0.0159802346312599,-0.029827676916583
4.511499999999998,-1.4445426993641308,-0.0106534897541732,-0.0585907029894496
4.515000000000001,-1.3731674596038226,-0.0031956978604014,-0.0916158230956863
4.518500000000003,-1.3092500117372865,0.0085224427374884,-0.110790010258096
4.521999999999999,-1.21017814207708,0.025567328212465,-0.1331616406101593
4.525500000000001,-1.124953714702197,0.0319587239332683,-0.1416840833476476
4.529000000000004,-0.9896610270753528,0.0436768645311582,-0.1438151303643327
4.532499999999999,-0.8799356676609732,0.0479389585645283,-0.1406194325039311
4.536000000000001,-0.7286627454028686,0.0511346564249299,-0.136357338470561
4.539500000000004,-0.6093502924072843,0.0490036094082448,-0.1320969897664428
4.542999999999999,-0.4559463231324946,0.0436768645311581,-0.1299659427497577
4.546500000000002,-0.3451563128743986,0.0426122136874416,-0.124639197872671
4.550000000000004,-0.205601531214184,0.0436768645311581,-0.1257055940456395
4.5535,-0.110790010258096,0.0468725623915597,-0.1214435000122694
4.557000000000002,-0.0138491876145749,0.0500682602519613,-0.1150521042914662
4.5604999999999976,0.0383501196540714,0.0532657034416149,-0.1065296615539778
4.564,0.0436768645311581,0.0671131457269379,-0.0937468701123714
4.567500000000003,0.002131047016685,0.0724398906040246,-0.096942567972773
4.570999999999998,-0.1267702448893561,0.0798976824977964,-0.0905494269227178
4.5745000000000005,-0.2695207244099723,0.0873537290623162,-0.1012029166768912
4.578000000000003,-0.5102766774178261,0.0884201252352848,-0.1161167551351827
4.581499999999998,-0.7190756518216638,0.0926804739394029,-0.1289012919060412
4.585000000000001,-0.9981834698128408,0.1022693128498598,-0.1544686201185061
4.588500000000003,-1.2005893031666235,0.1075943123976945,-0.1715135055934827
4.591999999999999,-1.4317599079225245,0.1171831513081514,-0.1842962970350892
4.595500000000001,-1.569181897236802,0.1278348957330728,-0.1885583910684593
4.599000000000004,-1.693822840438725,0.1331616406101595,-0.1896230419121759
4.602499999999999,-1.7481531947240565,0.1342280367831281,-0.1832316461913727
4.606000000000002,-1.765196334869781,0.1299659427497579,-0.1640557136997109
4.609500000000004,-1.749217845567773,0.1225098961852381,-0.150206526085136
4.613,-1.6906253972490712,0.1054650107102615,-0.1320969897664428
4.616500000000002,-1.629903647242937,0.0820287295144817,-0.1257055940456395
4.619999999999997,-1.5212446840015257,0.0639174478665365,-0.1193124529955843
4.6235,-1.421106418168351,0.0458079115478433,-0.1150521042914662
4.627000000000002,-1.2783559386477348,0.025567328212465,-0.1139874534477496
4.630499999999998,-1.1611727873395834,0.01171814059789,-0.1054650107102613
4.634,-1.0056395163773606,-0.0063913957208031,-0.0894847760790012
4.637500000000003,-0.8948495061192646,-0.0276983752291498,-0.0735062867769931
4.640999999999998,-0.7744706569507118,-0.0564614013020164,-0.0521993072686464
4.644500000000001,-0.7020307663466872,-0.0745709376207096,-0.0308940730895516
4.648000000000003,-0.6359822714634658,-0.1150521042914661,-0.0042603487041181
4.651499999999999,-0.6125459902676859,-0.1427504795206161,0.0106534897541733
4.655000000000001,-0.5901743599156226,-0.1779049013142859,0.0255673282124649
4.658500000000004,-0.5784562193177326,-0.1992101354933807,0.0372854688103548
4.661999999999999,-0.5624759846864725,-0.2322352555996174,0.0426122136874415
4.6655000000000015,-0.5273215628928027,-0.2567361876391138,0.0426122136874415
4.669000000000004,-0.4847093492053612,-0.274847469287059,0.0479389585645282
4.672499999999999,-0.4484902765679749,-0.2833681666952953,0.0564614013020165
4.676000000000002,-0.4112048077576201,-0.290825958589067,0.0660484948832214
4.679499999999997,-0.4016177141764152,-0.2918906094327836,0.0713752397603081
4.683,-0.4112048077576201,-0.2876302607286655,0.0937468701123714
4.686500000000002,-0.4442281825346048,-0.2876302607286655,0.1033339636935762
4.689999999999998,-0.4964292351325032,-0.2823035158515787,0.1235745470289545
4.6935,-0.547562146228181,-0.274847469287059,0.138488385487246
4.697000000000003,-0.6200020368322057,-0.2599318854995154,0.1576643179789077
4.700499999999998,-0.6732677402738206,-0.2524758389349956,0.1651203645434275
4.704000000000001,-0.7446429800341288,-0.2322352555996174,0.1768385051413174
4.707500000000003,-0.8117561257610666,-0.2194507188287589,0.1853609478788057
4.710999999999999,-0.9193504381587612,-0.2013411825100657,0.1821652500184041
4.714500000000001,-1.0205551001649042,-0.1832316461913725,0.1821652500184041
4.718000000000004,-1.1803487198312452,-0.1619246666830257,0.177904901314286
4.721499999999999,-1.3113810587539714,-0.1480754790684507,0.1736428072809158
4.725000000000001,-1.4882195638952889,-0.1267702448893559,0.1597953649955928
4.728500000000004,-1.614989808784645,-0.1065296615539777,0.1480754790684509
4.731999999999999,-1.743891100690686,-0.0735062867769929,0.1214435000122694
4.735500000000002,-1.7992861058197342,-0.0500682602519611,0.1043986145372928
4.739000000000004,-1.822722387015514,-0.0298276769165828,0.0884201252352847
4.7425,-1.795025757115616,-0.0159802346312598,0.0735062867769931
4.746000000000002,-1.705540981036615,2.0886853032411267e-16,0.0521993072686464
4.749499999999998,-1.6107294600805269,0.0106534897541735,0.0340897709499532
4.753,-1.4424116523474455,0.02343628119578,0.0213052341790947
4.756500000000003,-1.3039232668601997,0.0340897709499534,0.0074577918937717
4.759999999999998,-1.0983217356460158,0.0436768645311582,0.0
4.7635000000000005,-0.9385263706504228,0.0575260521457332,-0.0074577918937717
4.767000000000003,-0.7318584432632703,0.0756355884644263,-0.0149138384582915
4.770499999999998,-0.5795208701614492,0.0916158230956864,-0.0191759324916617
4.774000000000001,-0.4005513180034466,0.1107900102580961,-0.0213052341790947
4.777500000000003,-0.2844345628682639,0.1310323389227263,-0.0245026773687483
4.780999999999999,-0.1715135055934827,0.1597953649955928,-0.0255673282124649
4.784500000000001,-0.1097253594143794,0.1768385051413174,-0.0234362811957798
4.788000000000004,-0.0660484948832213,0.1949497867892626,-0.0191759324916617
4.791499999999999,-0.0585907029894496,0.2034722295267509,-0.0106534897541733
4.795000000000002,-0.0607217500061346,0.2013411825100658,-0.0053267448770866
4.798500000000004,-0.0788312863248278,0.2034722295267509,-0.0010646508437165
4.802,-0.1129210572747811,0.191754088928861,0.002131047016685
4.805500000000002,-0.152337573101821,0.1811005991746876,0.0042603487041181
4.8089999999999975,-0.2247774637058457,0.1651203645434275,0.0127827914416064
4.8125,-0.2908259585890671,0.1459461773810178,0.0202405833353782
4.8160000000000025,-0.3962909692993285,0.1214435000122694,0.0213052341790947
4.819499999999998,-0.480449000501243,0.1043986145372928,0.0266319790561814
4.823,-0.6061545945468827,0.0841580312019146,0.0351544217936697
4.826500000000003,-0.697768672313317,0.0756355884644263,0.041545817514473
4.829999999999998,-0.8224096155152401,0.0639174478665364,0.0564614013020165
4.833500000000001,-0.8969805531359498,0.0553950051290481,0.0713752397603081
4.837000000000003,-0.9885963762316362,0.0500682602519614,0.0905494269227178
4.840499999999999,-1.0471870792210858,0.0436768645311582,0.1075943123976944
4.844000000000001,-1.122822667685512,0.03941651582704,0.124639197872671
4.847500000000004,-1.1814151160042137,0.0308940730895517,0.1395530363309626
4.850999999999999,-1.2623774493457267,0.0202405833353783,0.1565979218059392
4.854500000000002,-1.324163850195578,0.0063913957208033,0.1683160624038291
4.858000000000004,-1.407257230553776,-0.0010646508437163,0.1693824585767977
4.8615,-1.4594565378224222,-0.0031956978604014,0.1651203645434275
4.865000000000002,-1.4999377044931788,-0.0053267448770865,0.1534022239455376
4.868499999999997,-1.512722241264037,-0.0010646508437163,0.1395530363309626
4.872,-1.4871549130515724,0.0074577918937719,0.1235745470289545
4.875500000000002,-1.4477383972245323,0.0170448854749768,0.1075943123976944
4.878999999999998,-1.3646450168663344,0.0276983752291501,0.0894847760790012
4.8825,-1.2996629181560817,0.0340897709499534,0.0745709376207097
4.886000000000003,-1.2144384907811985,0.0404811666707566,0.0585907029894496
4.889499999999998,-1.1483899958979769,0.0404811666707566,0.0458079115478431
4.893000000000001,-1.0599698706626923,0.0383501196540715,0.029827676916583
4.896500000000003,-0.9992481206565574,0.0362208179666384,0.01598023463126
4.899999999999999,-0.9118943915942412,0.0319587239332682,-0.002131047016685
4.903500000000001,-0.8437148496943347,0.0276983752291501,-0.01598023463126
4.907000000000004,-0.7563611206320187,0.0159802346312601,-0.0394165158270399
4.910499999999999,-0.6913772765925138,0.0010646508437166,-0.0564614013020165
4.9140000000000015,-0.6295908757426625,-0.0170448854749765,-0.0767019846373948
4.917500000000004,-0.6072192453905992,-0.0245026773687483,-0.083093380358198
4.920999999999999,-0.614677037284371,-0.0266319790561814,-0.0926804739394028
4.924500000000002,-0.6402426201675839,-0.031958723933268,-0.0958761717998045
4.927999999999997,-0.7105532090841755,-0.0372854688103547,-0.0916158230956863
4.9315,-0.780862052671515,-0.0308940730895515,-0.083093380358198
4.935000000000002,-0.8746089227838865,-0.0298276769165829,-0.0660484948832214
4.938499999999998,-0.942788464683793,-0.0276983752291498,-0.0511346564249298
4.942,-1.0173594023045027,-0.018109536318693,-0.029827676916583
4.945500000000003,-1.0621009176793774,-0.0127827914416063,-0.0127827914416064
4.948999999999998,-1.1143002249480238,-0.0021310470166849,0.0
4.952500000000001,-1.1547813916187804,1.4141993349608656e-16,0.0063913957208032
4.956000000000003,-1.2250919805353715,0.0042603487041183,0.0095870935812048
4.959499999999999,-1.282618032681105,0.0074577918937719,0.0106534897541733
4.963000000000001,-1.3550579232851294,0.0106534897541735,0.0106534897541733
4.966500000000004,-1.411517579257894,0.0170448854749767,0.0063913957208032
4.969999999999999,-1.4637186318557929,0.0330233747769848,0.0085224427374883
4.973500000000001,-1.4796971211578005,0.05113465642493,0.013849187614575
4.977000000000004,-1.480763517330769,0.0703088435873397,0.0223716303520633
4.980499999999999,-1.4679789805599106,0.0862890782185998,0.0351544217936697
4.984000000000002,-1.439215954487044,0.1001382658331748,0.0521993072686464
4.987500000000004,-1.413648626274579,0.1086607085706631,0.0628527970228197
4.991,-1.383820949357996,0.1118564064310647,0.0767019846373948
4.994500000000002,-1.358253621145531,0.1150521042914663,0.0873537290623162
4.9979999999999976,-1.3252302463685464,0.1139874534477498,0.0905494269227178
5.0015,-1.2943361732789946,0.1107900102580962,0.0894847760790012
5.005000000000003,-1.2400058189936634,0.106529661553978,0.0905494269227178
5.008499999999998,-1.1931332566021038,0.1043986145372929,0.0873537290623162
5.0120000000000005,-1.1206916206688269,0.0990718696602062,0.083093380358198
5.015500000000003,-1.0684923134001805,0.0969425679727731,0.0756355884644262
5.018999999999998,-1.0130973082711323,0.0937468701123715,0.069244192743623
5.022500000000001,-0.9896610270753528,0.0852244273748832,0.0703088435873395
5.026000000000003,-0.986465329214951,0.078831286324828,0.0745709376207097
5.029499999999999,-1.002443818516959,0.0703088435873397,0.0713752397603081
5.033000000000001,-1.0290775429023926,0.0596570991624183,0.0724398906040246
5.036500000000004,-1.0471870792210858,0.0553950051290481,0.0681795418999064
5.039999999999999,-1.055709521958574,0.0319587239332683,0.0681795418999064
5.043500000000002,-1.051447427925204,0.0181095363186932,0.0671131457269379
5.047000000000004,-1.0365335894669123,-0.0085224427374881,0.0649838440395048
5.0505,-1.0194887039919358,-0.0308940730895515,0.0649838440395048
5.054000000000002,-1.002443818516959,-0.0639174478665362,0.0660484948832214
5.057499999999997,-1.0045748655336442,-0.0830933803581979,0.0628527970228197
5.061,-1.032273240762794,-0.0916158230956862,0.0511346564249298
5.064500000000002,-1.0802104539980706,-0.0948115209560878,0.041545817514473
5.067999999999998,-1.157977089479182,-0.0788312863248277,0.0245026773687483
5.0715,-1.2261566313790884,-0.0660484948832212,0.0202405833353782
5.075000000000003,-1.3113810587539714,-0.0490036094082446,0.0181095363186931
5.078499999999998,-1.3571889703018147,-0.0330233747769845,0.0191759324916617
5.082000000000001,-1.3934080429392008,-0.0234362811957796,0.0213052341790947
5.085500000000003,-1.4019304856766894,-0.0138491876145748,0.0234362811957798
5.088999999999999,-1.3912769959225155,0.009587093581205,0.0319587239332681
5.092500000000001,-1.369971761743421,0.0255673282124651,0.0458079115478431
5.096000000000004,-1.3433397826872395,0.0479389585645284,0.0564614013020165
5.099499999999999,-1.3305552459163812,0.0660484948832215,0.0660484948832214
5.1030000000000015,-1.3199035014914595,0.0905494269227179,0.0756355884644262
5.106500000000004,-1.3199035014914595,0.1086607085706631,0.0798976824977964
5.109999999999999,-1.3230991993518617,0.1395530363309627,0.0905494269227178
5.113500000000002,-1.3220328031788928,0.159795364995593,0.0926804739394028
5.116999999999997,-1.3156414074580896,0.1779049013142861,0.0894847760790012
5.1205,-1.310314662581003,0.1928187397725777,0.0852244273748831
5.124000000000002,-1.3071189647206012,0.2087989744038378,0.0777666354811113
5.127499999999998,-1.3135103604414045,0.2205171150017277,0.0681795418999064
5.131,-1.3316216420893496,0.2354309534600192,0.0575260521457331
5.134500000000003,-1.3444044335309562,0.2386266513204208,0.0500682602519613
5.137999999999998,-1.3635803660226178,0.2503447919183108,0.0362208179666383
5.141500000000001,-1.3657114130393029,0.2514094427620273,0.0234362811957798
5.145000000000003,-1.340144084826838,0.2535404897787124,0.0095870935812048
5.148499999999999,-1.310314662581003,0.2524758389349958,0.0053267448770866
5.152000000000001,-1.2559843082956712,0.2460844432141926,-0.002131047016685
5.155500000000004,-1.2144384907811985,0.2375620004767043,-0.0031956978604016
5.158999999999999,-1.160108136495867,0.2258421145495624,-0.0031956978604016
5.162500000000001,-1.1292140634063152,0.2119946722642393,0.0
5.166000000000004,-1.097255339473047,0.1811005991746877,0.013849187614575
5.169499999999999,-1.0844725480314406,0.1672514115601127,0.0213052341790947
5.173000000000002,-1.0695587095731491,0.1352926876268445,0.029827676916583
5.176500000000004,-1.0599698706626923,0.1129210572747812,0.0340897709499532
5.18,-1.0482517300648024,0.0798976824977965,0.0319587239332681
5.183500000000002,-1.0407956835002825,0.0564614013020166,0.0330233747769847
5.186999999999998,-1.039729287327314,0.0298276769165832,0.029827676916583
5.1905,-1.043991381360684,0.0138491876145751,0.0308940730895516
5.194000000000003,-1.0695587095731491,-0.0127827914416063,0.0319587239332681
5.197499999999998,-1.0940596416126456,-0.0394165158270398,0.0340897709499532
5.2010000000000005,-1.1409322040042051,-0.0724398906040245,0.0362208179666383
5.204500000000003,-1.1771530219708437,-0.0990718696602059,0.0351544217936697
5.207999999999998,-1.219765235658285,-0.1342280367831277,0.0234362811957798
5.211500000000001,-1.2506593087478366,-0.1576643179789076,0.0191759324916617
5.215000000000003,-1.2783559386477348,-0.1800359483309709,0.0031956978604016
5.218499999999999,-1.3017922198435146,-0.184296297035089,-0.013849187614575
5.222000000000001,-1.3476001313913577,-0.1885583910684592,-0.0255673282124649
5.225500000000004,-1.3891476942350829,-0.1864273440517741,-0.0362208179666383
5.228999999999999,-1.464783282699509,-0.1800359483309709,-0.0532657034416149
5.232500000000002,-1.520178287828557,-0.1736428072809156,-0.0596570991624181
5.236000000000004,-1.5958156216222352,-0.1534022239455374,-0.0724398906040246
5.2395,-1.6362967882929915,-0.1352926876268442,-0.0724398906040246
5.243000000000002,-1.6629287673491733,-0.1054650107102611,-0.0735062867769931
5.2464999999999975,-1.6661244652095748,-0.0777666354811111,-0.0713752397603081
5.25,-1.6373614391367084,-0.0394165158270397,-0.0649838440395048
5.2535000000000025,-1.6117941109242435,-0.0106534897541731,-0.0575260521457331
5.256999999999998,-1.573443991270172,0.02343628119578,-0.041545817514473
5.2605,-1.5414852673369035,0.0394165158270401,-0.0319587239332681
5.264000000000003,-1.492481657928659,0.0585907029894498,-0.0170448854749766
5.267499999999998,-1.4615875848391076,0.0692441927436232,-0.0053267448770866
5.271000000000001,-1.4040615326933743,0.0841580312019147,-0.0010646508437165
5.274500000000003,-1.3593182719892478,0.0948115209560881,0.0010646508437165
5.277999999999999,-1.2932697771060262,0.106529661553978,0.0
5.281500000000001,-1.2506593087478366,0.1193124529955845,0.0010646508437165
5.285000000000004,-1.2005893031666235,0.1214435000122695,0.0031956978604016
5.288499999999999,-1.1792840689875286,0.1193124529955845,0.0095870935812048
5.292000000000002,-1.1622391835125518,0.106529661553978,0.0170448854749766
5.295500000000004,-1.1558477877917488,0.1012029166768913,0.0234362811957798
5.299,-1.144129647193859,0.0820287295144816,0.0234362811957798
5.302500000000002,-1.130280459579284,0.0639174478665364,0.0234362811957798
5.305999999999997,-1.1079088292272203,0.0415458175144731,0.0191759324916617
5.3095,-1.079145803154354,0.0191759324916618,0.0085224427374883
5.313000000000002,-1.0312068445898257,-0.0117181405978898,0.0
5.316499999999998,-0.9928567249357544,-0.0362208179666381,-0.013849187614575
5.32,-0.952375558264998,-0.0660484948832213,-0.0181095363186931
5.323500000000003,-0.9182857873150446,-0.0884201252352846,-0.0191759324916617
5.326999999999998,-0.8810003185046897,-0.1118564064310644,-0.0181095363186931
5.330500000000001,-0.8522372924318231,-0.1214435000122693,-0.0149138384582915
5.334000000000003,-0.8245406625319252,-0.1246391978726709,-0.0053267448770866
5.337499999999999,-0.8085604279006651,-0.1289012919060411,0.0
5.341000000000001,-0.7957776364590586,-0.1352926876268443,0.0095870935812048
5.344500000000004,-0.7936465894423735,-0.1459461773810177,0.0085224427374883
5.347999999999999,-0.7883198445652868,-0.1640557136997109,0.0053267448770866
5.3515000000000015,-0.7797974018277984,-0.1736428072809157,0.0031956978604016
5.355000000000004,-0.7776663548111135,-0.182165250018404,0.0010646508437165
5.358499999999999,-0.7819284488444836,-0.180035948330971,0.0
5.362000000000002,-0.8138871727777518,-0.1608600158393092,0.0
5.365499999999997,-0.8522372924318231,-0.140619432503931,0.0074577918937717
5.369,-0.9374617198067065,-0.1097253594143794,0.0223716303520633
5.372500000000002,-1.0173594023045027,-0.0852244273748829,0.0404811666707564
5.375999999999998,-1.134540808283402,-0.0575260521457329,0.0639174478665363
5.3795,-1.219765235658285,-0.0330233747769845,0.0809623333415129
5.383000000000003,-1.3209681523351764,-0.0117181405978897,0.0990718696602061
5.386499999999998,-1.3912769959225155,0.0063913957208034,0.1129210572747811
5.390000000000001,-1.453065142101619,0.0330233747769848,0.1203788491685528
5.393500000000003,-1.4882195638952889,0.0521993072686465,0.1278348957330726
5.396999999999999,-1.5233739856889583,0.0681795418999066,0.1257055940456395
5.400500000000001,-1.5446809651973052,0.0894847760790014,0.1182478021518678
5.404000000000004,-1.5798353869909751,0.1107900102580962,0.1043986145372928
5.407499999999999,-1.6139251579409286,0.1267702448893563,0.0905494269227178
5.411000000000001,-1.658666673315803,0.1523375731018212,0.0681795418999064
5.414500000000004,-1.6927564442657563,0.173642807280916,0.0564614013020165
5.417999999999999,-1.7311083092490798,0.2056015312141842,0.0308940730895516
5.421500000000002,-1.7513488925844578,0.2247774637058459,0.0085224427374883
5.425000000000004,-1.7609359861656628,0.2439533961975076,-0.0085224427374883
5.4285,-1.7534781942718909,0.2482137449016258,-0.0245026773687483
5.432000000000002,-1.7247151681990245,0.242887000024539,-0.0607217500061347
5.4354999999999976,-1.684234001528268,0.2332999064433342,-0.0852244273748831
5.439,-1.6085984130638418,0.2034722295267511,-0.124639197872671
5.442500000000003,-1.5414852673369035,0.1789695521580027,-0.150206526085136
5.445999999999998,-1.439215954487044,0.1416840833476478,-0.1811005991746876
5.4495000000000005,-1.3603846681622165,0.1139874534477498,-0.1938833906162941
5.453000000000003,-1.2581153553123563,0.0798976824977965,-0.205601531214184
5.456499999999998,-1.1888711625687334,0.0500682602519614,-0.2013411825100658
5.460000000000001,-1.106844178383504,0.0074577918937719,-0.1811005991746876
5.463500000000003,-1.0578405689752592,-0.0276983752291498,-0.1757738542976009
5.466999999999999,-1.007770563394046,-0.0777666354811112,-0.1565979218059392
5.470500000000001,-0.9832696313545496,-0.1235745470289544,-0.1448797812080492
5.474000000000004,-0.968355792896258,-0.1981454846496641,-0.136357338470561
5.477499999999999,-0.9736807924440926,-0.2599318854995154,-0.1289012919060412
5.481000000000002,-1.016293006131534,-0.3451563128743985,-0.1257055940456395
5.484500000000004,-1.073819058277267,-0.4026823650201316,-0.1320969897664428
5.488,-1.1750219749541586,-0.4665998128866679,-0.1406194325039311
5.491500000000002,-1.267704194222813,-0.5028206308533063,-0.1448797812080492
5.494999999999997,-1.3912769959225155,-0.5454328445407477,-0.1470108282247343
5.4985,-1.4882195638952889,-0.5635423808594409,-0.1406194325039311
5.502000000000002,-1.60114062117007,-0.5784562193177324,-0.1278348957330726
5.505499999999998,-1.6757115587907798,-0.5827165680218506,-0.1097253594143795
5.509,-1.7598713353219464,-0.5880433128989373,-0.0767019846373948
5.512500000000003,-1.8141999442780257,-0.5891097090719059,-0.0490036094082447
5.515999999999998,-1.8674656477196407,-0.5827165680218506,-0.0181095363186931
5.519500000000001,-1.889837278071704,-0.5635423808594409,0.0010646508437165
5.523000000000003,-1.887706231055019,-0.5433017975240626,0.0213052341790947
5.526499999999999,-1.8642699498592392,-0.5198655163282828,0.0372854688103548
5.530000000000001,-1.802481803680136,-0.4815136513449594,0.0500682602519613
5.533500000000004,-1.7481531947240565,-0.4474238803950061,0.0681795418999064
5.536999999999999,-1.6618641165054566,-0.4005513180034464,0.0820287295144815
5.5405000000000015,-1.5979449233096683,-0.3685925940701782,0.1001382658331746
5.544000000000004,-1.5244403818619272,-0.334502823120225,0.1214435000122694
5.547499999999999,-1.4775660741411154,-0.32065363550565,0.1331616406101593
5.551000000000002,-1.4296288609058392,-0.3036087500306734,0.1448797812080492
5.554499999999997,-1.399799438660004,-0.292957005605752,0.1534022239455376
5.558,-1.358253621145531,-0.2865656098849488,0.1470108282247343
5.561500000000002,-1.3177724544747746,-0.2759121201307754,0.1395530363309626
5.564999999999998,-1.254919657451955,-0.265258630376602,0.1161167551351827
