time,Gyr_X,Gyr_Y,Gyr_Z
0.0,6.523381063598781e-19,0.0053267448770866,-0.0053267448770866
0.0034999999999989,0.0010646508437165,0.0031956978604016,-0.0042603487041181
0.0070000000000014,0.002131047016685,0.002131047016685,-0.0074577918937717
0.0105000000000003,0.002131047016685,0.002131047016685,-0.0042603487041181
0.0139999999999993,0.0031956978604016,0.0031956978604016,-0.0031956978604016
0.0175000000000018,0.0031956978604016,0.0010646508437165,-0.0010646508437165
0.0210000000000007,0.0063913957208032,0.0010646508437165,-0.002131047016685
0.0244999999999997,0.002131047016685,0.0010646508437165,-0.002131047016685
0.0279999999999986,0.0010646508437165,0.0010646508437165,-0.0053267448770866
0.0315000000000011,0.0031956978604016,0.002131047016685,0.0
0.0350000000000001,0.002131047016685,0.0031956978604016,-0.0042603487041181
0.038499999999999,0.0010646508437165,0.0031956978604016,-0.0010646508437165
0.0420000000000015,0.0042603487041181,0.002131047016685,-0.0042603487041181
0.0455000000000005,0.0042603487041181,0.0031956978604016,-0.0053267448770866
0.0489999999999994,0.002131047016685,0.0031956978604016,-0.002131047016685
0.0525000000000019,0.0063913957208032,0.002131047016685,-0.002131047016685
0.0560000000000009,0.0042603487041181,0.002131047016685,-0.0031956978604016
0.0594999999999998,0.0031956978604016,0.002131047016685,-0.0053267448770866
0.0629999999999988,0.0063913957208032,0.0010646508437165,-0.0053267448770866
0.0665000000000013,1.3038212479669908e-19,0.0010646508437165,-0.0042603487041181
0.0700000000000002,0.0031956978604016,0.0031956978604016,-0.0063913957208032
0.0734999999999992,0.0031956978604016,0.002131047016685,-0.0042603487041181
0.0770000000000017,0.002131047016685,0.002131047016685,-0.0063913957208032
0.0805000000000006,0.0031956978604016,0.0031956978604016,-0.002131047016685
0.0839999999999996,0.0010646508437165,0.0010646508437165,-0.0042603487041181
0.0874999999999985,0.0053267448770866,0.0042603487041181,-0.0042603487041181
0.091000000000001,0.0031956978604016,0.0042603487041181,-0.0031956978604016
0.0945,0.0031956978604016,0.0053267448770866,-0.0074577918937717
0.0979999999999989,0.0042603487041181,0.002131047016685,-0.0042603487041181
0.1015000000000014,0.0063913957208032,0.0031956978604016,-0.0031956978604016
0.1050000000000004,0.0053267448770866,-6.523381063598781e-19,-0.0063913957208032
0.1084999999999993,0.0042603487041181,0.0010646508437165,-0.0053267448770866
0.1120000000000018,0.0042603487041181,0.0031956978604016,-0.0042603487041181
0.1155000000000008,0.0063913957208032,0.0031956978604016,-0.0042603487041181
0.1189999999999997,0.0053267448770866,-6.523381063598781e-19,-0.0031956978604016
0.1224999999999987,0.0031956978604016,0.0042603487041181,-0.0074577918937717
0.1260000000000012,0.0031956978604016,0.002131047016685,-0.0042603487041181
0.1295000000000001,0.0010646508437165,-0.0010646508437165,-0.0042603487041181
0.1329999999999991,0.0042603487041181,0.0031956978604016,-0.002131047016685
0.1365000000000016,0.0042603487041181,-5.217422403749877e-19,-0.0042603487041181
0.1400000000000005,0.0031956978604016,0.0010646508437165,-0.0042603487041181
0.1434999999999995,0.0063913957208032,0.0010646508437165,-0.0053267448770866
0.147000000000002,0.0042603487041181,0.0042603487041181,-0.0053267448770866
0.1505000000000009,0.002131047016685,0.0042603487041181,-0.0031956978604016
0.1539999999999999,0.0053267448770866,0.002131047016685,-0.0053267448770866
0.1574999999999988,0.0042603487041181,0.0031956978604016,-0.0042603487041181
0.1610000000000013,0.0031956978604016,0.0031956978604016,-0.0053267448770866
0.1645000000000003,0.0042603487041181,0.0010646508437165,-0.0042603487041181
0.1679999999999992,0.0031956978604016,0.0010646508437165,-0.0031956978604016
0.1715000000000017,0.0010646508437165,0.0031956978604016,-0.0042603487041181
0.1750000000000007,0.002131047016685,0.002131047016685,-0.0010646508437165
0.1784999999999996,0.0031956978604016,-3.913601155782886e-19,-0.0010646508437165
0.1819999999999986,0.0031956978604016,0.0031956978604016,-0.0063913957208032
0.1855000000000011,3.913601155782886e-19,0.0031956978604016,-0.0042603487041181
0.189,0.0053267448770866,0.002131047016685,-0.0031956978604016
0.192499999999999,0.0010646508437165,0.0042603487041181,-0.0042603487041181
0.1960000000000015,0.0031956978604016,0.0042603487041181,-0.0063913957208032
0.1995000000000004,0.0042603487041181,0.0031956978604016,-0.0042603487041181
0.2029999999999994,0.0010646508437165,0.002131047016685,-0.002131047016685
0.2065000000000019,0.0042603487041181,-5.217422403749877e-19,-0.0042603487041181
0.2100000000000008,0.0031956978604016,0.0010646508437165,-0.002131047016685
0.2134999999999998,0.002131047016685,0.0010646508437165,-0.0053267448770866
0.2169999999999987,0.0031956978604016,0.0010646508437165,-0.0031956978604016
0.2205000000000012,0.002131047016685,0.0010646508437165,-0.0053267448770866
0.2240000000000002,0.0063913957208032,-7.827202311565772e-19,-0.002131047016685
0.2274999999999991,0.0042603487041181,0.0031956978604016,-0.0042603487041181
0.2310000000000016,0.0042603487041181,0.0042603487041181,-0.0053267448770866
0.2345000000000006,0.002131047016685,-2.6097799078158957e-19,-0.0042603487041181
0.2379999999999995,0.0010646508437165,0.002131047016685,-0.0063913957208032
0.2414999999999985,0.0042603487041181,-5.217422403749877e-19,-0.0042603487041181
0.245000000000001,3.913601155782886e-19,0.0031956978604016,-0.0063913957208032
0.2484999999999999,0.0042603487041181,0.0031956978604016,-0.0074577918937717
0.2519999999999989,0.0063913957208032,-7.827202311565772e-19,-0.0042603487041181
0.2555000000000014,0.0031956978604016,0.0053267448770866,-0.002131047016685
0.2590000000000003,-0.0010646508437165,0.0031956978604016,-0.0063913957208032
0.2624999999999993,0.002131047016685,0.0031956978604016,-0.0010646508437165
0.2660000000000018,0.0031956978604016,0.0010646508437165,-0.0031956978604016
0.2695000000000007,0.0031956978604016,0.0031956978604016,-0.002131047016685
0.2729999999999997,0.0042603487041181,0.0042603487041181,-0.0042603487041181
0.2764999999999986,0.0031956978604016,0.0053267448770866,-0.0074577918937717
0.2800000000000011,0.002131047016685,-2.6097799078158957e-19,-0.0053267448770866
0.2835000000000001,0.0063913957208032,0.0010646508437165,-0.0042603487041181
0.286999999999999,0.0053267448770866,0.002131047016685,-0.0063913957208032
0.2905000000000015,0.0053267448770866,0.002131047016685,-0.0074577918937717
0.2940000000000005,-0.0,0.0,-0.002131047016685
0.2974999999999994,0.002131047016685,-2.6097799078158957e-19,-0.0031956978604016
0.3010000000000019,0.002131047016685,0.0010646508437165,-0.0031956978604016
0.3045000000000009,0.0042603487041181,0.0042603487041181,-0.0031956978604016
0.3079999999999998,0.0042603487041181,0.002131047016685,-0.0042603487041181
0.3114999999999988,0.0031956978604016,-3.913601155782886e-19,-0.0031956978604016
0.3150000000000013,0.0042603487041181,0.0031956978604016,-0.0010646508437165
0.3185000000000002,0.002131047016685,0.0042603487041181,-0.0053267448770866
0.3219999999999992,0.0053267448770866,-0.0010646508437165,-0.0031956978604016
0.3255000000000017,0.0042603487041181,0.0053267448770866,-0.0063913957208032
0.3290000000000006,0.002131047016685,0.002131047016685,-0.0031956978604016
0.3324999999999996,0.0053267448770866,0.0010646508437165,-0.002131047016685
0.3359999999999985,0.0042603487041181,0.002131047016685,-0.002131047016685
0.339500000000001,0.0031956978604016,0.0031956978604016,-0.0053267448770866
0.3429999999999999,0.002131047016685,0.0042603487041181,-0.0010646508437165
0.3464999999999989,0.0042603487041181,0.002131047016685,-0.0063913957208032
0.3500000000000014,0.002131047016685,0.002131047016685,-0.0053267448770866
0.3535000000000003,0.0042603487041181,0.0010646508437165,-0.0053267448770866
0.3569999999999993,0.0042603487041181,0.0010646508437165,-0.0053267448770866
0.3605000000000018,0.0042603487041181,0.0031956978604016,-0.0042603487041181
0.3640000000000007,0.0042603487041181,0.0010646508437165,-0.0053267448770866
0.3674999999999997,0.0063913957208032,0.0010646508437165,-0.0053267448770866
0.3709999999999986,0.002131047016685,0.0042603487041181,-0.0053267448770866
0.3745000000000011,0.0031956978604016,-3.913601155782886e-19,-0.002131047016685
0.3780000000000001,0.0042603487041181,-5.217422403749877e-19,-0.0042603487041181
0.381499999999999,0.0063913957208032,0.0010646508437165,-0.0031956978604016
0.3850000000000015,0.0042603487041181,-5.217422403749877e-19,-0.0031956978604016
0.3885000000000005,0.002131047016685,0.002131047016685,-0.0053267448770866
0.3919999999999994,0.0053267448770866,0.002131047016685,-0.0042603487041181
0.3955000000000019,0.0010646508437165,0.0010646508437165,-0.0074577918937717
0.3990000000000009,0.0074577918937717,0.002131047016685,-0.002131047016685
0.4024999999999998,0.0042603487041181,0.0042603487041181,-0.0042603487041181
0.4059999999999988,0.0053267448770866,0.002131047016685,-0.0031956978604016
0.4095000000000013,0.0031956978604016,0.002131047016685,-0.0053267448770866
0.4130000000000002,0.0010646508437165,0.0010646508437165,-0.002131047016685
0.4164999999999992,0.0042603487041181,0.0031956978604016,-0.002131047016685
0.4200000000000017,0.0042603487041181,-5.217422403749877e-19,-0.0042603487041181
0.4235000000000006,0.0031956978604016,-0.0010646508437165,-0.002131047016685
0.4269999999999996,0.0042603487041181,0.0010646508437165,-0.0042603487041181
0.4304999999999985,0.0010646508437165,0.0010646508437165,-0.0063913957208032
0.434000000000001,0.0053267448770866,-6.523381063598781e-19,-0.0053267448770866
0.4375,0.0053267448770866,0.002131047016685,-0.0010646508437165
0.4409999999999989,0.002131047016685,0.0010646508437165,-0.0042603487041181
0.4445000000000014,0.0010646508437165,0.0031956978604016,-0.0053267448770866
0.4480000000000004,0.0042603487041181,0.0010646508437165,-0.0053267448770866
0.4514999999999993,0.0042603487041181,0.0031956978604016,-0.0063913957208032
0.4550000000000018,0.002131047016685,0.0010646508437165,-0.0031956978604016
0.4585000000000008,0.002131047016685,0.0010646508437165,-0.0031956978604016
0.4619999999999997,0.002131047016685,0.0010646508437165,-0.002131047016685
0.4654999999999987,3.913601155782886e-19,0.0031956978604016,-0.0031956978604016
0.4690000000000012,0.0010646508437165,0.0010646508437165,-0.0042603487041181
0.4725000000000001,0.002131047016685,0.0010646508437165,-0.0074577918937717
0.4759999999999991,0.002131047016685,-2.6097799078158957e-19,-0.002131047016685
0.4795000000000016,0.0031956978604016,0.0031956978604016,-0.0031956978604016
0.4830000000000005,0.0010646508437165,-1.3038212479669908e-19,-0.0010646508437165
0.4864999999999995,0.0042603487041181,0.0031956978604016,-0.0031956978604016
0.490000000000002,0.0063913957208032,0.0010646508437165,-0.0053267448770866
0.4935000000000009,0.0053267448770866,0.0031956978604016,-0.0031956978604016
0.4969999999999999,0.0042603487041181,-5.217422403749877e-19,-0.002131047016685
0.5004999999999988,0.002131047016685,0.0010646508437165,-0.0053267448770866
0.5040000000000013,0.0031956978604016,-3.913601155782886e-19,-0.0063913957208032
0.5075000000000003,0.0042603487041181,0.0042603487041181,-0.0042603487041181
0.5109999999999992,0.0042603487041181,-5.217422403749877e-19,-0.0010646508437165
0.5145000000000017,0.0042603487041181,0.0010646508437165,-0.0053267448770866
0.5180000000000007,0.002131047016685,0.0053267448770866,-0.0074577918937717
0.5214999999999996,0.0042603487041181,0.0085224427374883,-0.0074577918937717
0.5249999999999986,0.0085224427374883,0.0117181405978899,-0.0053267448770866
0.5285000000000011,0.0074577918937717,0.0149138384582915,-0.0031956978604016
0.532,0.0063913957208032,0.01598023463126,-0.0053267448770866
0.535499999999999,0.0042603487041181,0.0106534897541733,-0.0042603487041181
0.5390000000000015,0.0053267448770866,0.0117181405978899,-0.0074577918937717
0.5425000000000004,0.0095870935812048,0.0042603487041181,-0.0031956978604016
0.5459999999999994,0.0074577918937717,0.0010646508437165,-0.0053267448770866
0.5495000000000019,0.0031956978604016,-3.913601155782886e-19,-0.0053267448770866
0.5530000000000008,-0.0,0.0,-0.0042603487041181
0.5564999999999998,-0.0010646508437165,1.3038212479669908e-19,-0.0063913957208032
0.5599999999999987,0.0010646508437165,0.0010646508437165,-0.002131047016685
0.5635000000000012,0.002131047016685,-2.6097799078158957e-19,-0.0085224427374883
0.5670000000000002,0.0010646508437165,-0.0010646508437165,-0.0031956978604016
0.5704999999999991,-7.827202311565772e-19,-0.0063913957208032,-0.0010646508437165
0.5740000000000016,-0.0042603487041181,-0.0095870935812048,-0.0063913957208032
0.5775000000000006,-1.0436982219381666e-18,-0.0085224427374883,-0.0063913957208032
0.5809999999999995,0.0031956978604016,-0.0031956978604016,-0.0031956978604016
0.5844999999999985,0.0042603487041181,-5.217422403749877e-19,-0.0031956978604016
0.588000000000001,0.0063913957208032,0.0031956978604016,-0.0063913957208032
0.5914999999999999,0.0042603487041181,0.0085224427374883,-0.0031956978604016
0.5949999999999989,0.0031956978604016,0.0063913957208032,-0.0042603487041181
0.5985000000000014,0.002131047016685,0.0042603487041181,-0.0053267448770866
0.6020000000000003,0.0031956978604016,0.002131047016685,-0.0031956978604016
0.6054999999999993,-0.0,0.0,-0.0042603487041181
0.6090000000000018,0.002131047016685,-2.6097799078158957e-19,-0.0010646508437165
0.6125000000000007,-0.0010646508437165,0.0010646508437165,-0.0042603487041181
0.6159999999999997,0.002131047016685,0.0053267448770866,-0.0074577918937717
0.6194999999999986,0.0042603487041181,0.0074577918937717,-0.0085224427374883
0.6230000000000011,0.0053267448770866,0.0106534897541733,-0.0053267448770866
0.6265000000000001,0.0063913957208032,0.0063913957208032,-0.0074577918937717
0.629999999999999,0.0042603487041181,0.0010646508437165,-0.0063913957208032
0.6335000000000015,0.0127827914416064,-0.0031956978604016,-0.0074577918937717
0.6370000000000005,0.0127827914416064,-0.0031956978604016,-0.0074577918937717
0.6404999999999994,0.0063913957208032,-7.827202311565772e-19,-0.0074577918937717
0.6440000000000019,0.0063913957208032,-7.827202311565772e-19,-0.0063913957208032
0.6475000000000009,0.0053267448770866,0.002131047016685,-0.0063913957208032
0.6509999999999998,0.0074577918937717,0.0031956978604016,-0.0074577918937717
0.6544999999999987,0.0074577918937717,0.0085224427374883,-0.0010646508437165
0.6580000000000013,0.0042603487041181,0.0063913957208032,-0.0031956978604016
0.6615000000000002,0.0010646508437165,0.0053267448770866,-0.0053267448770866
0.6649999999999991,-0.0031956978604016,0.0042603487041181,-0.0010646508437165
0.6685000000000016,0.002131047016685,0.002131047016685,-0.0053267448770866
0.6720000000000006,0.0042603487041181,0.0063913957208032,-0.002131047016685
0.6754999999999995,0.0085224427374883,0.0085224427374883,0.002131047016685
0.6789999999999985,0.0095870935812048,0.0053267448770866,0.0010646508437165
0.682500000000001,0.0117181405978899,-0.0202405833353782,0.0042603487041181
0.6859999999999999,0.0106534897541733,-0.0543303542853314,0.0117181405978899
0.6894999999999989,0.0117181405978899,-0.0798976824977964,0.0181095363186931
0.6930000000000014,0.0170448854749766,-0.0788312863248278,0.01598023463126
0.6965000000000003,0.0308940730895516,-0.0543303542853314,0.0095870935812048
0.6999999999999993,0.0308940730895516,-0.0266319790561814,0.0106534897541733
0.7035000000000018,0.0383501196540714,-4.696535128127654e-18,0.0063913957208032
0.7070000000000007,0.0308940730895516,0.0074577918937717,0.0031956978604016
0.7104999999999997,0.01598023463126,0.0053267448770866,-0.0010646508437165
0.7139999999999986,0.0031956978604016,0.0010646508437165,-0.0010646508437165
0.7175000000000011,-0.0053267448770866,-0.01598023463126,-0.002131047016685
0.7210000000000001,-0.0213052341790947,-0.029827676916583,-0.0031956978604016
0.724499999999999,-0.0255673282124649,-0.0383501196540714,-0.0042603487041181
0.7280000000000015,-0.0170448854749766,-0.0308940730895516,-0.0063913957208032
0.7315000000000005,-0.0095870935812048,-0.013849187614575,-0.0063913957208032
0.7349999999999994,1.3038212479669908e-19,0.0010646508437165,-0.0053267448770866
0.7385000000000019,0.0106534897541733,0.0031956978604016,-0.0085224427374883
0.7420000000000009,0.0181095363186931,0.0053267448770866,-0.0085224427374883
0.7454999999999998,0.0223716303520633,0.0042603487041181,-0.0095870935812048
0.7489999999999988,0.0234362811957798,0.0031956978604016,-0.0127827914416064
0.7525000000000013,0.0245026773687483,0.0031956978604016,-0.013849187614575
0.7560000000000002,0.0191759324916617,0.0085224427374883,-0.013849187614575
0.7594999999999992,0.0106534897541733,0.0234362811957798,-0.0106534897541733
0.7630000000000017,0.0085224427374883,0.0372854688103548,0.0
0.7665000000000006,-0.0063913957208032,0.0607217500061347,-0.002131047016685
0.7699999999999996,-0.0095870935812048,0.0777666354811113,0.0106534897541733
0.7734999999999985,-0.0202405833353782,0.0894847760790012,0.0127827914416064
0.777000000000001,-0.0170448854749766,0.0958761717998045,0.0106534897541733
0.7805,-0.0213052341790947,0.0916158230956863,0.0106534897541733
0.7839999999999989,-0.0138491876145749,0.0820287295144815,0.0063913957208032
0.7875000000000014,8.218989909520442e-18,0.0671131457269379,0.0053267448770866
0.7910000000000004,0.0085224427374883,0.0521993072686464,0.0
0.7944999999999993,0.0213052341790947,0.0319587239332681,0.0010646508437165
0.7980000000000018,0.0330233747769847,0.0234362811957798,-0.0031956978604016
0.8015000000000008,0.0308940730895516,0.0085224427374883,-0.002131047016685
0.8049999999999997,0.0181095363186931,0.0042603487041181,-0.0074577918937717
0.8084999999999987,0.0010646508437165,-1.3038212479669908e-19,-0.0095870935812048
0.8120000000000012,-0.0181095363186931,-0.0010646508437165,-0.0127827914416064
0.8155000000000001,-0.0394165158270399,-0.0053267448770866,-0.0106534897541733
0.8189999999999991,-0.0521993072686464,-0.0117181405978899,-0.0127827914416064
0.8225000000000016,-0.0585907029894496,-0.0202405833353782,-0.002131047016685
0.8260000000000005,-0.0628527970228197,-0.0213052341790947,-0.0010646508437165
0.8294999999999995,-0.0511346564249298,-0.01598023463126,-0.0031956978604016
0.833000000000002,-0.0447432607041266,5.479469100472423e-18,-0.0053267448770866
0.8365000000000009,-0.0266319790561814,0.0191759324916617,-0.0053267448770866
0.8399999999999999,-0.0095870935812048,0.0372854688103548,-0.0074577918937717
0.8434999999999988,0.0074577918937717,0.0575260521457331,-0.0117181405978899
0.8470000000000013,0.0170448854749766,0.0777666354811113,-0.0074577918937717
0.8505000000000003,0.0287630260728665,0.1012029166768912,-0.0095870935812048
0.8539999999999992,0.0255673282124649,0.1193124529955843,-0.0085224427374883
0.8575000000000017,0.0085224427374883,0.1406194325039311,-0.0042603487041181
0.8610000000000007,0.013849187614575,0.150206526085136,-0.0042603487041181
0.8644999999999996,0.0298276769165831,0.1693824585767977,-0.0085224427374883
0.8679999999999986,0.0521993072686464,0.1789695521580025,-0.0053267448770866
0.871500000000001,0.083093380358198,0.1885583910684593,0.0
0.875,0.1022693128498597,0.2141239739516723,0.0074577918937717
0.878499999999999,0.1267702448893561,0.2322352555996174,0.0191759324916617
0.8820000000000014,0.1427504795206162,0.2482137449016255,0.0255673282124649
0.8855000000000004,0.1736428072809158,0.2652586303766022,0.0287630260728665
0.8889999999999993,0.1981454846496642,0.2663250265495707,0.02769837522915
0.8925000000000018,0.1811005991746876,0.2737810731140905,0.041545817514473
0.8960000000000008,0.1310323389227263,0.2684543282370038,0.0649838440395048
0.8994999999999997,0.0905494269227178,0.2524758389349957,0.0649838440395048
0.9029999999999988,0.0958761717998045,0.2514094427620272,0.0479389585645282
0.9065000000000012,0.1129210572747811,0.2439533961975074,0.0458079115478431
0.91,0.1299659427497577,0.2407576983371057,0.0607217500061347
0.9134999999999992,0.1512729222581045,0.2364956043037356,0.0660484948832214
0.9170000000000016,0.1597953649955928,0.2247774637058457,0.0649838440395048
0.9205000000000004,0.1491418752414194,0.2024058333537823,0.0543303542853314
0.9239999999999996,0.1299659427497577,0.1853609478788057,0.041545817514473
0.927500000000002,0.0937468701123714,0.1576643179789077,0.0170448854749766
0.9310000000000008,0.0639174478665363,0.136357338470561,0.0127827914416064
0.9345,0.0223716303520633,0.1203788491685528,0.0
0.9379999999999988,-0.0010646508437165,0.1161167551351827,-0.0031956978604016
0.9415000000000012,-0.0394165158270399,0.124639197872671,-0.0127827914416064
0.9450000000000004,-0.0703088435873395,0.1448797812080492,-0.0202405833353782
0.9484999999999992,-0.1054650107102613,0.1672514115601126,-0.0266319790561814
0.9520000000000016,-0.1757738542976009,0.2034722295267509,-0.0319587239332681
0.9555000000000008,-0.2450180470412239,0.2439533961975074,-0.0404811666707564
0.9589999999999996,-0.288694911572382,0.2769767709744922,-0.0436768645311581
0.9624999999999986,-0.3142622397848469,0.3131975889411305,-0.0447432607041266
0.9660000000000012,-0.3068061932203271,0.3334381722765087,-0.0404811666707564
0.9695,-0.2450180470412239,0.328111427399422,-0.0308940730895516
0.972999999999999,-0.1640557136997109,0.3131975889411305,-0.0181095363186931
0.9765000000000016,-0.0458079115478431,0.288694911572382,0.0085224427374883
0.9800000000000004,0.0372854688103548,0.274847469287059,0.0308940730895516
0.9834999999999994,0.0841580312019146,0.2705853752536888,0.0511346564249298
0.987000000000002,0.0820287295144815,0.2727164222703739,0.0575260521457331
0.9905000000000008,0.0841580312019146,0.2908259585890671,0.0607217500061347
0.9939999999999998,0.0884201252352847,0.3238510786953038,0.0703088435873395
0.9974999999999988,0.1075943123976944,0.3494166615785167,0.0788312863248278
1.0010000000000012,0.1139874534477497,0.38350643252847,0.0916158230956863
1.0045000000000002,0.1267702448893561,0.3962909692993285,0.1086607085706629
1.0079999999999991,0.1193124529955844,0.3909642244222418,0.1203788491685528
1.0115000000000016,0.1065296615539779,0.3856374795451551,0.1203788491685528
1.0150000000000006,0.0990718696602061,0.3760503859639502,0.1171831513081512
1.0184999999999995,0.0980072188164896,0.3600701513326901,0.1075943123976944
1.0219999999999985,0.1012029166768912,0.3483520107348002,0.0990718696602061
1.025500000000001,0.1012029166768912,0.3291760782431385,0.0788312863248278
1.029,0.1054650107102613,0.2950880526224372,0.0468725623915597
1.0324999999999989,0.1118564064310646,0.2673896773932873,0.0319587239332681
1.0360000000000014,0.1299659427497577,0.2343645572870505,0.0287630260728665
1.0395000000000003,0.1416840833476477,0.2002765316663493,0.0372854688103548
1.0429999999999993,0.1118564064310646,0.1480754790684509,0.0362208179666383
1.0465000000000018,0.0468725623915597,0.0862890782185996,0.0127827914416064
1.0500000000000007,-0.0500682602519613,0.0149138384582915,-0.0234362811957798
1.0534999999999997,-0.1203788491685528,-0.0362208179666383,-0.0468725623915597
1.0569999999999986,-0.2205171150017276,-0.1161167551351827,-0.0649838440395048
1.060500000000001,-0.2844345628682639,-0.1715135055934827,-0.0756355884644262
1.064,-0.3622011983493753,-0.2439533961975073,-0.0862890782185996
1.067499999999999,-0.4026823650201317,-0.2950880526224372,-0.0937468701123714
1.0710000000000015,-0.4431635316908883,-0.3611348021764066,-0.0948115209560879
1.0745000000000005,-0.4623394641825499,-0.3962909692993284,-0.0958761717998045
1.0779999999999994,-0.4665998128866681,-0.43890318298677,-0.0948115209560879
1.081500000000002,-0.4623394641825499,-0.4559463231324946,-0.0852244273748831
1.0850000000000009,-0.4431635316908883,-0.4708619069200381,-0.0788312863248278
1.0884999999999998,-0.4186608543221398,-0.4761869064678729,-0.0681795418999064
1.0919999999999987,-0.3824417816847535,-0.4644687658699829,-0.0596570991624181
1.0955000000000013,-0.3526141047681704,-0.4506213235846599,-0.0543303542853314
1.0990000000000002,-0.3110665419244454,-0.4303807402492816,-0.0404811666707564
1.1024999999999991,-0.2801724688348938,-0.4101401569139034,-0.0266319790561814
1.1060000000000016,-0.2418223491808223,-0.3909642244222417,-0.0308940730895516
1.1095000000000006,-0.2151903701246409,-0.3717882919305801,-0.0394165158270399
1.1129999999999995,-0.1906876927558925,-0.3547434064556034,-0.0543303542853314
1.1164999999999985,-0.1853609478788058,-0.3462209637181151,-0.0724398906040246
1.120000000000001,-0.1736428072809158,-0.3323735214327921,-0.0894847760790012
1.1235,-0.164055713699711,-0.3291760782431385,-0.1075943123976944
1.126999999999999,-0.1512729222581045,-0.3291760782431385,-0.124639197872671
1.1305000000000014,-0.136357338470561,-0.3334381722765087,-0.1342280367831279
1.1340000000000003,-0.1139874534477497,-0.3462209637181151,-0.1555332709622227
1.1374999999999993,-0.0862890782185997,-0.355809802628572,-0.1672514115601126
1.1410000000000018,-0.0500682602519613,-0.3760503859639502,-0.177904901314286
1.1445000000000007,-0.0213052341790948,-0.3909642244222418,-0.1896230419121759
1.1479999999999997,0.0138491876145749,-0.3984202709867616,-0.1992101354933808
1.1514999999999986,0.0426122136874415,-0.4058780628805333,-0.2045368803704674
1.1550000000000011,0.0777666354811112,-0.4069427137242498,-0.2077325782308691
1.1585,0.1033339636935762,-0.4026823650201317,-0.2119946722642392
1.161999999999999,0.138488385487246,-0.38350643252847,-0.2087989744038376
1.1655000000000015,0.1608600158393093,-0.3653968962097769,-0.2087989744038376
1.1690000000000005,0.1928187397725775,-0.3302424744161071,-0.2066679273871525
1.1724999999999994,0.207732578230869,-0.2972173543098703,-0.2024058333537824
1.176000000000002,0.2173214171413258,-0.2407576983371058,-0.2077325782308691
1.1795000000000009,0.2237128128621291,-0.1981454846496642,-0.205601531214184
1.1829999999999998,0.2205171150017275,-0.1480754790684509,-0.2109282760912707
1.1864999999999988,0.2109282760912707,-0.1022693128498597,-0.2098636252475541
1.1900000000000013,0.2024058333537824,-0.0266319790561815,-0.2205171150017275
1.1935000000000002,0.1842962970350892,0.0276983752291499,-0.2364956043037356
1.1969999999999992,0.1640557136997109,0.1054650107102613,-0.2535404897787122
1.2005000000000017,0.150206526085136,0.1565979218059392,-0.2705853752536888
1.2040000000000006,0.1289012919060412,0.2205171150017275,-0.2801724688348938
1.2074999999999996,0.1235745470289545,0.2652586303766022,-0.288694911572382
1.2109999999999983,0.1161167551351827,0.316393286801532,-0.2950880526224372
1.214500000000001,0.1139874534477497,0.3494166615785167,-0.302544099186957
1.218,0.1097253594143795,0.3856374795451551,-0.3078708440640437
1.221499999999999,0.0937468701123714,0.4080091098972184,-0.3131975889411305
1.2250000000000014,0.0756355884644263,0.425053995372195,-0.3110665419244454
1.2285000000000004,0.0543303542853315,0.4303807402492817,-0.3089354949077603
1.231999999999999,0.0223716303520633,0.4293143440763132,-0.2982837504828389
1.2355000000000018,-0.002131047016685,0.4186608543221398,-0.2908259585890671
1.2390000000000008,-0.0266319790561814,0.4037470158638482,-0.2652586303766022
1.2424999999999995,-0.0394165158270398,0.3867021303888716,-0.2482137449016255
1.2459999999999989,-0.0553950051290479,0.3590055004889736,-0.2162550209683574
1.2495000000000012,-0.057526052145733,0.3366338701369103,-0.1896230419121759
1.253,-0.0511346564249298,0.3036087500306735,-0.152337573101821
1.256499999999999,-0.0383501196540713,0.2759121201307756,-0.1235745470289545
1.2600000000000016,-0.0181095363186931,0.2460844432141925,-0.0788312863248278
1.2635000000000003,-0.0010646508437165,0.2279731615662473,-0.0479389585645282
1.2669999999999997,0.0127827914416064,0.1970790884766957,-0.0053267448770866
1.270500000000002,0.0234362811957798,0.1725781564371993,0.0245026773687483
1.274000000000001,0.0298276769165831,0.1331616406101593,0.0660484948832214
1.2775,0.0245026773687484,0.1012029166768912,0.0990718696602061
1.2809999999999988,0.0095870935812048,0.0521993072686464,0.136357338470561
1.2845000000000013,-0.0042603487041181,0.0191759324916617,0.166186760716396
1.2880000000000005,-0.0287630260728665,-0.0255673282124649,0.2013411825100658
1.2914999999999992,-0.0511346564249298,-0.0660484948832214,0.2290395577392158
1.2950000000000017,-0.0809623333415129,-0.1139874534477496,0.2652586303766022
1.2985000000000009,-0.1033339636935763,-0.1576643179789077,0.288694911572382
1.3019999999999996,-0.1214435000122694,-0.2215817658454441,0.3270467765557054
1.3054999999999986,-0.1320969897664428,-0.2759121201307756,0.3504830577514853
1.309000000000001,-0.1310323389227263,-0.3526141047681703,0.3707236410868635
1.3125,-0.1257055940456396,-0.4154651564617382,0.3792460838243518
1.315999999999999,-0.1012029166768912,-0.5028206308533064,0.3824417816847534
1.3195000000000014,-0.0788312863248279,-0.5709984274239609,0.3856374795451551
1.3230000000000004,-0.0426122136874416,-0.6562228547988439,0.3781796876513833
1.3264999999999991,-0.0085224427374884,-0.7201403026653803,0.3739193389472651
1.3300000000000018,0.0340897709499531,-0.8117561257610666,0.3515477085952018
1.3335000000000008,0.0703088435873394,-0.875673573627603,0.3313071252598236
1.3369999999999995,0.1193124529955842,-0.942788464683793,0.2993484013265554
1.3404999999999987,0.1523375731018209,-0.9917920740920376,0.2705853752536888
1.3440000000000012,0.1949497867892625,-1.0493181262377709,0.2396913021641372
1.3475,0.2109282760912705,-1.0823415010147557,0.2119946722642392
1.350999999999999,0.2194507188287588,-1.1164312719647087,0.1821652500184041
1.3545000000000016,0.2205171150017274,-1.144129647193859,0.1640557136997109
1.3580000000000003,0.2045368803704673,-1.16649953221667,0.1427504795206162
1.3614999999999997,0.1842962970350891,-1.1803487198312452,0.1310323389227262
1.365000000000002,0.1502065260851358,-1.1888711625687334,0.1289012919060412
1.368500000000001,0.1235745470289543,-1.1835444176916468,0.1203788491685528
1.372,0.0862890782185995,-1.164370230529237,0.1193124529955843
1.3754999999999988,0.0564614013020164,-1.136671855300087,0.1182478021518678
1.3790000000000011,0.0266319790561813,-1.0855371988751572,0.1182478021518678
1.3825000000000005,0.0127827914416063,-1.0365335894669123,0.1235745470289545
1.3859999999999992,0.0010646508437164,-0.9630290480191712,0.1299659427497577
1.3895000000000015,0.004260348704118,-0.9044365997004696,0.1406194325039311
1.393000000000001,0.0202405833353781,-0.8245406625319252,0.1597953649955928
1.3964999999999996,0.0383501196540713,-0.7723396099340267,0.1757738542976009
1.3999999999999986,0.0703088435873394,-0.709488558240459,0.1896230419121759
1.403500000000001,0.0937468701123713,-0.6658099483800488,0.1981454846496642
1.407,0.1352926876268443,-0.6136106411114024,0.205601531214184
1.410499999999999,0.1576643179789076,-0.586978662055221,0.2119946722642392
1.4140000000000017,0.1906876927558924,-0.5624759846864725,0.2141239739516723
1.4175000000000004,0.2173214171413258,-0.5433017975240628,0.2066679273871525
1.4209999999999994,0.2556715367953973,-0.5326483077698895,0.1938833906162941
1.424500000000002,0.2716500260974053,-0.5347793547865746,0.1821652500184041
1.4280000000000008,0.2865656098849489,-0.5464974953844645,0.1842962970350892
1.4314999999999998,0.2791078179911771,-0.5507578440885826,0.1864273440517743
1.4349999999999987,0.2663250265495707,-0.5369104018032596,0.180035948330971
1.4385000000000012,0.2503447919183106,-0.519865516328283,0.1608600158393093
1.4420000000000002,0.2258421145495622,-0.508147375730393,0.1459461773810178
1.4454999999999991,0.2119946722642391,-0.5017542346803379,0.1278348957330726
1.4490000000000016,0.2045368803704674,-0.5006895838366213,0.1043986145372928
1.4525000000000006,0.2109282760912706,-0.508147375730393,0.0916158230956863
1.4559999999999995,0.2269085107225307,-0.5251905158761178,0.0660484948832214
1.4594999999999985,0.2386266513204206,-0.5379750526469761,0.0521993072686464
1.463000000000001,0.2524758389349956,-0.5518242402615512,0.0372854688103548
1.4665,0.2546051406224287,-0.5646070317031576,0.0181095363186931
1.4699999999999989,0.2386266513204206,-0.5773915684740161,-0.0053267448770866
1.4735000000000014,0.2119946722642391,-0.5741958706136145,-0.0191759324916617
1.4770000000000003,0.1629910628559943,-0.559280286826071,-0.055395005129048
1.4804999999999993,0.1182478021518677,-0.5305172607532044,-0.0777666354811113
1.4840000000000018,0.0426122136874414,-0.4836446983616446,-0.1150521042914662
1.4875000000000007,-0.0117181405978899,-0.4474238803950063,-0.1374237346435295
1.4909999999999997,-0.0873537290623162,-0.3952245731263599,-0.1715135055934827
1.4944999999999986,-0.1427504795206162,-0.3494166615785167,-0.1853609478788057
1.498000000000001,-0.1981454846496642,-0.2854992137119804,-0.2087989744038376
1.5015,-0.2343645572870506,-0.233299906443334,-0.2269085107225308
1.504999999999999,-0.2620629325162006,-0.1757738542976009,-0.2343645572870505
1.5085000000000015,-0.2737810731140905,-0.1470108282247343,-0.2322352555996175
1.5120000000000005,-0.2812388650078622,-0.1150521042914661,-0.2141239739516723
1.5154999999999994,-0.2801724688348938,-0.0926804739394028,-0.1970790884766957
1.519000000000002,-0.288694911572382,-0.0532657034416149,-0.1736428072809158
1.5225000000000009,-0.2982837504828389,-0.01598023463126,-0.1565979218059392
1.5259999999999998,-0.3089354949077603,0.0351544217936698,-0.1320969897664428
1.5294999999999987,-0.3195889846619337,0.0713752397603081,-0.1214435000122694
1.5330000000000013,-0.3281114273994219,0.1107900102580961,-0.1065296615539778
1.5365000000000002,-0.3313071252598236,0.1459461773810178,-0.0905494269227178
1.5399999999999991,-0.3249157295390203,0.1811005991746876,-0.0703088435873395
1.5435000000000016,-0.3110665419244454,0.2002765316663493,-0.0500682602519613
1.5470000000000006,-0.2854992137119804,0.2183860679850425,-0.0351544217936697
1.5504999999999995,-0.2535404897787122,0.2205171150017276,-0.0255673282124649
1.5539999999999985,-0.1992101354933807,0.2311688594266489,-0.0351544217936697
1.557500000000001,-0.1555332709622226,0.2311688594266489,-0.0500682602519613
1.561,-0.0894847760790012,0.2258421145495622,-0.0767019846373948
1.564499999999999,-0.0276983752291499,0.219450718828759,-0.1022693128498597
1.5680000000000014,0.041545817514473,0.2066679273871525,-0.1406194325039311
1.5715000000000003,0.1033339636935763,0.1970790884766957,-0.1683160624038291
1.5749999999999993,0.1832316461913727,0.1704471094205142,-0.2119946722642392
1.5785000000000018,0.2514094427620272,0.1512729222581045,-0.247149094057909
1.5820000000000007,0.3408942188410284,0.1182478021518677,-0.2929570056057522
1.5854999999999997,0.4026823650201317,0.0820287295144814,-0.3185243338182171
1.5889999999999986,0.4793843496575265,0.0383501196540713,-0.3515477085952018
1.5925000000000011,0.5390397034906926,-6.60133247493215e-17,-0.3781796876513833
1.596,0.5944364539489927,-0.0468725623915597,-0.4037470158638482
1.599499999999999,0.6317219227593476,-0.0894847760790013,-0.42292294835551
1.6030000000000015,0.6540918077821589,-0.1416840833476477,-0.4484902765679749
1.6065000000000005,0.6594185526592456,-0.1842962970350893,-0.4708619069200382
1.6099999999999994,0.6455693650446706,-0.2258421145495623,-0.4900360940824479
1.613500000000002,0.6231994800218592,-0.2492801410745942,-0.5070809795574245
1.6170000000000009,0.5752605214573311,-0.2705853752536889,-0.5273215628928027
1.6204999999999998,0.5390397034906926,-0.2791078179911772,-0.5358440056302911
1.6239999999999988,0.4836446983616446,-0.2705853752536889,-0.5433017975240628
1.6275000000000013,0.4495549274116914,-0.2535404897787123,-0.5518242402615512
1.6310000000000002,0.4101401569139035,-0.2237128128621292,-0.5518242402615512
1.6344999999999992,0.38350643252847,-0.2077325782308691,-0.5443664483677794
1.6380000000000017,0.3494166615785167,-0.1757738542976009,-0.5145387714511963
1.6415000000000006,0.3345028231202252,-0.1342280367831279,-0.4942981881158181
1.6449999999999996,0.3302424744161071,-0.0756355884644263,-0.4857757453783297
1.6484999999999983,0.341960615013997,-0.0255673282124649,-0.4825800475179281
1.652000000000001,0.3600701513326901,0.0213052341790947,-0.4900360940824479
1.6555,0.38350643252847,0.0490036094082447,-0.4900360940824479
1.658999999999999,0.4165315526347067,0.0884201252352846,-0.4996249329929048
1.6625000000000014,0.4484902765679749,0.1097253594143794,-0.5145387714511963
1.6660000000000004,0.4900360940824479,0.1363573384705609,-0.5401060996636612
1.669499999999999,0.5166698184678814,0.1512729222581044,-0.5635423808594411
1.6730000000000018,0.5582156359823544,0.1651203645434274,-0.605088198373914
1.6765000000000008,0.5901743599156226,0.180035948330971,-0.6413090163405525
1.6799999999999995,0.642373667184269,0.196014437632979,-0.6945729744529154
1.6834999999999989,0.6775280889779387,0.2013411825100657,-0.7307937924195538
1.6870000000000012,0.727598094559152,0.2087989744038375,-0.7851241467048852
1.6905,0.7595568184924202,0.2141239739516722,-0.8224096155152401
1.693999999999999,0.7883198445652868,0.2194507188287589,-0.8628907821859965
1.6975000000000016,0.7957776364590586,0.2183860679850423,-0.8916538082588631
1.7010000000000003,0.7957776364590586,0.2130593231079556,-0.9193504381587612
1.7044999999999997,0.7766017039673969,0.1970790884766956,-0.9300039279129344
1.708000000000002,0.7212066988383489,0.1619246666830258,-0.9310703240859032
1.711500000000001,0.6583539018155291,0.1342280367831278,-0.9140254386109264
1.715,0.5528888911052677,0.1310323389227262,-0.9044365997004696
1.7184999999999988,0.4570127193054631,0.1534022239455375,-0.9193504381587612
1.7220000000000013,0.3291760782431385,0.2013411825100658,-0.9502445112483128
1.7255000000000005,0.2173214171413259,0.2439533961975073,-0.9832696313545496
1.7289999999999992,0.0703088435873396,0.300413052170272,-1.0258800997127389
1.7325000000000017,-0.029827676916583,0.3526141047681703,-1.0546431257856057
1.7360000000000009,-0.1608600158393093,0.4314453910929982,-1.092994990768929
1.7394999999999996,-0.2450180470412239,0.4900360940824479,-1.1185623189813938
1.7429999999999986,-0.3376985209806268,0.5656734278761262,-1.1473253450542604
1.746500000000001,-0.4026823650201316,0.6114795940947174,-1.1547813916187804
1.75,-0.4761869064678729,0.6636806466926158,-1.1537167407750637
1.753499999999999,-0.5273215628928026,0.7041618133633724,-1.1419986001771738
1.7570000000000014,-0.5848476150385358,0.7499697249112155,-1.1281494125625986
1.7605000000000004,-0.6200020368322056,0.7797974018277986,-1.1196269698251105
1.7639999999999991,-0.6572875056425603,0.8192139176548385,-1.1174959228084254
1.7675000000000018,-0.6753987872905055,0.8426501988506183,-1.1260183655459135
1.7710000000000008,-0.6924436727654822,0.8650218292026818,-1.1430632510208902
1.7744999999999995,-0.699899719330002,0.8810003185046898,-1.1537167407750637
1.7779999999999987,-0.7041618133633721,0.9001762509963516,-1.1590434856521503
1.7815000000000012,-0.7009661155029705,0.9108279954212728,-1.1547813916187804
1.785,-0.6817901830113088,0.926808230052533,-1.131345110423
1.788499999999999,-0.6562228547988438,0.9459841625441946,-1.1025820843501335
1.7920000000000016,-0.6082838962343157,0.968355792896258,-1.0748854544502358
1.7955000000000003,-0.5550199381219527,0.9790075373211794,-1.0482517300648024
1.7989999999999997,-0.4676662090596365,0.980073933494148,-1.016293006131534
1.8024999999999984,-0.3952245731263598,0.9694204437399744,-0.9758118394607777
1.806000000000001,-0.2865656098849489,0.933199625773336,-0.9257435792088164
1.8095,-0.1992101354933806,0.8884581103984615,-0.8810003185046897
1.8129999999999988,-0.0884201252352846,0.8128207766047831,-0.8170828706381533
1.8165000000000011,-0.0138491876145749,0.7478386778945303,-0.7595568184924202
1.8200000000000005,0.0884201252352848,0.6551582039551274,-0.6796591359946239
1.8234999999999992,0.1534022239455377,0.5859140112115044,-0.6093502924072843
1.8270000000000015,0.2269085107225308,0.4815136513449595,-0.5102766774178261
1.830500000000001,0.2631275833599171,0.4058780628805332,-0.4303807402492817
1.834,0.2940216564494688,0.3025440991869569,-0.3249157295390203
1.8374999999999984,0.3036087500306736,0.2301042085829323,-0.2460844432141925
1.841000000000001,0.2961527034661538,0.1416840833476476,-0.1427504795206162
1.8445,0.2791078179911772,0.0788312863248278,-0.0639174478665363
1.847999999999999,0.2375620004767041,-2.9092954348283777e-17,0.0511346564249298
1.8515000000000013,0.1960144376329791,-0.0596570991624181,0.1395530363309626
1.8550000000000004,0.1310323389227262,-0.1427504795206162,0.2599318854995155
1.8584999999999996,0.0735062867769931,-0.1960144376329791,0.3536787556118869
1.8620000000000017,-0.0117181405978899,-0.2578025838120824,0.4580773701491797
1.8655000000000008,-0.0862890782185997,-0.2918906094327836,0.5315836569261729
1.869,-0.1864273440517743,-0.3238510786953038,0.6359822714634658
1.8724999999999987,-0.258867234655799,-0.3323735214327921,0.7116178599278921
1.8760000000000008,-0.3579391043160052,-0.3334381722765086,0.8149518236214683
1.8795,-0.4207919013388249,-0.3217200316786187,0.8937848552755481
1.8829999999999991,-0.4942981881158181,-0.2918906094327836,0.9981834698128408
1.8865000000000016,-0.5326483077698895,-0.2716500260974053,1.0706233604168656
1.8900000000000008,-0.5699337765802444,-0.2407576983371057,1.16649953221667
1.8934999999999995,-0.5816519171781342,-0.2173214171413258,1.235743724960293
1.8969999999999985,-0.5741958706136145,-0.1779049013142859,1.3124457095976878
1.900500000000001,-0.5550199381219528,-0.1565979218059391,1.3593182719892478
1.904,-0.5124077244345112,-0.1278348957330726,1.407257230553776
1.9074999999999989,-0.4708619069200382,-0.1043986145372927,1.432824558766241
1.9110000000000011,-0.4037470158638482,-0.0692441927436229,1.4520004912579023
1.9145000000000003,-0.3440916620306821,-0.0362208179666382,1.453065142101619
1.9179999999999997,-0.2492801410745941,0.0063913957208032,1.4370849074703589
1.9215000000000015,-0.1757738542976009,0.0404811666707565,1.4168443241349806
1.9250000000000007,-0.0724398906040246,0.0798976824977964,1.3827562985142796
1.9285,0.0053267448770867,0.1193124529955843,1.3465354805476413
1.9319999999999984,0.1033339636935763,0.177904901314286,1.2794223348207032
1.935500000000001,0.1715135055934828,0.2258421145495622,1.2186988394853169
1.939,0.2535404897787123,0.3068061932203271,1.1377365061438036
1.942499999999999,0.3078708440640438,0.3653968962097768,1.0844725480314406
1.9460000000000013,0.3717882919305801,0.4452945787075732,1.022684401852337
1.9495000000000005,0.4186608543221398,0.5017542346803379,0.9907256779190692
1.9529999999999996,0.4740576047804399,0.5688691257365277,0.968355792896258
1.956500000000002,0.5187991201553146,0.6072192453905991,0.9534402091087144
1.9600000000000009,0.5656734278761263,0.6498314590780406,0.9459841625441944
1.9635,0.5955011047927093,0.6828548338550253,0.9481134642316276
1.9669999999999987,0.6210684330051743,0.7222713496820653,0.9555712561253994
1.9705000000000013,0.6349176206197493,0.7531654227716169,0.9715514907566596
1.974,0.6530271569384425,0.8053647300402633,0.9907256779190692
1.9774999999999991,0.6572875056425606,0.8405191518339331,1.0088369595670144
1.9810000000000016,0.6753987872905057,0.9023072980130364,1.0258800997127389
1.9845000000000008,0.6988350684862856,0.949179860404596,1.039729287327314
1.9879999999999995,0.7339894902799554,1.0045748655336442,1.0493181262377709
1.9914999999999985,0.7670146103861921,1.0429249851877156,1.0525138240981724
1.995000000000001,0.8106914749173502,1.0855371988751572,1.0589052198189757
1.9985,0.8490415945714217,1.1174959228084254,1.051447427925204
2.001999999999999,0.9023072980130366,1.1462589488812918,1.032273240762794
2.0055000000000014,0.9417220685108244,1.1739573241104415,1.007770563394046
2.0090000000000003,0.998183469812841,1.2080470950603948,0.9672893967232892
2.0124999999999997,1.033337891606511,1.2389411681499465,0.9363953236337376
2.016000000000002,1.0759501052939524,1.2645067510331596,0.8820667146776582
2.0195000000000007,1.098321735646016,1.251723959591553,0.8277363603923268
2.023,1.102582084350134,1.2155031416249145,0.7595568184924202
2.026499999999998,1.086603595048126,1.1910022095854182,0.6988350684862855
2.030000000000001,1.0280111467294244,1.1494546467416933,0.614677037284371
2.0335,0.9534402091087144,1.1260183655459133,0.5528888911052677
2.036999999999999,0.831996709096445,1.073819058277267,0.4740576047804398
2.040500000000001,0.7158799539612622,1.0333378916065108,0.4293143440763132
2.0440000000000005,0.5528888911052678,0.974747188617061,0.3792460838243518
2.0474999999999994,0.4154651564617383,0.9182857873150446,0.3504830577514853
2.051000000000002,0.2343645572870507,0.8298656620797599,0.3334381722765087
2.054500000000001,0.0980072188164896,0.7595568184924202,0.3387649171535954
2.058,-0.0724398906040245,0.6540918077821589,0.3526141047681703
2.0614999999999988,-0.1906876927558923,0.5784562193177326,0.3675279432264619
2.0650000000000013,-0.3131975889411304,0.503885281697023,0.4016177141764152
2.0685,-0.3696572449138949,0.4634041150262665,0.4293143440763132
2.071999999999999,-0.397355620143045,0.4325100419367148,0.4900360940824479
2.0755000000000017,-0.3696572449138949,0.4165315526347068,0.5390397034906926
2.0790000000000006,-0.2737810731140904,0.4037470158638483,0.6114795940947174
2.0825,-0.1512729222581044,0.3962909692993285,0.6647452975363323
2.0859999999999985,0.055395005129048,0.3909642244222418,0.7286627454028686
2.089500000000001,0.2375620004767042,0.4026823650201316,0.7680792612299085
2.093,0.4942981881158181,0.4303807402492816,0.8117561257610666
2.096499999999999,0.6860505317154271,0.4495549274116913,0.8437148496943347
2.1000000000000014,0.9427884646837932,0.4665998128866679,0.8767399698005716
2.1035000000000004,1.1206916206688269,0.4783179534845578,0.8884581103984615
2.1069999999999998,1.326294897212263,0.4857757453783295,0.8873917142254929
2.110500000000002,1.4520004912579023,0.4889714432387311,0.875673573627603
2.1140000000000008,1.5883578297284635,0.4761869064678727,0.8533036886047917
2.1175,1.6671891160532917,0.4495549274116912,0.8224096155152401
2.1209999999999987,1.7364333087969146,0.4090737607409347,0.7872551937215703
2.124500000000001,1.7641316840260644,0.3536787556118866,0.7414472821737271
2.128,1.7705230797468676,0.2311688594266487,0.6775280889779387
2.131499999999999,1.7385643558135997,0.1459461773810176,0.626395177882261
2.1350000000000016,1.652275277595,0.0596570991624179,0.559280286826071
2.1385000000000005,1.5468120122139906,-0.0127827914416066,0.5273215628928027
2.1419999999999995,1.3721028087601062,-0.1171831513081514,0.4953628389595346
2.145500000000002,1.2069806988874263,-0.1949497867892627,0.4708619069200382
2.149000000000001,0.9630290480191712,-0.2652586303766023,0.4271832970596281
2.1525,0.7595568184924202,-0.3004130521702721,0.397355620143045
2.155999999999999,0.4996249329929047,-0.3387649171535954,0.3611348021764067
2.1595000000000013,0.3089354949077602,-0.3632658491930918,0.3270467765557054
2.1630000000000003,0.0862890782185996,-0.3749839897909817,0.2823035158515788
2.166499999999999,-0.0575260521457331,-0.3504830577514853,0.2535404897787122
2.1700000000000017,-0.2119946722642392,-0.2950880526224372,0.2269085107225308
2.1735000000000007,-0.2929570056057523,-0.2588672346557989,0.2098636252475541
2.177,-0.3600701513326901,-0.2141239739516722,0.1736428072809158
2.1804999999999986,-0.3845728287014385,-0.1672514115601125,0.1470108282247343
2.184000000000001,-0.3813771308410369,-0.1065296615539778,0.1033339636935762
2.1875,-0.3664615470534934,-0.0756355884644262,0.0681795418999064
2.190999999999999,-0.3217200316786187,-0.043676864531158,0.02769837522915
2.194500000000001,-0.2780431671474606,-0.0372854688103548,0.0063913957208032
2.1980000000000004,-0.2098636252475541,-0.0458079115478431,-0.0181095363186931
2.2015,-0.1576643179789077,-0.0809623333415129,-0.0287630260728665
2.205000000000002,-0.1075943123976944,-0.1310323389227262,-0.0585907029894496
2.208500000000001,-0.0777666354811113,-0.1683160624038291,-0.0809623333415129
2.212,-0.0862890782185996,-0.2183860679850424,-0.136357338470561
2.2154999999999987,-0.1139874534477496,-0.2482137449016255,-0.1874919948954908
2.219000000000001,-0.1928187397725775,-0.2631275833599171,-0.274847469287059
2.2225,-0.2673896773932873,-0.2897613077453505,-0.341960615013997
2.225999999999999,-0.38350643252847,-0.3345028231202251,-0.4495549274116914
2.2295000000000016,-0.476186906467873,-0.3664615470534933,-0.533712958613606
2.2330000000000005,-0.5997614534968274,-0.4154651564617381,-0.6455693650446706
2.2364999999999995,-0.6828548338550255,-0.4580773701491796,-0.723336000525782
2.2399999999999984,-0.7829930996882003,-0.5156034222949127,-0.80642938088398
2.243500000000001,-0.8458458967110201,-0.5614113338427559,-0.8501062454151381
2.247,-0.9161547402983596,-0.6242641308655756,-0.8969805531359498
2.250499999999999,-0.9608980010024862,-0.6690056462404503,-0.9236125321921312
2.2540000000000013,-0.9992481206565575,-0.7105532090841754,-0.9577023031420844
2.2575000000000003,-1.0290775429023926,-0.7350541411236717,-0.972616141600376
2.2609999999999992,-1.039729287327314,-0.7510343757549318,-0.9832696313545496
2.2645000000000017,-1.0429249851877156,-0.7478386778945302,-0.9885963762316362
2.2680000000000007,-1.035468938623196,-0.7297291415758371,-0.9800739334941478
2.2715,-1.0067059125503293,-0.7052264642070887,-0.9619626518462028
2.2749999999999986,-0.9502445112483128,-0.6604849488322141,-0.9300039279129344
2.278500000000001,-0.8937848552755482,-0.6274598287259774,-0.905502995873438
2.282,-0.8011026360068934,-0.577391568474016,-0.8596950843255949
2.285499999999999,-0.7254670475424672,-0.537975052646976,-0.8245406625319252
2.289000000000001,-0.6146770372843711,-0.4719265577637547,-0.7712749590903102
2.2925000000000004,-0.5230612141886847,-0.4197272504951083,-0.7297291415758372
2.296,-0.4005513180034467,-0.3536787556118868,-0.6807255321675924
2.299500000000002,-0.3068061932203272,-0.3057397970473586,-0.6413090163405525
2.303000000000001,-0.1885583910684594,-0.2396913021641372,-0.5891097090719061
2.3065,-0.1086607085706629,-0.2034722295267509,-0.547562146228181
2.3099999999999987,-0.0106534897541734,-0.1565979218059392,-0.492167141099133
2.313500000000001,0.0490036094082447,-0.124639197872671,-0.4538170214450616
2.317,0.1065296615539778,-0.0884201252352847,-0.4080091098972184
2.320499999999999,0.1352926876268444,-0.069244192743623,-0.3675279432264619
2.3240000000000016,0.1651203645434275,-0.0426122136874415,-0.3291760782431385
2.327500000000001,0.1757738542976009,-0.0319587239332681,-0.316393286801532
2.3309999999999995,0.1928187397725775,-0.0095870935812048,-0.2940216564494687
2.3344999999999985,0.2002765316663493,0.0053267448770866,-0.2876302607286655
2.338000000000001,0.2173214171413259,0.0308940730895516,-0.2737810731140905
2.3415,0.2322352555996175,0.0394165158270399,-0.2695207244099723
2.344999999999999,0.2514094427620272,0.0628527970228197,-0.2578025838120824
2.3485000000000014,0.2695207244099723,0.0777666354811113,-0.2482137449016255
2.3520000000000003,0.2950880526224372,0.099071869660206,-0.2279731615662473
2.3554999999999997,0.302544099186957,0.1267702448893561,-0.2098636252475541
2.3590000000000018,0.3153286359578155,0.1651203645434275,-0.1832316461913727
2.3625000000000007,0.3174579376452486,0.1992101354933807,-0.1565979218059392
2.366,0.3195889846619337,0.2524758389349956,-0.1033339636935762
2.3694999999999986,0.3110665419244454,0.2950880526224372,-0.0639174478665363
2.373000000000001,0.2961527034661538,0.344091662030682,-0.0095870935812048
2.3765,0.2716500260974054,0.3781796876513832,0.029827676916583
2.379999999999999,0.2151903701246409,0.4293143440763132,0.0617864008498512
2.383500000000001,0.1587289688226243,0.4580773701491797,0.0713752397603081
2.3870000000000005,0.0436768645311581,0.4964292351325031,0.0788312863248278
2.3904999999999994,-0.0788312863248278,0.5124077244345112,0.0724398906040246
2.394000000000002,-0.2940216564494687,0.5283879590657713,0.0585907029894496
2.397500000000001,-0.5038852816970228,0.5347793547865747,0.0394165158270399
2.401,-0.8575640373089097,0.5337129586136061,0.0117181405978899
2.4044999999999987,-1.1696952300770718,0.515603422294913,-0.0074577918937717
2.4080000000000013,-1.64481923103048,0.4655351620429517,-0.0330233747769847
2.4115,-2.042174851173525,0.4175962034784236,-0.0511346564249298
2.414999999999999,-2.6057172320329665,0.3376985209806272,-0.0777666354811113
2.4185000000000016,-3.051010065411288,0.2695207244099727,-0.1033339636935762
2.4220000000000006,-3.631597331745705,0.1608600158393098,-0.1470108282247343
2.4254999999999995,-4.04493318652001,0.0660484948832219,-0.191754088928861
2.4289999999999985,-4.558405561798238,-0.0798976824977958,-0.2641939795328856
2.432500000000001,-4.88651698919766,-0.208798974403837,-0.3259803803827369
2.436,-5.247653536703319,-0.374983989790981,-0.4144005056180216
2.439499999999999,-5.460712859811275,-0.5102766774178255,-0.4772533026408414
2.4430000000000014,-5.67377218291923,-0.6828548338550248,-0.5560845889656694
2.4465000000000003,-5.773908703423153,-0.8064293808839793,-0.6157416881280875
2.4499999999999997,-5.876178016273013,-0.9630290480191706,-0.6871169278883955
2.453500000000002,-5.941160114983266,-1.0716880112605816,-0.7446429800341288
2.4570000000000007,-6.033842334251921,-1.1941979074458196,-0.8341277561131301
2.4605,-6.122262459487206,-1.2847473343685374,-0.8937848552755481
2.463999999999998,-6.298036313784807,-1.3934080429392002,-0.9640936988628878
2.467500000000001,-6.477005865942808,-1.4647832826995082,-0.984334282198266
2.471,-6.7614386834818205,-1.5372231733035329,-1.012032657427416
2.474499999999999,-7.004327428835611,-1.5862267827117775,-1.0035102146899275
2.478000000000001,-7.345223393005892,-1.6490795797345972,-0.9577023031420844
2.4815000000000005,-7.612611325069928,-1.6789072566511805,-0.9150900894546428
2.4849999999999994,-7.986530664017192,-1.6970185382991256,-0.8277363603923268
2.488500000000002,-8.270965226885457,-1.6991478399865585,-0.7467722817215618
2.492000000000001,-8.653407008570209,-1.674646907947062,-0.6072192453905992
2.4955,-8.930383779544702,-1.6341657412763055,-0.4729912086074713
2.4989999999999988,-9.297911722771165,-1.5563991057951942,-0.2769767709744921
2.5025000000000013,-9.564236749320736,-1.482892819018201,-0.1161167551351827
2.506,-9.92537155149714,-1.3731674596038217,0.0894847760790012
2.509499999999999,-10.203412973315348,-1.28368268352482,0.2215817658454441
2.5130000000000017,-10.575203010575182,-1.1643702305292356,0.3376985209806268
2.5165000000000006,-10.863897922147563,-1.0812768501710377,0.3813771308410369
2.52,-11.253795750396836,-0.971551490756658,0.3792460838243518
2.5234999999999985,-11.541427756454754,-0.8916538082588616,0.3504830577514853
2.527000000000001,-11.923869538139508,-0.7787327509840805,0.286565609884949
2.5305,-12.194453168063944,-0.7009661155029692,0.2311688594266489
2.533999999999999,-12.532153434373823,-0.5997614534968259,0.1480754790684509
2.5375000000000014,-12.76438868997344,-0.5219948180157146,0.0767019846373948
2.5410000000000004,-13.041365460947931,-0.41440050561802,-0.02769837522915
2.5444999999999998,-13.225661757983024,-0.331307125259822,-0.1203788491685528
2.548000000000002,-13.451503872532584,-0.2322352555996158,-0.2759121201307756
2.5515000000000008,-13.593187955880234,-0.1565979218059375,-0.3994866671597301
2.555,-13.742331576450905,-0.0564614013020148,-0.5933700577760241
2.5584999999999987,-13.81690076874236,0.0191759324916633,-0.7467722817215618
2.562000000000001,-13.84566554014448,0.1267702448893578,-0.9577023031420844
2.5655,-13.815836117898646,0.2013411825100675,-1.1121691779313387
2.568999999999999,-13.71676424823844,0.2961527034661554,-1.3124457095976878
2.5725000000000016,-13.58999225801983,0.3728546881035502,-1.4498694442412174
2.5760000000000005,-13.37160793536404,0.4729912086074729,-1.6192519028180152
2.5794999999999995,-13.17985384643518,0.5507578440885843,-1.7385643558135997
2.5829999999999984,-12.864526955806616,0.6487650629050737,-1.8706613455800425
2.586500000000001,-12.603528674134132,0.7190756518216653,-1.9580150746423584
2.59,-12.210433402695203,0.7968422873027766,-2.037912757140155
2.593499999999999,-11.898302209927042,0.8426501988506196,-2.065611132369305
2.5970000000000013,-11.429569604694438,0.8778046206442895,-2.043239502017242
2.6005000000000003,-11.052456313216023,0.894849506119266,-1.9857134498715088
2.603999999999999,-10.508089864848245,0.9012409018400692,-1.8408336686634592
2.6075000000000017,-10.061728889967702,0.8937848552755493,-1.6810383036678664
2.6110000000000007,-9.42148626980012,0.8714132249234859,-1.4147150224475475
2.6145,-8.904816451332236,0.8405191518339343,-1.18247976684793
2.6179999999999986,-8.169762310208565,0.7883198445652878,-0.8394545009902167
2.621500000000001,-7.594501788751234,0.7457076308778462,-0.5678027295635593
2.625,-6.783810313833883,0.6753987872905064,-0.2034722295267509
2.628499999999999,-6.152090136403789,0.6104149432510017,0.0628527970228197
2.632000000000001,-5.294526099094878,0.500689583836622,0.3920288752659583
2.6355000000000004,-4.639367895139751,0.4090737607409355,0.6125459902676859
2.639,-3.780739206987125,0.2950880526224377,0.8671511308901148
2.642500000000002,-3.144756935523658,0.2034722295267513,1.0269464958857075
2.646000000000001,-2.323411970852136,0.0852244273748834,1.1888711625687334
2.6495,-1.743891100690686,-0.0021310470166848,1.273029193770648
2.6529999999999987,-1.0152283552878176,-0.112921057274781,1.351862225424728
2.656500000000001,-0.519865516328283,-0.1853609478788057,1.379558855324626
2.66,0.071375239760308,-0.2641939795328856,1.3912769959225155
2.663499999999999,0.4474238803950063,-0.3110665419244454,1.3763631574642243
2.6670000000000016,0.8533036886047917,-0.3685925940701786,1.3412087356705549
2.6705000000000005,1.079145803154354,-0.3973556201430451,1.3028586160164832
2.6739999999999995,1.282618032681105,-0.4239875991992267,1.2250919805353715
2.6774999999999984,1.361449319005933,-0.4357057397971166,1.1483899958979769
2.681000000000001,1.3934080429392008,-0.4325100419367149,1.0578405689752592
2.6845,1.3657114130393029,-0.4239875991992267,0.9896610270753528
2.687999999999999,1.2911404754185931,-0.4058780628805334,0.9193504381587612
2.6915000000000013,1.2112427929207967,-0.3771150368076669,0.8767399698005716
2.6950000000000003,1.106844178383504,-0.325980380382737,0.84584589671102
2.6984999999999992,1.045056032204401,-0.2759121201307757,0.8288010112360433
2.7020000000000017,0.9896610270753528,-0.1992101354933809,0.8224096155152401
2.7055000000000007,0.9939213757794708,-0.1427504795206163,0.8170828706381533
2.709,1.0780811523106375,-0.080962333341513,0.7904508915819718
2.7124999999999986,1.2133738399374818,-0.0340897709499533,0.7766017039673969
2.716000000000001,1.5010041006661472,0.0074577918937715,0.7616878655091054
2.7195,1.7992861058197342,0.0500682602519611,0.7382515843133254
2.722999999999999,2.3042377836897256,0.1001382658331743,0.6796591359946239
2.726500000000001,2.767641898715992,0.1406194325039308,0.614677037284371
2.7300000000000004,3.482455456504286,0.1811005991746872,0.4900360940824479
2.7335,4.097132493788656,0.2077325782308686,0.38350643252847
2.737000000000002,5.022876072997473,0.2056015312141834,0.2045368803704674
2.740500000000001,5.78349754233361,0.1757738542976002,0.0713752397603081
2.744,6.892471022404546,0.1012029166768903,-0.1118564064310645
2.7474999999999987,7.774537737082205,0.0127827914416055,-0.2482137449016255
2.751000000000001,9.002825415477979,-0.1320969897664439,-0.4165315526347067
2.7545,9.931764692547196,-0.2695207244099735,-0.5251905158761178
2.757999999999999,11.162181672630402,-0.4751222556241578,-0.6381133184801508
2.7615000000000016,12.054900131732982,-0.6413090163405539,-0.6860505317154271
2.765000000000001,13.170265007524725,-0.8692821779068014,-0.7073575112237738
2.7684999999999995,13.937279617910914,-1.0397292873273158,-0.6785944851509074
2.7719999999999985,14.853436103538527,-1.2368101211332636,-0.5976321518093943
2.775500000000001,15.445739765141582,-1.358253621145533,-0.4974938859762197
2.779,16.09663587506334,-1.483959215191173,-0.3302424744161071
2.782499999999999,16.489731146502265,-1.5521370117618272,-0.1832316461913727
2.7860000000000014,16.907327349980687,-1.6085984130638438,0.041545817514473
2.7895000000000003,17.14169365259699,-1.6320346942596238,0.2237128128621291
2.7929999999999997,17.387776350481932,-1.6437528348575137,0.4783179534845579
2.7965000000000018,17.528395782985864,-1.648014928890884,0.670072042413419
2.8000000000000007,17.672210913350195,-1.6469485327179154,0.917221136471328
2.8035,17.75637068988136,-1.648014928890884,1.0897992929085274
2.8069999999999986,17.856507210385285,-1.6341657412763089,1.3177724544747746
2.810500000000001,17.906575470637247,-1.6054027152034422,1.480763517330769
2.814,17.943860939447603,-1.543614569024339,1.695952142126158
2.817499999999999,17.94492733562057,-1.472241074593283,1.8333758767696875
2.821000000000001,17.88313918944147,-1.3390776886538718,2.0006272883298
2.8245000000000005,17.78300092360829,-1.2144384907812007,2.1124836947608645
2.8279999999999994,17.58485718428788,-0.9630290480191732,2.2040995178565512
2.831500000000002,17.40482123595691,-0.7190756518216659,2.2328625439294174
2.835000000000001,17.11399527736784,-0.3526141047681724,2.2680169657230875
2.8385,16.868977230326617,-0.0298276769165851,2.3116938302542454
2.8419999999999987,16.500384636256438,0.4474238803950043,2.409701049070735
2.8455000000000013,16.183991349454907,0.8288010112360413,2.4991858251497363
2.849,15.728045026322414,1.3507958292517577,2.624891419195376
2.852499999999999,15.355190338218865,1.747086798551086,2.7111804974139755
2.8560000000000016,14.826802379153092,2.239253939650219,2.790013529068055
2.8595000000000006,14.411337222691357,2.5939973461058226,2.824101554688757
2.8629999999999995,13.854186237552716,3.038227273969679,2.836886091459615
2.8664999999999985,13.435525383230576,3.3365092791232662,2.8166455081242368
2.870000000000001,12.903941726304405,3.677405243293547,2.7442056175202123
2.8735,12.535349132234227,3.875550727943211,2.664307935022416
2.876999999999999,12.074076064224643,4.047062488207442,2.5258195495351696
2.8805000000000014,11.77046556886472,4.11098168140323,2.4043760495229005
2.8840000000000003,11.384828089319564,4.084347957017796,2.2062305648732363
2.8874999999999997,11.108915969188788,3.9831450403409057,2.0506972939110133
2.891000000000002,10.723278489643633,3.750909784741288,1.8355069237863724
2.8945000000000007,10.413276598562904,3.5197409253146392,1.6799736528241498
2.898,9.944547483988805,3.127712050048681,1.5031334023535805
2.901499999999998,9.539734071951989,2.7868160858784004,1.3912769959225155
2.905000000000001,8.908012149192638,2.297844642639669,1.2879447775581916
2.9085,8.370038841874914,1.9047511165299944,1.2218962826749702
2.911999999999999,7.559347366957564,1.3550579232851283,1.164370230529237
2.915500000000001,6.882883928823342,0.9193504381587604,1.1334761574396854
2.9190000000000005,5.868720224379241,0.3398295679973112,1.092994990768929
2.9224999999999994,5.03459246826611,-0.0841580312019151,1.0642319646960623
2.926000000000002,3.8254807223619993,-0.592305406932308,0.9981834698128408
2.929500000000001,2.848604232057505,-0.9150900894546432,0.9342660219463046
2.933,1.4807635173307687,-1.2570507044686403,0.8298656620797599
2.9364999999999988,0.4250539953721948,-1.455196189118304,0.7329248394362388
2.9400000000000013,-0.9971170736398728,-1.6416217878408264,0.5763251723010476
2.9435,-2.0506972939110133,-1.741760053674001,0.4463592295512898
2.946999999999999,-3.41427591460438,-1.8323112259259704,0.2535404897787122
2.9505000000000017,-4.395414498942244,-1.877052741300845,0.0916158230956863
2.9540000000000006,-5.629028922215104,-1.9399055383236643,-0.1427504795206162
2.9575,-6.497246449278187,-1.9846487990277912,-0.3291760782431385
2.9609999999999985,-7.307937924195537,-2.0144764759443743,-0.5156034222949128
2.964500000000001,-8.299728252958323,-2.045370549033926,-0.7552947244590501
2.968,-8.982583086813348,-2.0560222934588475,-0.9150900894546428
2.971499999999999,-9.803928051484872,-2.0357817101234685,-1.095126037785614
2.9750000000000014,-10.543244286641912,-1.983582402854822,-1.2229609335186866
2.9785000000000004,-11.048195964511905,-1.9186003041445692,-1.2879447775581916
2.9819999999999998,-11.531838917544295,-1.836571574630088,-1.3294905950726643
2.985500000000002,-12.139058162934896,-1.7193884233219363,-1.358253621145531
2.9890000000000008,-12.575830298904982,-1.6299036472429351,-1.3646450168663344
2.9925,-13.142568377624825,-1.4924816579286575,-1.3348173399497512
2.9959999999999987,-13.555902487069876,-1.382756298514278,-1.2911404754185931
2.999500000000001,-14.086421493152336,-1.2506593087478348,-1.1984582561499384
3.003,-14.469929671010055,-1.1601081364958652,-1.1047131313668188
3.006499999999999,-14.958899368919536,-1.0418603343439974,-0.9853989330419826
3.0100000000000016,-15.311513473687707,-0.956635906969114,-0.8980452039796664
3.0135000000000005,-15.748283864328538,-0.8564993864651914,-0.8224096155152401
3.0169999999999995,-16.04976331267178,-0.7851241467048832,-0.7957776364590586
3.0204999999999984,-16.41302916186487,-0.6935083236091969,-0.8128207766047831
3.024000000000001,-16.650591162341577,-0.6178727351447706,-0.8586286881526264
3.0275,-16.92011188675155,-0.5187991201553124,-0.9640936988628878
3.030999999999999,-17.085232251294975,-0.4335764381096812,-1.051447427925204
3.0345000000000013,-17.27165959534675,-0.3100018910807267,-1.1846108138646152
3.0380000000000003,-17.38032030391741,-0.2077325782308669,-1.290074079245625
3.041499999999999,-17.515612991544256,-0.0703088435873374,-1.4370849074703589
3.0450000000000017,-17.607227069310692,0.0191759324916638,-1.5489413139014236
3.0485000000000007,-17.722280918931407,0.1384883854872482,-1.705540981036615
3.052,-17.800047554412522,0.215190370124643,-1.825918084875916
3.0554999999999986,-17.88313918944147,0.2972173543098725,-1.9878444968881936
3.059000000000001,-17.912968611687305,0.3536787556118891,-2.105025902867093
3.0625,-17.916164309547703,0.4389031829867723,-2.239253939650221
3.065999999999999,-17.872487445016546,0.4921671410991352,-2.3223473200084186
3.069500000000001,-17.762762085602166,0.5763251723010498,-2.401178606333247
3.0730000000000004,-17.628534048819038,0.640242620167586,-2.425681283701995
3.0765,-17.376058209884043,0.7307937924195559,-2.403309653349932
3.080000000000002,-17.133171209859505,0.7979069381464938,-2.3351318567792774
3.083500000000001,-16.73474919354349,0.8767399698005736,-2.1614873041691096
3.087,-16.3714833443504,0.9225478813484168,-1.9782556579777368
3.0904999999999987,-15.79089607801598,0.9790075373211812,-1.6831693506845515
3.094000000000001,-15.294468588212728,1.004574865533646,-1.448803048068249
3.0975,-14.52638932698282,1.021619751008623,-1.124953714702197
3.100999999999999,-13.880819961938151,1.0237507980253076,-0.8863270633817765
3.1045000000000016,-12.934835799393955,1.013097308271134,-0.5837829641948193
3.1080000000000005,-12.165691887320332,1.0024438185169606,-0.3749839897909817
3.1114999999999995,-11.085479687993008,0.9822032351815824,-0.1352926876268444
3.1149999999999984,-10.254549375069532,0.9747471886170624,0.01598023463126
3.118500000000001,-9.120006821456878,0.9747471886170622,0.1672514115601126
3.122,-8.275227320918827,0.9853989330419836,0.2503447919183106
3.125499999999999,-7.16944779337904,0.9939213757794716,0.3110665419244454
3.1290000000000013,-6.343842480003397,1.008836959567015,0.3174579376452486
3.1325000000000003,-5.266827723865728,1.020555100164905,0.2823035158515788
3.1359999999999992,-4.472116483579638,1.026946495885708,0.2247774637058457
3.1395000000000017,-3.43025614923564,1.0194887039919365,0.1352926876268444
3.1430000000000007,-2.670699330743219,0.9992481206565578,0.0639174478665363
3.1465,-1.704474584863646,0.9672893967232896,-0.0362208179666383
3.1499999999999986,-1.0152283552878174,0.9353306727900212,-0.1118564064310645
3.153500000000001,-0.1789695521580024,0.8810003185046897,-0.2002765316663493
3.157,0.3760503859639503,0.836258803129815,-0.2524758389349957
3.160499999999999,1.016293006131534,0.7627525163528218,-0.3185243338182171
3.164000000000001,1.4179107203079493,0.6913772765925136,-0.3515477085952018
3.1675000000000004,1.844029366523861,0.5976321518093941,-0.3781796876513833
3.171,2.094374158442172,0.5337129586136058,-0.3856374795451551
3.174500000000002,2.3393922054833958,0.4559463231324944,-0.3728546881035486
3.178000000000001,2.465097799529035,0.4048134120368165,-0.3547434064556034
3.1815,2.564169669189241,0.3451563128743983,-0.3089354949077603
3.1849999999999987,2.608912929893368,0.3163932868015317,-0.2695207244099723
3.188500000000001,2.629153513228746,0.2876302607286652,-0.2322352555996175
3.192,2.6323492110891475,0.2780431671474603,-0.2151903701246408
3.195499999999999,2.6579165393016124,0.3004130521702716,-0.205601531214184
3.1990000000000016,2.702658054676488,0.33663387013691,-0.2013411825100658
3.202500000000001,2.841146440163733,0.4112048077576197,-0.1949497867892626
3.2059999999999995,3.0265091333717917,0.4729912086074709,-0.1842962970350892
3.2094999999999985,3.391906029581568,0.560346682999039,-0.152337573101821
3.213000000000001,3.773281415093353,0.6263951778822605,-0.1225098961852379
3.2165,4.4326999677525984,0.6690056462404499,-0.0798976824977964
3.219999999999999,5.03139677040571,0.675398787290505,-0.0521993072686464
3.2235000000000014,5.983772328670707,0.6413090163405517,-0.0117181405978899
3.2270000000000003,6.782745662990168,0.5891097090719053,-0.0053267448770866
3.2304999999999997,7.963094382821413,0.4932317919428485,-0.0042603487041181
3.2340000000000018,8.898425055611433,0.3941599222826423,-0.0106534897541733
3.2375000000000007,10.218328557102891,0.2364956043037344,-0.0245026773687483
3.241,11.21331458372608,0.1043986145372914,-0.0149138384582915
3.2444999999999986,12.543871574971714,-0.0862890782186012,0.0372854688103548
3.248000000000001,13.514356669555404,-0.241822349180824,0.1097253594143795
3.2515,14.743708998794894,-0.4516859744283783,0.233299906443334
3.254999999999999,15.597012687399689,-0.6018925005135144,0.3408942188410284
3.258500000000001,16.607978948654132,-0.7861887975486037,0.4825800475179281
3.2620000000000005,17.265268199625947,-0.9065676467171568,0.5837829641948193
3.2654999999999994,17.997126642889217,-1.0429249851877178,0.725467047542467
3.269000000000002,18.437094476719704,-1.112169177931341,0.8319967090964449
3.272500000000001,18.87386486736054,-1.1792840689875308,0.9907256779190692
3.276,19.102906170429005,-1.2037850010270277,1.1185623189813938
3.2794999999999987,19.278678279397354,-1.2016556993395944,1.3188371053184913
3.2830000000000013,19.321290493084792,-1.1675659283896411,1.4711746784203124
3.2865,19.274417930693232,-1.0759501052939546,1.6767779549637485
3.289999999999999,19.165758967451826,-0.9726161416003783,1.8333758767696875
3.2935000000000016,18.933521966522957,-0.7872551937215726,2.042174851173525
3.2970000000000006,18.691701362671385,-0.6125459902676882,2.201968470839866
3.3004999999999995,18.31564923137818,-0.3579391043160073,2.408636398227019
3.3039999999999985,17.982212804430926,-0.1555332709622248,2.5684300178933595
3.307500000000001,17.471936127013098,0.1363573384705588,2.772968643593079
3.311,17.050077829501305,0.3632658491930897,2.9199794718178134
3.314499999999999,16.4300757926691,0.6903126257487953,3.086164487204957
3.3180000000000014,15.932580161363628,0.9459841625441924,3.192694148758935
3.3215000000000003,15.23907358308368,1.3017922198435128,3.293898810765078
3.3249999999999997,14.705358879140825,1.58090003783469,3.339706722312921
3.328500000000002,13.994805670056648,1.952690075094522,3.371665446246189
3.3320000000000007,13.473875502884647,2.227535799052329,3.3578162586316145
3.3355,12.814456950225402,2.567365367049641,3.2970945086254804
3.338999999999998,12.351052835199136,2.7985359718055425,3.223588221848487
3.342500000000001,11.788576850512664,3.060598904321743,3.09681797695913
3.346,11.408264370515344,3.217196826127682,2.971112382913492
3.349499999999999,10.95977583927662,3.35888090947533,2.788947132895087
3.353000000000001,10.675341276408355,3.41001556590026,2.651523398251557
3.3565000000000005,10.341903104131848,3.4153423107773464,2.457640007635263
3.3599999999999994,10.129908431867609,3.3631430035087004,2.308498132393844
3.363500000000002,9.863585150647287,3.202282987669391,2.09863450714629
3.367000000000001,9.659048270276822,3.0158556436176167,1.9345787934465783
3.3705,9.341588587302322,2.6898752632348795,1.6884960955616382
3.3739999999999988,9.044371232992452,2.380938022997868,1.492481657928659
3.3775000000000013,8.511722925222562,1.8887708818987343,1.219765235658285
3.381,7.986530664017192,1.504199798526548,1.016293006131534
3.384499999999999,7.094878601087581,1.0237507980253049,0.7414472821737271
3.3880000000000017,6.290578521891034,0.7062911150508046,0.5528888911052677
3.3915000000000006,5.056964098618175,0.3504830577514847,0.3046751462036421
3.395,4.038540045469955,0.1331616406101588,0.1257055940456395
3.3984999999999985,2.583345601680903,-0.1203788491685532,-0.1193124529955843
3.402000000000001,1.439215954487044,-0.2865656098849491,-0.316393286801532
3.4055,-0.1150521042914662,-0.5049499325407395,-0.5944364539489927
3.408999999999999,-1.2932697771060262,-0.6700720424134189,-0.8256053133756417
3.4125000000000014,-2.856060278622025,-0.902307298013036,-1.144129647193859
3.4160000000000004,-4.005516670692971,-1.08021045399807,-1.3816899023413112
3.4194999999999998,-5.493736234588259,-1.290074079245624,-1.693822840438725
3.423000000000002,-6.56649064202181,-1.437084907470358,-1.9249916998653736
3.4265000000000008,-7.926875310184026,-1.624578647695101,-2.201968470839866
3.43,-8.893098310734347,-1.7470867985510867,-2.378808721310436
3.4334999999999987,-10.09049191604057,-1.886641580211301,-2.5876059503850213
3.437000000000001,-10.93527316190787,-1.9825177520111057,-2.7111804974139755
3.4405,-11.989916287693475,-2.084785319531713,-2.8198412059846385
3.443999999999999,-12.730298919023488,-2.147638116554533,-2.849668882901222
3.4475000000000016,-13.66030284693642,-2.2051641687002657,-2.8379507423033314
3.4510000000000005,-14.31119895685818,-2.2371228926335336,-2.775097945280512
3.4544999999999995,-15.12934647834005,-2.263756617018968,-2.6376759559662344
3.4579999999999984,-15.699282000249546,-2.283997200354346,-2.518361757641398
3.461500000000001,-16.410899860177437,-2.3063670853771567,-2.3372611584667102
3.465,-16.908392000824406,-2.325543017868818,-2.2072952157169525
3.468499999999999,-17.525200085125462,-2.3319344135896216,-2.0293903144026664
3.4720000000000013,-17.950254080497658,-2.3063670853771567,-1.913273559267484
3.4755000000000003,-18.463726455775888,-2.247776382387707,-1.7620006370093797
3.478999999999999,-18.812078466510684,-2.1732054447669973,-1.665059814365858
3.4825000000000017,-19.22115222725162,-2.010216127240255,-1.5425499181806204
3.4860000000000007,-19.485346206784502,-1.861074251998835,-1.4594565378224222
3.4895,-19.768714373479803,-1.6330993451033358,-1.3646450168663344
3.4929999999999986,-19.922116597425337,-1.4551961891183016,-1.3060543138768848
3.496500000000001,-20.060606728241837,-1.2080470950603923,-1.2506593087478366
3.5,-20.097892197052197,-1.0120326574274134,-1.22935232923949
3.503499999999999,-20.080849056906462,-0.7457076308778429,-1.2389411681499467
3.507000000000001,-20.00627811928576,-0.5454328445407455,-1.2708998920832149
3.5105000000000004,-19.84115600941308,-0.2673896773932848,-1.3507958292517597
3.514,-19.65792610855096,-0.0553950051290456,-1.4243021160287526
3.517500000000002,-19.351118170001374,0.2322352555996198,-1.520178287828557
3.521000000000001,-19.084793143451808,0.4410324846742054,-1.5915535275888653
3.5245,-18.659740893408863,0.6998997193300044,-1.6746469079470632
3.5279999999999987,-18.292214695511657,0.8884581103984637,-1.7151280746178197
3.531500000000001,-17.742519756937536,1.116431271964711,-1.765196334869781
3.535,-17.282313085100924,1.2730291937706502,-1.7896990122385292
3.538499999999999,-16.58986941233544,1.4690453767328813,-1.816330991294711
3.5420000000000016,-16.01780458873851,1.6022070173430405,-1.8301801789092855
3.5455000000000005,-15.18793892665875,1.7524135434281765,-1.8312448297530024
3.5489999999999995,-14.514671186384932,1.846160413540548,-1.8216577361717976
3.5524999999999984,-13.549511091349077,1.9452322832007536,-1.7779808716406396
3.556000000000001,-12.776106830571331,1.9942358926089985,-1.7225858665115914
3.5595,-11.67565404790863,2.029390314402668,-1.6075337622201251
3.562999999999999,-10.794653729403942,2.050697293911014,-1.486088516878604
3.5665000000000013,-9.553583259566562,2.080524970827598,-1.2645067510331598
3.5700000000000003,-8.567117930351609,2.1124836947608654,-1.0407956835002825
3.5734999999999992,-7.195015121591505,2.135919975956645,-0.7052264642070888
3.5770000000000017,-6.128653855208008,2.140182069990016,-0.4144005056180216
3.5805000000000007,-4.692633598581367,2.10289660117966,0.0202405833353782
3.584,-3.615617097114445,2.052826595598447,0.3568744534722885
3.5874999999999986,-2.2115573097503223,1.9590814708153277,0.7925801932694049
3.591000000000001,-1.21017814207708,1.869596694736326,1.0993863864897322
3.5945,0.037285468810355,1.7268462152157096,1.4445426993641308
3.597999999999999,0.8895227612421782,1.6139251579409286,1.6597330694887715
3.601500000000001,1.899424371652909,1.4445426993641306,1.889837278071704
3.605,2.552451528591351,1.307118964720601,2.0187385699777454
3.6085,3.2821806701671887,1.1068441783835037,2.152964861431621
3.612000000000002,3.712559665087218,0.9513109074212808,2.2232754503482126
3.615500000000001,4.133351566426043,0.7659482142132229,2.282930804181379
3.619,4.334692748936109,0.6466357612176385,2.302106736673041
3.622499999999999,4.447615551540142,0.5251905158761172,2.2616255700022845
3.626000000000001,4.418850780138024,0.465535162042951,2.193446028102377
3.6295,4.244143322013391,0.4037470158638477,2.0560222934588483
3.632999999999999,4.022561556167947,0.3803107346680678,1.9377744913069803
3.6365000000000016,3.643315472343595,0.3739193389472647,1.779045522484356
3.640000000000001,3.319464393648292,0.3856374795451547,1.6735822571033467
3.6435,2.87417156026997,0.4175962034784229,1.5627905015159986
3.6469999999999994,2.5545825756080367,0.4463592295512895,1.504199798526549
3.650500000000001,2.1966417259627797,0.4815136513449593,1.4402806053307606
3.654,1.9910401947485952,0.5134723752782275,1.3870166472183978
3.657499999999999,1.8408336686634592,0.5646070317031574,1.3028586160164832
3.661000000000002,1.829115528065569,0.6008278496697957,1.22935232923949
3.6645,1.97719100713402,0.6359822714634655,1.1174959228084254
3.6679999999999993,2.2158176584544407,0.6551582039551271,1.030142193746109
3.6715000000000018,2.719702940151464,0.6540918077821586,0.903371948856753
3.6750000000000007,3.237437409463062,0.6146770372843705,0.8138871727777518
3.6785,4.11524203010735,0.5102766774178256,0.7190756518216638
3.681999999999999,4.895039431935149,0.3664615470534927,0.6594185526592456
3.685500000000001,6.081779547487197,0.1086607085706622,0.5965657556364258
3.689,7.066115575014715,-0.1246391978726719,0.5603466829990394
3.692499999999999,8.461652919641349,-0.4932317919428506,0.4932317919428495
3.6960000000000015,9.556778957426962,-0.790450891581973,0.4367721359700849
3.699500000000001,11.017301891422354,-1.1846108138646163,0.3547434064556034
3.703,12.09431490223077,-1.462652235682825,0.2929570056057522
3.706500000000002,13.468548758007564,-1.7950257571156176,0.2375620004767041
3.710000000000001,14.410272571847637,-2.010216127240259,0.2247774637058457
3.7135,15.539486635253953,-2.2531031272647977,0.2524758389349957
3.716999999999999,16.27347612553391,-2.3990493046458155,0.3131975889411305
3.720500000000001,17.101212485926236,-2.5407333879934635,0.4357057397971164
3.724,17.60509776762326,-2.6259578153683467,0.5603466829990394
3.727499999999999,18.138810726236866,-2.703724450849458,0.7478386778945303
3.7310000000000016,18.440290174580102,-2.736747825626443,0.9023072980130364
3.7345000000000006,18.71194020067751,-2.7335521277660413,1.1217580168417955
3.738,18.839776841739837,-2.701593403832773,1.2954008241227113
3.7414999999999994,18.913281383187577,-2.591868044418393,1.5382895694765022
3.745000000000001,18.90262963876265,-2.474684893110242,1.7204548194949063
3.7485,18.822731956264857,-2.263756617018972,1.9580150746423584
3.751999999999999,18.721529039587967,-2.080524970827599,2.143377767850416
3.7555000000000014,18.534035299363225,-1.7801119186573269,2.3852001170312387
3.759,18.368914934819795,-1.525505032705646,2.5567118772954696
3.7624999999999993,18.099394210409823,-1.1388029023167745,2.7623151538389057
3.766000000000002,17.885270236458155,-0.8000379851631789,2.8954767944490647
3.7695000000000007,17.575268345377424,-0.2993484013265576,3.031834132919626
3.773,17.338772741073686,0.1139874534477475,3.104275768852902
3.776499999999999,17.013857011534665,0.7041618133633701,3.1639328680153205
3.780000000000001,16.763512219616356,1.1718262770937546,3.1873691492111007
3.7835,16.419420557585674,1.814199944278024,3.190564847071502
3.786999999999999,16.152032625521638,2.2946489447792677,3.175651008613211
3.7905000000000015,15.7674597968202,2.91252167992404,3.1159939094507925
3.794000000000001,15.460655348929125,3.3418360240003526,3.049945414567571
3.7975,15.016425421065268,3.8414609569932576,2.9263708675386164
3.8009999999999984,14.670204457347154,4.165310290359309,2.818776555140922
3.804500000000001,14.187624409829224,4.503010556669188,2.648327700391156
3.808,13.812640420038242,4.685175806687593,2.50238326833939
3.811499999999999,13.287449904162123,4.814077098593634,2.2786704554772608
3.815000000000001,12.85813381475656,4.831121984068611,2.096503460129605
3.8185,12.238131777924355,4.756551046447901,1.8333758767696875
3.821999999999999,11.704417073981498,4.627649754541859,1.6203165536617317
3.8255000000000017,10.897987693097516,4.361326473321541,1.3273595480559794
3.8290000000000006,10.18423878615294,4.097132493788656,1.1004510373334488
3.8325,9.08378600349024,3.655033612941484,0.8149518236214683
3.8359999999999994,8.136737190102329,3.269396133396329,0.6136106411114024
3.839500000000001,6.710305772386143,2.712246893586943,0.3600701513326901
3.843,5.538479495292386,2.253103127264795,0.1874919948954908
3.846499999999999,3.869157586893157,1.6267079493825345,-0.02769837522915
3.8500000000000014,2.5513868777476345,1.156912438635465,-0.177904901314286
3.8535,0.7414472821737272,0.5337129586136059,-0.3845728287014385
3.8569999999999993,-0.630655526586379,0.0660484948832215,-0.5422354013510943
3.860500000000002,-2.43953047131657,-0.5315836569261726,-0.753165422771617
3.8640000000000008,-3.7541072279309433,-0.9640936988628872,-0.9225478813484148
3.8675,-5.406382505525943,-1.497806657476493,-1.1558477877917488
3.870999999999999,-6.557968199284321,-1.8632035536862697,-1.328425944228948
3.874500000000001,-7.954571940083924,-2.296779991795953,-1.5521370117618252
3.878,-8.89203365989063,-2.578018856803815,-1.7012788870032447
3.881499999999999,-10.002073536134535,-2.87736725813037,-1.871725996423759
3.8850000000000016,-10.734998375570775,-3.0510100654112864,-1.9814531011673904
3.888500000000001,-11.60108311028792,-3.217196826127682,-2.0975698563025733
3.892,-12.192323866376512,-3.3130729979274864,-2.1593562571524245
3.8954999999999984,-12.93696684641064,-3.41001556590026,-2.2179487054711258
3.899000000000001,-13.474941899057615,-3.465410571029308,-2.2552341742814805
3.9025,-14.205733946147918,-3.510153831733434,-2.2616255700022845
3.905999999999999,-14.772472024867762,-3.5303944150688125,-2.229666846069016
3.909500000000001,-15.559727218589332,-3.506958133873032,-2.123137184515038
3.913,-16.168011114823646,-3.4515613834147323,-2.0006272883298
3.916499999999999,-16.985095730791052,-3.333313581262864,-1.8014171528364191
3.9200000000000017,-17.601900324433604,-3.225719268865169,-1.642688184013795
3.9235000000000007,-18.38595982029477,-3.035031576109277,-1.448803048068249
3.927,-18.94310906010416,-2.864582721359511,-1.3369483869664365
3.930499999999999,-19.637683779886327,-2.6227603721786887,-1.2325480270998914
3.934000000000001,-20.10854568680637,-2.417158840964504,-1.1686305792333551
3.9375,-20.66569492661575,-2.1188750904816653,-1.1164312719647087
3.940999999999999,-21.017242635210952,-1.865334600702953,-1.0855371988751572
3.9445000000000014,-21.42418709426445,-1.5127222412640349,-1.063165568523094
3.948,-21.655355953691103,-1.2282876783957706,-1.0546431257856057
3.9514999999999993,-21.90357144392198,-0.8298656620797572,-1.0578405689752592
3.955000000000002,-22.02821064179465,-0.5326483077698868,-1.0748854544502358
3.958500000000001,-22.126217860611145,-0.1278348957330699,-1.1153666211209925
3.962,-22.132609256331943,0.1821652500184069,-1.1569124386354652
3.965499999999999,-22.047386574286318,0.5891097090719087,-1.2304187254124583
3.969000000000001,-21.917418886207304,0.8905874120858972,-1.2922051262623095
3.9725,-21.636181766528694,1.283682683524824,-1.3603846681622165
3.975999999999999,-21.350682552816718,1.572377595097206,-1.4040615326933743
3.9795000000000016,-20.859580062561296,1.926056350709093,-1.448803048068249
3.983000000000001,-20.41535013469744,2.179596840487805,-1.4754367724536823
3.9865,-19.71438401919447,2.491729778585219,-1.5105911942473522
3.9899999999999984,-19.112493264010208,2.7090494503972926,-1.534027475443132
3.993500000000001,-18.19953422157225,2.9636563363489734,-1.5585301528118805
3.997,-17.437846356063147,3.1223853051715977,-1.569181897236802
4.000499999999999,-16.323546131115123,3.299223810312915,-1.5702482934097703
4.004000000000001,-15.406323249314545,3.3982974253023728,-1.555332709622227
4.0075,-14.102401727783594,3.457954524464791,-1.5105911942473522
4.010999999999999,-13.06586639298743,3.4547588266043894,-1.455196189118304
4.014500000000002,-11.629846136360786,3.401493123162774,-1.3433397826872395
4.018000000000001,-10.513414864396076,3.3183997428045764,-1.23361442327286
4.0215,-8.98577878467375,3.178846706473613,-1.0407956835002825
4.024999999999999,-7.809692158875875,3.0531411124279733,-0.8554329902922247
4.028500000000001,-6.196831651778663,2.8443421380241354,-0.5560845889656694
4.032,-4.96108792681837,2.656850143128645,-0.3014794483432405
4.035499999999999,-3.3088126492233694,2.33832755463968,0.0479389585645282
4.0390000000000015,-2.082656017844281,2.0592197366485023,0.3131975889411305
4.0425,-0.5092120265741094,1.6533416737679685,0.628524479569694
4.045999999999999,0.5891097090719062,1.3369483869664365,0.8245406625319252
4.049500000000002,1.9196649549882876,0.9129590424379576,1.014161959114849
4.053000000000001,2.790013529068055,0.6157416881280872,1.1036484805231024
4.0565,3.779672810814157,0.2418223491808218,1.1814151160042137
4.059999999999999,4.3815670566569205,-0.0053267448770872,1.2133738399374818
4.063500000000001,5.0132872340870165,-0.2982837504828395,1.2432015168540649
4.067,5.354183198257297,-0.4847093492053618,1.253855006608238
4.070499999999999,5.65779194828797,-0.6839212300279947,1.254919657451955
4.074000000000002,5.776039750439838,-0.803233683023579,1.2463972147144666
4.077500000000001,5.790953588898129,-0.9150900894546437,1.2229609335186866
4.081,5.718513698294105,-0.9736807924440932,1.18247976684793
4.084499999999999,5.534217401259016,-1.0162930061315347,1.1079088292272203
4.088000000000001,5.344594359346839,-1.024815448869023,1.032273240762794
4.0915,5.054834796930741,-0.9960524227961566,0.9118943915942412
4.094999999999999,4.841773728493534,-0.9545066052816834,0.8224096155152401
4.098500000000001,4.599953124641964,-0.8831313655213753,0.7148135577882937
4.102,4.484901020350496,-0.8181475214818704,0.6508961099217573
4.105499999999999,4.460398342981748,-0.7201403026653809,0.5880433128989375
4.109000000000002,4.562665910502356,-0.6551582039551279,0.5624759846864725
4.112500000000001,4.877994546460172,-0.5912390107593397,0.5454328445407479
4.116,5.264698422178295,-0.55608458896567,0.5411707505073777
4.119499999999999,5.946486859860352,-0.5390397034906934,0.5305172607532044
4.123000000000001,6.582469131323818,-0.5486285424011503,0.5145387714511963
4.1265,7.573196554572139,-0.589109709071907,0.4868403962220463
4.129999999999999,8.404128612824868,-0.6338512244467817,0.4655351620429515
4.1335000000000015,9.599391171114403,-0.6924436727654836,0.4591437663221482
4.1370000000000005,10.533657193060709,-0.7297291415758386,0.4793843496575265
4.140499999999999,11.814142433395876,-0.7659482142132249,0.5571509851386378
4.144000000000002,12.76119299211304,-0.7840577505319182,0.6477004120613556
4.147500000000001,13.98202287861504,-0.8117561257610683,0.8074957770569485
4.151,14.842782613784353,-0.8319967090964466,0.9321349749296196
4.154499999999999,15.891034343849157,-0.8564993864651953,1.1004510373334488
4.158000000000001,16.567497781983377,-0.8714132249234868,1.2186988394853169
4.1615,17.32279250644243,-0.8863270633817786,1.361449319005933
4.164999999999999,17.76808708515,-0.8852624125380621,1.4626522356828238
4.168500000000002,18.189947127991047,-0.8575640373089121,1.5851621318680618
4.172000000000001,18.392351216015577,-0.8181475214818721,1.6714512100866616
4.1755,18.54255948742997,-0.7520990265986507,1.8131352934343088
4.178999999999999,18.571320768173575,-0.6828548338550277,1.9399055383236647
4.182500000000001,18.51805681006121,-0.5709984274239631,2.118875090481668
4.186,18.430703080998903,-0.4740576047804421,2.270148012739772
4.189499999999999,18.251731783511644,-0.3440916620306843,2.461900356339381
4.193000000000001,18.08448037195153,-0.2354309534600213,2.6142396747704546
4.1965,17.826679533468702,-0.0873537290623183,2.803860971353379
4.199999999999999,17.598704626573202,0.0372854688103527,2.9434157530135927
4.203500000000002,17.245027616290567,0.2247774637058436,3.1341034457694854
4.207000000000001,16.94248177177436,0.411204807757618,3.283245321010905
4.2105,16.47588195888769,0.7084221620674883,3.487782201381372
4.213999999999999,16.090244479342537,0.9577023031420824,3.64118442532691
4.217500000000001,15.502201166443598,1.3220328031788908,3.831873863412054
4.221,15.026012514646473,1.6011406211700685,3.9490552693909535
4.224499999999999,14.320786050439384,1.9665375173798447,4.0566513271179
4.2280000000000015,13.754049717048794,2.217948705471124,4.092870399755286
4.2315000000000005,12.955076382729334,2.509839314903908,4.07582551428031
4.234999999999999,12.347857137338735,2.6802864243244224,4.025757254028348
4.238499999999998,11.510533683365203,2.850735279074189,3.912836196753567
4.242000000000001,10.882009203795509,2.927435518382332,3.808435836887023
4.2455,10.041490051961576,2.9551338936114817,3.64118442532691
4.248999999999999,9.406570686012577,2.9135863307677567,3.5005649928229787
4.252500000000001,8.517049670099649,2.785751435034684,3.283245321010905
4.256,7.816083554596678,2.6472630495474383,3.0957533261154144
4.259499999999999,6.794463803588058,2.395853606785411,2.8177101589679534
4.263000000000002,5.960336047474927,2.163618351185794,2.5876059503850213
4.266500000000001,4.749093254554131,1.803548199853104,2.250972080248111
4.27,3.779672810814157,1.5063291002139816,1.982517752011107
4.273499999999999,2.421419189668625,1.0823415010147552,1.6096630639075584
4.277000000000001,1.3710364125871377,0.7680792612299083,1.3252302463685464
4.2805,-0.0415458175144729,0.3579391043160051,0.9246771830358478
4.283999999999999,-1.1025820843501335,0.0596570991624183,0.6093502924072843
4.287500000000001,-2.511970361920594,-0.3153286359578152,0.1565979218059392
4.291,-3.5591574411416804,-0.5795208701614487,-0.1981454846496642
4.294499999999999,-4.94936978622048,-0.9150900894546424,-0.683921230027994
4.298000000000002,-5.965662792352014,-1.155847787791748,-1.0471870792210858
4.301500000000001,-7.297284434441363,-1.4381513036433269,-1.512722241264037
4.305,-8.257116039270882,-1.6341657412763055,-1.834440527613404
4.308499999999999,-9.48753476468334,-1.8472250643842612,-2.2243401011919293
4.312000000000001,-10.367470432344312,-1.971864262256932,-2.4938608256019017
4.3155,-11.48496635515274,-2.0943741584421702,-2.830494695738812
4.318999999999999,-12.280743991611798,-2.1614873041691083,-3.0531411124279724
4.322500000000002,-13.286383507989155,-2.223275450348211,-3.30881264922337
4.3260000000000005,-14.003328112794136,-2.253103127264794,-3.4622148731689077
4.3295,-14.907764712494606,-2.292519643091834,-3.5900497689019804
4.332999999999998,-15.550138379678875,-2.311693830254244,-3.6262705868686185
4.336500000000001,-16.35870055290879,-2.30530243453344,-3.581529071493744
4.34,-16.93928607391396,-2.2531031272647937,-3.493108946258459
4.343499999999999,-17.667950564646077,-2.1327242780962408,-3.3098773000670865
4.347000000000001,-18.185683288628425,-2.004889382363168,-3.126645653875713
4.3505,-18.839776841739837,-1.789699012238527,-2.833690393599213
4.353999999999999,-19.290396419995243,-1.5990113194826343,-2.571627461083013
4.357500000000002,-19.833698217519306,-1.315641407458087,-2.1636183511857947
4.361000000000001,-20.205486509449887,-1.0993863864897295,-1.841898319507176
4.3645,-20.629474108649116,-0.823474266358954,-1.3784942044809092
4.367999999999999,-20.906450879623605,-0.6125459902676833,-1.0365335894669123
4.371500000000001,-21.247346843793885,-0.3419606150139944,-0.6200020368322057
4.375,-21.465732911778925,-0.153402223945535,-0.3590055004889736
4.378499999999999,-21.712882005836835,0.0703088435873422,-0.069244192743623
4.3820000000000014,-21.854566089184488,0.2258421145495649,0.0990718696602061
4.3855,-21.958966449051022,0.4250539953721977,0.2567361876391139
4.388999999999999,-21.962162146911428,0.5667380787198454,0.3302424744161071
4.392500000000002,-21.868415276799062,0.7371851881403596,0.3888331774055567
4.396000000000001,-21.709686307976437,0.8703468287505189,0.4133358547743051
4.3995,-21.368792089135408,1.052513824098175,0.4271832970596281
4.402999999999999,-21.03641856770261,1.2123074437645158,0.4239875991992265
4.406500000000001,-20.45796234838488,1.4285624647328732,0.4122694586013365
4.41,-19.944489973106656,1.5883578297284662,0.4058780628805333
4.413499999999999,-19.135929545205983,1.814199944278028,0.3941599222826434
4.417000000000002,-18.437094476719704,1.979322054150708,0.3898978282492732
4.4205000000000005,-17.36114437142575,2.18598998153786,0.3685925940701784
4.424,-16.448185328987794,2.321282669164704,0.3547434064556034
4.427499999999998,-15.086734264652607,2.4746848931102416,0.3600701513326901
4.431000000000001,-13.987349623492127,2.564169669189243,0.3867021303888716
4.4345,-12.40005644460738,2.6579165393016138,0.4559463231324946
4.437999999999999,-11.127027250836733,2.716507242291063,0.5283879590657713
4.441500000000001,-9.360764519793983,2.764446200855592,0.6434400633572375
4.445,-7.98759706019016,2.7868160858784026,0.7425119330174437
4.448499999999999,-6.118000365453835,2.779360039313883,0.8948495061192646
4.452000000000002,-4.708612087883374,2.749530617068048,1.021619751008621
4.455500000000001,-2.847537835884536,2.6621768880057317,1.1973936053062215
4.459,-1.4807635173307687,2.567365367049643,1.332686292933066
4.462499999999999,0.2748474692870593,2.4075717473833023,1.5169825899681555
4.466000000000001,1.5287007305660456,2.275474757616859,1.654406324611685
4.4695,3.0872308833779263,2.0858517157046825,1.818462038311396
4.472999999999999,4.172768082253083,1.9569504237986413,1.9196649549882872
4.4765000000000015,5.490540536727857,1.7982214549760172,2.0304567105756357
4.48,6.397108183445012,1.7012788870032438,2.09117846058177
4.483499999999999,7.483711778493138,1.6181855066450457,2.143377767850416
4.487000000000002,8.215570221756408,1.5904888767451475,2.14976916357122
4.490500000000001,9.075265306082002,1.6043380643597225,2.1220707883420697
4.494,9.642001639472594,1.6458838818741954,2.07946031998388
4.497499999999999,10.306746937008926,1.72258586651159,1.9974315904693984
4.501000000000001,10.75949930761027,1.7811765695010398,1.913273559267484
4.5045,11.320910641453027,1.8397672724904892,1.7875679652218444
4.507999999999999,11.732115449210648,1.8653346007029543,1.6735822571033467
4.511500000000002,12.285004340315917,1.858943204982151,1.5148515429514704
4.515000000000001,12.714318684392229,1.8205930853280796,1.3891476942350829
4.5185,13.320473278939112,1.6906253972490697,1.2485282617311515
4.521999999999999,13.783877393965378,1.513786892107752,1.164370230529237
4.525500000000001,14.42518641030593,1.1963289544625035,1.0940596416126456
4.529,14.897112968069685,0.8959141569629794,1.0621009176793774
4.532499999999999,15.48302697928119,0.4399678338304847,1.037599985639881
4.536000000000001,15.865468760965944,0.094811520956086,1.032273240762794
4.5395,16.266018333640137,-0.369657244913897,1.045056032204401
4.542999999999999,16.47588195888769,-0.699899719330004,1.0748854544502358
4.546500000000002,16.64100406876037,-1.0961906886293324,1.144129647193859
4.550000000000001,16.681485235431126,-1.3593182719892498,1.2325480270998914
4.5535,16.622892787112427,-1.6757115587907818,1.3966037407996024
4.556999999999999,16.51529847471473,-1.8727923925967291,1.5627905015159986
4.560500000000001,16.321415084098437,-2.106092299040064,1.825918084875916
4.564,16.14244378661118,-2.2552341742814823,2.045370549033927
4.567499999999999,15.89316539086584,-2.43633477345617,2.350045695237569
4.5710000000000015,15.723782932289042,-2.564169669189243,2.591868044418391
4.5745000000000005,15.52457279679566,-2.7037244508494576,2.90932598206364
4.577999999999999,15.41165173952088,-2.771902247420112,3.14369053935069
4.581499999999998,15.314709171548108,-2.8049273675263486,3.451561383414734
4.585000000000001,15.28275044761484,-2.776164341453482,3.685927686031037
4.5885,15.267834863827296,-2.665372585866134,3.987407134374277
4.591999999999999,15.288077192491928,-2.5375376901330613,4.205793202359319
4.595500000000001,15.3296230100064,-2.3095645285668143,4.494488113931702
4.599,15.365842082643786,-2.092243111425488,4.715003483604177
4.602499999999999,15.42017418225837,-1.7556092412885782,5.001569093489127
4.606000000000002,15.461719999772845,-1.4658479335432275,5.192256786245019
4.609500000000001,15.48302697928119,-1.039729287327316,5.415969599107148
4.613,15.48622267714159,-0.686050531715429,5.542739843996504
4.616499999999999,15.461719999772845,-0.1896230419121778,5.659922995304655
4.620000000000001,15.408454296331229,0.1949497867892607,5.701468812819128
4.6235,15.26996591084398,0.7180110009779453,5.683359276500435
4.626999999999999,15.099518801423466,1.1089734800709352,5.6183754324609305
4.630500000000001,14.79697470223651,1.610729460080525,5.477757745286251
4.634,14.508279790664128,1.964408215692412,5.341398661486438
4.637499999999999,14.019308347425396,2.3766776742937483,5.123012593501396
4.641000000000002,13.574013768717824,2.634478512776579,4.936586994778874
4.644500000000001,12.877309747248225,2.8869543517115748,4.655348129771012
4.648,12.264763756980535,2.9881572683884663,4.425243921188079
4.651499999999999,11.330499480363484,3.01052889874053,4.097132493788656
4.655000000000001,10.547504635346032,2.927435518382332,3.846787701870346
4.6585,9.376744754425244,2.6749614247765883,3.4909778992417744
4.661999999999999,8.399866518791498,2.3947872106124426,3.2171968261276835
4.6655000000000015,6.961715215148169,1.9367098404632628,2.8432774871804187
4.6690000000000005,5.761125911981546,1.5595948036555962,2.548189434557981
4.672499999999999,3.98953643606171,1.0344025424502268,2.1263328823754395
4.675999999999998,2.5194281538143666,0.6178727351447723,1.774785173780238
4.679500000000001,0.3867021303888716,0.043676864531158,1.261311053172758
4.683,-1.3156414074580896,-0.3845728287014384,0.8426501988506182
4.686499999999999,-3.675274196276863,-0.934266021946304,0.2439533961975074
4.690000000000001,-5.479887046973684,-1.3124457095976871,-0.2215817658454441
4.6935,-7.865087164004923,-1.755609241288575,-0.8543683394485082
4.696999999999999,-9.596195473254005,-2.030456710575634,-1.3305552459163812
4.700500000000002,-11.772596615881405,-2.299975689656354,-1.9580150746423584
4.704000000000001,-13.2767946690787,-2.434203726439482,-2.4246166328582786
4.7075,-15.079278218088088,-2.532210945255972,-3.005202153863444
4.710999999999999,-16.26921403150054,-2.5588429243121524,-3.399362076146088
4.714500000000001,-17.634925444539842,-2.544993736697577,-3.863832587345323
4.718,-18.503142971602927,-2.5045125700268205,-4.156787847621823
4.721499999999999,-19.461909925588724,-2.416094190120788,-4.463594040842151
4.725000000000001,-20.042497191923143,-2.3340654606063063,-4.622323009664775
4.7285,-20.64012934373254,-2.1966417259627766,-4.732048369079154
4.731999999999999,-20.973565770679794,-2.078393923810909,-4.737375113956241
4.735500000000002,-21.25373823951469,-1.9015554186695915,-4.638303244296035
4.739000000000001,-21.349616156643744,-1.7449557515344,-4.480638926317127
4.7425,-21.31233068783339,-1.491415261755688,-4.182355175834288
4.745999999999999,-21.179167301893976,-1.301792219843512,-3.902182706999394
4.749500000000001,-20.854253317684208,-1.0493181262377682,-3.450496732571018
4.753,-20.51548840053061,-0.8501062454151356,-3.0712506487466653
4.756499999999999,-19.97644869703992,-0.585914011211502,-2.5567118772954696
4.760000000000002,-19.521567024751143,-0.3792460838243494,-2.1870546323815745
4.7635000000000005,-18.90476068577934,-0.1001382658331723,-1.743891100690686
4.767,-18.43815912756342,0.104398614537295,-1.4637186318557929
4.770499999999998,-17.860769304418657,0.3920288752659605,-1.1558477877917488
4.774000000000001,-17.457020543225557,0.6040235475301996,-0.972616141600376
4.7775,-16.97657154272431,0.8660864800464003,-0.7797974018277984
4.780999999999999,-16.662309302939466,1.0429249851877176,-0.6594185526592456
4.784500000000001,-16.295847755885973,1.2719645429269335,-0.5305172607532044
4.788,-16.071068546850874,1.4221710690120692,-0.4602084171658648
4.791499999999999,-15.823921198122218,1.5904888767451506,-0.3909642244222418
4.795000000000002,-15.67371467203708,1.6970185382991283,-0.3547434064556034
4.798500000000001,-15.490483025845707,1.820593085328083,-0.3291760782431385
4.802,-15.35625498906258,1.891966579759139,-0.3387649171535954
4.805499999999999,-15.125086129635932,1.9601461216590448,-0.3749839897909817
4.809000000000001,-14.90350436379049,1.9835824028548248,-0.42292294835551
4.8125,-14.508279790664128,1.9953005434527151,-0.5006895838366213
4.815999999999999,-14.117313820912631,1.9878444968881956,-0.547562146228181
4.8195000000000014,-13.476006549901332,1.976126356290305,-0.6040235475301975
4.823,-12.8975503305836,1.9644082156924156,-0.6359822714634658
4.826499999999999,-12.014418965062228,1.960146121659045,-0.6626142505196473
4.830000000000002,-11.275102729905184,1.95055902807784,-0.6796591359946239
4.833500000000001,-10.170389598538366,1.930318444742462,-0.6998997193300021
4.837,-9.271279743714985,1.895164022948792,-0.7009661155029706
4.840499999999999,-7.969487523871468,1.8376379708030584,-0.6711366932571355
4.844000000000001,-6.921234048477413,1.7907636630822468,-0.6210684330051742
4.8475,-5.433014484582124,1.714063423774104,-0.5411707505073777
4.850999999999999,-4.253730415594596,1.6565373716283704,-0.4634041150262664
4.854500000000002,-2.616368976457888,1.578770736147259,-0.3590055004889736
4.8580000000000005,-1.3571889703018143,1.5127222412640375,-0.2823035158515788
4.8615,0.3483520107348004,1.4349556057829258,-0.1832316461913727
4.864999999999998,1.6330993451033384,1.3827562985142794,-0.1310323389227262
4.868500000000001,3.339706722312921,1.313510360441404,-0.0873537290623162
4.872,4.604213473346082,1.262377449345726,-0.0681795418999064
4.875499999999999,6.260750844974452,1.2005893031666228,-0.0511346564249298
4.879000000000001,7.480516080632736,1.164370230529236,-0.0340897709499532
4.8825,9.059285071450743,1.1057777822105344,0.0
4.885999999999999,10.20767506734872,1.064231964696061,0.0308940730895516
4.889500000000002,11.694829980400293,1.0173594023045014,0.0916158230956863
4.893000000000001,12.778236132258764,0.9907256779190676,0.1459461773810178
4.8965,14.180166617935454,0.9459841625441928,0.2428870000245388
4.899999999999999,15.193263926206589,0.9055029958734362,0.3291760782431385
4.903500000000001,16.50358033411684,0.8351924069568446,0.4697955107470696
4.907,17.438911006906864,0.7766017039673948,0.5827165680218508
4.910499999999999,18.32417167411567,0.7126842561008583,0.7009661155029706
4.9140000000000015,19.442733993097065,0.6168063389718017,0.8533036886047917
4.9175,20.453701999680764,0.504949932540737,1.0056395163773606
4.920999999999999,21.133361135675383,0.4218582975117908,1.1238890638584804
4.924500000000002,21.92594132894479,0.3185243338182145,1.282618032681105
4.928000000000001,22.426630912781413,0.2578025838120797,1.4083218813974925
4.9315,22.83250897566195,0.2119946722642364,1.5350921262868489
4.934999999999999,23.22667064327384,0.1757738542975981,1.6821046998408349
4.938500000000001,23.42801182578391,0.1661867607163932,1.818462038311396
4.942,23.455708455683805,0.161924666683023,1.9079468143903973
4.945499999999999,23.38220216890681,0.1779049013142831,1.9910401947485952
4.949000000000002,23.11481249151353,0.215190370124638,2.0975698563025733
4.952500000000001,22.67165070515189,0.2993484013265526,2.2168823092981573
4.956,22.239140663215174,0.3984202709867588,2.327674064885506
4.959499999999999,21.54669699044969,0.5816519171781316,2.5077082678872245
4.963000000000001,20.94586914077989,0.7627525163528194,2.6536544452682427
4.9665,20.28645058812065,0.9704850945836886,2.8134498102638354
4.969999999999999,19.360705263582584,1.2783559386477323,3.0329005290925943
4.973500000000001,18.659740893408863,1.5255050327056416,3.2076097325464787
4.977,17.723345569775127,1.868530298563355,3.4462363838668995
4.980499999999999,17.04901143332834,2.119941486654634,3.61029209756661
4.984000000000002,16.17120681268405,2.418223491808221,3.814828977937078
4.987500000000001,15.526703843812347,2.6472630495474374,3.921358639491056
4.991,14.70961922784494,2.950871799578111,3.999125274972167
4.994499999999999,14.124773358135656,3.158606123138232,3.998058878799199
4.998000000000001,13.372672586207758,3.433451847096039,3.928814686055576
5.0015,12.820848345946208,3.6049653526895216,3.837198862959889
5.004999999999999,12.087923506509966,3.757302925791344,3.663556055678973
5.0085000000000015,11.5350346154047,3.825480722361998,3.501631388995948
5.0120000000000005,10.760563958453988,3.808435836887021,3.235306362446377
5.015499999999999,10.139495525448812,3.710428618070532,3.0211823884947044
5.018999999999998,9.227601133854572,3.4643459201855915,2.719702940151464
5.022500000000001,8.46058826879763,3.207609732546478,2.4949254764456184
5.026,7.316458621603774,2.7804246901575977,2.1998374238231806
5.029499999999999,6.36728050652843,2.4256812837019943,1.9910401947485952
5.033000000000001,4.981328510153748,1.909011465234113,1.706605631880331
5.0365,3.863832587345323,1.5095265434036351,1.4967420066327772
5.039999999999999,2.282930804181379,1.0013791676732424,1.1941979074458202
5.043500000000002,1.0269464958857075,0.632786573603064,0.940657417667108
5.047000000000001,-0.727598094559152,0.1608600158393094,0.5635423808594411
5.0505,-2.0997009033192584,-0.1672514115601123,0.2482137449016255
5.053999999999999,-3.987407134374277,-0.5614113338427555,-0.2173214171413259
5.057500000000001,-5.4287523905487545,-0.8362588031298144,-0.6040235475301975
5.061,-7.351614788726695,-1.1760883711271262,-1.1430632510208902
5.064499999999999,-8.772721206895046,-1.4093882775704598,-1.5649215485326835
5.068000000000001,-10.593312546893875,-1.6778426058074636,-2.123137184515038
5.0715,-11.881255579122817,-1.8259180848759144,-2.5311462944122565
5.074999999999999,-13.48452899263882,-1.9569504237986404,-3.055272159444658
5.078500000000002,-14.572197238530665,-2.0048893823631686,-3.425995800531521
5.082000000000001,-15.885707598972068,-2.0038229861902,-3.881942123664016
5.0855,-16.779492454247617,-1.9814531011673884,-4.190877618571776
5.088999999999999,-17.83200627834579,-1.9132735592674817,-4.5573409109545215
5.092500000000001,-18.530839601502823,-1.8493561114009451,-4.790640817397855
5.096,-19.36177165975555,-1.7556092412885738,-5.046312354193253
5.099499999999999,-19.911464853000417,-1.681038303667864,-5.177342947786728
5.1030000000000015,-20.543185030430514,-1.5819664340076578,-5.2689587708824135
5.1065000000000005,-20.95438983818813,-1.4967420066327746,-5.257240630284524
5.109999999999999,-21.391161974158216,-1.37316745960382,-5.128339338378482
5.113499999999998,-21.642573162249494,-1.2708998920832122,-4.94936978622048
5.117000000000001,-21.85243678749705,-1.1324115065959663,-4.620193707977341
5.1205,-21.919549933223987,-1.033337891606508,-4.319778910477817
5.123999999999999,-21.89185330332409,-0.9193504381587584,-3.849983399730748
5.127500000000001,-21.791713292161663,-0.8383881048172455,-3.477128711627199
5.131,-21.5690668754725,-0.7435765838611575,-2.983896919684349
5.134499999999999,-21.344289411766656,-0.6849858808717079,-2.622760372178691
5.138000000000002,-20.997003797204822,-0.6157416881280849,-2.174271840939968
5.141500000000001,-20.70511318777204,-0.5678027295635567,-1.8695966947363256
5.145,-20.29284198384145,-0.4836446983616421,-1.506329100213982
5.148499999999999,-19.955143462860825,-0.4048134120368143,-1.2740955899436164
5.152000000000001,-19.481085858080387,-0.2833681666952929,-1.007770563394046
5.1555,-19.0997104725686,-0.1917540889288586,-0.8437148496943347
5.158999999999999,-18.55427762802785,-0.0479389585645259,-0.6636806466926157
5.162500000000001,-18.11111235100772,0.064983844039507,-0.559280286826071
5.166,-17.4815232205943,0.2141239739516744,-0.4740576047804398
5.169499999999999,-16.97657154272431,0.3355692192931958,-0.4442281825346047
5.173000000000002,-16.240451005427673,0.519865516328285,-0.4548816722887781
5.176500000000001,-15.658800833578791,0.6594185526592475,-0.5049499325407395
5.18,-14.806561795817716,0.8458458967110217,-0.5955011047927092
5.183499999999999,-14.113053472208517,0.9832696313545513,-0.6775280889779387
5.187000000000001,-13.108478606674872,1.1654348813729551,-0.7861887975486017
5.1905,-12.304178527478324,1.3007275689997997,-0.8628907821859965
5.193999999999999,-11.150463532032513,1.460522933995392,-0.9459841625441944
5.197500000000002,-10.23856914043827,1.5595948036555982,-0.9981834698128408
5.2010000000000005,-8.947428665019679,1.6458838818741977,-1.0578405689752592
5.2045,-7.936462403765231,1.6629287673491742,-1.0844725480314406
5.207999999999998,-6.53879226679266,1.649079579734599,-1.1174959228084254
5.211500000000001,-5.461777510654991,1.6203165536617323,-1.1281494125625986
5.215,-3.991667483078396,1.564921548532684,-1.138802902316772
5.218499999999999,-2.8869543517115765,1.505264449370266,-1.1196269698251105
5.222000000000001,-1.4008658348329726,1.4253667668724694,-1.043991381360684
5.2255,-0.2972173543098702,1.3646450168663344,-0.9300039279129344
5.228999999999999,1.162239183512552,1.281551636508136,-0.7105532090841755
5.232500000000002,2.239253939650221,1.212307443764513,-0.5060163287137079
5.236000000000001,3.6347930296061066,1.0993863864897315,-0.2024058333537824
5.2395,4.644694640016837,1.029077542902392,0.0383501196540714
5.242999999999999,5.916659182943769,0.9694204437399736,0.3536787556118869
5.246500000000001,6.8029862463255455,0.9459841625441936,0.5816519171781342
5.25,7.910895075552766,0.9502445112483118,0.8596950843255949
5.253499999999999,8.678974336782675,0.9726161416003748,1.0429249851877156
5.2570000000000014,9.637741290768476,1.032273240762793,1.2719645429269315
5.2605,10.312073681886012,1.095126037785613,1.423237465185036
5.263999999999999,11.168573068351206,1.1973936053062204,1.5883578297284635
5.267500000000002,11.781119058618891,1.2666377980498431,1.6853003977012364
5.271000000000001,12.573699251888296,1.347600131391356,1.7896990122385292
5.2745,13.162808960960204,1.382756298514278,1.849356111400948
5.277999999999999,13.944735664475434,1.3859519963746794,1.936709840463264
5.281500000000001,14.54236956161408,1.359318271989246,1.9963669396256816
5.285,15.34027475443132,1.2826180326811032,2.074133575106793
5.288499999999999,15.945364698134483,1.1973936053062195,2.142311371677448
5.292000000000002,16.756056173051835,1.0610362668356588,2.2264711482086144
5.2955000000000005,17.347295183811177,0.9577023031420824,2.2935842939355524
5.299,18.086611418968214,0.8309320582527261,2.386264767874956
5.302499999999998,18.59475704936936,0.7435765838611579,2.460835705495665
5.306000000000001,19.200911643916243,0.6658099483800465,2.5492558307309494
5.3095,19.584419821773963,0.6285244795696916,2.6216957213349743
5.312999999999999,19.987100441464843,0.6231994800218568,2.728225382888952
5.316500000000001,20.206551160293603,0.639177969323865,2.8198412059846385
5.32,20.400436296239143,0.6860505317154245,2.953002846594798
5.323499999999999,20.46648479112237,0.7254670475424645,3.066990300042548
5.327000000000002,20.44837525480368,0.8064293808839774,3.2395684564797467
5.330500000000001,20.36528187444548,0.900176250996349,3.3844482376877965
5.334,20.17459418168959,1.05996987066269,3.60603000353324
5.337499999999999,19.975382300866958,1.206980698887424,3.784999555691243
5.341000000000001,19.638748430730043,1.4157796732912618,4.047062488207444
5.3445,19.351118170001374,1.5787707361472565,4.246274369030076
5.347999999999999,18.90476068577934,1.8035481998531024,4.512597650250394
5.3515000000000015,18.527643903642424,1.976126356290301,4.694762900268799
5.355,17.96410152278298,2.206230564873234,4.907822223376755
5.358499999999999,17.496437059052596,2.388395814891638,5.051637353741088
5.362000000000002,16.796537339722594,2.627022466212059,5.201845625155475
5.365500000000001,16.21381902637149,2.816645508124235,5.289199354217792
5.369,15.40738964548751,3.0925576282550105,5.297721796955281
5.372499999999999,14.775667722728162,3.2715271804130133,5.276414817446933
5.376000000000001,13.914909732888102,3.445169987693929,5.243391442669949
5.3795,13.242706643458,3.561288488158364,5.214628416597082
5.382999999999999,12.328681204847072,3.667818149712342,5.152842015747231
5.386500000000002,11.62558578765667,3.692319081751839,5.084662473847325
5.390000000000001,10.643382552475089,3.641184425326909,4.963218973835056
5.3935,9.869976546368092,3.530394415068813,4.849231520387305
5.396999999999999,8.746087482509612,3.281114273994219,4.668130921212618
5.400500000000001,7.809692158875875,3.013724596600932,4.504075207512907
5.404,6.415217719763706,2.592932695262107,4.252665764750879
5.407499999999999,5.238064697792862,2.2360582417898187,4.026821904872065
5.411000000000001,3.474999409939766,1.7470867985510874,3.6742095454331465
5.4145,2.0006272883298,1.3774295536371928,3.361011956492016
5.417999999999999,-0.1587289688226242,0.8607597351693115,2.876302607286655
5.421500000000002,-1.9122071630945157,0.4634041150262666,2.4725538460935548
5.425000000000001,-4.386892056204755,-0.0735062867769926,1.8834458823509008
5.4285,-6.300165615472239,-0.471926557763754,1.427497813889154
5.431999999999999,-8.859010285113646,-0.9662247458795716,0.7968422873027752
5.435500000000001,-10.733931979397806,-1.29966291815608,0.3217200316786187
5.439,-13.087173372495776,-1.6789072566511798,-0.3185243338182171
5.442499999999999,-14.716012368894996,-1.9058157673737104,-0.8011026360068932
5.4460000000000015,-16.677223141397757,-2.123137184515036,-1.4253667668724692
5.4495000000000005,-17.963036871939266,-2.2190133563148406,-1.8770527413008455
5.452999999999999,-19.460845274745008,-2.2669523148793687,-2.43953047131657
5.456499999999998,-20.426005369780867,-2.257363475968911,-2.814514461107552
5.460000000000001,-21.49982268272888,-2.1795968404878,-3.2470245030442664
5.4635,-22.17202577215898,-2.0879827627213654,-3.5176098782979555
5.466999999999999,-22.88364363208688,-1.9281873977257729,-3.783934904847527
5.470500000000001,-23.311893325319478,-1.7875679652218417,-3.9170965454576856
5.474,-23.7358809245187,-1.5883578297284608,-3.981013993324222
5.477499999999999,-23.948940247626656,-1.432824558766238,-3.952250967251356
5.481000000000002,-24.126846894270194,-1.2282876783957704,-3.813762581764109
5.484500000000001,-24.16519526859501,-1.090863943752241,-3.636924076622792
5.488,-24.09914677371179,-0.9108279954212698,-3.312008347083772
5.491499999999999,-23.953202341660027,-0.7819284488444808,-3.007333200880129
5.495000000000001,-23.655984987350152,-0.6359822714634629,-2.550320481574666
5.4985,-23.3534408881632,-0.5560845889656665,-2.176401142627401
5.501999999999999,-22.871925491488987,-0.4559463231324919,-1.6533416737679685
5.505500000000001,-22.45113359015016,-0.390964224422239,-1.247461865558183
5.509,-21.84817469346368,-0.2961527034661511,-0.709488558240459
5.512499999999999,-21.35707394853752,-0.2311688594266463,-0.3174579376452486
5.516000000000002,-20.679544114230325,-0.137423734643527,0.1683160624038291
5.519500000000001,-20.14050266541038,-0.0532657034416124,0.4964292351325031
5.523,-19.3830786392639,0.0671131457269403,0.8671511308901148
5.526499999999999,-18.80568707078988,0.183231646191375,1.0876682458918423
5.530000000000001,-18.010975830503792,0.3579391043160073,1.3220328031788928
5.5335,-17.40588763212988,0.4921671410991351,1.4477383972245323
5.536999999999999,-16.58560731830207,0.6967040214696024,1.569181897236802
5.5405000000000015,-15.965605281469864,0.8522372924318251,1.6330993451033382
5.5440000000000005,-15.11443263988176,1.0727544074335524,1.6927564442657563
5.547499999999999,-14.455014087222514,1.224025584362405,1.721519470338623
5.550999999999998,-13.53246795120335,1.4221710690120688,1.7481531947240565
5.554500000000001,-12.799543111767113,1.568117246393087,1.7460221477073712
5.558,-11.75022498552934,1.7641316840260657,1.730041913076111
5.561499999999999,-10.913967927728777,1.9164692571278867,1.7076702827240478
5.565000000000001,-9.73787955660165,2.115679392621268,1.6799736528241498
5.5685,-8.800417836794944,2.250972080248112,1.658666673315803
5.571999999999999,-7.481580731476453,2.435268377283201,1.614989808784645
5.575500000000002,-6.430131558221997,2.5684300178933603,1.583031084851377
5.579000000000001,-4.939782692639275,2.7207675909951807,1.5659861993764004
5.5825,-3.7690210663892345,2.8241015546887573,1.5606594544993135
5.585999999999999,-2.1412467208337307,2.9029345863428366,1.573443991270172
5.589500000000001,-0.8618243860130277,2.8954767944490647,1.5809000378346918
5.593,0.918285787315045,2.8017316696659456,1.584095735695093
5.596499999999999,2.295715340952237,2.684548518357793,1.5627905015159986
5.600000000000001,4.16637668653228,2.506643617043508,1.482892819018202
5.6035,5.586416708527662,2.359632788818773,1.3827562985142796
5.606999999999999,7.469862590878563,2.15296486143162,1.2133738399374818
5.610500000000002,8.867530982521881,1.9878444968881923,1.0610362668356608
5.614000000000001,10.687059417006246,1.741760053674,0.8564993864651933
5.6175,11.99844047576022,1.5457456160410206,0.7052264642070888
5.620999999999999,13.648584706338532,1.2762248916310477,0.5230612141886847
5.624500000000001,14.792714353532393,1.0684923134001787,0.4090737607409349
5.628,16.18292669861119,0.8021690321798598,0.286565609884949
5.631499999999999,17.116126324384528,0.6168063389718019,0.2141239739516723
5.635000000000002,18.19953422157225,0.3856374795451529,0.1555332709622227
5.6385000000000005,18.88345196094174,0.216255020968355,0.1374237346435295
5.642,19.63448808202593,0.0170448854749742,0.1459461773810178
5.645499999999998,20.046757540627254,-0.1097253594143819,0.1747092034538843
5.649000000000001,20.424938973607897,-0.2503447919183131,0.2556715367953973
5.6525,20.553838520184687,-0.3547434064556059,0.3398295679973119
5.655999999999999,20.511228051826496,-0.5102766774178287,0.4506213235846599
5.659500000000001,20.32160500991432,-0.5955011047927117,0.5422354013510943
5.663,19.885899270117203,-0.6775280889779411,0.6753987872905056
5.666499999999999,19.438471899063696,-0.7329248394362411,0.7936465894423735
5.670000000000002,18.6927660135151,-0.7755353077944307,0.9651583497066044
5.673500000000001,18.048261299314145,-0.8000379851631789,1.1025820843501335
5.677,17.102277136769953,-0.8202785684985571,1.3060543138768848
5.680499999999999,16.372547995194115,-0.8341277561131321,1.4701100275765957
5.684000000000001,15.393540457872936,-0.8511726415881085,1.695952142126158
5.6875,14.69577178555962,-0.8628907821859982,1.874923439613413
5.690999999999999,13.826489607652816,-0.8522372924318248,2.117810439637952
