time,Gyr_X,Gyr_Y,Gyr_Z
0.0,0.0042603487041181,-5.217422403749877e-19,-0.002131047016685
0.003499999999974,0.002131047016685,0.002131047016685,-0.0053267448770866
0.0069999999999765,0.0063913957208032,0.0031956978604016,-0.002131047016685
0.010499999999979,0.0074577918937717,-0.0053267448770866,-0.0042603487041181
0.0139999999999815,0.002131047016685,-0.0074577918937717,-0.0042603487041181
0.017499999999984,0.0063913957208032,-0.0031956978604016,0.0
0.0209999999999865,0.0053267448770866,0.002131047016685,-0.0042603487041181
0.024499999999989,0.0031956978604016,0.002131047016685,-0.0031956978604016
0.0279999999999915,0.0042603487041181,0.0053267448770866,0.0
0.031499999999994,0.0010646508437165,0.0031956978604016,-0.0031956978604016
0.0349999999999965,0.0010646508437165,0.0031956978604016,-0.0042603487041181
0.038499999999999,0.0031956978604016,-3.913601155782886e-19,-0.0031956978604016
0.0419999999999731,0.0053267448770866,-0.002131047016685,-0.0085224427374883
0.0454999999999756,0.0042603487041181,-0.0010646508437165,-0.0063913957208032
0.0489999999999781,0.0063913957208032,-7.827202311565772e-19,-0.0010646508437165
0.0524999999999806,0.0010646508437165,0.0074577918937717,-0.0053267448770866
0.0559999999999831,0.0053267448770866,0.0042603487041181,-0.0063913957208032
0.0594999999999856,0.002131047016685,0.0053267448770866,-0.0053267448770866
0.0629999999999881,0.0042603487041181,0.0031956978604016,-0.0053267448770866
0.0664999999999906,0.002131047016685,-2.6097799078158957e-19,-0.0053267448770866
0.0699999999999931,0.0063913957208032,-7.827202311565772e-19,0.0
0.0734999999999956,0.0063913957208032,-0.0031956978604016,-0.002131047016685
0.0769999999999981,0.002131047016685,0.0042603487041181,-0.0042603487041181
0.0805000000000006,0.0042603487041181,0.0010646508437165,-0.0031956978604016
0.0839999999999747,0.0010646508437165,0.0053267448770866,-0.0074577918937717
0.0874999999999772,0.0053267448770866,0.0074577918937717,-0.0053267448770866
0.0909999999999797,0.0010646508437165,0.0031956978604016,-0.0031956978604016
0.0944999999999822,0.0031956978604016,-3.913601155782886e-19,-0.0063913957208032
0.0979999999999847,0.0042603487041181,-5.217422403749877e-19,-0.0053267448770866
0.1014999999999872,0.002131047016685,0.0031956978604016,-0.0042603487041181
0.1049999999999897,0.0042603487041181,0.0010646508437165,-0.0074577918937717
0.1084999999999922,0.0042603487041181,0.002131047016685,-0.0074577918937717
0.1119999999999947,0.0063913957208032,0.0053267448770866,-0.002131047016685
0.1154999999999972,0.0053267448770866,0.0063913957208032,-0.0053267448770866
0.1189999999999997,0.0031956978604016,0.0031956978604016,-0.0042603487041181
0.1224999999999738,0.0042603487041181,0.0031956978604016,-0.002131047016685
0.1259999999999763,0.002131047016685,-2.6097799078158957e-19,-0.0031956978604016
0.1294999999999788,0.0053267448770866,-6.523381063598781e-19,-0.0010646508437165
0.1329999999999813,0.0074577918937717,0.0031956978604016,-0.0042603487041181
0.1364999999999838,0.002131047016685,0.002131047016685,-0.0042603487041181
0.1399999999999863,0.002131047016685,0.0042603487041181,-0.0053267448770866
0.1434999999999888,0.0031956978604016,0.002131047016685,-0.002131047016685
0.1469999999999913,0.0042603487041181,0.0042603487041181,-0.0063913957208032
0.1504999999999938,0.0053267448770866,0.0042603487041181,-0.0042603487041181
0.1539999999999963,0.0031956978604016,0.0010646508437165,-0.0031956978604016
0.1574999999999988,0.0063913957208032,-7.827202311565772e-19,-0.0063913957208032
0.1609999999999729,0.0063913957208032,0.0010646508437165,-0.0031956978604016
0.1644999999999754,0.002131047016685,0.0042603487041181,-0.0042603487041181
0.1679999999999779,0.0053267448770866,0.0053267448770866,-0.0042603487041181
0.1714999999999804,0.0031956978604016,0.0053267448770866,-0.0031956978604016
0.1749999999999829,0.0042603487041181,0.0042603487041181,-0.0042603487041181
0.1784999999999854,0.0063913957208032,0.0010646508437165,-0.0063913957208032
0.1819999999999879,0.0042603487041181,0.0042603487041181,-0.0053267448770866
0.1854999999999904,0.0031956978604016,-3.913601155782886e-19,-0.0053267448770866
0.1889999999999929,0.0042603487041181,0.0010646508437165,-0.0053267448770866
0.1924999999999954,0.0042603487041181,-5.217422403749877e-19,-0.0053267448770866
0.1959999999999979,0.0031956978604016,0.0031956978604016,-0.0053267448770866
0.1995000000000004,0.0010646508437165,0.0074577918937717,-0.0085224427374883
0.2029999999999745,0.002131047016685,0.002131047016685,-0.002131047016685
0.206499999999977,0.0031956978604016,0.002131047016685,-0.002131047016685
0.2099999999999795,0.0031956978604016,0.0010646508437165,-0.0042603487041181
0.213499999999982,0.0074577918937717,-9.133160971414677e-19,-0.0042603487041181
0.2169999999999845,0.0031956978604016,0.0031956978604016,0.0
0.220499999999987,0.0010646508437165,-1.3038212479669908e-19,-0.0053267448770866
0.2239999999999895,0.0031956978604016,0.0031956978604016,-0.0031956978604016
0.227499999999992,0.0042603487041181,0.0010646508437165,-0.0053267448770866
0.2309999999999945,0.0031956978604016,0.0053267448770866,-0.0031956978604016
0.234499999999997,0.0042603487041181,0.0031956978604016,-0.002131047016685
0.2379999999999995,0.0031956978604016,0.002131047016685,-0.0053267448770866
0.2414999999999736,0.0063913957208032,0.0053267448770866,-0.0042603487041181
0.2449999999999761,0.0085224427374883,0.0010646508437165,-0.002131047016685
0.2484999999999786,0.0042603487041181,0.0010646508437165,-0.0010646508437165
0.2519999999999811,0.0031956978604016,0.002131047016685,-0.0042603487041181
0.2554999999999836,0.002131047016685,0.0031956978604016,-0.0042603487041181
0.2589999999999861,0.0042603487041181,0.0031956978604016,-0.0042603487041181
0.2624999999999886,0.0031956978604016,0.002131047016685,-0.0042603487041181
0.2659999999999911,0.0053267448770866,0.002131047016685,-0.0053267448770866
0.2694999999999936,0.0063913957208032,0.002131047016685,-0.002131047016685
0.2729999999999961,-0.0,0.0,-0.002131047016685
0.2764999999999986,0.0053267448770866,0.002131047016685,-0.002131047016685
0.2799999999999727,0.002131047016685,0.0031956978604016,-0.0063913957208032
0.2834999999999752,0.0031956978604016,0.002131047016685,-0.0053267448770866
0.2869999999999777,0.0031956978604016,0.002131047016685,-0.0053267448770866
0.2904999999999802,0.0042603487041181,-5.217422403749877e-19,-0.0010646508437165
0.2939999999999827,0.0063913957208032,0.0010646508437165,-0.0031956978604016
0.2974999999999852,0.0031956978604016,-0.0010646508437165,-0.0010646508437165
0.3009999999999877,0.0063913957208032,0.002131047016685,-0.0042603487041181
0.3044999999999902,0.0042603487041181,0.0031956978604016,-0.0053267448770866
0.3079999999999927,0.0042603487041181,-5.217422403749877e-19,-0.0042603487041181
0.3114999999999952,0.0042603487041181,0.0031956978604016,-0.0074577918937717
0.3149999999999977,0.0010646508437165,0.002131047016685,-0.0053267448770866
0.3185000000000002,0.002131047016685,0.0053267448770866,-0.0063913957208032
0.3219999999999743,0.0053267448770866,0.0042603487041181,-0.0063913957208032
0.3254999999999768,0.0031956978604016,0.002131047016685,-0.002131047016685
0.3289999999999793,0.0063913957208032,0.0010646508437165,-0.0053267448770866
0.3324999999999818,0.0063913957208032,-7.827202311565772e-19,-0.002131047016685
0.3359999999999843,0.0031956978604016,0.002131047016685,-0.0042603487041181
0.3394999999999868,0.0074577918937717,0.0010646508437165,-0.0031956978604016
0.3429999999999893,0.0042603487041181,0.002131047016685,-0.0074577918937717
0.3464999999999918,0.002131047016685,0.0010646508437165,-0.0053267448770866
0.3499999999999943,0.002131047016685,0.002131047016685,-0.0042603487041181
0.3534999999999968,0.0042603487041181,0.0053267448770866,-0.0053267448770866
0.3569999999999993,0.0042603487041181,0.002131047016685,-0.0042603487041181
0.3604999999999734,1.3038212479669908e-19,0.0010646508437165,-0.0031956978604016
0.3639999999999759,0.002131047016685,0.0010646508437165,-0.0053267448770866
0.3674999999999784,0.0010646508437165,0.0031956978604016,-0.0042603487041181
0.3709999999999809,6.523381063598781e-19,0.0053267448770866,-0.0042603487041181
0.3744999999999834,0.0031956978604016,0.0031956978604016,-0.0063913957208032
0.3779999999999859,0.002131047016685,-0.0010646508437165,-0.002131047016685
0.3814999999999884,0.0031956978604016,-3.913601155782886e-19,-0.0063913957208032
0.3849999999999909,0.0063913957208032,-7.827202311565772e-19,-0.0042603487041181
0.3884999999999934,0.0053267448770866,0.0010646508437165,-0.002131047016685
0.3919999999999959,0.0031956978604016,0.0010646508437165,-0.0053267448770866
0.3954999999999984,0.0042603487041181,0.0010646508437165,-0.0031956978604016
0.3989999999999725,0.0042603487041181,0.0031956978604016,-0.0031956978604016
0.402499999999975,0.0042603487041181,0.0010646508437165,-0.0063913957208032
0.4059999999999775,0.0031956978604016,-3.913601155782886e-19,-0.0031956978604016
0.40949999999998,0.0063913957208032,-7.827202311565772e-19,-0.0010646508437165
0.4129999999999825,0.0053267448770866,-0.0010646508437165,-0.0010646508437165
0.416499999999985,0.002131047016685,-2.6097799078158957e-19,-0.0042603487041181
0.4199999999999875,-5.217422403749877e-19,-0.0042603487041181,-0.0031956978604016
0.42349999999999,0.002131047016685,-0.0042603487041181,-0.002131047016685
0.4269999999999925,0.0031956978604016,-0.0010646508437165,-0.0063913957208032
0.430499999999995,0.002131047016685,-0.0010646508437165,-0.0095870935812048
0.4339999999999975,0.0010646508437165,0.0063913957208032,-0.0063913957208032
0.4375,9.133160971414677e-19,0.0074577918937717,-0.0053267448770866
0.4409999999999741,-0.0042603487041181,0.0106534897541733,0.0
0.4444999999999766,-0.0031956978604016,0.0117181405978899,-0.0053267448770866
0.4479999999999791,0.0042603487041181,0.0106534897541733,-0.0063913957208032
0.4514999999999816,0.0042603487041181,0.01598023463126,-0.0063913957208032
0.4549999999999841,0.0042603487041181,0.013849187614575,-0.0063913957208032
0.4584999999999866,0.0095870935812048,0.0149138384582915,-0.0031956978604016
0.4619999999999891,0.0095870935812048,0.0095870935812048,-0.0042603487041181
0.4654999999999916,0.0085224427374883,0.0085224427374883,-0.0042603487041181
0.4689999999999941,0.0063913957208032,0.0053267448770866,-0.002131047016685
0.4724999999999966,0.0042603487041181,0.0063913957208032,-0.0063913957208032
0.4759999999999991,0.002131047016685,-2.6097799078158957e-19,-0.0042603487041181
0.4794999999999731,-5.217422403749877e-19,-0.0042603487041181,0.0
0.4829999999999756,0.0031956978604016,-0.002131047016685,-0.002131047016685
0.4864999999999781,0.002131047016685,-0.0042603487041181,0.0010646508437165
0.4899999999999807,0.0063913957208032,0.0042603487041181,-0.0042603487041181
0.4934999999999832,0.002131047016685,0.0042603487041181,-0.0042603487041181
0.4969999999999857,0.0010646508437165,0.002131047016685,-0.0031956978604016
0.5004999999999882,5.217422403749877e-19,0.0042603487041181,-0.002131047016685
0.5039999999999907,0.0074577918937717,0.002131047016685,-0.0042603487041181
0.5074999999999932,0.0106534897541733,-1.3046762127197565e-18,-0.002131047016685
0.5109999999999957,0.0095870935812048,-0.002131047016685,-0.0042603487041181
0.5144999999999982,0.0074577918937717,-9.133160971414677e-19,-0.0042603487041181
0.5180000000000007,0.0031956978604016,-3.913601155782886e-19,-0.0042603487041181
0.5214999999999748,0.0010646508437165,0.0010646508437165,-0.002131047016685
0.5249999999999773,0.002131047016685,0.0053267448770866,-0.0053267448770866
0.5284999999999798,0.0031956978604016,0.0085224427374883,-0.0053267448770866
0.5319999999999823,0.002131047016685,0.0085224427374883,-0.0053267448770866
0.5354999999999848,-0.002131047016685,0.0042603487041181,-0.0010646508437165
0.5389999999999873,-0.0,0.0,-0.0031956978604016
0.5424999999999898,0.0031956978604016,-0.0074577918937717,-0.002131047016685
0.5459999999999923,0.0063913957208032,-0.0053267448770866,-0.0053267448770866
0.5494999999999948,0.0095870935812048,0.0031956978604016,-0.0053267448770866
0.5529999999999973,0.0074577918937717,0.0042603487041181,-0.0074577918937717
0.5564999999999998,0.0063913957208032,0.0095870935812048,-0.0095870935812048
0.5599999999999739,0.0031956978604016,0.01598023463126,-0.002131047016685
0.5634999999999764,0.0042603487041181,0.0191759324916617,-0.0053267448770866
0.5669999999999789,-0.0010646508437165,0.0191759324916617,-0.0074577918937717
0.5704999999999814,-0.0010646508437165,0.0181095363186931,-0.0095870935812048
0.5739999999999839,-0.0063913957208032,0.0106534897541733,-0.0095870935812048
0.5774999999999864,-0.0053267448770866,0.0095870935812048,-0.0042603487041181
0.5809999999999889,-0.0063913957208032,0.0117181405978899,-0.0063913957208032
0.5844999999999914,-0.0042603487041181,0.0181095363186931,-0.0074577918937717
0.5879999999999939,-0.0063913957208032,0.0245026773687483,-0.0063913957208032
0.5914999999999964,-0.0053267448770866,0.029827676916583,-0.0063913957208032
0.5949999999999989,-0.0085224427374883,0.029827676916583,-0.0053267448770866
0.5984999999999729,-0.0042603487041181,0.0266319790561814,-0.0042603487041181
0.6019999999999754,3.000712541017801e-18,0.0245026773687483,-0.0085224427374883
0.605499999999978,-0.0010646508437165,0.0255673282124649,-0.0074577918937717
0.6089999999999804,-0.0085224427374883,0.0394165158270399,-0.0074577918937717
0.612499999999983,-0.0085224427374883,0.0564614013020165,-0.0074577918937717
0.6159999999999854,-0.0170448854749766,0.0628527970228197,-0.013849187614575
0.619499999999988,-0.029827676916583,0.069244192743623,-0.0149138384582915
0.6229999999999905,-0.0394165158270399,0.0671131457269379,-0.0223716303520633
0.626499999999993,-0.041545817514473,0.0660484948832214,-0.0202405833353782
0.6299999999999955,-0.029827676916583,0.0564614013020165,-0.0245026773687483
0.633499999999998,-0.0117181405978899,0.0436768645311581,-0.0223716303520633
0.6370000000000005,-0.0010646508437165,0.0308940730895516,-0.0106534897541733
0.6404999999999745,0.0127827914416064,0.0255673282124649,-0.0085224427374883
0.643999999999977,0.0117181405978899,0.0234362811957798,-0.002131047016685
0.6474999999999795,0.0170448854749766,0.0149138384582915,0.0
0.650999999999982,0.0191759324916617,0.0053267448770866,-0.0031956978604016
0.6544999999999845,0.0202405833353782,0.0042603487041181,-0.0074577918937717
0.657999999999987,0.0149138384582915,0.0031956978604016,-0.0106534897541733
0.6614999999999895,0.0117181405978899,0.0031956978604016,-0.0085224427374883
0.664999999999992,0.0010646508437165,0.0053267448770866,-0.0042603487041181
0.6684999999999945,-0.0010646508437165,0.0127827914416064,-0.0085224427374883
0.671999999999997,-0.0010646508437165,0.0191759324916617,-0.013849187614575
0.6754999999999995,-0.0106534897541733,0.02769837522915,-0.0191759324916617
0.6789999999999736,-0.029827676916583,0.0426122136874415,-0.0213052341790947
0.6824999999999761,-0.0362208179666383,0.0511346564249298,-0.0266319790561814
0.6859999999999786,-0.0447432607041266,0.0521993072686464,-0.0308940730895516
0.6894999999999811,-0.041545817514473,0.0490036094082447,-0.0330233747769847
0.6929999999999836,-0.0287630260728665,0.0500682602519613,-0.0340897709499532
0.6964999999999861,-0.0149138384582915,0.0255673282124649,-0.0362208179666383
0.6999999999999886,0.0074577918937717,-0.1001382658331746,-0.0255673282124649
0.7034999999999911,0.043676864531158,-0.1970790884766957,0.0053267448770866
0.7069999999999936,0.0926804739394028,-0.2002765316663493,0.0362208179666383
0.7104999999999961,0.1118564064310645,-0.1427504795206162,0.0436768645311581
0.7139999999999986,0.1022693128498597,-0.0926804739394029,0.0351544217936697
0.7174999999999727,0.0926804739394028,-0.0852244273748831,0.0372854688103548
0.7209999999999752,0.0798976824977964,-0.0894847760790013,0.0362208179666383
0.7244999999999777,0.0671131457269379,-0.0873537290623162,0.029827676916583
0.7279999999999802,0.0585907029894496,-0.0884201252352847,0.0170448854749766
0.7314999999999827,0.0639174478665363,-0.0841580312019145,0.0223716303520633
0.7349999999999852,0.0617864008498512,-0.0564614013020165,0.041545817514473
0.7384999999999877,0.0521993072686464,-0.0266319790561814,0.0500682602519613
0.7419999999999902,0.0319587239332681,0.0213052341790947,0.0596570991624181
0.7454999999999927,0.0127827914416064,0.0458079115478431,0.0575260521457331
0.7489999999999952,-0.0181095363186931,0.0532657034416149,0.0543303542853314
0.7524999999999977,-0.0330233747769847,0.041545817514473,0.0447432607041266
0.7560000000000002,-0.0255673282124649,0.0106534897541733,0.0255673282124649
0.7594999999999743,-0.01598023463126,-0.0202405833353782,0.0063913957208032
0.7629999999999768,0.0042603487041181,-0.0287630260728665,-0.0010646508437165
0.7664999999999793,0.0095870935812048,-0.0308940730895516,0.0010646508437165
0.7699999999999818,0.0106534897541733,-0.01598023463126,0.002131047016685
0.7734999999999843,0.0127827914416064,-1.5654404623131544e-18,-0.0053267448770866
0.7769999999999868,0.0191759324916617,0.0170448854749766,-0.013849187614575
0.7804999999999893,0.0223716303520633,0.02769837522915,-0.0170448854749766
0.7839999999999918,0.0181095363186931,0.0426122136874415,-0.0245026773687483
0.7874999999999943,0.0085224427374883,0.0511346564249298,-0.02769837522915
0.7909999999999968,-0.0010646508437165,0.0628527970228197,-0.0340897709499532
0.7944999999999993,-0.0063913957208032,0.0841580312019145,-0.0340897709499532
0.7979999999999734,-0.0031956978604016,0.1139874534477496,-0.0394165158270399
0.8014999999999759,-0.002131047016685,0.1395530363309626,-0.0308940730895516
0.8049999999999784,0.0042603487041181,0.1864273440517743,-0.0308940730895516
0.8084999999999809,0.0308940730895516,0.2258421145495622,-0.0287630260728665
0.8119999999999834,0.0564614013020165,0.2503447919183106,-0.0117181405978899
0.8154999999999859,0.0564614013020165,0.2599318854995155,0.0106534897541733
0.8189999999999884,0.0458079115478432,0.2556715367953973,0.029827676916583
0.8224999999999909,0.0213052341790948,0.2343645572870505,0.0308940730895516
0.8259999999999934,-0.0117181405978899,0.2098636252475541,0.0319587239332681
0.8294999999999959,-0.0223716303520632,0.1938833906162941,0.0340897709499532
0.8329999999999984,-0.0127827914416064,0.180035948330971,0.0372854688103548
0.8364999999999725,-0.0149138384582915,0.180035948330971,0.0308940730895516
0.839999999999975,0.0095870935812048,0.2045368803704674,0.0266319790561814
0.8434999999999775,0.0383501196540714,0.2119946722642392,0.029827676916583
0.84699999999998,0.0628527970228198,0.2418223491808223,0.0287630260728665
0.8504999999999825,0.0756355884644262,0.2620629325162006,0.0245026773687483
0.853999999999985,0.0756355884644263,0.286565609884949,0.0170448854749766
0.8574999999999875,0.0767019846373948,0.300413052170272,0.0053267448770866
0.86099999999999,0.0745709376207097,0.3057397970473587,0.0074577918937717
0.8644999999999925,0.0916158230956863,0.3238510786953038,0.0287630260728665
0.867999999999995,0.1118564064310646,0.3291760782431385,0.069244192743623
0.8714999999999975,0.0660484948832214,0.3345028231202252,0.0447432607041266
0.875,0.0330233747769847,0.3494166615785167,-0.002131047016685
0.8784999999999741,-0.0031956978604015,0.3600701513326901,0.0
0.8819999999999766,-0.0085224427374882,0.3781796876513833,0.0
0.8854999999999791,-0.0042603487041181,0.3909642244222418,-0.0031956978604016
0.8889999999999816,-0.0095870935812048,0.3909642244222418,-0.0340897709499532
0.8924999999999841,-0.0010646508437164,0.3952245731263599,-0.0521993072686464
0.8959999999999866,4.970572705507733e-17,0.4058780628805333,-0.0735062867769931
0.8994999999999891,-0.002131047016685,0.41120480775762,-0.0820287295144815
0.9029999999999916,-0.0106534897541733,0.4293143440763132,-0.096942567972773
0.906499999999994,-0.0191759324916616,0.4463592295512898,-0.1118564064310645
0.9099999999999966,0.0095870935812049,0.4879067923950148,-0.1182478021518678
0.9134999999999992,0.0117181405978899,0.4953628389595346,-0.1150521042914662
0.9169999999999732,0.0234362811957799,0.5102766774178261,-0.1075943123976944
0.9204999999999756,0.0319587239332682,0.5102766774178261,-0.1065296615539778
0.9239999999999782,0.0447432607041266,0.5124077244345112,-0.1001382658331746
0.9274999999999808,0.0607217500061347,0.5113430735907947,-0.0916158230956863
0.9309999999999832,0.1097253594143795,0.5124077244345112,-0.0937468701123714
0.9344999999999856,0.1438151303643328,0.5102766774178261,-0.0894847760790012
0.9379999999999882,0.1821652500184042,0.4847093492053612,-0.0820287295144815
0.9414999999999908,0.1970790884766957,0.452750625272093,-0.0735062867769931
0.9449999999999932,0.2141239739516723,0.4101401569139035,-0.0703088435873395
0.9484999999999956,0.2024058333537824,0.3685925940701784,-0.0767019846373948
0.9519999999999982,0.164055713699711,0.300413052170272,-0.0905494269227178
0.9555000000000008,0.0852244273748831,0.2269085107225308,-0.1022693128498597
0.9589999999999748,-0.0681795418999064,0.1075943123976944,-0.1278348957330726
0.9624999999999772,-0.1949497867892626,0.0149138384582915,-0.138488385487246
0.9659999999999798,-0.3270467765557054,-0.0798976824977963,-0.1534022239455376
0.9694999999999824,-0.4719265577637547,-0.2002765316663492,-0.1651203645434275
0.9729999999999848,-0.6040235475301975,-0.3089354949077602,-0.1864273440517743
0.9764999999999872,-0.6881815787321122,-0.3835064325284699,-0.2066679273871525
0.9799999999999898,-0.7808620526715151,-0.4729912086074712,-0.2396913021641372
0.9834999999999924,-0.8394545009902168,-0.5326483077698894,-0.2546051406224288
0.9869999999999948,-0.8927184591025797,-0.5901743599156225,-0.2801724688348938
0.9904999999999972,-0.9491798604045965,-0.6530271569384423,-0.3046751462036421
0.9939999999999998,-0.9896610270753528,-0.6967040214696003,-0.3206536355056502
0.997499999999974,-1.0194887039919358,-0.7446429800341287,-0.3355692192931938
1.0009999999999764,-1.0429249851877156,-0.7734060061069952,-0.3536787556118869
1.0044999999999789,-1.0599698706626923,-0.8096250787443815,-0.3685925940701784
1.0079999999999814,-1.065296615539779,-0.8288010112360432,-0.3749839897909817
1.011499999999984,-1.0663630117127476,-0.8437148496943346,-0.3824417816847534
1.0149999999999864,-1.0578405689752592,-0.8479769437277049,-0.38350643252847
1.0184999999999889,-1.0461224283773694,-0.8490415945714215,-0.3707236410868635
1.0219999999999914,-1.030142193746109,-0.8288010112360432,-0.3526141047681703
1.025499999999994,-1.0013791676732426,-0.7915155424256882,-0.3206536355056502
1.0289999999999964,-0.9608980010024862,-0.7563611206320185,-0.2940216564494687
1.0324999999999989,-0.9023072980130366,-0.7030954171904036,-0.2578025838120824
1.035999999999973,-0.8415838026776499,-0.6594185526592455,-0.2301042085829324
1.0394999999999754,-0.7457076308778454,-0.6029588966864808,-0.1960144376329791
1.042999999999978,-0.6668763445530175,-0.5603466829990393,-0.1747092034538843
1.0464999999999804,-0.5507578440885827,-0.5113430735907946,-0.1491418752414194
1.049999999999983,-0.4580773701491797,-0.4687308599033531,-0.138488385487246
1.0534999999999854,-0.3313071252598237,-0.4058780628805332,-0.1214435000122694
1.056999999999988,-0.2375620004767042,-0.3590055004889735,-0.1150521042914662
1.0604999999999905,-0.1139874534477497,-0.2908259585890671,-0.1022693128498597
1.063999999999993,-0.02769837522915,-0.2301042085829324,-0.0958761717998045
1.0674999999999957,0.0820287295144815,-0.1459461773810178,-0.0948115209560879
1.070999999999998,0.1555332709622227,-0.0767019846373948,-0.0926804739394028
1.0745000000000005,0.2482137449016255,0.0255673282124649,-0.0990718696602061
1.0779999999999743,0.3014794483432405,0.1054650107102613,-0.096942567972773
1.081499999999977,0.3643322453660603,0.2247774637058456,-0.1022693128498597
1.0849999999999795,0.3962909692993285,0.3217200316786187,-0.1129210572747811
1.088499999999982,0.4175962034784233,0.4378367868138014,-0.1193124529955843
1.0919999999999843,0.4207919013388249,0.5102766774178261,-0.124639197872671
1.095499999999987,0.3867021303888717,0.5848476150385359,-0.1406194325039311
1.0989999999999895,0.341960615013997,0.6402426201675839,-0.1534022239455376
1.102499999999992,0.2524758389349958,0.697768672313317,-0.1747092034538843
1.1059999999999943,0.1651203645434276,0.7307937924195538,-0.1906876927558924
1.109499999999997,0.0298276769165831,0.7584921676487036,-0.205601531214184
1.1129999999999995,-0.0873537290623161,0.7691439120736251,-0.2119946722642392
1.1164999999999736,-0.2471490940579089,0.7595568184924202,-0.2141239739516723
1.119999999999976,-0.3728546881035485,0.7489033287382468,-0.2173214171413259
1.1234999999999786,-0.5326483077698894,0.7297291415758373,-0.2066679273871525
1.1269999999999811,-0.6445047142009539,0.6988350684862856,-0.1960144376329791
1.1304999999999836,-0.7797974018277983,0.6455693650446707,-0.166186760716396
1.133999999999986,-0.8607597351693114,0.6040235475301976,-0.1427504795206162
1.1374999999999886,-0.9406574176671078,0.5369104018032597,-0.096942567972773
1.1409999999999911,-0.972616141600376,0.4836446983616447,-0.0639174478665363
1.1444999999999936,-0.9811385843378644,0.4005513180034467,-0.0223716303520633
1.147999999999996,-0.9598333501587696,0.3387649171535955,0.0127827914416064
1.1514999999999986,-0.9001762509963515,0.2556715367953974,0.0458079115478431
1.1549999999999727,-0.8319967090964449,0.1885583910684594,0.0703088435873395
1.1584999999999752,-0.7148135577882937,0.108660708570663,0.0894847760790012
1.1619999999999775,-0.6136106411114024,0.0575260521457331,0.0990718696602061
1.1654999999999802,-0.4697955107470696,-0.0181095363186931,0.1086607085706629
1.1689999999999827,-0.3600701513326901,-0.083093380358198,0.1086607085706629
1.1724999999999852,-0.2151903701246408,-0.1789695521580025,0.0980072188164895
1.1759999999999875,-0.1150521042914662,-0.2492801410745941,0.0873537290623162
1.1794999999999902,-0.0042603487041182,-0.3451563128743986,0.055395005129048
1.1829999999999927,0.0639174478665362,-0.4197272504951083,0.0351544217936697
1.1864999999999952,0.126770244889356,-0.5283879590657713,-0.0010646508437165
1.1899999999999975,0.1587289688226242,-0.6082838962343158,-0.0255673282124649
1.1935000000000002,0.1811005991746875,-0.7105532090841755,-0.0671131457269379
1.1969999999999743,0.1874919948954907,-0.7872551937215703,-0.096942567972773
1.2004999999999768,0.1672514115601125,-0.8916538082588631,-0.1427504795206162
1.2039999999999793,0.1448797812080491,-0.9832696313545496,-0.1715135055934827
1.2074999999999818,0.0916158230956862,-1.097255339473047,-0.2151903701246408
1.2109999999999843,0.0372854688103547,-1.1856754647083318,-0.2439533961975074
1.2144999999999868,-0.0458079115478433,-1.2996629181560817,-0.2780431671474606
1.217999999999989,-0.1150521042914663,-1.3848856002017127,-0.2961527034661538
1.2214999999999918,-0.2130593231079559,-1.492481657928659,-0.3100018910807288
1.2249999999999943,-0.2854992137119806,-1.563855152359715,-0.3185243338182171
1.2284999999999968,-0.3728546881035488,-1.6469485327179132,-0.3195889846619337
1.231999999999999,-0.4303807402492819,-1.69169179342204,-0.3046751462036421
1.2354999999999734,-0.4932317919428498,-1.7311083092490798,-0.2801724688348938
1.238999999999976,-0.5209301671719998,-1.7470867985510878,-0.2439533961975074
1.2424999999999784,-0.5294526099094881,-1.7481531947240565,-0.1864273440517743
1.245999999999981,-0.5177344693115982,-1.749217845567773,-0.1342280367831279
1.2494999999999834,-0.4708619069200384,-1.739630751986568,-0.0564614013020165
1.252999999999986,-0.4197272504951085,-1.737499704969883,-0.0074577918937717
1.2564999999999884,-0.3302424744161073,-1.743891100690686,0.0521993072686464
1.259999999999991,-0.2578025838120826,-1.7534781942718909,0.0852244273748831
1.2634999999999934,-0.1534022239455378,-1.7737187776072691,0.1203788491685528
1.266999999999996,-0.0703088435873398,-1.790763663082246,0.1374237346435295
1.2704999999999984,0.0319587239332679,-1.8173973874676796,0.1470108282247343
1.2739999999999725,0.1086607085706627,-1.8387026216467743,0.136357338470561
1.277499999999975,0.1938833906162938,-1.866400996875924,0.1161167551351827
1.2809999999999775,0.2503447919183104,-1.8909019289154203,0.0820287295144815
1.28449999999998,0.3057397970473585,-1.913273559267484,0.029827676916583
1.2879999999999825,0.3408942188410282,-1.9249916998653736,-0.0223716303520633
1.291499999999985,0.3579391043160049,-1.946296934044469,-0.0990718696602061
1.2949999999999875,0.3515477085952016,-1.9580150746423584,-0.1651203645434275
1.29849999999999,0.3217200316786185,-1.9601461216590437,-0.2567361876391139
1.3019999999999925,0.2823035158515786,-1.952690075094524,-0.3291760782431385
1.305499999999995,0.214123973951672,-1.9377744913069803,-0.41120480775762
1.3089999999999975,0.1512729222581043,-1.917533907971602,-0.4751222556241564
1.3125,0.0596570991624179,-1.885575184038334,-0.5518242402615512
1.315999999999974,-0.0085224427374885,-1.862138902842554,-0.5976321518093943
1.3194999999999766,-0.1097253594143797,-1.822722387015514,-0.6508961099217573
1.322999999999979,-0.1896230419121761,-1.7939593609426474,-0.6860505317154271
1.3264999999999816,-0.280172468834894,-1.7417600536740012,-0.7180110009779472
1.329999999999984,-0.3451563128743988,-1.7076702827240478,-0.727598094559152
1.3334999999999866,-0.4112048077576202,-1.6554709754554016,-0.725467047542467
1.336999999999989,-0.4495549274116917,-1.6224476006784168,-0.7126842561008605
1.3404999999999916,-0.4815136513449598,-1.587293178884747,-0.6764634381342222
1.343999999999994,-0.5006895838366215,-1.573443991270172,-0.6434400633572375
1.3474999999999966,-0.5219948180157163,-1.5819664340076602,-0.586978662055221
1.350999999999999,-0.5379750526469763,-1.596880272465952,-0.5401060996636612
1.3544999999999732,-0.557150985138638,-1.6213812045054483,-0.4719265577637547
1.3579999999999757,-0.5795208701614494,-1.64055713699711,-0.4239875991992265
1.3614999999999782,-0.6018925005135127,-1.6629287673491733,-0.3472873598910836
1.364999999999981,-0.6210684330051744,-1.6789072566511811,-0.2780431671474606
1.3684999999999832,-0.6466357612176393,-1.7087366788970164,-0.1736428072809158
1.3719999999999857,-0.6711366932571358,-1.7332376109365126,-0.083093380358198
1.3754999999999882,-0.6924436727654826,-1.765196334869781,0.0351544217936697
1.378999999999991,-0.7094885582404592,-1.7843722673614426,0.1235745470289545
1.3824999999999932,-0.7233360005257822,-1.802481803680136,0.2343645572870505
1.3859999999999957,-0.7318584432632705,-1.808874944730191,0.3100018910807288
1.3894999999999982,-0.7414472821737274,-1.795025757115616,0.3962909692993285
1.393000000000001,-0.748903328738247,-1.779045522484356,0.4495549274116914
1.3964999999999748,-0.7563611206320189,-1.7364333087969146,0.5102766774178261
1.3999999999999773,-0.7670146103861922,-1.6948874912824414,0.5454328445407479
1.4034999999999798,-0.7776663548111137,-1.6224476006784168,0.5859140112115044
1.4069999999999825,-0.7947112402860903,-1.5659861993764004,0.6125459902676859
1.4104999999999848,-0.8053647300402637,-1.4786324703140838,0.6359822714634658
1.4139999999999873,-0.8192139176548386,-1.4157796732912642,0.6477004120613556
1.4174999999999898,-0.8330613599401615,-1.328425944228948,0.6583539018155291
1.4209999999999925,-0.8405191518339333,-1.2581153553123563,0.6594185526592456
1.4244999999999948,-0.8501062454151382,-1.1633038343562685,0.6594185526592456
1.4279999999999973,-0.859695084325595,-1.0844725480314406,0.6508961099217573
1.4314999999999998,-0.8746089227838866,-0.976876490304494,0.642373667184269
1.434999999999974,-0.8841960163650914,-0.8969805531359497,0.6391779693238674
1.4384999999999764,-0.8969805531359499,-0.8138871727777517,0.6317219227593476
1.4419999999999789,-0.9086986937338398,-0.7702103082465935,0.630655526586379
1.4454999999999814,-0.924677183035848,-0.7744706569507117,0.6200020368322057
1.448999999999984,-0.924677183035848,-0.8330613599401613,0.6200020368322057
1.4524999999999864,-0.9172211364713282,-0.931070324085903,0.616806338971804
1.4559999999999889,-0.9076322975608712,-0.9672893967232892,0.602958896686481
1.4594999999999914,-0.8959141569629813,-1.0067059125503293,0.5582156359823544
1.462999999999994,-0.8799356676609733,-1.0173594023045027,0.5156034222949128
1.4664999999999964,-0.8554329902922249,-1.0045748655336442,0.4378367868138015
1.4699999999999989,-0.8415838026776499,-0.9875299800586674,0.3749839897909817
1.473499999999973,-0.8170828706381534,-0.9577023031420844,0.2769767709744921
1.4769999999999754,-0.8000379851631768,-0.9268082300525328,0.1992101354933808
1.480499999999978,-0.7861887975486018,-0.8788692714880045,0.1075943123976944
1.4839999999999804,-0.7776663548111136,-0.8373234539735315,0.0426122136874415
1.487499999999983,-0.7734060061069954,-0.7915155424256882,-0.0213052341790947
1.4909999999999854,-0.7723396099340268,-0.7499697249112153,-0.0575260521457331
1.494499999999988,-0.7797974018277986,-0.699899719330002,-0.083093380358198
1.4979999999999905,-0.7872551937215704,-0.6594185526592455,-0.0926804739394028
1.501499999999993,-0.8053647300402635,-0.6029588966864808,-0.0873537290623162
1.5049999999999957,-0.8202785684985551,-0.5603466829990393,-0.0777666354811113
1.508499999999998,-0.8426501988506183,-0.5038852816970228,-0.055395005129048
1.5120000000000005,-0.8522372924318232,-0.4591437663221481,-0.0330233747769847
1.5154999999999743,-0.8778046206442881,-0.3962909692993284,0.0010646508437165
1.518999999999977,-0.8905874120858945,-0.3419606150139969,0.0308940730895516
1.5224999999999795,-0.9118943915942412,-0.2460844432141924,0.0873537290623162
1.525999999999982,-0.9246771830358478,-0.1555332709622225,0.1470108282247343
1.5294999999999843,-0.944917766371226,-0.0245026773687482,0.2258421145495622
1.532999999999987,-0.9555712561253994,0.0841580312019146,0.2940216564494687
1.5364999999999895,-0.9662247458795729,0.2237128128621293,0.3909642244222418
1.539999999999992,-0.9694204437399744,0.3153286359578156,0.4634041150262664
1.5434999999999943,-0.972616141600376,0.4229229483555101,0.5560845889656694
1.546999999999997,-0.9758118394607777,0.4793843496575266,0.6125459902676859
1.5504999999999995,-0.9811385843378644,0.5401060996636613,0.6796591359946239
1.5539999999999736,-0.9822032351815808,0.570998427423961,0.7169446048049787
1.557499999999976,-0.9875299800586674,0.6029588966864811,0.7584921676487036
1.5609999999999786,-0.9896610270753526,0.6157416881280876,0.7829930996882002
1.5644999999999811,-0.9971170736398725,0.6178727351447727,0.8032336830235783
1.5679999999999836,-1.000314516829526,0.6146770372843711,0.8117561257610666
1.571499999999986,-1.0035102146899275,0.6114795940947175,0.8192139176548384
1.5749999999999886,-1.0056395163773606,0.6093502924072844,0.8192139176548384
1.5784999999999911,-1.0088369595670144,0.6093502924072844,0.8181475214818699
1.5819999999999936,-1.0067059125503293,0.6061545945468828,0.8181475214818699
1.585499999999996,-1.009901610410731,0.6029588966864811,0.8181475214818699
1.5889999999999986,-1.007770563394046,0.598696802653111,0.8181475214818699
1.5924999999999727,-1.0067059125503293,0.5880433128989376,0.8138871727777518
1.5959999999999752,-1.002443818516959,0.5251905158761179,0.7595568184924202
1.5994999999999775,-0.9779428864774626,0.3068061932203273,0.6018925005135125
1.6029999999999802,-0.9545066052816829,0.0884201252352848,0.464468765869983
1.6064999999999827,-0.928939277069218,-0.1523375731018209,0.286565609884949
1.6099999999999852,-0.9161547402983594,-0.290825958589067,0.1565979218059392
1.6134999999999875,-0.899109854823383,-0.4783179534845578,-0.0106534897541733
1.6169999999999902,-0.8788692714880048,-0.6498314590780406,-0.1310323389227262
1.6204999999999927,-0.8437148496943349,-0.9278728808962492,-0.2918906094327836
1.6239999999999952,-0.8170828706381534,-1.1281494125625986,-0.4048134120368167
1.6274999999999975,-0.7947112402860902,-1.3476001313913577,-0.5454328445407479
1.6310000000000002,-0.7797974018277987,-1.4573254908057371,-0.6413090163405525
1.6344999999999743,-0.7542300736153338,-1.4221710690120672,-0.725467047542467
1.6379999999999768,-0.7084221620674904,-1.1973936053062215,-0.7307937924195538
1.6414999999999793,-0.6423736671842691,-0.8234742663589565,-0.6743323911175372
1.6449999999999818,-0.5678027295635594,-0.6604849488322141,-0.6274598287259775
1.6484999999999843,-0.4431635316908883,-0.5976321518093943,-0.6018925005135125
1.6519999999999868,-0.3302424744161071,-0.5518242402615512,-0.5891097090719061
1.655499999999989,-0.1576643179789078,-0.4410324846742031,-0.5848476150385359
1.6589999999999918,-0.013849187614575,-0.3526141047681703,-0.5891097090719061
1.6624999999999943,0.2056015312141839,-0.2354309534600191,-0.5955011047927092
1.6659999999999968,0.369657244913895,-0.136357338470561,-0.5965657556364258
1.669499999999999,0.6061545945468827,0.0010646508437164,-0.5816519171781342
1.6729999999999734,0.7819284488444836,0.1118564064310645,-0.5646070317031576
1.676499999999976,1.0130973082711323,0.2641939795328855,-0.5230612141886847
1.6799999999999784,1.1814151160042137,0.3771150368076666,-0.4847093492053612
1.683499999999981,1.3987347878162877,0.5230612141886845,-0.4186608543221398
1.6869999999999834,1.5563991057951954,0.6285244795696938,-0.3590055004889736
1.690499999999986,1.7566738921322929,0.757425771475735,-0.2833681666952953
1.6939999999999884,1.904751116529996,0.8447812458673032,-0.2269085107225308
1.697499999999991,2.087982762721368,0.9545066052816826,-0.1640557136997109
1.7009999999999934,2.222209054175244,1.020555100164904,-0.1193124529955843
1.704499999999996,2.3926561635957584,1.1025820843501335,-0.0852244273748831
1.7079999999999984,2.5151660597809964,1.1494546467416933,-0.0628527970228197
1.7114999999999725,2.6813528204973927,1.1952625582895366,-0.0436768645311581
1.714999999999975,2.8123834140908666,1.2123074437645127,-0.0308940730895516
1.7184999999999775,3.005202153863444,1.2155031416249142,0.0
1.72199999999998,3.161801820998636,1.2112427929207965,0.0255673282124649
1.7254999999999825,3.3844482376877965,1.2091117459041112,0.083093380358198
1.728999999999985,3.5463729043708225,1.2091117459041112,0.1352926876268444
1.7324999999999875,3.7583675766350617,1.2208298865020013,0.2077325782308691
1.73599999999999,3.896855962122308,1.240005818993663,0.2663250265495707
1.7394999999999925,4.053453883928246,1.2751602407873326,0.3323735214327921
1.742999999999995,4.151462848073988,1.2964672202956795,0.3643322453660603
1.7464999999999975,4.237751926292588,1.3071189647206007,0.3909642244222418
1.75,4.2867555357008325,1.301792219843514,0.3941599222826434
1.753499999999974,4.327236702371589,1.285813730541506,0.3717882919305801
1.7569999999999766,4.328301353215306,1.2645067510331591,0.3302424744161071
1.760499999999979,4.293146931421636,1.2314833762561743,0.2460844432141925
1.7639999999999816,4.2292294835551,1.2208298865020013,0.1704471094205142
1.767499999999984,4.096066097615688,1.2250919805353713,0.0532657034416149
1.7709999999999866,3.953317363424324,1.2474618655581826,-0.0351544217936697
1.774499999999989,3.722148503997675,1.3092500117372858,-0.1299659427497577
1.7779999999999916,3.5176098782979555,1.3944744391121688,-0.1864273440517743
1.781499999999994,3.2171968261276835,1.5521370117618247,-0.2290395577392158
1.7849999999999966,2.9764391277905777,1.7236505173553076,-0.233299906443334
1.788499999999999,2.644067351687038,2.001693684502768,-0.2151903701246408
1.7919999999999732,2.397982908472845,2.228600449896047,-0.1864273440517743
1.7954999999999757,2.07519822595051,2.5524515285913507,-0.1438151303643327
1.7989999999999782,1.8504207622446645,2.7974695756325745,-0.1203788491685528
1.802499999999981,1.5617258506722824,3.1191896073111938,-0.0884201252352847
1.8059999999999832,1.3678407147267364,3.3450317218607566,-0.0607217500061347
1.8094999999999857,1.1409322040042056,3.6145524462707286,-0.0170448854749766
1.812999999999988,0.9939213757794712,3.793521998428731,0.0149138384582915
1.816499999999991,0.8469105475547369,3.9863407382013087,0.0458079115478431
1.8199999999999927,0.7712749590903107,4.100328191649059,0.0521993072686464
1.823499999999996,0.7105532090841761,4.211118201907155,0.0319587239332681
1.8269999999999984,0.6903126257487978,4.253730415594596,0.0
1.830500000000001,0.694572974452916,4.279297743807061,-0.0628527970228197
1.8339999999999748,0.7158799539612627,4.282493441667462,-0.1203788491685528
1.8374999999999773,0.7467722817215624,4.238816577136304,-0.1864273440517743
1.84099999999998,0.7670146103861926,4.181290524990572,-0.2311688594266489
1.8444999999999825,0.7893844954090039,4.092870399755286,-0.2652586303766022
1.8479999999999848,0.8043000791965473,4.015103764274175,-0.2641939795328856
1.8514999999999875,0.8128207766047836,3.927750035211859,-0.2237128128621291
1.8549999999999895,0.8181475214818703,3.8862024723681343,-0.1640557136997109
1.8584999999999925,0.8181475214818703,3.843592004009945,-0.0564614013020165
1.8619999999999948,0.809625078744382,3.816958279624511,0.0372854688103548
1.8654999999999973,0.8000379851631771,3.800979790322503,0.1757738542976009
1.869,0.7947112402860905,3.783934904847527,0.2929570056057522
1.8724999999999736,0.7947112402860905,3.74345373817677,0.4580773701491797
1.8759999999999764,0.8160182197944372,3.7019061753330447,0.5848476150385359
1.8794999999999789,0.8852624125380604,3.6262705868686185,0.7393162351570419
1.8829999999999811,0.9683557928962584,3.5463729043708225,0.8309320582527283
1.886499999999984,1.1132355741043076,3.4142759146043797,0.8980452039796664
1.8899999999999864,1.2314833762561754,3.2970945086254804,0.9118943915942412
1.8934999999999889,1.3625139698496498,3.1085361175570205,0.8852624125380599
1.8969999999999916,1.4115175792578945,2.929566565399018,0.8501062454151381
1.9004999999999936,1.3838209493579965,2.6760260756203054,0.7979069381464917
1.9039999999999964,1.2922051262623098,2.4864030337081298,0.7542300736153336
1.9074999999999989,1.090863943752244,2.228600449896048,0.6775280889779387
1.910999999999973,0.8905874120858948,2.033652408436037,0.6093502924072843
1.9144999999999757,0.6125459902676861,1.769458428903151,0.4985585368199362
1.917999999999978,0.40694271372425,1.5809000378346918,0.3984202709867616
1.9214999999999804,0.1608600158393095,1.340144084826838,0.2631275833599171
1.924999999999983,0.0170448854749767,1.1718262770937566,0.1587289688226243
1.9284999999999852,-0.1225098961852378,0.9800739334941478,0.0319587239332681
1.931999999999988,-0.1896230419121758,0.8671511308901148,-0.0426122136874415
1.9354999999999905,-0.2428870000245387,0.7659482142132235,-0.1139874534477496
1.938999999999993,-0.2556715367953972,0.7244023966987505,-0.150206526085136
1.9424999999999957,-0.2556715367953972,0.6988350684862855,-0.2034722295267509
1.945999999999998,-0.249280141074594,0.6849858808717105,-0.2407576983371057
1.9495000000000005,-0.2737810731140904,0.6466357612176391,-0.2833681666952953
1.9529999999999743,-0.3206536355056502,0.5933700577760241,-0.302544099186957
1.956499999999977,-0.4303807402492816,0.492167141099133,-0.2812388650078622
1.9599999999999795,-0.5379750526469761,0.4037470158638483,-0.2151903701246408
1.963499999999982,-0.7020307663466872,0.2823035158515789,-0.0660484948832214
1.9669999999999843,-0.8138871727777518,0.2013411825100659,0.0841580312019145
1.970499999999987,-0.9204168343317296,0.078831286324828,0.3227846825223353
1.973999999999989,-0.944917766371226,-0.0255673282124648,0.5060163287137079
1.977499999999992,-0.8873917142254929,-0.2013411825100657,0.723336000525782
1.9809999999999943,-0.7840577505319166,-0.3611348021764066,0.8660864800463982
1.984499999999997,-0.5837829641948195,-0.6050881983739139,1.0056395163773606
1.9879999999999995,-0.4069427137242499,-0.8160182197944368,1.079145803154354
1.9914999999999736,-0.1693824585767978,-1.1143002249480238,1.1494546467416935
1.994999999999976,-0.0127827914416066,-1.332686292933066,1.1867401155520485
1.9984999999999784,0.1587289688226241,-1.596880272465952,1.2091117459041116
2.001999999999981,0.2482137449016253,-1.7769144754676711,1.219765235658285
2.005499999999984,0.3270467765557052,-1.9910401947485952,1.2208298865020015
2.008999999999986,0.362201198349375,-2.134855325112928,1.20591604804371
2.0124999999999886,0.3835064325284697,-2.321282669164702,1.1707616262500404
2.015999999999991,0.3792460838243515,-2.464031403356066,1.1334761574396854
2.0194999999999936,0.3600701513326898,-2.654719096111959,1.0642319646960623
2.022999999999996,0.3153286359578152,-2.804927367526347,1.0013791676732426
2.026499999999998,0.2215817658454437,-3.010528898740531,0.9076322975608712
2.0299999999999727,0.1320969897664424,-3.1575397269652656,0.8256053133756417
2.033499999999975,-0.0234362811957802,-3.3269221855420628,0.7052264642070888
2.0369999999999777,-0.1565979218059396,-3.4409096389898126,0.616806338971804
2.04049999999998,-0.3504830577514857,-3.549570347560476,0.5070809795574245
2.0439999999999827,-0.4911024902554169,-3.6081610505499255,0.4367721359700849
2.047499999999985,-0.6572875056425609,-3.6592957069748553,0.3590055004889736
2.050999999999988,-0.7531654227716175,-3.6901880347351543,0.2876302607286655
2.0544999999999902,-0.8447812458673039,-3.7391916441434,0.1693824585767977
2.0579999999999927,-0.8831313655213752,-3.779672810814157,0.0575260521457331
2.0614999999999952,-0.9001762509963519,-3.846787701870346,-0.1012029166768912
2.0649999999999977,-0.8788692714880051,-3.90431375401608,-0.2162550209683574
2.0685,-0.8043000791965473,-3.979949342480505,-0.3376985209806268
2.0719999999999743,-0.7137489069445775,-4.036410743782522,-0.4037470158638482
2.075499999999977,-0.546497495384465,-4.109915285230263,-0.4452945787075733
2.0789999999999798,-0.3920288752659588,-4.165310290359311,-0.4452945787075733
2.082499999999982,-0.1747092034538849,-4.24094762415299,-0.4154651564617382
2.0859999999999843,-0.0308940730895521,-4.279297743807061,-0.3675279432264619
2.089499999999987,0.1129210572747806,-4.3016693741591245,-0.2918906094327836
2.0929999999999893,0.1768385051413169,-4.294211582265352,-0.2258421145495622
2.096499999999992,0.1800359483309705,-4.246274369030076,-0.1395530363309626
2.0999999999999943,0.1320969897664423,-4.184486222850973,-0.0756355884644262
2.103499999999997,0.0021310470166845,-4.088610051051169,0.0042603487041181
2.1069999999999998,-0.1171831513081517,-3.99379853009508,0.069244192743623
2.1104999999999734,-0.3004130521702725,-3.856374795451551,0.1757738542976009
2.113999999999976,-0.439967833830487,-3.749845133897573,0.2652586303766022
2.1174999999999784,-0.6093502924072848,-3.612421399254044,0.397355620143045
2.120999999999981,-0.7116178599278925,-3.5112184825771524,0.4964292351325031
2.1244999999999834,-0.8011026360068937,-3.3844482376877965,0.6114795940947174
2.127999999999986,-0.837323453973532,-3.3066816022066847,0.6903126257487973
2.1314999999999884,-0.8330613599401618,-3.2225235710047704,0.767014610386192
2.134999999999991,-0.793646589442374,-3.1841734513506985,0.8074957770569485
2.1384999999999934,-0.6967040214696008,-3.161801820998636,0.8394545009902167
2.141999999999996,-0.590174359915623,-3.17138891457984,0.8490415945714216
2.1454999999999984,-0.4186608543221402,-3.2118700812505967,0.8554329902922247
2.1489999999999725,-0.262062932516201,-3.250220200904668,0.8554329902922247
2.152499999999975,-0.0490036094082452,-3.3152040449441733,0.8447812458673034
2.155999999999977,0.1086607085706625,-3.3492938158941263,0.8383881048172481
2.15949999999998,0.299348401326555,-3.375925794950308,0.8309320582527283
2.1629999999999825,0.421858297511793,-3.370599050073221,0.8224096155152401
2.166499999999985,0.5433017975240624,-3.34396707101704,0.8074957770569485
2.1699999999999875,0.6018925005135121,-3.30455055519,0.7851241467048852
2.17349999999999,0.6402426201675835,-3.2182614769714,0.7371851881403569
2.1769999999999925,0.6466357612176388,-3.1330387949257688,0.6732677402738206
2.180499999999995,0.6231994800218589,-2.999875408986357,0.5582156359823544
2.183999999999997,0.5827165680218505,-2.8837586538511752,0.4463592295512898
2.1875,0.4921671410991327,-2.7090494503972904,0.2833681666952953
2.190999999999974,0.3962909692993281,-2.5545825756080367,0.1491418752414194
2.1944999999999766,0.2450180470412236,-2.338327554639679,-0.01598023463126
2.197999999999979,0.1257055940456393,-2.1710743977503144,-0.1512729222581045
2.2014999999999816,-0.0319587239332684,-1.947363330217437,-0.3590055004889736
2.204999999999984,-0.143815130364333,-1.7992861058197342,-0.5347793547865746
2.2084999999999866,-0.2748474692870593,-1.6117941109242435,-0.7989733343194602
2.211999999999989,-0.3494166615785169,-1.504199798526549,-1.0088369595670144
2.215499999999992,-0.4175962034784234,-1.405126183537091,-1.290074079245625
2.218999999999994,-0.4442281825346049,-1.356122574128846,-1.486088516878604
2.2224999999999966,-0.4495549274116916,-1.3209681523351764,-1.721519470338623
2.225999999999999,-0.4250539953721952,-1.2996629181560817,-1.8632035536862703
2.229499999999973,-0.3696572449138952,-1.2698334959102464,-1.9974315904693984
2.232999999999976,-0.3046751462036423,-1.2495929125748682,-2.0613490383359347
2.236499999999978,-0.201341182510066,-1.2186988394853169,-2.1018302050066917
2.2399999999999807,-0.120378849168553,-1.196328954462505,-2.09863450714629
2.243499999999983,-0.0042603487041183,-1.1537167407750637,-2.062415434508903
2.2469999999999857,0.0671131457269378,-1.1217580168417955,-2.008085080223572
2.250499999999988,0.1438151303643326,-1.0770147561376688,-1.887706231055019
2.2539999999999907,0.170447109420514,-1.0365335894669123,-1.763067033182348
2.257499999999993,0.1576643179789076,-0.9779428864774626,-1.550007710074392
2.260999999999996,0.1257055940456394,-0.9236125321921312,-1.367840714726736
2.264499999999998,0.0447432607041265,-0.8554329902922247,-1.124953714702197
2.2680000000000007,-0.0170448854749767,-0.7968422873027752,-0.9491798604045962
2.2714999999999748,-0.0937468701123715,-0.7212066988383489,-0.7489033287382468
2.2749999999999773,-0.1352926876268445,-0.6615495996759307,-0.6189373859884891
2.27849999999998,-0.1395530363309627,-0.586978662055221,-0.4889714432387313
2.2819999999999823,-0.1107900102580961,-0.5411707505073777,-0.4101401569139035
2.2854999999999848,-0.0223716303520633,-0.5262569120490862,-0.3238510786953038
2.2889999999999877,0.0681795418999064,-0.5539552872782363,-0.2695207244099723
2.2924999999999898,0.1981454846496641,-0.6221330838488908,-0.1992101354933808
2.2959999999999923,0.2737810731140904,-0.6828548338550254,-0.152337573101821
2.2994999999999948,0.3270467765557053,-0.7286627454028686,-0.0926804739394028
2.3029999999999973,0.3345028231202251,-0.7158799539612621,-0.0596570991624181
2.3065,0.3025440991869569,-0.6338512244467807,-0.0319587239332681
2.309999999999974,0.260998281672484,-0.5219948180157161,-0.0266319790561814
2.3134999999999764,0.1992101354933807,-0.3121311927681619,-0.0490036094082447
2.316999999999979,0.1619246666830258,-0.1267702448893561,-0.0724398906040246
2.3204999999999814,0.1267702448893561,0.1395530363309625,-0.110790010258096
2.323999999999984,0.1075943123976944,0.3504830577514853,-0.1299659427497577
2.3274999999999864,0.0894847760790013,0.644504714200954,-0.1352926876268444
2.330999999999989,0.078831286324828,0.8714132249234848,-0.1118564064310645
2.334499999999992,0.0564614013020167,1.1846108138646152,-0.0777666354811113
2.337999999999994,0.0351544217936699,1.4168443241349806,-0.0447432607041266
2.3414999999999964,-0.006391395720803,1.723650517355308,-0.0106534897541733
2.344999999999999,-0.0404811666707562,1.947363330217437,0.0074577918937717
2.348499999999973,-0.0926804739394026,2.2232754503482126,0.0181095363186931
2.3519999999999754,-0.1257055940456392,2.409701049070735,0.0245026773687483
2.355499999999978,-0.1597953649955925,2.634478512776581,0.013849187614575
2.3589999999999804,-0.1661867607163957,2.77190224742011,0.002131047016685
2.362499999999983,-0.1427504795206158,2.9221087735052462,-0.029827676916583
2.365999999999985,-0.0905494269227174,2.9934840132655545,-0.0639174478665363
2.369499999999988,0.0138491876145753,3.0147909927739014,-0.1139874534477496
2.3729999999999905,0.1182478021518681,2.963656336348971,-0.1534022239455376
2.376499999999993,0.2588672346557993,2.820905856828355,-0.1853609478788057
2.3799999999999955,0.3366338701369106,2.695202008111968,-0.1960144376329791
2.383499999999998,0.3845728287014389,2.548189434557981,-0.1970790884766957
2.3870000000000005,0.3717882919305804,2.476815940126925,-0.1874919948954908
2.3904999999999745,0.2993484013265557,2.440595122160287,-0.1874919948954908
2.393999999999977,0.2237128128621295,2.457640007635263,-0.1960144376329791
2.3974999999999795,0.1118564064310649,2.511970361920594,-0.2162550209683574
2.400999999999982,0.0245026773687487,2.567365367049643,-0.2460844432141925
2.4044999999999845,-0.1022693128498594,2.6355449089495493,-0.288694911572382
2.407999999999987,-0.227973161566247,2.687744216218196,-0.3185243338182171
2.411499999999989,-0.4420988808471713,2.7633798046826223,-0.3462209637181151
2.414999999999992,-0.6498314590780404,2.824101554688757,-0.3547434064556034
2.4184999999999945,-0.981138584337864,2.9210441226615296,-0.3536787556118869
2.421999999999997,-1.2506593087478362,3.0094642478968145,-0.3515477085952018
2.4254999999999995,-1.630970043415905,3.1415612376632573,-0.3483520107348002
2.4289999999999736,-1.9143382101112,3.2342417116026607,-0.3536787556118869
2.432499999999976,-2.244580684527307,3.342902420173324,-0.3824417816847534
2.435999999999978,-2.449117564897774,3.401493123162773,-0.4069427137242498
2.439499999999981,-2.6035861850162805,3.462214873168908,-0.4026823650201317
2.442999999999984,-2.614239674770454,3.489913248398058,-0.3611348021764067
2.446499999999986,-2.456575356791546,3.513349529593837,-0.2759121201307756
2.4499999999999886,-2.234993590946102,3.5229366231750427,-0.2045368803704674
2.453499999999991,-1.812070642590592,3.5591574411416804,-0.1225098961852379
2.4569999999999936,-1.4392159544870435,3.593247212091634,-0.0798976824977964
2.460499999999996,-0.9108279954212724,3.684861289858069,-0.0213052341790947
2.463999999999998,-0.5305172607532039,3.7977840924621016,0.0308940730895516
2.4674999999999727,-0.0894847760790007,4.030017602732467,0.1118564064310645
2.470999999999975,0.1747092034538849,4.293146931421636,0.1715135055934827
2.4744999999999777,0.4367721359700855,4.737375113956241,0.2290395577392158
2.47799999999998,0.558215635982355,5.127274687534766,0.233299906443334
2.4814999999999827,0.5997614534968281,5.682294625656719,0.1885583910684593
2.484999999999985,0.540106099663662,6.106282224855945,0.1289012919060412
2.488499999999988,0.3430252658577143,6.6421262304862365,0.0404811666707564
2.4919999999999902,0.1225098961852388,7.025634408343958,-0.0010646508437165
2.4954999999999927,-0.2098636252475532,7.492232475901375,0.0053267448770866
2.4989999999999952,-0.4665998128866671,7.787320528523812,0.0596570991624181
2.5024999999999977,-0.7435765838611592,8.100518117464942,0.1736428072809158
2.506,-0.8767399698005706,8.264573831164652,0.2812388650078622
2.5094999999999743,-0.9395927668233904,8.375363841422748,0.4271832970596281
2.512999999999977,-0.8841960163650903,8.388148378193607,0.5241258650324012
2.5164999999999798,-0.683921230027993,8.309315346539528,0.630655526586379
2.519999999999982,-0.4506213235846589,8.172958008068967,0.7105532090841755
2.5234999999999843,-0.0543303542853305,7.903437283658994,0.8192139176548384
2.526999999999987,0.2727164222703749,7.656289934930337,0.9182857873150446
2.5304999999999893,0.7212066988383498,7.263194663491411,1.051447427925204
2.533999999999992,1.037599985639882,6.943605678829476,1.1622391835125518
2.5374999999999943,1.397670136972572,6.521747381317684,1.282618032681105
2.540999999999997,1.5947492254492674,6.208551537705804,1.3444044335309562
2.5444999999999998,1.7396307519865688,5.793084635914815,1.3412087356705549
2.5479999999999734,1.75028249641149,5.494800885431975,1.2911404754185931
2.551499999999976,1.6320346942596224,5.105967708026419,1.1569124386354652
2.5549999999999784,1.4488030480682497,4.802358957995746,1.037599985639881
2.558499999999981,1.0897992929085278,4.3677178690423455,0.8778046206442881
2.5619999999999834,0.7691439120736255,4.035344347609554,0.7734060061069953
2.565499999999986,0.3291760782431389,3.581529071493744,0.6626142505196473
2.5689999999999884,0.0021310470166854,3.24169775816718,0.5976321518093943
2.572499999999991,-0.3622011983493749,2.790013529068055,0.5273215628928027
2.5759999999999934,-0.583782964194819,2.443790820020688,0.4825800475179281
2.579499999999996,-0.7755353077944281,1.956950423798642,0.4144005056180216
2.5829999999999984,-0.8437148496943345,1.5659861993764004,0.369657244913895
2.5864999999999725,-0.8256053133756416,0.9971170736398726,0.3068061932203272
2.589999999999975,-0.7244023966987504,0.5369104018032597,0.2780431671474606
2.593499999999977,-0.4825800475179281,-0.0916158230956862,0.2428870000245388
2.59699999999998,-0.2439533961975074,-0.5507578440885826,0.2119946722642392
2.6004999999999825,0.1075943123976942,-1.1100398762439057,0.152337573101821
2.603999999999985,0.3536787556118867,-1.486088516878604,0.0980072188164895
2.6074999999999875,0.5944364539489925,-1.9090114652341137,0.0170448854749766
2.61099999999999,0.674332391117537,-2.1827925383482043,-0.0319587239332681
2.6144999999999925,0.6391779693238671,-2.49812117430602,-0.0862890782185996
2.617999999999995,0.5337129586136057,-2.7133115444306606,-0.1054650107102613
2.621499999999997,0.3227846825223349,-2.990288315405153,-0.0948115209560879
2.625,0.1704471094205138,-3.191629497915218,-0.0532657034416149
2.628499999999974,0.0063913957208028,-3.4441053368502144,0.0340897709499532
2.6319999999999766,-0.0607217500061351,-3.639055123639477,0.1257055940456395
2.635499999999979,-0.0916158230956868,-3.902182706999394,0.2578025838120824
2.6389999999999816,-0.0916158230956868,-4.108850634386547,0.3653968962097769
2.642499999999984,-0.10972535941438,-4.395414498942244,0.5145387714511963
2.6459999999999866,-0.1587289688226248,-4.607409171206482,0.6274598287259775
2.649499999999989,-0.271650026097406,-4.890777337901778,0.7691439120736251
2.652999999999992,-0.3771150368076674,-5.093184916584812,0.8692821779067997
2.656499999999994,-0.500689583836622,-5.349921104223927,0.960898001002486
2.6599999999999966,-0.5667380787198434,-5.5374130991194175,1.0045748655336442
2.663499999999999,-0.6082838962343164,-5.78349754233361,1.0152283552878176
2.666999999999973,-0.6189373859884899,-5.963531745335329,0.9928567249357544
2.670499999999976,-0.6381133184801516,-6.153154787247505,0.9342660219463046
2.673999999999978,-0.6626142505196481,-6.268206891538971,0.8692821779067997
2.6774999999999807,-0.7009661155029714,-6.351300271897169,0.7627525163528219
2.680999999999983,-0.7190756518216646,-6.37047620438883,0.6711366932571355
2.6844999999999857,-0.690312625748798,-6.341713178315965,0.5209301671719996
2.687999999999988,-0.6285244795696948,-6.294840615924405,0.3962909692993285
2.6914999999999907,-0.5156034222949136,-6.217072235114041,0.2098636252475541
2.694999999999993,-0.4122694586013373,-6.145698740682985,0.0617864008498512
2.698499999999996,-0.2769767709744928,-6.038102682956039,-0.1289012919060412
2.701999999999998,-0.1811005991746883,-5.964598141508298,-0.2503447919183106
2.7055000000000007,-0.0692441927436237,-5.895353948764675,-0.3653968962097769
2.7089999999999748,0.0053267448770859,-5.862328828658438,-0.425053995372195
2.7124999999999773,0.0969425679727723,-5.838892547462658,-0.4751222556241564
2.71599999999998,0.1502065260851352,-5.816520917110594,-0.5060163287137079
2.7194999999999823,0.1800359483309704,-5.7664526568586325,-0.5326483077698895
2.7229999999999848,0.1747092034538837,-5.725971490187877,-0.5539552872782363
2.7264999999999877,0.1278348957330719,-5.667379041869175,-0.5678027295635593
2.7299999999999898,0.0820287295144808,-5.629028922215104,-0.5646070317031576
2.7334999999999923,-0.0031956978604023,-5.597070198281835,-0.5326483077698895
2.7369999999999948,-0.066048494883222,-5.58322101066726,-0.4836446983616446
2.7404999999999973,-0.1651203645434282,-5.570438219225654,-0.3994866671597301
2.744,-0.2503447919183113,-5.562980427331882,-0.3451563128743986
2.747499999999974,-0.3472873598910843,-5.548066588873591,-0.2641939795328856
2.7509999999999764,-0.4058780628805339,-5.541675193152787,-0.2226464166891606
2.754499999999979,-0.4431635316908889,-5.545935541856905,-0.177904901314286
2.7579999999999814,-0.4282496932325973,-5.553393333750677,-0.1448797812080492
2.761499999999984,-0.3792460838243525,-5.558718333298512,-0.1054650107102613
2.7649999999999864,-0.3163932868015327,-5.553393333750677,-0.0703088435873395
2.768499999999989,-0.2226464166891613,-5.506520771359118,-0.0191759324916617
2.771999999999992,-0.1523375731018217,-5.4287523905487545,0.0106534897541733
2.775499999999994,-0.0585907029894502,-5.260436328144925,0.0436768645311581
2.7789999999999964,0.0202405833353776,-5.089989218724411,0.0543303542853314
2.782499999999999,0.1427504795206156,-4.83538233277273,0.0500682602519613
2.785999999999973,0.2535404897787117,-4.6361721972793495,0.0479389585645282
2.7894999999999754,0.4058780628805327,-4.380500660483952,0.0426122136874415
2.792999999999978,0.5017542346803373,-4.188748316884343,0.029827676916583
2.7964999999999804,0.5763251723010472,-3.908574102720197,0.0010646508437165
2.799999999999983,0.585914011211504,-3.6710138475727447,-0.029827676916583
2.803499999999985,0.5539552872782358,-3.3141393941004567,-0.1012029166768912
2.806999999999988,0.5038852816970226,-3.0275737842155075,-0.1864273440517743
2.8104999999999905,0.419727250495108,-2.643000955514069,-0.3408942188410284
2.813999999999993,0.3547434064556031,-2.363893137522892,-0.4836446983616446
2.8174999999999955,0.253540489778712,-2.02832566355895,-0.7009661155029706
2.820999999999998,0.1757738542976007,-1.7960904079593327,-0.861824386013028
2.8245000000000005,0.0713752397603079,-1.4999377044931788,-1.043991381360684
2.8279999999999745,-0.0213052341790949,-1.3017922198435146,-1.1505210429146622
2.831499999999977,-0.1416840833476478,-1.0471870792210858,-1.259181751485325
2.8349999999999795,-0.2375620004767042,-0.8682175270630832,-1.3252302463685464
2.838499999999982,-0.3504830577514853,-0.6530271569384424,-1.412583975430863
2.8419999999999845,-0.4101401569139035,-0.5187991201553145,-1.4786324703140838
2.845499999999987,-0.4548816722887782,-0.3739193389472651,-1.5670525955493688
2.848999999999989,-0.4474238803950064,-0.3036087500306735,-1.6235122515221332
2.852499999999992,-0.3877685265618402,-0.2396913021641372,-1.6810383036678664
2.8559999999999945,-0.3100018910807288,-0.2183860679850424,-1.693822840438725
2.859499999999997,-0.1683160624038291,-0.1992101354933807,-1.6671891160532917
2.8629999999999995,-0.0468725623915597,-0.191754088928861,-1.61285876176796
2.8664999999999736,0.1139874534477496,-0.1906876927558924,-1.4775660741411154
2.869999999999976,0.2258421145495622,-0.1885583910684594,-1.3507958292517597
2.873499999999978,0.3355692192931938,-0.1906876927558924,-1.144129647193859
2.876999999999981,0.3771150368076668,-0.1853609478788058,-0.968355792896258
2.880499999999984,0.3760503859639502,-0.1906876927558925,-0.7222713496820654
2.883999999999986,0.3281114273994219,-0.191754088928861,-0.5273215628928027
2.8874999999999886,0.2034722295267509,-0.1693824585767977,-0.2599318854995155
2.890999999999991,0.0841580312019145,-0.1299659427497577,-0.0607217500061347
2.8944999999999936,-0.1182478021518678,-0.0340897709499532,0.1906876927558924
2.897999999999996,-0.2737810731140905,0.0713752397603081,0.3707236410868635
2.901499999999998,-0.4879067923950147,0.2609982816724841,0.602958896686481
2.9049999999999727,-0.6477004120613556,0.4186608543221398,0.767014610386192
2.908499999999975,-0.8426501988506181,0.6626142505196474,0.9640936988628878
2.9119999999999777,-0.9790075373211792,0.8522372924318232,1.0876682458918423
2.91549999999998,-1.1377365061438034,1.1356072044563708,1.2123074437645132
2.9189999999999827,-1.228287678395773,1.363580366022618,1.2762248916310497
2.922499999999985,-1.3039232668601994,1.6842340015282682,1.3060543138768848
2.925999999999988,-1.3113810587539712,1.9143382101112003,1.2954008241227113
2.9294999999999902,-1.237874771976978,2.2051641687002674,1.2410704698373798
2.9329999999999927,-1.1260183655459133,2.403309653349932,1.1835444176916468
2.9364999999999952,-0.898045203979666,2.644067351687037,1.0866035950481256
2.9399999999999977,-0.6828548338550251,2.81131876324715,1.009901610410731
2.9435,-0.3611348021764063,3.0254427371988224,0.8841960163650913
2.9469999999999743,-0.1086607085706625,3.196956242792305,0.7776663548111135
2.950499999999977,0.2183860679850429,3.4238647535148363,0.6178727351447726
2.9539999999999798,0.4431635316908887,3.5825937223374607,0.4868403962220463
2.957499999999982,0.698835068486286,3.771150368076668,0.3057397970473587
2.9609999999999843,0.8437148496943352,3.895791311278591,0.1747092034538843
2.964499999999987,0.9790075373211796,4.012974462586742,0.0234362811957798
2.9679999999999893,1.0301421937461095,4.066238420699105,-0.0628527970228197
2.971499999999992,1.031206844589826,4.117373077124035,-0.1512729222581045
2.9749999999999943,0.9790075373211798,4.155723196778107,-0.2013411825100658
2.978499999999997,0.8618243860130286,4.218575993800926,-0.2684543282370038
2.9819999999999998,0.7339894902799559,4.260121811315399,-0.3195889846619337
2.9854999999999734,0.518799120155315,4.293146931421636,-0.3856374795451551
2.988999999999976,0.3163932868015326,4.313387514757014,-0.4261186462159115
2.9924999999999784,5.3306475233704595e-16,4.352804030584054,-0.4570127193054631
2.995999999999981,-0.2695207244099717,4.41245938441722,-0.4612730680095813
2.9994999999999834,-0.6391779693238668,4.524315790848285,-0.4729912086074713
3.002999999999986,-0.9086986937338392,4.628714405385578,-0.492167141099133
3.0064999999999884,-1.2325480270998908,4.767204536202075,-0.5603466829990394
3.009999999999991,-1.4424116523474448,4.860949660985195,-0.6391779693238674
3.0134999999999934,-1.6874296993886688,4.977066416120378,-0.7552947244590501
3.016999999999996,-1.830180178909285,5.044181307176568,-0.8319967090964449
3.0204999999999984,-1.9399055383236643,5.091053869568127,-0.8799356676609732
3.0239999999999725,-2.009149731067288,5.12514364051808,-0.8959141569629812
3.027499999999975,-1.954819376781956,5.12194794265768,-0.8703468287505163
3.030999999999977,-1.8344405276134037,5.115556546936876,-0.84584589671102
3.03449999999998,-1.5478766630577063,5.103836661009733,-0.81069147491735
3.0379999999999825,-1.2719645429269308,5.109165151216073,-0.7851241467048852
3.041499999999985,-0.8660864800463975,5.120881546484711,-0.7425119330174437
3.0449999999999875,-0.564607031703157,5.137926431959688,-0.6881815787321122
3.04849999999999,-0.2194507188287583,5.158168760624317,-0.5678027295635593
3.0519999999999925,-0.0255673282124643,5.180538645647128,-0.43890318298677
3.055499999999995,0.1374237346435301,5.213563765753365,-0.2237128128621291
3.058999999999997,0.1874919948954914,5.21143271873668,-0.0351544217936697
3.0625,0.1139874534477503,5.196518880278389,0.2024058333537824
3.065999999999974,-0.0596570991624175,5.207170624703311,0.355809802628572
3.0694999999999766,-0.4719265577637541,5.331811567905233,0.5443664483677794
3.072999999999979,-0.8884581103984608,5.525694958521528,0.6690056462404504
3.0764999999999816,-1.50739549638695,5.895353948764675,0.8405191518339332
3.079999999999984,-1.93777449130698,6.2245300270078125,0.9662247458795729
3.0834999999999866,-2.292519643091835,6.565424245848842,1.0940596416126456
3.086999999999989,-2.586541299541304,6.973433355746059,1.275160240787333
3.090499999999992,-2.67815712263699,7.225909194681055,1.4157796732912642
3.093999999999994,-2.654719096111958,7.480516080632736,1.587293178884747
3.0974999999999966,-2.5822792055079336,7.604090627661691,1.6948874912824414
3.100999999999999,-2.4576400076352622,7.673334820405314,1.8152663404509943
3.104499999999973,-2.3170205751313317,7.606219929349124,1.922860652848689
3.107999999999976,-2.19983742382318,7.47518933575565,2.0006272883298
3.111499999999978,-1.9995626374860829,7.1556003510937165,2.109287996900463
3.1149999999999807,-1.7939593609426463,6.842402762152585,2.188119283225291
3.118499999999983,-1.4200400219953817,6.351300271897169,2.2520384764210792
3.1219999999999857,-1.070623360416865,5.943291161999951,2.246711731543993
3.125499999999988,-0.5379750526469754,5.391468667067651,2.150833814414936
3.1289999999999907,-0.1150521042914655,4.984524208014149,2.0048893823631704
3.132499999999993,0.299348401326556,4.588233238714821,1.8141999442780257
3.135999999999996,0.7947112402860905,4.060911675822019,1.4850238660348871
3.139499999999998,1.1686305792333556,3.532525462085499,1.1334761574396854
3.1430000000000007,1.3465354805476415,3.1479526333840604,0.8724778757672014
3.1464999999999748,1.4296288609058396,2.798535971805544,0.6178727351447726
3.1499999999999773,1.4168443241349808,2.389460465735357,0.3089354949077603
3.15349999999998,1.2570507044686403,2.04749985072136,0.0031956978604016
3.1569999999999823,1.0344025424502274,1.836571574630089,-0.2226464166891606
3.1604999999999848,0.7201403026653805,1.6757115587907798,-0.4357057397971164
3.1639999999999877,0.1747092034538845,1.550007710074392,-0.6743323911175372
3.1674999999999898,-0.2940216564494686,1.506329100213982,-0.7829930996882002
3.1709999999999923,-0.9108279954212726,1.5105911942473524,-0.8224096155152401
3.1744999999999948,-1.3017922198435143,1.541485267336904,-0.7595568184924202
3.1779999999999973,-1.6416217878408264,1.5862267827117786,-0.5795208701614492
3.1815,-1.7257815643719927,1.592618178432582,-0.4101401569139035
3.184999999999974,-1.6085984130638415,1.536158522459817,-0.1885583910684593
3.1884999999999764,-1.394474439112169,1.4424116523474455,-0.0447432607041266
3.191999999999979,-0.9822032351815808,1.243201516854065,0.124639197872671
3.1954999999999814,-0.6125459902676857,1.039729287327314,0.2514094427620272
3.198999999999984,-0.071375239760308,0.709488558240459,0.4197272504951083
3.2024999999999864,0.3472873598910837,0.4303807402492816,0.5486285424011496
3.205999999999989,0.9076322975608712,0.0362208179666382,0.7020307663466872
3.209499999999992,1.3092500117372865,-0.2620629325162008,0.7861887975486017
3.212999999999994,1.7822412203447575,-0.6530271569384426,0.8351924069568466
3.2164999999999964,2.05176194475473,-0.940657417667108,0.8256053133756417
3.219999999999999,2.2658859187064024,-1.3390776886538698,0.7702103082465936
3.223499999999973,2.2967799917959537,-1.648014928890882,0.7041618133633722
3.2269999999999754,2.1742718409399675,-2.0879827627213685,0.600827849669796
3.230499999999978,1.9761263562903035,-2.4278123307186807,0.5187991201553145
3.2339999999999804,1.607533762220125,-2.8816276068344897,0.3984202709867616
3.237499999999983,1.2794223348207028,-3.2118700812505967,0.3068061932203272
3.240999999999985,0.8043000791965464,-3.635859425779076,0.1736428072809158
3.244499999999988,0.4431635316908877,-3.9394681758097487,0.0735062867769931
3.2479999999999905,-0.0500682602519618,-4.345346238690282,-0.041545817514473
3.251499999999993,-0.4207919013388254,-4.648954988720956,-0.1054650107102613
3.2549999999999955,-0.8905874120858952,-5.049508052053654,-0.1565979218059392
3.258499999999998,-1.2005893031666242,-5.338202963626037,-0.1757738542976009
3.2620000000000005,-1.5233739856889592,-5.706795557696215,-0.1683160624038291
3.2654999999999745,-1.667189116053292,-5.964598141508298,-0.1576643179789077
3.268999999999977,-1.694887491282442,-6.277795730449427,-0.138488385487246
3.2724999999999795,-1.599011319482638,-6.489788657384414,-0.1150521042914662
3.275999999999982,-1.3401440848268389,-6.738002402286041,-0.0916158230956863
3.2794999999999845,-1.0770147561376695,-6.892471022404546,-0.0724398906040246
3.282999999999987,-0.6817901830113098,-7.037350803612597,-0.0394165158270399
3.286499999999989,-0.3888331774055576,-7.108726043372904,-0.0042603487041181
3.289999999999992,-0.0298276769165839,-7.179036632289496,0.0585907029894496
3.2934999999999945,0.1906876927558915,-7.21206000706648,0.1022693128498597
3.296999999999997,0.3898978282492724,-7.2216488459769375,0.1534022239455376
3.3004999999999995,0.4655351620429506,-7.203537564328992,0.1821652500184041
3.3039999999999736,0.4740576047804389,-7.133228720741652,0.1981454846496642
3.307499999999976,0.4133358547743042,-7.054395689087572,0.2024058333537824
3.310999999999978,0.2748474692870582,-6.920169397633697,0.1992101354933808
3.314499999999981,0.1534022239455368,-6.817900084783838,0.1906876927558924
3.317999999999984,-0.0117181405978907,-6.674084954419505,0.1789695521580025
3.321499999999986,-0.1267702448893569,-6.572882037742613,0.1747092034538843
3.3249999999999886,-0.2471490940579098,-6.458894584294864,0.1747092034538843
3.328499999999991,-0.3163932868015328,-6.396041787272044,0.1704471094205142
3.3319999999999936,-0.3568744534722893,-6.332124339405507,0.1470108282247343
3.335499999999996,-0.3547434064556042,-6.285251777013948,0.1075943123976944
3.338999999999998,-0.3046751462036429,-6.239443865466105,0.0255673282124649
3.3424999999999727,-0.2183860679850432,-6.214942933426608,-0.0468725623915597
3.345999999999975,-0.0511346564249306,-6.176591068443285,-0.1693824585767977
3.3494999999999777,0.1107900102580953,-6.161677229984993,-0.2631275833599171
3.35299999999998,0.3664615470534926,-6.152090136403789,-0.3962909692993285
3.3564999999999827,0.568869125736527,-6.159546182968308,-0.4857757453783297
3.359999999999985,0.8458458967110192,-6.1840488603370565,-0.5848476150385359
3.363499999999988,1.0386646364835967,-6.20215839665575,-0.6391779693238674
3.3669999999999902,1.2453325638707493,-6.217072235114041,-0.6913772765925138
3.3704999999999927,1.3646450168663338,-6.20215839665575,-0.7148135577882937
3.3739999999999952,1.462652235682823,-6.154221183420473,-0.7329248394362388
3.3774999999999977,1.485023866034887,-6.1052175740122285,-0.7361205372966404
3.381,1.4583918869787051,-6.002948261162369,-0.7425119330174437
3.3844999999999743,1.4040615326933736,-5.9145281359270845,-0.7414472821737271
3.387999999999977,1.2826180326811043,-5.767517307702351,-0.7148135577882937
3.3914999999999798,1.1739573241104413,-5.653531599583852,-0.6594185526592456
3.394999999999982,0.9981834698128402,-5.507585422202834,-0.5560845889656694
3.3984999999999843,0.8586286881526257,-5.392533317911369,-0.4665998128866681
3.401999999999987,0.6626142505196466,-5.231673302072059,-0.3760503859639502
3.4054999999999893,0.5028206308533058,-5.097445265288931,-0.3387649171535954
3.408999999999992,0.2727164222703733,-4.895039431935149,-0.3281114273994219
3.4124999999999943,0.0948115209560873,-4.72565697335835,-0.3472873598910836
3.415999999999997,-0.1278348957330732,-4.5008795096525045,-0.3920288752659583
3.4194999999999998,-0.2663250265495713,-4.332561701919424,-0.4357057397971164
3.4229999999999734,-0.3771150368076673,-4.118437727967751,-0.5049499325407395
3.426499999999976,-0.3952245731263604,-3.9671665510388983,-0.561411333842756
3.4299999999999784,-0.3046751462036426,-3.7828685086745577,-0.6391779693238674
3.433499999999981,-0.1597953649955932,-3.6529025659248,-0.7009661155029706
3.4369999999999834,0.1086607085706625,-3.467541618045994,-0.7883198445652868
3.440499999999986,0.3472873598910833,-3.3098773000670865,-0.8533036886047917
3.4439999999999884,0.6732677402738203,-3.0637946021821456,-0.9459841625441944
3.447499999999991,0.8948495061192643,-2.8571266747949933,-1.016293006131534
3.4509999999999934,1.1334761574396852,-2.538602340976776,-1.095126037785614
3.454499999999996,1.25705070446864,-2.282930804181379,-1.1473253450542604
3.4579999999999984,1.3390776886538691,-1.9175339079716025,-1.1995246523229068
3.4614999999999725,1.3422733865142709,-1.6309700434159051,-1.2144384907811985
3.464999999999975,1.2836826835248212,-1.236810121133262,-1.1995246523229068
3.468499999999977,1.2037850010270248,-0.9374617198067065,-1.1707616262500404
3.47199999999998,1.0823415010147557,-0.5603466829990396,-1.1260183655459135
3.4754999999999825,0.9832696313545496,-0.3068061932203273,-1.1004510373334488
3.478999999999985,0.8341277561131301,-0.025567328212465,-1.079145803154354
3.4824999999999875,0.709488558240459,0.1278348957330725,-1.067427662556464
3.48599999999999,0.5092120265741096,0.2450180470412239,-1.0546431257856057
3.4894999999999925,0.3206536355056503,0.2791078179911771,-1.032273240762794
3.492999999999995,0.0063913957208032,0.2503447919183106,-0.960898001002486
3.496499999999997,-0.2769767709744921,0.1853609478788058,-0.889522761242178
3.5,-0.713748906944577,0.0798976824977965,-0.7851241467048852
3.503499999999974,-1.0546431257856057,0.0245026773687485,-0.7020307663466872
3.5069999999999766,-1.4722410745932808,-0.0181095363186929,-0.5955011047927092
3.510499999999979,-1.7268462152157096,-0.0255673282124647,-0.5241258650324012
3.5139999999999816,-1.9420365853403505,-0.0074577918937715,-0.4420988808471717
3.517499999999984,-2.0166075229610603,0.0063913957208034,-0.3792460838243518
3.5209999999999866,-2.0166075229610603,0.0649838440395051,-0.2908259585890671
3.524499999999989,-1.9644082156924136,0.1406194325039313,-0.2183860679850424
3.527999999999992,-1.8461604135405456,0.282303515851579,-0.1075943123976944
3.531499999999994,-1.7470867985510878,0.4207919013388251,-0.0202405833353782
3.5349999999999966,-1.599011319482637,0.6466357612176393,0.096942567972773
3.538499999999999,-1.4871549130515724,0.8522372924318233,0.191754088928861
3.541999999999973,-1.3433397826872393,1.1782176728145604,0.3206536355056502
3.545499999999976,-1.244266167697781,1.4541297929453358,0.4154651564617382
3.548999999999978,-1.1281494125625984,1.853616460105066,0.5326483077698895
3.5524999999999807,-1.0375999856398808,2.1593562571524245,0.605088198373914
3.555999999999983,-0.9225478813484144,2.564169669189241,0.6743323911175372
3.5594999999999857,-0.8298656620797595,2.849668882901222,0.7041618133633722
3.562999999999988,-0.7030954171904032,3.1831070551777305,0.7201403026653803
3.5664999999999907,-0.6104149432510004,3.3951017274419697,0.7169446048049787
3.569999999999993,-0.4921671410991325,3.619879191147815,0.7073575112237738
3.573499999999996,-0.4037470158638478,3.7466494360371714,0.6967040214696004
3.576999999999998,-0.303608750030673,3.889399915557788,0.6903126257487973
3.5805000000000007,-0.2269085107225303,3.971426899743017,0.6732677402738206
3.5839999999999748,-0.1278348957330721,4.066238420699105,0.6466357612176391
3.5874999999999773,-0.0553950051290475,4.122699822001121,0.6178727351447726
3.59099999999998,0.0202405833353787,4.174899129269768,0.5433017975240628
3.5944999999999823,0.056461401302017,4.223902738678013,0.4634041150262664
3.5979999999999848,0.0436768645311586,4.296342629282037,0.3291760782431385
3.6014999999999877,-0.0095870935812043,4.355999728444456,0.2109282760912707
3.6049999999999898,-0.1374237346435289,4.449744853227576,0.0394165158270399
3.608499999999992,-0.275912120130775,4.5307089318983405,-0.0862890782185996
3.6119999999999943,-0.4879067923950142,4.670261968229303,-0.2258421145495622
3.615499999999997,-0.6445047142009535,4.774660582766596,-0.3100018910807288
3.619,-0.8138871727777512,4.930193853728818,-0.4016177141764152
3.622499999999974,-0.9055029958734374,5.048441655880685,-0.4516859744283765
3.625999999999976,-0.9800739334941472,5.231673302072059,-0.5187991201553145
3.629499999999979,-1.0024438185169584,5.370161687559304,-0.5646070317031576
3.632999999999981,-0.9885963762316357,5.57150287006937,-0.6210684330051742
3.636499999999984,-0.9491798604045956,5.723840443171192,-0.6562228547988439
3.6399999999999855,-0.8756735736276022,5.911332438066682,-0.6988350684862855
3.643499999999989,-0.8064293808839792,6.025319891514432,-0.7030954171904037
3.646999999999992,-0.7318584432632695,6.128653855208008,-0.670072042413419
3.650499999999994,-0.6988350684862847,6.188310954370427,-0.605088198373914
3.653999999999997,-0.6998997193300013,6.266075844522286,-0.4729912086074713
3.657499999999999,-0.7148135577882929,6.336386433438878,-0.3472873598910836
3.660999999999973,-0.7510343757549311,6.449307490713659,-0.1629910628559944
3.664499999999976,-0.7776663548111127,6.535596568932259,-0.041545817514473
3.667999999999978,-0.7680792612299078,6.634668438592465,0.1097253594143795
3.671499999999981,-0.7254670475424663,6.684738444173678,0.2205171150017275
3.674999999999983,-0.596565755636425,6.718828215123631,0.3813771308410369
3.6784999999999854,-0.4559463231324938,6.725219610844435,0.5134723752782278
3.681999999999988,-0.21519037012464,6.734806704425639,0.7297291415758372
3.6854999999999913,-0.0159802346312592,6.775287871096396,0.8831313655213747
3.688999999999993,0.2450180470412248,6.905255559175405,1.0621009176793774
3.692499999999996,0.4207919013388257,7.056526736104257,1.1696952300770718
3.695999999999998,0.593370057776025,7.289826642547593,1.2815516365081363
3.699500000000001,0.6636806466926166,7.484776429336854,1.3348173399497512
3.702999999999975,0.6690056462404514,7.739381569959283,1.3934080429392008
3.706499999999977,0.6104149432510019,7.906634726848647,1.4402806053307606
3.70999999999998,0.4623394641825509,8.088799976867051,1.512722241264037
3.713499999999982,0.3195889846619347,8.180415799962738,1.573443991270172
3.716999999999985,0.1278348957330736,8.21876591961681,1.6373614391367084
3.720499999999987,-0.0042603487041171,8.170826961052281,1.6639934181928897
3.7239999999999895,-0.1352926876268434,7.996119502927649,1.6512106267512834
3.727499999999992,-0.2109282760912697,7.76814459603215,1.5947492254492668
3.7309999999999945,-0.2918906094327828,7.33350350707875,1.476501423297399
3.734499999999997,-0.3408942188410276,6.94254102798576,1.3721028087601062
3.738,-0.3920288752659575,6.3459735270200825,1.2517239595915532
3.7414999999999736,-0.4016177141764144,5.863395224831406,1.16649953221667
3.744999999999976,-0.347287359891083,5.1890610883846175,1.063165568523094
3.748499999999978,-0.2492801410745935,4.673457666089704,0.9651583497066044
3.751999999999981,-0.0436768645311576,3.988471785217994,0.8000379851631767
3.755499999999984,0.1384883854872464,3.497369294962577,0.6402426201675839
3.758999999999986,0.3771150368076671,2.8890853987282616,0.3930952714389268
3.7624999999999886,0.499624932992905,2.4842719866914447,0.2045368803704674
3.765999999999991,0.5507578440885829,2.026194616542265,-0.0255673282124649
3.7694999999999936,0.487906792395015,1.7513488925844578,-0.166186760716396
3.772999999999996,0.3131975889411306,1.4850238660348871,-0.2950880526224372
3.776499999999999,0.1555332709622228,1.3476001313913577,-0.3611348021764067
3.7799999999999727,-0.0234362811957797,1.2346790741165767,-0.4239875991992265
3.783499999999975,-0.1129210572747809,1.1941979074458202,-0.4516859744283765
3.7869999999999777,-0.154468620118506,1.160108136495867,-0.4761869064678729
3.79049999999998,-0.1342280367831277,1.1473253450542604,-0.4751222556241564
3.793999999999983,-0.0745709376207095,1.134540808283402,-0.4378367868138015
3.797499999999985,-0.0159802346312599,1.1185623189813938,-0.369657244913895
3.800999999999988,0.0777666354811114,1.092994990768929,-0.2162550209683574
3.8044999999999902,0.1587289688226244,1.0695587095731491,-0.0532657034416149
3.8079999999999927,0.2759121201307757,1.0258800997127389,0.205601531214184
3.8114999999999952,0.3611348021764068,0.986465329214951,0.4133358547743051
3.8149999999999977,0.4655351620429516,0.907632297560871,0.670072042413419
3.8185,0.5081473757303931,0.8319967090964447,0.8501062454151381
3.8219999999999743,0.4921671410991331,0.7201403026653802,1.0589052198189757
3.825499999999977,0.425053995372195,0.628524479569694,1.21017814207708
3.8289999999999793,0.2631275833599171,0.4868403962220462,1.395539089955886
3.832499999999982,0.1214435000122694,0.3643322453660603,1.5329628245994156
3.835999999999984,-0.029827676916583,0.177904901314286,1.6821046998408349
3.839499999999987,-0.0958761717998045,0.0095870935812048,1.7737187776072691
3.842999999999989,-0.0990718696602061,-0.2524758389349957,1.8429629703508923
3.846499999999992,-0.0436768645311581,-0.4665998128866681,1.8610742519988372
3.8499999999999934,0.085224427374883,-0.7989733343194602,1.8376379708030577
3.853499999999997,0.1768385051413173,-1.0802104539980706,1.800352501992703
3.8569999999999993,0.2524758389349955,-1.4871549130515724,1.7225858665115914
3.860499999999973,0.2524758389349955,-1.8046128506968209,1.6469485327179132
3.863999999999976,0.1416840833476474,-2.228600449896048,1.5212446840015257
3.8674999999999775,-0.0010646508437168,-2.5471247837142648,1.4200400219953824
3.870999999999981,-0.238626651320421,-2.959394242315601,1.2698334959102464
3.874499999999984,-0.4420988808471721,-3.2725918312567317,1.1409322040042051
3.877999999999986,-0.6913772765925142,-3.672078498416462,0.958766953985801
3.881499999999989,-0.8554329902922252,-3.9724915505867338,0.81069147491735
3.884999999999991,-1.0173594023045032,-4.369848916059031,0.6178727351447726
3.8884999999999934,-1.0993863864897329,-4.662804176335531,0.4751222556241564
3.891999999999996,-1.1558477877917497,-5.036723515282796,0.3046751462036421
3.8954999999999984,-1.154781391618781,-5.287068307201106,0.1949497867892626
3.898999999999973,-1.0993863864897329,-5.573633917086056,0.0607217500061347
3.902499999999975,-1.0184240531482198,-5.748341375210688,-0.0319587239332681
3.9059999999999775,-0.8810003185046905,-5.916659182943769,-0.166186760716396
3.90949999999998,-0.7627525163528227,-5.991230120564479,-0.2641939795328856
3.9129999999999834,-0.6253287817092931,-6.037038032112322,-0.3856374795451551
3.916499999999985,-0.551824240261552,-6.023188844497747,-0.4559463231324946
3.919999999999988,-0.4921671410991337,-5.963531745335329,-0.5273215628928027
3.92349999999999,-0.4857757453783304,-5.893222901747989,-0.5550199381219528
3.926999999999993,-0.5070809795574251,-5.7653862606856645,-0.5656734278761262
3.930499999999995,-0.5411707505073784,-5.649269505550482,-0.5496931932448661
3.9339999999999975,-0.5816519171781349,-5.472431000409164,-0.5273215628928027
3.9375,-0.5997614534968281,-5.320093427307343,-0.5017542346803379
3.940999999999974,-0.6008278496697966,-5.113425499920191,-0.4559463231324946
3.9444999999999766,-0.5816519171781348,-4.94936978622048,-0.4186608543221398
3.947999999999979,-0.5305172607532049,-4.727788020375035,-0.3483520107348002
3.9514999999999816,-0.4580773701491802,-4.556274514781553,-0.2812388650078622
3.954999999999984,-0.3174579376452491,-4.336823795952794,-0.1693824585767977
3.9584999999999866,-0.1715135055934832,-4.182355175834288,-0.0788312863248278
3.961999999999989,0.0543303542853309,-4.006581321536687,0.0468725623915597
3.965499999999992,0.2439533961975069,-3.888333519384819,0.136357338470561
3.968999999999994,0.491102490255416,-3.745584785193455,0.2460844432141925
3.9724999999999966,0.6636806466926153,-3.6401197744831935,0.3174579376452486
3.975999999999999,0.8618243860130276,-3.510153831733436,0.4090737607409349
3.979499999999973,0.9843342821982656,-3.417473357794033,0.4719265577637547
3.982999999999976,1.117495922808425,-3.2896367167317084,0.5411707505073777
3.986499999999978,1.188871162568733,-3.190564847071502,0.5848476150385359
3.9899999999999807,1.2570507044686396,-3.048879018394602,0.628524479569694
3.993499999999983,1.2890094284019076,-2.9423493568406247,0.6519625060947258
3.9969999999999857,1.2954008241227108,-2.8006652734929767,0.6743323911175372
4.000499999999988,1.2762248916310492,-2.6834838675140773,0.6796591359946239
4.003999999999991,1.2208298865020015,-2.5364712939600915,0.6764634381342222
4.007499999999993,1.1388029023167718,-2.4363347734561684,0.6690056462404504
4.010999999999996,0.9832696313545491,-2.327674064885506,0.6562228547988439
4.014499999999998,0.8351924069568464,-2.2552341742814805,0.6455693650446706
4.018000000000001,0.595501104792709,-2.1774675388003697,0.6413090163405525
4.021499999999975,0.3994866671597298,-2.121006137498353,0.6434400633572375
4.024999999999977,0.1182478021518675,-2.049630897738045,0.6604849488322142
4.02849999999998,-0.0926804739394031,-2.008085080223572,0.6764634381342222
4.031999999999982,-0.3717882919305803,-2.0048893823631704,0.7169446048049787
4.035499999999985,-0.5752605214573313,-2.0059540332068866,0.7627525163528219
4.038999999999987,-0.8288010112360435,-2.0166075229610603,0.8234742663589566
4.04249999999999,-0.996052422796156,-2.049630897738045,0.875673573627603
4.045999999999992,-1.1750219749541588,-2.1082233460567465,0.9374617198067065
4.049499999999995,-1.2751602407873333,-2.1678786998899127,0.9800739334941478
4.052999999999997,-1.3582536211455312,-2.248842778560677,1.0130973082711323
4.0565,-1.387016647218398,-2.3106291794105287,1.0269464958857075
4.059999999999974,-1.3774295536371932,-2.389460465735357,1.022684401852337
4.063499999999976,-1.3412087356705549,-2.4299416324061136,1.0035102146899275
4.066999999999979,-1.2634421001894434,-2.481076288831044,0.968355792896258
4.070499999999981,-1.183544417691647,-2.505578966199792,0.9385263706504228
4.073999999999984,-1.0567741728022908,-2.527950596551855,0.8969805531359498
4.077499999999986,-0.9577023031420848,-2.539668737149745,0.8628907821859965
4.080999999999989,-0.8128207766047835,-2.552451528591351,0.8224096155152401
4.084499999999991,-0.7137489069445774,-2.5567118772954696,0.7947112402860901
4.087999999999994,-0.5752605214573314,-2.5471247837142648,0.7510343757549319
4.091499999999996,-0.4847093492053615,-2.5311462944122565,0.709488558240459
4.094999999999999,-0.3739193389472655,-2.495990127289335,0.6498314590780407
4.098499999999973,-0.2961527034661541,-2.460835705495665,0.5986968026531109
4.101999999999975,-0.2098636252475544,-2.3990493046458137,0.5273215628928027
4.105499999999978,-0.1491418752414197,-2.3553724401146554,0.4719265577637547
4.1089999999999804,-0.0873537290623164,-2.279735106320977,0.3952245731263599
4.112499999999983,-0.0479389585645285,-2.2168823092981573,0.3355692192931938
4.1159999999999854,-0.0106534897541736,-2.1263328823754395,0.2578025838120824
4.119499999999988,0.0138491876145747,-2.0528265955984466,0.2024058333537824
4.122999999999991,0.036220817966638,-1.9633418195194452,0.1235745470289545
4.126499999999993,0.0543303542853312,-1.8951640229487907,0.0660484948832214
4.129999999999996,0.0681795418999062,-1.811004246417624,-0.0085224427374883
4.133499999999998,0.0820287295144813,-1.743891100690686,-0.0575260521457331
4.1370000000000005,0.0948115209560877,-1.6639934181928897,-0.1310323389227262
4.140499999999975,0.103333963693576,-1.6075337622201251,-0.1747092034538843
4.143999999999977,0.1203788491685527,-1.525505032705644,-0.2311688594266489
4.14749999999998,0.1320969897664426,-1.4775660741411154,-0.2684543282370038
4.150999999999982,0.1480754790684507,-1.4104529284141776,-0.3036087500306735
4.1544999999999845,0.1651203645434273,-1.3657114130393029,-0.3217200316786187
4.157999999999987,0.1917540889288608,-1.3188371053184913,-0.3366338701369103
4.1614999999999895,0.2141239739516721,-1.2911404754185931,-0.3472873598910836
4.164999999999992,0.2503447919183105,-1.254919657451955,-0.3590055004889736
4.1684999999999945,0.2854992137119803,-1.2229609335186866,-0.3717882919305801
4.171999999999997,0.3334381722765085,-1.1931332566021038,-0.3856374795451551
4.1755,0.3824417816847533,-1.173957324110442,-0.3888331774055567
4.178999999999974,0.4495549274116913,-1.1505210429146622,-0.3898978282492732
4.182499999999976,0.5092120265741095,-1.1356072044563703,-0.3888331774055567
4.185999999999979,0.589109709071906,-1.1238890638584804,-0.3749839897909817
4.189499999999981,0.6508961099217572,-1.1238890638584804,-0.3643322453660603
4.192999999999984,0.7371851881403568,-1.132411506595969,-0.3462209637181151
4.196499999999986,0.7968422873027751,-1.1419986001771738,-0.3334381722765087
4.199999999999989,0.8735442719401698,-1.1611727873395834,-0.3238510786953038
4.203499999999991,0.9257435792088162,-1.1750219749541588,-0.3259803803827369
4.206999999999994,0.9907256779190692,-1.187806511725017,-0.3281114273994219
4.210499999999996,1.036533589466912,-1.1910022095854187,-0.3440916620306821
4.213999999999999,1.085537198875157,-1.1846108138646154,-0.3653968962097769
4.217499999999973,1.121758016841795,-1.1739573241104422,-0.3803107346680683
4.220999999999975,1.1579770894791817,-1.155847787791749,-0.4069427137242498
4.224499999999978,1.1878065117250165,-1.1334761574396857,-0.4293143440763132
4.22799999999998,1.212307443764513,-1.0929949907689291,-0.4665998128866681
4.231499999999983,1.2325480270998912,-1.0535784749418893,-0.4911024902554164
4.234999999999985,1.251723959591553,-0.998183469812841,-0.5219948180157161
4.238499999999988,1.2613110531727578,-0.9449177663712262,-0.5422354013510943
4.24199999999999,1.2698334959102464,-0.8469105475547366,-0.5507578440885826
4.245499999999993,1.2698334959102464,-0.7744706569507119,-0.5518242402615512
4.248999999999995,1.2911404754185931,-0.7020307663466873,-0.561411333842756
4.252499999999998,1.3124457095976878,-0.6690056462404506,-0.5805872663344177
4.256,1.3486665275643264,-0.6370469223071824,-0.6082838962343158
4.259499999999974,1.3806252514975943,-0.622133083848891,-0.6295908757426625
4.262999999999977,1.421106418168351,-0.6018925005135127,-0.6466357612176391
4.266499999999979,1.4520004912579023,-0.582716568021851,-0.6551582039551274
4.269999999999982,1.4914152617556906,-0.557150985138638,-0.6615495996759307
4.273499999999984,1.5191136369848404,-0.5379750526469763,-0.6562228547988439
4.276999999999987,1.555332709622227,-0.5102766774178263,-0.6413090163405525
4.280499999999989,1.583031084851377,-0.4921671410991332,-0.6327865736030641
4.283999999999992,1.624578647695102,-0.4761869064678731,-0.6104149432510009
4.287499999999994,1.654406324611685,-0.4697955107470699,-0.6018925005135125
4.290999999999997,1.6948874912824414,-0.47405760478044,-0.586978662055221
4.294499999999999,1.730041913076111,-0.4847093492053614,-0.5859140112115044
4.297999999999973,1.771589475919836,-0.5102766774178263,-0.5848476150385359
4.301499999999976,1.8014171528364191,-0.5315836569261732,-0.5816519171781342
4.304999999999978,1.8461604135405456,-0.5678027295635595,-0.5837829641948193
4.308499999999981,1.873857043440444,-0.5880433128989377,-0.586978662055221
4.311999999999983,1.9164692571278852,-0.6146770372843712,-0.5837829641948193
4.315499999999986,1.9356451896195472,-0.6327865736030643,-0.5805872663344177
4.318999999999988,1.9633418195194452,-0.6349176206197494,-0.5752605214573311
4.322499999999991,1.9835824028548237,-0.6317219227593478,-0.5656734278761262
4.325999999999993,2.008085080223572,-0.6200020368322059,-0.5560845889656694
4.329499999999996,2.0208678716651782,-0.6029588966864812,-0.5486285424011496
4.332999999999998,2.0411084550005567,-0.5667380787198429,-0.5305172607532044
4.3364999999999725,2.057088689631817,-0.5347793547865748,-0.5187991201553145
4.339999999999975,2.0751982259505097,-0.4836446983616449,-0.5060163287137079
4.3434999999999775,2.087982762721368,-0.4293143440763134,-0.4996249329929048
4.34699999999998,2.113548345604581,-0.361134802176407,-0.4942981881158181
4.350499999999983,2.1284639293921246,-0.307870844064044,-0.4847093492053612
4.353999999999985,2.143377767850416,-0.2194507188287592,-0.4815136513449596
4.357499999999988,2.1614873041691096,-0.1363573384705612,-0.4857757453783297
4.36099999999999,2.172140793923283,-0.0479389585645285,-0.4996249329929048
4.3644999999999925,2.190250330241976,0.0074577918937715,-0.5070809795574245
4.367999999999995,2.2094262627336376,0.0735062867769929,-0.5187991201553145
4.3714999999999975,2.2147530076107245,0.1118564064310643,-0.5315836569261729
4.375,2.2307314969127323,0.1608600158393091,-0.547562146228181
4.378499999999974,2.233927194773134,0.1981454846496639,-0.5571509851386378
4.381999999999977,2.233927194773134,0.2428870000245385,-0.5688691257365278
4.385499999999979,2.229666846069016,0.2652586303766019,-0.5741958706136145
4.388999999999982,2.2179487054711258,0.2940216564494685,-0.5816519171781342
4.392499999999984,2.2030348670128346,0.30893549490776,-0.5880433128989375
4.395999999999987,2.1710743977503144,0.3323735214327918,-0.6018925005135125
4.399499999999989,2.143377767850416,0.3451563128743983,-0.6114795940947174
4.402999999999992,2.09117846058177,0.3600701513326899,-0.6295908757426625
4.406499999999994,2.053892991771415,0.3717882919305798,-0.6349176206197492
4.409999999999997,1.9953005434527131,0.3824417816847532,-0.6508961099217573
4.413499999999999,1.9548193767819568,0.3771150368076665,-0.6828548338550254
4.416999999999973,1.9090114652341137,0.3526141047681701,-0.7265316983861836
4.420499999999976,1.8685302985633567,0.334502823120225,-0.7499697249112154
4.423999999999978,1.8173973874676796,0.3036087500306733,-0.7829930996882002
4.427499999999981,1.781176569501041,0.2854992137119802,-0.8043000791965469
4.430999999999983,1.7268462152157096,0.2684543282370036,-0.8277363603923268
4.434499999999986,1.6895607464053546,0.2620629325162004,-0.8415838026776498
4.437999999999988,1.6309700434159051,0.251409442762027,-0.8564993864651933
4.441499999999991,1.5915535275888653,0.2524758389349955,-0.8596950843255949
4.444999999999993,1.5425499181806204,0.2524758389349955,-0.8682175270630832
4.448499999999996,1.502068751509864,0.2556715367953971,-0.8692821779067997
4.451999999999998,1.448803048068249,0.2588672346557988,-0.8660864800463982
4.455500000000001,1.407257230553776,0.2641939795328855,-0.861824386013028
4.458999999999975,1.3529268762684443,0.2588672346557988,-0.8586286881526264
4.462499999999977,1.3092500117372865,0.2620629325162004,-0.8564993864651933
4.46599999999998,1.2559843082956712,0.2631275833599169,-0.8469105475547365
4.469499999999982,1.21017814207708,0.2641939795328855,-0.8405191518339332
4.472999999999985,1.1569124386354652,0.2769767709744919,-0.8341277561131301
4.476499999999987,1.1121691779313387,0.2865656098849489,-0.8288010112360433
4.47999999999999,1.0525138240981724,0.3131975889411303,-0.8277363603923268
4.483499999999992,1.012032657427416,0.3345028231202251,-0.8288010112360433
4.486999999999995,0.9534402091087144,0.3728546881035485,-0.8330613599401614
4.490499999999997,0.9086986937338396,0.4048134120368166,-0.8383881048172481
4.494,0.8533036886047917,0.4474238803950062,-0.8437148496943347
4.497499999999974,0.8074957770569486,0.4634041150262663,-0.847976943727705
4.500999999999976,0.7446429800341289,0.4591437663221481,-0.8426501988506182
4.504499999999979,0.6967040214696004,0.4197272504951082,-0.8373234539735316
4.507999999999981,0.6274598287259775,0.3398295679973119,-0.8405191518339332
4.511499999999984,0.5752605214573311,0.2684543282370037,-0.8501062454151381
4.514999999999986,0.4953628389595346,0.166186760716396,-0.875673573627603
4.518499999999989,0.4378367868138015,0.0884201252352846,-0.8969805531359498
4.521999999999991,0.3483520107348002,0.0426122136874415,-0.942788464683793
4.525499999999994,0.2652586303766022,0.0894847760790012,-0.9875299800586675
4.528999999999996,0.1235745470289545,0.2972173543098703,-1.063165568523094
4.532499999999999,-0.0031956978604015,0.5464974953844645,-1.1547813916187804
4.535999999999973,-0.182165250018404,0.8437148496943347,-1.2272212822228048
4.539499999999975,-0.3110665419244453,1.007770563394046,-1.2506593087478366
4.542999999999978,-0.4612730680095812,1.164370230529237,-1.2719645429269315
4.5464999999999804,-0.5603466829990393,1.2272212822228048,-1.2666377980498449
4.549999999999983,-0.6839212300279939,1.23361442327286,-1.2389411681499467
4.5534999999999854,-0.7627525163528218,1.2069806988874263,-1.21017814207708
4.556999999999988,-0.8692821779067996,1.1377365061438036,-1.164370230529237
4.560499999999991,-0.944917766371226,1.0791458031543542,-1.1260183655459135
4.563999999999993,-1.0429249851877154,1.0013791676732429,-1.0802104539980706
4.567499999999996,-1.1121691779313383,0.9577023031420846,-1.0471870792210858
4.570999999999998,-1.2091117459041114,0.9118943915942416,-0.996052422796156
4.5745000000000005,-1.2783559386477348,0.8916538082588632,-0.9662247458795729
4.577999999999975,-1.3603846681622165,0.8650218292026819,-0.912959042437958
4.581499999999977,-1.423237465185036,0.8511726415881068,-0.8810003185046897
4.58499999999998,-1.494610959616092,0.8181475214818701,-0.8256053133756417
4.588499999999982,-1.5414852673369035,0.7925801932694051,-0.7840577505319166
4.5919999999999845,-1.60114062117007,0.7627525163528222,-0.7318584432632703
4.595499999999987,-1.6469485327179132,0.7478386778945305,-0.6913772765925138
4.5989999999999895,-1.7129970276011346,0.732924839436239,-0.642373667184269
4.602499999999992,-1.7556092412885762,0.7403808860007587,-0.6018925005135125
4.6059999999999945,-1.8216577361717976,0.774470656950712,-0.547562146228181
4.609499999999997,-1.866400996875924,0.8181475214818701,-0.5092120265741096
4.613,-1.922860652848689,0.9012409018400682,-0.4623394641825499
4.616499999999974,-1.9601461216590432,0.9704850945836913,-0.4325100419367148
4.619999999999976,-1.9899755439048783,1.0716880112605824,-0.4005513180034466
4.623499999999979,-1.9942358926089967,1.1388029023167725,-0.3792460838243518
4.626999999999981,-1.984648799027792,1.209111745904112,-0.3590055004889736
4.630499999999984,-1.9548193767819568,1.2602464023290418,-0.3547434064556034
4.633999999999986,-1.891966579759137,1.3284259442289483,-0.3515477085952018
4.637499999999989,-1.826984481048884,1.3806252514975947,-0.3547434064556034
4.640999999999991,-1.7108677259137013,1.4551961891183045,-0.3622011983493752
4.644499999999994,-1.6054027152034398,1.502068751509864,-0.3675279432264619
4.647999999999996,-1.438151303643327,1.5425499181806206,-0.3898978282492732
4.651499999999999,-1.2964672202956795,1.553203407934794,-0.4080091098972184
4.654999999999973,-1.085537198875157,1.548941313901424,-0.4367721359700849
4.658499999999975,-0.9076322975608708,1.5308317775827307,-0.4655351620429515
4.661999999999978,-0.6583539018155289,1.4978066574764937,-0.503885281697023
4.66549999999998,-0.4665998128866679,1.4775660741411154,-0.5326483077698895
4.668999999999983,-0.2024058333537822,1.4413470015037293,-0.5560845889656694
4.672499999999985,-0.006391395720803,1.4285624647328707,-0.5699337765802444
4.675999999999988,0.2535404897787124,1.4168443241349806,-0.5763251723010476
4.67949999999999,0.4378367868138016,1.421106418168351,-0.5741958706136145
4.682999999999993,0.6700720424134192,1.4360202566266425,-0.5464974953844645
4.686499999999995,0.8234742663589568,1.4583918869787058,-0.5134723752782278
4.689999999999998,0.9981834698128412,1.5020687515098636,-0.4538170214450616
4.6935,1.120691620668827,1.547876663057707,-0.4005513180034466
4.696999999999974,1.243201516854065,1.6203165536617314,-0.3206536355056502
4.700499999999977,1.3177724544747749,1.6757115587907796,-0.2535404897787122
4.703999999999979,1.3902123450787995,1.7524135434281745,-0.1619246666830259
4.707499999999982,1.4200400219953826,1.8088749447301908,-0.1012029166768912
4.710999999999984,1.4456073502078477,1.8834458823509008,-0.0213052341790947
4.714499999999987,1.4424116523474455,1.9324494917591453,0.0223716303520633
4.717999999999989,1.4232374651850364,1.991040194748595,0.0681795418999064
4.721499999999992,1.3955390899558862,2.0293903144026664,0.0809623333415129
4.724999999999994,1.3401440848268382,2.070937877246392,0.0809623333415129
4.728499999999997,1.2890094284019082,2.09117846058177,0.0660484948832214
4.731999999999999,1.2069806988874268,2.106092299040061,0.0191759324916617
4.735499999999973,1.1388029023167725,2.121006137498353,-0.0330233747769847
4.738999999999976,1.0397292873273145,2.136986372129613,-0.136357338470561
4.742499999999978,0.9545066052816832,2.150833814414936,-0.2279731615662473
4.745999999999981,0.8330613599401616,2.1806632366607714,-0.369657244913895
4.749499999999983,0.7382515843133256,2.2030348670128346,-0.4783179534845579
4.752999999999986,0.5976321518093946,2.236058241789819,-0.6274598287259775
4.756499999999988,0.4900360940824482,2.256298825125197,-0.7329248394362388
4.759999999999991,0.3408942188410287,2.2786704554772608,-0.861824386013028
4.763499999999993,0.2205171150017278,2.2935842939355524,-0.9459841625441944
4.766999999999996,0.0511346564249301,2.298911038812639,-1.0482517300648024
4.770499999999998,-0.0862890782185993,2.285061851198064,-1.122822667685512
4.7739999999999725,-0.281238865007862,2.241384986666906,-1.2112427929207967
4.777499999999975,-0.4431635316908879,2.1998374238231806,-1.267704194222813
4.7809999999999775,-0.6722030894301039,2.1252682315317237,-1.3167078036310582
4.78449999999998,-0.854368339448508,2.065611132369305,-1.3230991993518617
4.787999999999983,-1.1025820843501335,2.0006272883298,-1.286878381385223
4.791499999999985,-1.2985965219831128,1.9867781007152252,-1.22935232923949
4.794999999999988,-1.5627905015159984,2.0166075229610603,-1.1121691779313387
4.79849999999999,-1.7620006370093793,2.074133575106793,-0.9885963762316362
4.8019999999999925,-2.0219342678381462,2.1827925383482047,-0.7851241467048852
4.805499999999995,-2.212621960594039,2.280801502493946,-0.6200020368322057
4.8089999999999975,-2.434203726439484,2.4160941901207904,-0.4058780628805333
4.8125,-2.5833456016809024,2.516230710624713,-0.2503447919183106
4.815999999999974,-2.7474013153806136,2.6525897944245265,-0.0884201252352847
4.819499999999977,-2.8422128363367016,2.775097945280512,0.0
4.822999999999979,-2.9391536589802225,2.9487424978906804,0.0798976824977964
4.826499999999982,-2.984961570528065,3.0733816957633517,0.1086607085706629
4.829999999999984,-3.0030728521760106,3.2097390342339125,0.083093380358198
4.833499999999987,-2.996679711125956,3.2736582274297006,0.0234362811957798
4.836999999999989,-2.9743098261031444,3.29283241459211,-0.1278348957330726
4.840499999999992,-2.9508717995781124,3.272591831256732,-0.286565609884949
4.843999999999994,-2.938089008136506,3.2140011282672822,-0.5273215628928027
4.847499999999997,-2.9487424978906795,3.147952633384061,-0.7105532090841755
4.850999999999999,-2.9860279667010343,3.0520764615842566,-0.940657417667108
4.854499999999973,-3.043554018846767,2.970047732069775,-1.0919285945959605
4.857999999999976,-3.1426258885069736,2.8656491175324823,-1.261311053172758
4.861499999999978,-3.2395684564797462,2.781491086330568,-1.351862225424728
4.864999999999981,-3.3759257949503074,2.656850143128645,-1.4477383972245323
4.868499999999983,-3.483520107348002,2.546060132870549,-1.502068751509864
4.871999999999986,-3.6017696548291216,2.369219882399979,-1.5159179391244388
4.875499999999988,-3.666751753539375,2.2222090541752446,-1.490350610911974
4.878999999999991,-3.695514779612241,2.033652408436037,-1.4040615326933743
4.882499999999993,-3.677405243293548,1.9100778614070828,-1.3156414074580896
4.885999999999996,-3.562353139002082,1.7886343613948132,-1.1718262770937566
4.889499999999998,-3.4238647535148363,1.740695402830285,-1.0493181262377709
4.893000000000001,-3.156475076121549,1.7119323767574186,-0.8863270633817765
4.896499999999975,-2.901868190169868,1.7034099340199302,-0.7627525163528219
4.899999999999977,-2.4885340807248157,1.6842340015282682,-0.6072192453905992
4.90349999999998,-2.144442418694133,1.6437528348575117,-0.4942981881158181
4.906999999999982,-1.6341657412763064,1.5425499181806206,-0.3504830577514853
4.910499999999985,-1.2400058189936631,1.4296288609058394,-0.2322352555996175
4.913999999999987,-0.7126842561008604,1.2602464023290416,-0.0788312863248278
4.91749999999999,-0.3334381722765085,1.130280459579284,0.0266319790561814
4.920999999999992,0.1320969897664429,0.9779428864774626,0.1576643179789077
4.924499999999995,0.4442281825346048,0.8746089227838865,0.2354309534600191
4.927999999999997,0.8032336830235784,0.7478386778945302,0.3131975889411305
4.9315,1.0258800997127389,0.646635761217639,0.3440916620306821
4.934999999999974,1.2602464023290416,0.5113430735907946,0.3547434064556034
4.938499999999976,1.3870166472183978,0.4122694586013364,0.3526141047681703
4.941999999999979,1.482892819018202,0.2705853752536887,0.316393286801532
4.945499999999981,1.5052644493702656,0.1651203645434273,0.2716500260974054
4.948999999999984,1.4520004912579023,0.0266319790561813,0.2013411825100658
4.952499999999986,1.3646450168663344,-0.0628527970228199,0.1289012919060412
4.955999999999989,1.1696952300770718,-0.1715135055934829,0.0117181405978899
4.959499999999991,0.9758118394607777,-0.2492801410745942,-0.0948115209560879
4.962999999999994,0.6572875056425604,-0.3526141047681704,-0.2439533961975074
4.966499999999996,0.3771150368076667,-0.4431635316908883,-0.3440916620306821
4.969999999999999,-0.025567328212465,-0.5688691257365278,-0.4570127193054631
4.973499999999973,-0.3430252658577136,-0.6690056462404504,-0.5102766774178261
4.976999999999975,-0.776601703967397,-0.7872551937215702,-0.547562146228181
4.980499999999978,-1.0866035950481256,-0.8628907821859964,-0.5518242402615512
4.9839999999999804,-1.4828928190182022,-0.949179860404596,-0.5251905158761178
4.987499999999983,-1.7715894759198365,-1.0152283552878174,-0.4900360940824479
4.9909999999999854,-2.127397533219156,-1.0897992929085272,-0.3952245731263599
4.994499999999988,-2.37667767429375,-1.140932204004205,-0.2801724688348938
4.997999999999991,-2.6696346798995023,-1.2069806988874263,-0.0681795418999064
5.001499999999993,-2.848604232057505,-1.277291287804018,0.1225098961852379
5.004999999999996,-3.022247039338421,-1.4349556057829254,0.3930952714389268
5.008499999999998,-3.091491232082044,-1.607533762220125,0.5933700577760241
5.0120000000000005,-3.0712506487466658,-1.924991699865373,0.8437148496943347
5.015499999999975,-2.9689830812260585,-2.2360582417898187,1.0205551001649042
5.018999999999977,-2.7239650341848343,-2.716507242291061,1.2432015168540649
5.02249999999998,-2.466162450372752,-3.08936193039461,1.4040615326933743
5.025999999999982,-2.0517619447547304,-3.57833162830409,1.5947492254492668
5.0294999999999845,-1.694887491282442,-3.912836196753567,1.730041913076111
5.032999999999987,-1.1963289544625058,-4.311256467740328,1.8791837883175309
5.0364999999999895,-0.8234742663589572,-4.57331940025653,1.9676039135528156
5.039999999999992,-0.4761869064678735,-4.813012447749919,2.04004380415684
5.0434999999999945,-0.0724398906040252,-5.092120265741096,2.09117846058177
5.046999999999997,0.2279731615662466,-5.349921104223927,2.093307762269203
5.0505,0.3739193389472645,-5.531021703398614,2.0666757832130216
5.053999999999974,0.4591437663221475,-5.738754281629483,2.0016936845027686
5.057499999999976,0.4346410889533991,-5.863395224831406,1.9249916998653736
5.060999999999979,0.2897613077453498,-5.960336047474927,1.8131352934343088
5.064499999999981,0.1129210572747804,-5.977380932949904,1.7129970276011346
5.067999999999984,-0.1928187397725782,-5.925181625681258,1.575575038286857
5.071499999999986,-0.4602084171658655,-5.831434755568886,1.4935463087723757
5.074999999999989,-0.8511726415881072,-5.676967880779632,1.3784942044809092
5.078499999999991,-1.1622391835125525,-5.549131239717307,1.247461865558183
5.081999999999994,-1.4828928190182027,-5.401055760648856,1.1185623189813938
5.085499999999996,-1.90368646568628,-5.190125739228334,0.933199625773336
5.088999999999999,-2.292519643091836,-4.970675020399574,0.7414472821737271
5.092499999999973,-2.5588429243121547,-4.79277186441454,0.5986968026531109
5.095999999999975,-2.7910781799117723,-4.609540218223168,0.4570127193054631
5.099499999999978,-3.039291924813398,-4.345346238690282,0.2727164222703739
5.10299999999998,-3.2182614769714006,-4.069434118559506,0.0937468701123714
5.106499999999983,-3.302421253502567,-3.856374795451551,-0.0308940730895516
5.109999999999985,-3.3439670710170404,-3.656098263785201,-0.1459461773810178
5.113499999999988,-3.352489513754528,-3.392970680425284,-0.2684543282370038
5.11699999999999,-3.3013548573295983,-3.157539726965265,-0.3579391043160051
5.120499999999993,-3.232110664585975,-2.9924193624218374,-0.4058780628805333
5.123999999999995,-3.0978843731320995,-2.78788248205137,-0.4431635316908882
5.127499999999998,-2.9785701748072637,-2.6525897944245256,-0.4676662090596366
5.131,-2.832623997426245,-2.538602340976776,-0.4815136513449596
5.134499999999974,-2.6078465337204,-2.4097010490707347,-0.492167141099133
5.137999999999977,-2.4288769815623974,-2.3340654606063085,-0.5006895838366213
5.141499999999979,-2.1668140490461965,-2.252038476421079,-0.5113430735907947
5.144999999999982,-1.9793220541507055,-2.207295215716952,-0.517734469311598
5.148499999999984,-1.7343040071094815,-2.1785321896440863,-0.5134723752782278
5.151999999999987,-1.5563991057951956,-2.1753364917836846,-0.4942981881158181
5.155499999999989,-1.33162164208935,-2.192381377258661,-0.4570127193054631
5.158999999999992,-1.1686305792333551,-2.2158176584544407,-0.4101401569139035
5.162499999999994,-0.961962651846203,-2.2680169657230875,-0.3398295679973119
5.165999999999997,-0.8192139176548388,-2.3159559242876155,-0.2844345628682639
5.169499999999999,-0.6263951778822613,-2.3926561635957584,-0.2119946722642392
5.172999999999973,-0.4751222556241566,-2.457640007635263,-0.1597953649955928
5.176499999999976,-0.2652586303766025,-2.538602340976776,-0.0884201252352847
5.179999999999978,-0.0937468701123717,-2.596128393122509,-0.0362208179666383
5.183499999999981,0.1459461773810175,-2.670699330743219,0.0245026773687483
5.186999999999983,0.3408942188410281,-2.727160732045236,0.0649838440395048
5.190499999999986,0.6178727351447723,-2.8017316696659456,0.1054650107102613
5.193999999999988,0.8341277561131297,-2.866713768376198,0.1289012919060412
5.197499999999991,1.126018365545913,-2.9455468000302782,0.1480754790684509
5.200999999999993,1.3539915271121603,-3.0115952949135,0.1608600158393093
5.204499999999996,1.641621787840826,-3.1085361175570205,0.1789695521580025
5.207999999999998,1.8493561114009471,-3.1809760081610454,0.1981454846496642
5.2114999999999725,2.1135483456045807,-3.2715271804130155,0.2290395577392158
5.214999999999975,2.2957153409522366,-3.3365092791232684,0.2556715367953973
5.2184999999999775,2.510905711076877,-3.413211263760663,0.2918906094327836
5.22199999999998,2.65045874740784,-3.4643459201855933,0.3206536355056502
5.225499999999983,2.815579111951268,-3.524003019348012,0.3632658491930918
5.228999999999985,2.9135863307677576,-3.5644841860187677,0.3877685265618402
5.232499999999988,3.016920294461334,-3.603898956516556,0.4261186462159115
5.23599999999999,3.074446346607067,-3.6273369830415874,0.4506213235846599
5.2394999999999925,3.12451635218828,-3.651837915081084,0.4857757453783297
5.242999999999995,3.14369053935069,-3.6795362903102338,0.5134723752782278
5.2464999999999975,3.134103445769485,-3.7136260612601872,0.5518242402615512
5.25,3.1074714667133034,-3.754107227930944,0.5795208701614492
5.253499999999974,3.0574014611320903,-3.822285024501598,0.6157416881280875
5.256999999999977,3.009464247896814,-3.8691575868931576,0.6327865736030641
5.260499999999979,2.918913075644844,-3.924554337351458,0.6455693650446706
5.263999999999982,2.845408534197103,-3.9554466651117575,0.6370469223071823
5.267499999999984,2.72502968502855,-3.982080389497191,0.6370469223071823
5.270999999999987,2.6195646743182888,-3.992733879251364,0.6253287817092923
5.274499999999989,2.4682934973894364,-3.986340738201309,0.5550199381219528
5.277999999999992,2.3457836012041984,-3.9884717852179934,0.4985585368199362
5.281499999999994,2.1721407939232824,-3.9895364360617114,0.4175962034784233
5.284999999999997,2.029390314402666,-3.978884691636789,0.3355692192931938
5.288499999999999,1.833375876769687,-3.95118631640764,0.2141239739516723
5.291999999999973,1.672515860930378,-3.9234879411784886,0.1320969897664428
5.295499999999976,1.4562608399620205,-3.867028285205724,0.0191759324916617
5.298999999999978,1.285813730541506,-3.819089326641196,-0.069244192743623
5.302499999999981,1.062100917679377,-3.756236529618376,-0.166186760716396
5.305999999999983,0.8916538082588626,-3.7093639672268166,-0.2407576983371057
5.309499999999986,0.6658099483800484,-3.64544651936028,-0.341960615013997
5.312999999999988,0.4900360940824474,-3.6028343056728387,-0.4069427137242498
5.316499999999991,0.2556715367953969,-3.537850461633334,-0.5060163287137079
5.319999999999993,0.0862890782185992,-3.479259758643884,-0.5912390107593392
5.323499999999996,-0.1459461773810182,-3.38338358684408,-0.6753987872905056
5.326999999999998,-0.3291760782431389,-3.3002902064858817,-0.7244023966987505
5.330500000000001,-0.5646070317031581,-3.188433800054817,-0.7723396099340267
5.333999999999975,-0.7393162351570423,-3.101080070992501,-0.7947112402860901
5.337499999999977,-0.9545066052816832,-2.987092617544751,-0.8117561257610666
5.34099999999998,-1.1036484805231028,-2.9050656333595217,-0.8096250787443816
5.344499999999982,-1.2740955899436168,-2.791078179911772,-0.8032336830235783
5.347999999999985,-1.3923433920954846,-2.666438982039101,-0.820278568498555
5.351499999999987,-1.5404188711639355,-2.453379658931145,-0.8671511308901148
5.35499999999999,-1.6352303921200235,-2.3095645285668125,-0.8991098548233829
5.358499999999992,-1.74282644984697,-2.1519002105879044,-0.9257435792088164
5.361999999999995,-1.8067438977135064,-2.0251299656985484,-0.952375558264998
5.365499999999997,-1.879183788317531,-1.8909019289154203,-0.9758118394607777
5.369,-1.912207163094516,-1.813135293434309,-0.9885963762316362
5.372499999999974,-1.9324494917591457,-1.7268462152157094,-0.9949877719524394
5.375999999999976,-1.9473633302174371,-1.6288389963992196,-1.0152283552878176
5.379499999999979,-1.9633418195194456,-1.4093882775704607,-1.043991381360684
5.382999999999981,-1.9793220541507055,-1.2410704698373796,-1.0855371988751572
5.386499999999984,-1.989975543904879,-1.006705912550329,-1.1398675531604887
5.389999999999986,-1.994235892608997,-0.8298656620797596,-1.1856754647083318
5.393499999999989,-1.9761263562903035,-0.595501104792709,-1.235743724960293
5.396999999999991,-1.9537547259382404,-0.4229229483555097,-1.259181751485325
5.400499999999994,-1.885575184038334,-0.2130593231079555,-1.289009428401908
5.403999999999996,-1.8152663404509943,-0.0596570991624179,-1.2975318711393966
5.407499999999999,-1.6895607464053546,0.1427504795206164,-1.298596521983113
5.410999999999973,-1.563855152359715,0.2993484013265556,-1.3049879177039163
5.414499999999975,-1.369971761743421,0.5049499325407397,-1.3188371053184913
5.417999999999978,-1.201655699339592,0.6455693650446707,-1.324163850195578
5.4214999999999804,-0.9662247458795726,0.81814752148187,-1.3369483869664365
5.424999999999983,-0.7861887975486016,0.9491798604045965,-1.353991527112161
5.4284999999999854,-0.5560845889656693,1.108973480070937,-1.3529268762684443
5.431999999999988,-0.3952245731263598,1.22935232923949,-1.3390776886538696
5.435499999999991,-0.2024058333537822,1.409388277570461,-1.2943361732789946
5.438999999999993,-0.0798976824977962,1.5468120122139906,-1.25705070446864
5.442499999999996,0.0543303542853316,1.7620006370093797,-1.1899375587417018
5.445999999999998,0.129965942749758,1.9377744913069803,-1.1270847617188822
5.4495000000000005,0.1960144376329794,2.201968470839866,-1.022684401852337
5.452999999999975,0.2087989744038379,2.4182234918082237,-0.9278728808962494
5.456499999999977,0.1842962970350895,2.739943523486842,-0.7915155424256883
5.45999999999998,0.127834895733073,3.008397851723846,-0.6849858808717105
5.463499999999982,0.0266319790561818,3.386579284704481,-0.5305172607532044
5.4669999999999845,-0.0745709376207092,3.6731431492601785,-0.4080091098972184
5.470499999999987,-0.2247774637058452,4.054520280101215,-0.2492801410745941
5.4739999999999895,-0.3334381722765081,4.338954842969479,-0.1448797812080492
5.477499999999992,-0.4697955107470691,4.689437900720964,-0.0255673282124649
5.4809999999999945,-0.5518242402615506,4.930193853728818,0.0330233747769847
5.484499999999997,-0.6423736671842684,5.214628416597082,0.0681795418999064
5.488,-0.6945729744529148,5.414904948263431,0.0500682602519613
5.491499999999974,-0.742511933017443,5.653531599583852,-0.0042603487041181
5.494999999999976,-0.7670146103861913,5.807998474373106,-0.0660484948832214
5.498499999999979,-0.7861887975486009,5.975249885933219,-0.1629910628559944
5.501999999999981,-0.788319844565286,6.077519198783079,-0.2311688594266489
5.505499999999984,-0.774470656950711,6.182984209493339,-0.314262239784847
5.508999999999986,-0.7574257714757344,6.247966308203593,-0.3504830577514853
5.512499999999989,-0.7457076308778445,6.348104574036768,-0.3398295679973119
5.515999999999991,-0.760621469336136,6.418413417624107,-0.2854992137119804
5.519499999999994,-0.8309320582527275,6.503637844998989,-0.1459461773810178
5.522999999999996,-0.9417220685108236,6.571817386898896,-0.002131047016685
5.526499999999999,-1.157977089479181,6.6293434390446295,0.2258421145495622
5.529999999999973,-1.3880812980621131,6.622950297994575,0.3994866671597301
