time,Gyr_X,Gyr_Y,Gyr_Z
0.0,0.0500682602519613,-0.0085224427374883,0.0106534897541733
0.0035000000000025,0.0287630260728665,-0.0191759324916617,0.0074577918937717
0.0069999999999978,0.0095870935812048,-0.0255673282124649,0.002131047016685
0.0105000000000003,0.0181095363186931,-0.0202405833353782,-0.0031956978604016
0.0140000000000028,0.0287630260728665,-0.0085224427374883,0.0042603487041181
0.0174999999999982,0.0245026773687483,-0.0053267448770866,0.002131047016685
0.0210000000000007,0.0170448854749766,0.0063913957208032,0.0
0.0244999999999961,0.0042603487041181,0.0127827914416064,0.002131047016685
0.0279999999999986,-0.0085224427374883,0.01598023463126,0.002131047016685
0.0315000000000011,-0.0106534897541733,0.01598023463126,-0.0010646508437165
0.0349999999999965,-0.0213052341790947,0.0117181405978899,-0.0010646508437165
0.038499999999999,-0.0181095363186931,0.0191759324916617,0.0
0.0420000000000015,-0.0106534897541733,0.0181095363186931,0.0010646508437165
0.0454999999999969,-0.0095870935812048,0.01598023463126,0.002131047016685
0.0489999999999994,-0.0106534897541733,0.0117181405978899,0.0010646508437165
0.0525000000000019,-0.0170448854749766,0.0,0.0
0.0559999999999973,-0.0319587239332681,-0.0010646508437165,0.0053267448770866
0.0594999999999998,-0.029827676916583,0.002131047016685,0.002131047016685
0.0630000000000023,-0.02769837522915,-0.002131047016685,-0.002131047016685
0.0664999999999977,-0.0213052341790947,-0.0063913957208032,0.0010646508437165
0.0700000000000002,-0.002131047016685,-0.002131047016685,-0.0010646508437165
0.0735000000000027,0.002131047016685,0.0010646508437165,0.0010646508437165
0.0769999999999981,0.002131047016685,0.002131047016685,0.0042603487041181
0.0805000000000006,-0.0031956978604016,0.0,0.0
0.083999999999996,-0.002131047016685,-0.0031956978604016,0.002131047016685
0.0874999999999985,-0.0010646508437165,-0.002131047016685,0.0
0.091000000000001,-0.0010646508437165,0.0010646508437165,0.002131047016685
0.0944999999999964,0.0063913957208032,-0.0010646508437165,0.0031956978604016
0.0979999999999989,0.0,0.002131047016685,0.0063913957208032
0.1015000000000014,0.002131047016685,0.0053267448770866,-0.002131047016685
0.1049999999999968,-0.0053267448770866,0.0042603487041181,0.0031956978604016
0.1084999999999993,-0.002131047016685,0.0031956978604016,0.0063913957208032
0.1120000000000018,0.0010646508437165,-0.0010646508437165,0.0031956978604016
0.1154999999999972,0.0063913957208032,-0.0095870935812048,0.0095870935812048
0.1189999999999997,0.0202405833353782,-0.0149138384582915,0.0085224427374883
0.1225000000000022,0.0245026773687483,-0.0202405833353782,0.0085224427374883
0.1259999999999976,0.0340897709499532,-0.01598023463126,0.0031956978604016
0.1295000000000001,0.041545817514473,-0.0245026773687483,0.002131047016685
0.1330000000000026,0.0287630260728665,-0.0117181405978899,0.0
0.136499999999998,0.0202405833353782,-0.0042603487041181,0.0
0.1400000000000005,0.0202405833353782,0.0042603487041181,0.0042603487041181
0.1434999999999959,0.013849187614575,0.013849187614575,0.0042603487041181
0.1469999999999984,-0.0010646508437165,0.0255673282124649,0.0
0.1505000000000009,-0.01598023463126,0.0245026773687483,0.002131047016685
0.1539999999999963,-0.0223716303520633,0.0319587239332681,-0.0010646508437165
0.1574999999999988,-0.0213052341790947,0.0447432607041266,0.0
0.1610000000000013,-0.0404811666707564,0.0223716303520633,-0.0031956978604016
0.1644999999999967,-0.0596570991624181,0.0426122136874415,-0.0053267448770866
0.1679999999999992,-0.0394165158270399,0.0500682602519613,0.0
0.1715000000000017,-0.0351544217936697,0.0308940730895516,0.0031956978604016
0.1749999999999971,-0.0543303542853314,0.0191759324916617,0.0031956978604016
0.1784999999999996,-0.0500682602519613,0.0117181405978899,-0.0074577918937717
0.1820000000000021,-0.0362208179666383,0.0223716303520633,-0.002131047016685
0.1854999999999975,-0.0223716303520633,0.0223716303520633,-0.0053267448770866
0.189,-0.0127827914416064,0.0127827914416064,0.0010646508437165
0.1925000000000025,-0.0127827914416064,0.0127827914416064,0.002131047016685
0.1959999999999979,-0.0127827914416064,0.013849187614575,0.0031956978604016
0.1995000000000004,-0.0117181405978899,0.01598023463126,0.002131047016685
0.2029999999999958,-0.0149138384582915,0.0170448854749766,0.0
0.2064999999999983,-0.0149138384582915,0.01598023463126,0.0010646508437165
0.2100000000000008,-0.0074577918937717,0.0095870935812048,0.0095870935812048
0.2134999999999962,0.0,0.0085224427374883,0.0074577918937717
0.2169999999999987,0.0074577918937717,-0.0010646508437165,0.0010646508437165
0.2205000000000012,0.0085224427374883,-0.002131047016685,-0.0031956978604016
0.2239999999999966,-0.0010646508437165,0.0,0.0
0.2274999999999991,-0.0095870935812048,0.0010646508437165,0.0010646508437165
0.2310000000000016,-0.0234362811957798,0.0042603487041181,0.0
0.234499999999997,-0.0202405833353782,0.0085224427374883,0.0
0.2379999999999995,-0.0127827914416064,0.0127827914416064,0.0010646508437165
0.241500000000002,-0.002131047016685,0.0170448854749766,0.0053267448770866
0.2449999999999974,-0.0063913957208032,0.01598023463126,0.0063913957208032
0.2484999999999999,-0.0085224427374883,0.0127827914416064,0.0063913957208032
0.2520000000000024,0.0106534897541733,0.002131047016685,0.0095870935812048
0.2554999999999978,0.02769837522915,0.0053267448770866,0.0095870935812048
0.2590000000000003,0.0287630260728665,0.0,0.0042603487041181
0.2625000000000028,0.0308940730895516,-0.0053267448770866,0.0010646508437165
0.2659999999999982,0.0223716303520633,-0.0053267448770866,0.0
0.2695000000000007,0.0127827914416064,-0.0127827914416064,0.0031956978604016
0.2729999999999961,-0.0053267448770866,-0.0010646508437165,0.0
0.2764999999999986,-0.0170448854749766,-0.0042603487041181,0.0
0.2800000000000011,-0.01598023463126,0.0042603487041181,0.0010646508437165
0.2834999999999965,-0.0149138384582915,0.0085224427374883,0.0053267448770866
0.286999999999999,-0.0149138384582915,0.002131047016685,0.0085224427374883
0.2905000000000015,-0.0085224427374883,-0.0042603487041181,0.0053267448770866
0.2939999999999969,0.0053267448770866,-0.0042603487041181,0.0074577918937717
0.2974999999999994,0.0106534897541733,-0.0074577918937717,0.0053267448770866
0.3010000000000019,0.02769837522915,-0.0053267448770866,0.0053267448770866
0.3044999999999973,0.0330233747769847,-0.002131047016685,0.0053267448770866
0.3079999999999998,0.0330233747769847,0.0010646508437165,0.0074577918937717
0.3115000000000023,0.0308940730895516,0.0117181405978899,0.0085224427374883
0.3149999999999977,0.0213052341790947,0.0191759324916617,0.0074577918937717
0.3185000000000002,0.0095870935812048,0.0234362811957798,0.0127827914416064
0.3220000000000027,0.013849187614575,0.029827676916583,0.01598023463126
0.3254999999999981,-0.0106534897541733,0.0053267448770866,0.0223716303520633
0.3290000000000006,-0.0053267448770866,0.002131047016685,0.0213052341790947
0.332499999999996,0.0213052341790947,0.013849187614575,0.0053267448770866
0.3359999999999985,0.013849187614575,0.0117181405978899,-0.002131047016685
0.339500000000001,0.0010646508437165,0.0149138384582915,-0.0074577918937717
0.3429999999999964,0.0010646508437165,0.0010646508437165,-0.0010646508437165
0.3464999999999989,-0.0031956978604016,0.0,0.0031956978604016
0.3500000000000014,-0.0149138384582915,0.0127827914416064,0.0010646508437165
0.3534999999999968,-0.0127827914416064,0.0191759324916617,0.0
0.3569999999999993,-0.0127827914416064,0.0266319790561814,0.0031956978604016
0.3605000000000018,-0.0106534897541733,0.0308940730895516,-0.0063913957208032
0.3639999999999972,-0.0223716303520633,0.0245026773687483,0.0010646508437165
0.3674999999999997,-0.0191759324916617,0.02769837522915,0.0010646508437165
0.3710000000000022,-0.0042603487041181,0.0234362811957798,0.0010646508437165
0.3744999999999976,0.0149138384582915,0.0181095363186931,0.0031956978604016
0.3780000000000001,0.0213052341790947,0.0191759324916617,-0.002131047016685
0.3815000000000026,0.0213052341790947,0.0213052341790947,-0.0010646508437165
0.384999999999998,0.0234362811957798,0.013849187614575,0.0
0.3885000000000005,0.0117181405978899,0.013849187614575,0.0063913957208032
0.3919999999999959,-0.0031956978604016,0.0117181405978899,-0.0031956978604016
0.3954999999999984,-0.0010646508437165,0.0053267448770866,-0.0031956978604016
0.3990000000000009,-0.0127827914416064,-0.002131047016685,0.0
0.4024999999999963,-0.0213052341790947,-0.0085224427374883,-0.0031956978604016
0.4059999999999988,-0.029827676916583,-0.0074577918937717,-0.0106534897541733
0.4095000000000013,-0.0266319790561814,-0.0127827914416064,-0.0191759324916617
0.4129999999999967,-0.0191759324916617,-0.0213052341790947,-0.01598023463126
0.4164999999999992,-0.0095870935812048,-0.0319587239332681,-0.0127827914416064
0.4200000000000017,-0.0042603487041181,-0.0372854688103548,-0.0042603487041181
0.4234999999999971,-0.0042603487041181,-0.0372854688103548,-0.0042603487041181
0.4269999999999996,-0.002131047016685,-0.0319587239332681,-0.0053267448770866
0.4305000000000021,0.0106534897541733,-0.0340897709499532,0.002131047016685
0.4339999999999975,0.0170448854749766,-0.029827676916583,0.0031956978604016
0.4375,0.0127827914416064,-0.02769837522915,0.0063913957208032
0.4410000000000025,0.0223716303520633,-0.02769837522915,0.0074577918937717
0.4444999999999979,0.029827676916583,-0.0213052341790947,0.0010646508437165
0.4480000000000004,0.0149138384582915,-0.013849187614575,-0.0053267448770866
0.4515000000000029,0.0255673282124649,-0.0149138384582915,0.0
0.4549999999999983,0.0511346564249298,-0.0031956978604016,0.0202405833353782
0.4585000000000008,0.0266319790561814,0.0053267448770866,0.0074577918937717
0.4619999999999962,0.0063913957208032,0.0127827914416064,0.0
0.4654999999999987,0.0202405833353782,0.0170448854749766,0.0
0.4690000000000012,0.029827676916583,0.029827676916583,0.0117181405978899
0.4724999999999966,0.0074577918937717,0.0319587239332681,0.0095870935812048
0.4759999999999991,-0.002131047016685,0.0383501196540714,-0.0010646508437165
0.4795000000000016,0.0149138384582915,0.0319587239332681,-0.0010646508437165
0.482999999999997,0.01598023463126,0.0372854688103548,0.0031956978604016
0.4864999999999995,-0.0191759324916617,0.0266319790561814,0.0010646508437165
0.490000000000002,-0.0319587239332681,0.0213052341790947,0.0042603487041181
0.4934999999999974,-0.0170448854749766,0.0181095363186931,0.0053267448770866
0.4969999999999999,0.0095870935812048,0.0106534897541733,0.0074577918937717
0.5005000000000024,0.0074577918937717,0.0,0.0063913957208032
0.5039999999999978,-0.0202405833353782,-0.0085224427374883,-0.0010646508437165
0.5075000000000003,-0.0340897709499532,-0.0117181405978899,-0.0063913957208032
0.5110000000000028,-0.0383501196540714,0.0,-0.0074577918937717
0.5144999999999982,-0.0351544217936697,0.0,-0.0074577918937717
0.5180000000000007,-0.0394165158270399,0.0031956978604016,-0.0085224427374883
0.5214999999999961,-0.0436768645311581,0.0074577918937717,-0.0085224427374883
0.5249999999999986,-0.0404811666707564,0.0063913957208032,-0.0063913957208032
0.5285000000000011,-0.0394165158270399,0.0042603487041181,-0.0053267448770866
0.5319999999999965,-0.01598023463126,-0.01598023463126,0.0
0.535499999999999,0.0106534897541733,-0.0266319790561814,0.0010646508437165
0.5390000000000015,0.0287630260728665,-0.029827676916583,0.0
0.5424999999999969,0.0383501196540714,-0.0308940730895516,-0.0042603487041181
0.5459999999999994,0.0436768645311581,-0.02769837522915,-0.0010646508437165
0.5495000000000019,0.0351544217936697,-0.0181095363186931,0.002131047016685
0.5529999999999973,0.0149138384582915,-0.0074577918937717,0.0031956978604016
0.5564999999999998,0.0117181405978899,0.0,0.0053267448770866
0.5600000000000023,0.0106534897541733,0.0117181405978899,0.0095870935812048
0.5634999999999977,0.0117181405978899,0.01598023463126,0.0106534897541733
0.5670000000000002,0.0063913957208032,0.0266319790561814,0.0095870935812048
0.5705000000000027,0.002131047016685,0.0330233747769847,0.0010646508437165
0.5739999999999981,0.0053267448770866,0.0308940730895516,0.0
0.5775000000000006,0.0010646508437165,0.0330233747769847,0.0010646508437165
0.580999999999996,-0.0074577918937717,0.0426122136874415,0.0
0.5844999999999985,-0.0063913957208032,0.0436768645311581,-0.002131047016685
0.588000000000001,-0.0042603487041181,0.0490036094082447,-0.002131047016685
0.5914999999999964,-0.01598023463126,0.0596570991624181,-0.0053267448770866
0.5949999999999989,-0.0340897709499532,0.0703088435873395,-0.0074577918937717
0.5985000000000014,-0.0447432607041266,0.0735062867769931,-0.0085224427374883
0.6019999999999968,-0.0532657034416149,0.0820287295144815,-0.0117181405978899
0.6054999999999993,-0.055395005129048,0.0852244273748831,-0.0127827914416064
0.6090000000000018,-0.055395005129048,0.0852244273748831,-0.0127827914416064
0.6124999999999972,-0.055395005129048,0.0852244273748831,-0.0127827914416064
0.6159999999999997,-0.055395005129048,0.0852244273748831,-0.0127827914416064
0.6195000000000022,-0.0383501196540714,0.1235745470289545,-0.0106534897541733
0.6229999999999976,-0.0330233747769847,0.1278348957330726,-0.0074577918937717
0.6265000000000001,-0.0351544217936697,0.1171831513081512,-0.0063913957208032
0.6300000000000026,-0.0426122136874415,0.1129210572747811,-0.0042603487041181
0.633499999999998,-0.02769837522915,0.1129210572747811,-0.0053267448770866
0.6370000000000005,0.002131047016685,0.1171831513081512,-0.0095870935812048
0.6404999999999959,0.0340897709499532,0.1214435000122694,-0.0074577918937717
0.6439999999999984,0.055395005129048,0.1331616406101593,0.0031956978604016
0.6475000000000009,0.0436768645311581,0.1331616406101593,0.0031956978604016
0.6509999999999962,0.0266319790561814,0.1331616406101593,0.0010646508437165
0.6544999999999987,0.0095870935812048,0.1406194325039311,-0.0074577918937717
0.6580000000000013,0.0085224427374883,0.1395530363309626,-0.0106534897541733
0.6614999999999966,0.01598023463126,0.1331616406101593,-0.002131047016685
0.6649999999999991,0.0234362811957798,0.1480754790684509,0.0074577918937717
0.6685000000000016,0.0074577918937717,0.1406194325039311,-0.0053267448770866
0.671999999999997,0.0149138384582915,0.1278348957330726,-0.0117181405978899
0.6754999999999995,0.0223716303520633,0.1342280367831279,-0.0170448854749766
0.679000000000002,0.0085224427374883,0.1331616406101593,-0.0245026773687483
0.6824999999999974,-0.0074577918937717,0.1235745470289545,-0.0223716303520633
0.6859999999999999,-0.0234362811957798,0.1182478021518678,-0.0255673282124649
0.6895000000000024,-0.0255673282124649,0.1225098961852379,-0.0255673282124649
0.6929999999999978,-0.0383501196540714,0.1289012919060412,-0.0287630260728665
0.6965000000000003,-0.0532657034416149,0.1352926876268444,-0.0266319790561814
0.7000000000000028,-0.0628527970228197,0.1480754790684509,-0.0255673282124649
0.7034999999999982,-0.0681795418999064,0.150206526085136,-0.0266319790561814
0.7070000000000007,-0.0745709376207097,0.166186760716396,-0.0234362811957798
0.7104999999999961,-0.0745709376207097,0.1683160624038291,-0.0149138384582915
0.7139999999999986,-0.0575260521457331,0.177904901314286,-0.013849187614575
0.7175000000000011,-0.0308940730895516,0.1832316461913727,-0.0063913957208032
0.7209999999999965,-0.0202405833353782,0.1938833906162941,0.0
0.724499999999999,-0.0330233747769847,0.191754088928861,-0.0010646508437165
0.7280000000000015,-0.0575260521457331,0.1864273440517743,-0.0053267448770866
0.7314999999999969,-0.0458079115478431,0.180035948330971,-0.0010646508437165
0.7349999999999994,-0.0042603487041181,0.1672514115601126,-0.002131047016685
0.7385000000000019,0.0074577918937717,0.1565979218059392,-0.0074577918937717
0.7419999999999973,0.0,0.1438151303643327,-0.0053267448770866
0.7454999999999998,-0.0031956978604016,0.1320969897664428,-0.0117181405978899
0.7490000000000023,-0.0053267448770866,0.1214435000122694,-0.0181095363186931
0.7524999999999977,-0.0149138384582915,0.1171831513081512,-0.0255673282124649
0.7560000000000002,-0.01598023463126,0.1097253594143795,-0.0287630260728665
0.7595000000000027,0.002131047016685,0.1075943123976944,-0.02769837522915
0.7629999999999981,0.0191759324916617,0.1129210572747811,-0.0255673282124649
0.7665000000000006,0.02769837522915,0.1193124529955843,-0.0181095363186931
0.769999999999996,0.0383501196540714,0.1352926876268444,-0.0202405833353782
0.7734999999999985,0.0532657034416149,0.1352926876268444,-0.0170448854749766
0.777000000000001,0.0245026773687483,0.1299659427497577,-0.0085224427374883
0.7804999999999964,0.0042603487041181,0.1225098961852379,-0.0095870935812048
0.7839999999999989,0.01598023463126,0.1203788491685528,0.0010646508437165
0.7875000000000014,0.0372854688103548,0.1278348957330726,0.0010646508437165
0.7909999999999968,0.0639174478665363,0.1289012919060412,-0.0053267448770866
0.7944999999999993,0.0767019846373948,0.1289012919060412,-0.0117181405978899
0.7980000000000018,0.0756355884644262,0.136357338470561,-0.0191759324916617
0.8014999999999972,0.0351544217936697,0.1416840833476476,-0.0223716303520633
0.8049999999999997,-0.0063913957208032,0.150206526085136,-0.0319587239332681
0.8085000000000022,-0.0031956978604016,0.1672514115601126,-0.0351544217936697
0.8119999999999976,-0.0106534897541733,0.1885583910684593,-0.0308940730895516
0.8155000000000001,-0.0319587239332681,0.1896230419121759,-0.0266319790561814
0.8190000000000026,-0.055395005129048,0.1960144376329791,-0.0191759324916617
0.822499999999998,-0.0404811666707564,0.1896230419121759,-0.013849187614575
0.8260000000000005,0.0,0.1842962970350892,-0.0127827914416064
0.8294999999999959,0.029827676916583,0.1864273440517743,-0.0106534897541733
0.8329999999999984,0.01598023463126,0.1789695521580025,-0.013849187614575
0.8365000000000009,0.002131047016685,0.177904901314286,-0.0223716303520633
0.8399999999999963,0.01598023463126,0.1725781564371993,-0.0245026773687483
0.8434999999999988,0.0394165158270399,0.1565979218059392,-0.0234362811957798
0.8470000000000013,0.0745709376207097,0.136357338470561,-0.0255673282124649
0.8504999999999967,0.1033339636935762,0.1278348957330726,-0.0181095363186931
0.8539999999999992,0.1736428072809158,0.0958761717998045,-0.0149138384582915
0.8575000000000017,0.2087989744038376,0.1054650107102613,-0.0042603487041181
0.8609999999999971,0.0511346564249298,0.0916158230956863,-0.0085224427374883
0.8644999999999996,-0.0372854688103548,0.0639174478665363,-0.0255673282124649
0.8680000000000021,-0.0042603487041181,0.0543303542853314,-0.0351544217936697
0.8714999999999975,0.0404811666707564,0.0521993072686464,-0.0394165158270399
0.875,0.0767019846373948,0.0660484948832214,-0.0255673282124649
0.8785000000000025,0.0767019846373948,0.0745709376207097,-0.0255673282124649
0.8819999999999979,0.0628527970228197,0.0660484948832214,-0.013849187614575
0.8855000000000004,0.0521993072686464,0.0468725623915597,-0.0191759324916617
0.8889999999999958,0.0372854688103548,0.0372854688103548,-0.0191759324916617
0.8924999999999983,0.0191759324916617,0.0191759324916617,-0.0223716303520633
0.8960000000000008,-0.0053267448770866,-0.0042603487041181,-0.0245026773687483
0.8994999999999962,0.0287630260728665,-0.0308940730895516,-0.0181095363186931
0.9029999999999988,0.029827676916583,-0.0521993072686464,0.0010646508437165
0.9065000000000012,0.0074577918937717,-0.0905494269227178,0.0127827914416064
0.9099999999999966,-0.0628527970228197,-0.1534022239455376,0.0191759324916617
0.9134999999999992,-0.0937468701123714,-0.1928187397725775,0.0255673282124649
0.9170000000000016,-0.1235745470289545,-0.2141239739516723,0.0362208179666383
0.920499999999997,-0.1395530363309626,-0.2439533961975074,0.02769837522915
0.9239999999999996,-0.1693824585767977,-0.2844345628682639,0.0191759324916617
0.927500000000002,-0.1864273440517743,-0.3057397970473587,0.01598023463126
0.9309999999999974,-0.1970790884766957,-0.3483520107348002,0.0053267448770866
0.9345,-0.2109282760912707,-0.3739193389472651,-0.0053267448770866
0.9380000000000024,-0.2162550209683574,-0.4122694586013365,-0.0255673282124649
0.9414999999999978,-0.219450718828759,-0.4378367868138015,-0.0340897709499532
0.9450000000000004,-0.2205171150017275,-0.4783179534845579,-0.041545817514473
0.9485000000000028,-0.2226464166891606,-0.5028206308533064,-0.0532657034416149
0.9519999999999982,-0.2215817658454441,-0.5358440056302911,-0.0617864008498512
0.9555000000000008,-0.2258421145495622,-0.5571509851386378,-0.0724398906040246
0.958999999999996,-0.2311688594266489,-0.5773915684740161,-0.0809623333415129
0.9624999999999986,-0.2364956043037356,-0.5912390107593392,-0.0852244273748831
0.9660000000000012,-0.2343645572870505,-0.6157416881280875,-0.0926804739394028
0.9694999999999964,-0.2343645572870505,-0.6210684330051742,-0.0990718696602061
0.972999999999999,-0.2290395577392158,-0.6317219227593476,-0.1054650107102613
0.9765000000000016,-0.2173214171413259,-0.6349176206197492,-0.1075943123976944
0.9799999999999968,-0.2024058333537824,-0.6253287817092923,-0.1097253594143795
0.9834999999999994,-0.1928187397725775,-0.6200020368322057,-0.110790010258096
0.987000000000002,-0.1757738542976009,-0.5923054069323076,-0.1065296615539778
0.9904999999999972,-0.1576643179789077,-0.5656734278761262,-0.1043986145372928
0.9939999999999998,-0.1320969897664428,-0.5283879590657713,-0.0937468701123714
0.9975000000000024,-0.1150521042914662,-0.4911024902554164,-0.0905494269227178
1.0009999999999977,-0.0841580312019145,-0.4399678338304866,-0.0777666354811113
1.0045000000000002,-0.0639174478665363,-0.3941599222826434,-0.0703088435873395
1.008000000000003,-0.0340897709499532,-0.3291760782431385,-0.055395005129048
1.011499999999998,-0.0127827914416064,-0.2727164222703739,-0.0426122136874415
1.0150000000000006,0.013849187614575,-0.2045368803704674,-0.0383501196540714
1.018499999999996,0.0340897709499532,-0.152337573101821,-0.0287630260728665
1.0219999999999985,0.0660484948832214,-0.0798976824977964,-0.0234362811957798
1.025500000000001,0.0937468701123714,-0.0181095363186931,-0.0127827914416064
1.0289999999999964,0.1459461773810178,0.0500682602519613,-0.0095870935812048
1.0324999999999989,0.1842962970350892,0.1001382658331746,-0.0042603487041181
1.0360000000000014,0.219450718828759,0.177904901314286,-0.0053267448770866
1.0394999999999968,0.2354309534600191,0.2343645572870505,-0.0149138384582915
1.0429999999999993,0.2759121201307756,0.286565609884949,-0.0106534897541733
1.0465000000000018,0.3068061932203272,0.3227846825223353,-0.0127827914416064
1.0499999999999972,0.3376985209806268,0.3749839897909817,-0.0181095363186931
1.0534999999999997,0.3366338701369103,0.3941599222826434,-0.0245026773687483
1.0570000000000022,0.3174579376452486,0.4058780628805333,-0.029827676916583
1.0604999999999976,0.2982837504828389,0.4197272504951083,-0.0319587239332681
1.064,0.2769767709744921,0.4261186462159115,-0.0245026773687483
1.0675000000000026,0.2546051406224288,0.4282496932325966,-0.0245026773687483
1.070999999999998,0.2279731615662473,0.43890318298677,-0.01598023463126
1.0745000000000005,0.2034722295267509,0.4367721359700849,-0.0085224427374883
1.077999999999996,0.1619246666830259,0.4303807402492817,0.0
1.0814999999999984,0.136357338470561,0.4207919013388249,0.0063913957208032
1.0850000000000009,0.1054650107102613,0.4165315526347067,0.0266319790561814
1.0884999999999962,0.083093380358198,0.4090737607409349,0.0330233747769847
1.0919999999999987,0.0617864008498512,0.3994866671597301,0.0468725623915597
1.0955000000000013,0.0447432607041266,0.3867021303888716,0.0490036094082447
1.0989999999999966,0.0255673282124649,0.3675279432264619,0.055395005129048
1.1024999999999991,0.01598023463126,0.355809802628572,0.0607217500061347
1.1060000000000016,0.0,0.3302424744161071,0.0671131457269379
1.109499999999997,0.0,0.3121311927681619,0.0713752397603081
1.1129999999999995,-0.002131047016685,0.2801724688348938,0.0809623333415129
1.116500000000002,-0.0031956978604016,0.2673896773932873,0.0852244273748831
1.1199999999999974,-0.0074577918937717,0.2492801410745941,0.0862890782185996
1.1235,-0.0095870935812048,0.2258421145495622,0.0894847760790012
1.1270000000000024,-0.0106534897541733,0.1896230419121759,0.0852244273748831
1.1304999999999978,-0.0202405833353782,0.1587289688226243,0.0884201252352847
1.1340000000000003,-0.029827676916583,0.1193124529955843,0.0852244273748831
1.1375000000000028,-0.041545817514473,0.0873537290623162,0.0894847760790012
1.1409999999999982,-0.0500682602519613,0.0479389585645282,0.0884201252352847
1.1445000000000007,-0.0490036094082447,0.0234362811957798,0.0841580312019145
1.147999999999996,-0.0703088435873395,0.0031956978604016,0.0788312863248278
1.1514999999999986,-0.0884201252352847,-0.0191759324916617,0.0703088435873395
1.1550000000000011,-0.1086607085706629,-0.0575260521457331,0.0681795418999064
1.1584999999999963,-0.1118564064310645,-0.0809623333415129,0.0681795418999064
1.161999999999999,-0.1214435000122694,-0.1182478021518678,0.0639174478665363
1.1655000000000015,-0.1235745470289545,-0.1416840833476476,0.0681795418999064
1.168999999999997,-0.1310323389227262,-0.1683160624038291,0.0660484948832214
1.1724999999999994,-0.1278348957330726,-0.1832316461913727,0.0649838440395048
1.176000000000002,-0.1150521042914662,-0.2045368803704674,0.0703088435873395
1.179499999999997,-0.1065296615539778,-0.2183860679850424,0.069244192743623
1.1829999999999998,-0.0980072188164895,-0.2354309534600191,0.0681795418999064
1.1865000000000023,-0.0905494269227178,-0.2450180470412239,0.0660484948832214
1.1899999999999975,-0.0788312863248278,-0.2503447919183106,0.0735062867769931
1.1935000000000002,-0.0745709376207097,-0.2546051406224288,0.0767019846373948
1.1970000000000027,-0.069244192743623,-0.260998281672484,0.0862890782185996
1.200499999999998,-0.0564614013020165,-0.2556715367953973,0.0937468701123714
1.2040000000000006,-0.0426122136874415,-0.2546051406224288,0.1033339636935762
1.207499999999996,-0.0319587239332681,-0.2514094427620272,0.110790010258096
1.2109999999999983,-0.02769837522915,-0.260998281672484,0.1118564064310645
1.214500000000001,-0.0308940730895516,-0.2641939795328856,0.1171831513081512
1.2179999999999964,-0.0372854688103548,-0.2684543282370038,0.1097253594143795
1.221499999999999,-0.0394165158270399,-0.2716500260974054,0.1097253594143795
1.2250000000000014,-0.0468725623915597,-0.2727164222703739,0.1065296615539778
1.2284999999999968,-0.0479389585645282,-0.274847469287059,0.1075943123976944
1.231999999999999,-0.0458079115478431,-0.2759121201307756,0.1097253594143795
1.2355000000000018,-0.0404811666707564,-0.2780431671474606,0.1065296615539778
1.2389999999999972,-0.02769837522915,-0.2737810731140905,0.1033339636935762
1.2424999999999995,-0.0202405833353782,-0.2663250265495707,0.0948115209560879
1.2460000000000022,-0.0053267448770866,-0.2556715367953973,0.0852244273748831
1.2494999999999976,-0.0085224427374883,-0.2492801410745941,0.0756355884644262
1.253,0.0074577918937717,-0.247149094057909,0.0660484948832214
1.2565000000000026,0.0095870935812048,-0.2450180470412239,0.055395005129048
1.259999999999998,0.0095870935812048,-0.2364956043037356,0.0468725623915597
1.2635000000000003,0.0127827914416064,-0.2343645572870505,0.0383501196540714
1.266999999999996,0.01598023463126,-0.2205171150017275,0.02769837522915
1.2704999999999984,0.0191759324916617,-0.2141239739516723,0.0245026773687483
1.274000000000001,0.0181095363186931,-0.2002765316663493,0.01598023463126
1.2774999999999963,0.0213052341790947,-0.1906876927558924,0.0053267448770866
1.2809999999999988,0.013849187614575,-0.1683160624038291,-0.0042603487041181
1.2845000000000013,0.0127827914416064,-0.1619246666830259,-0.0085224427374883
1.2879999999999967,0.0010646508437165,-0.1438151303643327,-0.01598023463126
1.2914999999999992,-0.0042603487041181,-0.1395530363309626,-0.0234362811957798
1.2950000000000017,-0.0223716303520633,-0.1278348957330726,-0.0266319790561814
1.298499999999997,-0.0330233747769847,-0.1182478021518678,-0.02769837522915
1.3019999999999996,-0.0447432607041266,-0.1001382658331746,-0.02769837522915
1.305500000000002,-0.0490036094082447,-0.0884201252352847,-0.029827676916583
1.3089999999999975,-0.0426122136874415,-0.0788312863248278,-0.029827676916583
1.3125,-0.0383501196540714,-0.0745709376207097,-0.0351544217936697
1.3160000000000025,-0.0191759324916617,-0.0596570991624181,-0.041545817514473
1.319499999999998,-0.0106534897541733,-0.0426122136874415,-0.0458079115478431
1.3230000000000004,0.0053267448770866,-0.0394165158270399,-0.0564614013020165
1.3264999999999958,0.0234362811957798,-0.0266319790561814,-0.0543303542853314
1.3299999999999983,0.041545817514473,-0.0149138384582915,-0.0585907029894496
1.3335000000000008,0.0543303542853314,-0.0042603487041181,-0.0585907029894496
1.3369999999999962,0.069244192743623,0.0127827914416064,-0.0671131457269379
1.3404999999999987,0.0777666354811113,0.0245026773687483,-0.0681795418999064
1.3440000000000012,0.0852244273748831,0.041545817514473,-0.0617864008498512
1.3474999999999966,0.0926804739394028,0.0585907029894496,-0.0596570991624181
1.350999999999999,0.1065296615539778,0.0841580312019145,-0.0468725623915597
1.3545000000000016,0.1161167551351827,0.1012029166768912,-0.0426122136874415
1.357999999999997,0.1171831513081512,0.1235745470289545,-0.0351544217936697
1.3614999999999997,0.1214435000122694,0.138488385487246,-0.02769837522915
1.365000000000002,0.1182478021518678,0.1491418752414194,-0.0308940730895516
1.3684999999999974,0.110790010258096,0.1565979218059392,-0.029827676916583
1.372,0.1001382658331746,0.1683160624038291,-0.0351544217936697
1.3755000000000024,0.0980072188164895,0.1768385051413174,-0.0372854688103548
1.3789999999999978,0.0852244273748831,0.1885583910684593,-0.0426122136874415
1.3825000000000005,0.0788312863248278,0.1960144376329791,-0.0500682602519613
1.3860000000000028,0.0777666354811113,0.1981454846496642,-0.0500682602519613
1.3894999999999982,0.0873537290623162,0.1992101354933808,-0.0585907029894496
1.393000000000001,0.0980072188164895,0.2024058333537824,-0.0660484948832214
1.396499999999996,0.1012029166768912,0.205601531214184,-0.0681795418999064
1.3999999999999986,0.1129210572747811,0.2024058333537824,-0.0745709376207097
1.403500000000001,0.1235745470289545,0.2024058333537824,-0.0809623333415129
1.4069999999999965,0.136357338470561,0.205601531214184,-0.0905494269227178
1.410499999999999,0.1427504795206162,0.2013411825100658,-0.0905494269227178
1.4140000000000017,0.1491418752414194,0.1896230419121759,-0.0948115209560879
1.4174999999999969,0.1651203645434275,0.180035948330971,-0.0948115209560879
1.4209999999999994,0.1683160624038291,0.1683160624038291,-0.0980072188164895
1.424500000000002,0.1864273440517743,0.1587289688226243,-0.0937468701123714
1.4279999999999973,0.2087989744038376,0.1459461773810178,-0.1001382658331746
1.4314999999999998,0.2205171150017275,0.1406194325039311,-0.0980072188164895
1.4350000000000025,0.2364956043037356,0.1267702448893561,-0.110790010258096
1.4384999999999977,0.2482137449016255,0.1203788491685528,-0.1065296615539778
1.4420000000000002,0.2663250265495707,0.1065296615539778,-0.110790010258096
1.445500000000003,0.274847469287059,0.0980072188164895,-0.110790010258096
1.448999999999998,0.2791078179911772,0.0926804739394028,-0.1097253594143795
1.4525000000000006,0.2801724688348938,0.0905494269227178,-0.1033339636935762
1.455999999999996,0.2727164222703739,0.0777666354811113,-0.0916158230956863
1.4594999999999985,0.2641939795328856,0.0639174478665363,-0.0798976824977964
1.463000000000001,0.2428870000245388,0.0564614013020165,-0.0596570991624181
1.4664999999999964,0.2237128128621291,0.0585907029894496,-0.0447432607041266
1.4699999999999989,0.1992101354933808,0.0458079115478431,-0.0191759324916617
1.4735000000000014,0.1715135055934827,0.0479389585645282,-0.0031956978604016
1.4769999999999968,0.1352926876268444,0.0362208179666383,0.0223716303520633
1.4804999999999993,0.1086607085706629,0.0362208179666383,0.0362208179666383
1.4840000000000018,0.0681795418999064,0.029827676916583,0.0596570991624181
1.4874999999999972,0.0479389585645282,0.0234362811957798,0.0798976824977964
1.4909999999999997,0.013849187614575,0.01598023463126,0.0980072188164895
1.4945000000000022,-0.0170448854749766,0.01598023463126,0.1129210572747811
1.4979999999999976,-0.0543303542853314,0.0085224427374883,0.124639197872671
1.5015,-0.0809623333415129,-0.002131047016685,0.1342280367831279
1.5050000000000026,-0.1193124529955843,-0.0202405833353782,0.138488385487246
1.508499999999998,-0.1416840833476476,-0.0287630260728665,0.1470108282247343
1.5120000000000005,-0.1672514115601126,-0.0458079115478431,0.1512729222581045
1.515499999999996,-0.1874919948954908,-0.055395005129048,0.1565979218059392
1.5189999999999984,-0.1970790884766957,-0.0575260521457331,0.1555332709622227
1.5225000000000009,-0.2002765316663493,-0.0617864008498512,0.1608600158393093
1.5259999999999962,-0.1949497867892626,-0.0617864008498512,0.1555332709622227
1.5294999999999987,-0.1874919948954908,-0.0575260521457331,0.1608600158393093
1.5330000000000013,-0.1672514115601126,-0.0521993072686464,0.152337573101821
1.5364999999999966,-0.1459461773810178,-0.0383501196540714,0.1480754790684509
1.5399999999999991,-0.1161167551351827,-0.0234362811957798,0.1438151303643327
1.5435000000000016,-0.0820287295144815,-0.0106534897541733,0.1438151303643327
1.546999999999997,-0.0500682602519613,0.0085224427374883,0.136357338470561
1.5504999999999995,-0.0234362811957798,0.0223716303520633,0.1342280367831279
1.554000000000002,0.01598023463126,0.0479389585645282,0.1320969897664428
1.5574999999999974,0.0351544217936697,0.0649838440395048,0.1214435000122694
1.561,0.0564614013020165,0.0894847760790012,0.1161167551351827
1.5645000000000024,0.0596570991624181,0.096942567972773,0.110790010258096
1.5679999999999978,0.0543303542853314,0.1065296615539778,0.1033339636935762
1.5715000000000003,0.0447432607041266,0.1086607085706629,0.0980072188164895
1.5750000000000028,0.0234362811957798,0.1129210572747811,0.0916158230956863
1.5784999999999982,0.002131047016685,0.1150521042914662,0.0852244273748831
1.5820000000000007,-0.0234362811957798,0.1065296615539778,0.0852244273748831
1.585499999999996,-0.041545817514473,0.1065296615539778,0.0798976824977964
1.5889999999999986,-0.0575260521457331,0.1043986145372928,0.0820287295144815
1.5925000000000011,-0.0617864008498512,0.0990718696602061,0.0713752397603081
1.5959999999999963,-0.0756355884644262,0.0873537290623162,0.0671131457269379
1.599499999999999,-0.0820287295144815,0.0788312863248278,0.055395005129048
1.6030000000000015,-0.0777666354811113,0.0596570991624181,0.0490036094082447
1.606499999999997,-0.0756355884644262,0.0511346564249298,0.0458079115478431
1.6099999999999994,-0.0628527970228197,0.0362208179666383,0.0362208179666383
1.613500000000002,-0.055395005129048,0.0319587239332681,0.0340897709499532
1.616999999999997,-0.0372854688103548,0.0340897709499532,0.0330233747769847
1.6204999999999998,-0.0255673282124649,0.0372854688103548,0.0255673282124649
1.6240000000000023,0.0,0.0362208179666383,0.0255673282124649
1.6274999999999975,0.0181095363186931,0.0383501196540714,0.0245026773687483
1.6310000000000002,0.0372854688103548,0.0479389585645282,0.0170448854749766
1.6345000000000027,0.0521993072686464,0.0649838440395048,0.0063913957208032
1.637999999999998,0.0713752397603081,0.0841580312019145,-0.0053267448770866
1.6415000000000006,0.0873537290623162,0.1065296615539778,-0.0127827914416064
1.644999999999996,0.1054650107102613,0.1235745470289545,-0.0213052341790947
1.6484999999999983,0.1161167551351827,0.136357338470561,-0.0308940730895516
1.652000000000001,0.1416840833476476,0.1651203645434275,-0.0404811666707564
1.6554999999999964,0.1491418752414194,0.1853609478788057,-0.0511346564249298
1.658999999999999,0.1544686201185061,0.2013411825100658,-0.0585907029894496
1.6625000000000014,0.1512729222581045,0.2151903701246408,-0.0724398906040246
1.6659999999999968,0.1427504795206162,0.2226464166891606,-0.083093380358198
1.669499999999999,0.1352926876268444,0.2343645572870505,-0.0937468701123714
1.6730000000000018,0.1118564064310645,0.2386266513204207,-0.1033339636935762
1.6764999999999972,0.096942567972773,0.2460844432141925,-0.1033339636935762
1.6799999999999995,0.0798976824977964,0.2578025838120824,-0.0990718696602061
1.6835000000000022,0.0660484948832214,0.2641939795328856,-0.0884201252352847
1.6869999999999976,0.0671131457269379,0.2705853752536888,-0.069244192743623
1.6905,0.0703088435873395,0.2780431671474606,-0.0500682602519613
1.6940000000000026,0.0820287295144815,0.2929570056057522,-0.0308940730895516
1.697499999999998,0.0884201252352847,0.302544099186957,-0.013849187614575
1.7010000000000003,0.0990718696602061,0.3100018910807288,0.0063913957208032
1.704499999999996,0.110790010258096,0.3131975889411305,0.0170448854749766
1.7079999999999984,0.1352926876268444,0.3195889846619337,0.0404811666707564
1.711500000000001,0.1491418752414194,0.3185243338182171,0.0511346564249298
1.7149999999999963,0.1693824585767977,0.3185243338182171,0.0671131457269379
1.7184999999999988,0.1853609478788057,0.316393286801532,0.0756355884644262
1.7220000000000013,0.205601531214184,0.3089354949077603,0.0894847760790012
1.7254999999999967,0.2247774637058457,0.3014794483432405,0.0990718696602061
1.7289999999999992,0.2503447919183106,0.3014794483432405,0.1033339636935762
1.7325000000000017,0.2652586303766022,0.2993484013265554,0.1043986145372928
1.735999999999997,0.2823035158515788,0.2982837504828389,0.1022693128498597
1.7394999999999996,0.2918906094327836,0.2993484013265554,0.0980072188164895
1.743000000000002,0.3014794483432405,0.2950880526224372,0.0841580312019145
1.7464999999999975,0.2993484013265554,0.2918906094327836,0.0703088435873395
1.75,0.3046751462036421,0.2801724688348938,0.0490036094082447
1.7535000000000025,0.3036087500306735,0.274847469287059,0.0330233747769847
1.756999999999998,0.3057397970473587,0.2716500260974054,0.0149138384582915
1.7605000000000004,0.3089354949077603,0.2673896773932873,0.0010646508437165
1.7639999999999958,0.3078708440640437,0.2673896773932873,-0.0127827914416064
1.7674999999999983,0.2972173543098703,0.2769767709744921,-0.0319587239332681
1.7710000000000008,0.2791078179911772,0.2876302607286655,-0.0500682602519613
1.7744999999999962,0.2663250265495707,0.2982837504828389,-0.0564614013020165
1.7779999999999987,0.2364956043037356,0.314262239784847,-0.0628527970228197
1.7815000000000012,0.2173214171413259,0.3302424744161071,-0.0681795418999064
1.7849999999999966,0.205601531214184,0.3398295679973119,-0.0607217500061347
1.788499999999999,0.191754088928861,0.3536787556118869,-0.0607217500061347
1.7920000000000016,0.1565979218059392,0.369657244913895,-0.0617864008498512
1.795499999999997,0.1427504795206162,0.3707236410868635,-0.0671131457269379
1.7989999999999997,0.1235745470289545,0.3717882919305801,-0.0681795418999064
1.802500000000002,0.1054650107102613,0.3643322453660603,-0.0735062867769931
1.8059999999999972,0.0756355884644262,0.3398295679973119,-0.0788312863248278
1.8095,0.0575260521457331,0.3185243338182171,-0.0777666354811113
1.8130000000000024,0.0426122136874415,0.2876302607286655,-0.0703088435873395
1.8164999999999976,0.0234362811957798,0.2578025838120824,-0.069244192743623
1.8200000000000005,0.0010646508437165,0.2226464166891606,-0.0649838440395048
1.8235000000000028,-0.0127827914416064,0.2013411825100658,-0.0543303542853314
1.8269999999999984,-0.0223716303520633,0.1704471094205142,-0.0404811666707564
1.830500000000001,-0.0372854688103548,0.1491418752414194,-0.0351544217936697
1.833999999999996,-0.0575260521457331,0.1150521042914662,-0.029827676916583
1.8374999999999984,-0.0639174478665363,0.0937468701123714,-0.0213052341790947
1.841000000000001,-0.0660484948832214,0.0564614013020165,-0.0085224427374883
1.8444999999999965,-0.0703088435873395,0.0287630260728665,-0.0063913957208032
1.847999999999999,-0.0703088435873395,-0.0010646508437165,0.0
1.8515000000000013,-0.0660484948832214,-0.0234362811957798,0.0085224427374883
1.8549999999999969,-0.0628527970228197,-0.0490036094082447,0.0149138384582915
1.8584999999999996,-0.0681795418999064,-0.0628527970228197,0.0213052341790947
1.8620000000000017,-0.0767019846373948,-0.0703088435873395,0.0319587239332681
1.8654999999999973,-0.0745709376207097,-0.0703088435873395,0.0447432607041266
1.869,-0.0607217500061347,-0.0617864008498512,0.0617864008498512
1.8725000000000025,-0.0564614013020165,-0.055395005129048,0.069244192743623
1.8759999999999977,-0.0649838440395048,-0.0500682602519613,0.0713752397603081
1.8795,-0.0671131457269379,-0.0447432607041266,0.0681795418999064
1.883000000000003,-0.0777666354811113,-0.0404811666707564,0.0671131457269379
1.886499999999998,-0.0809623333415129,-0.0340897709499532,0.0671131457269379
1.8900000000000008,-0.0724398906040246,-0.0245026773687483,0.0671131457269379
1.893499999999996,-0.0575260521457331,-0.02769837522915,0.0724398906040246
1.8969999999999985,-0.029827676916583,-0.0362208179666383,0.0713752397603081
1.900500000000001,-0.0010646508437165,-0.0394165158270399,0.0681795418999064
1.9039999999999964,0.0255673282124649,-0.0362208179666383,0.0543303542853314
1.9074999999999989,0.0362208179666383,-0.0319587239332681,0.0426122136874415
1.9110000000000011,0.0649838440395048,-0.041545817514473,0.0245026773687483
1.9144999999999968,0.0841580312019145,-0.0585907029894496,0.01598023463126
1.9179999999999997,0.1065296615539778,-0.0809623333415129,-0.0010646508437165
1.9215000000000015,0.1203788491685528,-0.1075943123976944,-0.0063913957208032
1.9249999999999967,0.1289012919060412,-0.1427504795206162,-0.01598023463126
1.9285,0.1257055940456395,-0.1619246666830259,-0.0255673282124649
1.9320000000000024,0.1267702448893561,-0.1864273440517743,-0.02769837522915
1.9354999999999976,0.136357338470561,-0.2013411825100658,-0.0223716303520633
1.939,0.1470108282247343,-0.2098636252475541,-0.0095870935812048
1.9425000000000023,0.1587289688226243,-0.2183860679850424,-0.0042603487041181
1.945999999999998,0.1693824585767977,-0.2301042085829324,0.0063913957208032
1.9495000000000005,0.1757738542976009,-0.2396913021641372,0.0106534897541733
1.952999999999996,0.1725781564371993,-0.2492801410745941,0.0117181405978899
1.9564999999999984,0.1693824585767977,-0.2652586303766022,0.0117181405978899
1.9600000000000009,0.1715135055934827,-0.2791078179911772,0.0127827914416064
1.963499999999996,0.1619246666830259,-0.2929570056057522,0.0095870935812048
1.9669999999999987,0.1448797812080492,-0.314262239784847,0.002131047016685
1.9705000000000013,0.1257055940456395,-0.3291760782431385,-0.0010646508437165
1.9739999999999969,0.0958761717998045,-0.3536787556118869,-0.01598023463126
1.9774999999999991,0.0745709376207097,-0.3685925940701784,-0.0170448854749766
1.9810000000000016,0.0426122136874415,-0.3813771308410369,-0.02769837522915
1.984499999999997,0.0213052341790947,-0.3867021303888716,-0.0308940730895516
1.9879999999999995,-0.0149138384582915,-0.3941599222826434,-0.0490036094082447
1.991500000000002,-0.0330233747769847,-0.4026823650201317,-0.0500682602519613
1.9949999999999972,-0.0564614013020165,-0.4239875991992265,-0.0511346564249298
1.9985,-0.0671131457269379,-0.4431635316908882,-0.0607217500061347
2.0020000000000024,-0.0724398906040246,-0.4729912086074713,-0.0575260521457331
2.005499999999998,-0.0713752397603081,-0.4911024902554164,-0.0511346564249298
2.0090000000000003,-0.0809623333415129,-0.5070809795574245,-0.0511346564249298
2.012500000000003,-0.096942567972773,-0.5219948180157161,-0.0649838440395048
2.0159999999999982,-0.1235745470289545,-0.5443664483677794,-0.0756355884644262
2.0195000000000007,-0.1565979218059392,-0.5678027295635593,-0.0724398906040246
2.022999999999996,-0.2130593231079557,-0.5891097090719061,-0.0735062867769931
2.026499999999998,-0.2695207244099723,-0.6061545945468827,-0.0724398906040246
2.030000000000001,-0.355809802628572,-0.616806338971804,-0.0564614013020165
2.0334999999999965,-0.4218582975117934,-0.6178727351447726,-0.0372854688103548
2.036999999999999,-0.5017542346803379,-0.6093502924072843,0.0042603487041181
2.040500000000001,-0.5528888911052677,-0.6018925005135125,0.0362208179666383
2.043999999999997,-0.6040235475301975,-0.5891097090719061,0.0948115209560879
2.0474999999999994,-0.6242641308655758,-0.586978662055221,0.1416840833476476
2.051000000000002,-0.614677037284371,-0.5816519171781342,0.2034722295267509
2.0544999999999973,-0.5837829641948193,-0.5837829641948193,0.2418223491808223
2.058,-0.5241258650324012,-0.5955011047927092,0.2780431671474606
2.0615000000000023,-0.4676662090596366,-0.5933700577760241,0.3036087500306735
2.0649999999999977,-0.3717882919305801,-0.5912390107593392,0.3195889846619337
2.0685,-0.2812388650078622,-0.5837829641948193,0.3376985209806268
2.0720000000000027,-0.1448797812080492,-0.5582156359823544,0.3600701513326901
2.075499999999998,-0.0266319790561814,-0.5379750526469761,0.3685925940701784
2.0790000000000006,0.1459461773810178,-0.4985585368199362,0.3813771308410369
2.082499999999996,0.286565609884949,-0.4687308599033531,0.3920288752659583
2.0859999999999985,0.4687308599033531,-0.41120480775762,0.3909642244222418
2.089500000000001,0.6072192453905992,-0.3739193389472651,0.3856374795451551
2.0929999999999964,0.7840577505319166,-0.3110665419244454,0.3749839897909817
2.096499999999999,0.9023072980130364,-0.2631275833599171,0.3568744534722885
2.1000000000000014,1.039729287327314,-0.2034722295267509,0.3376985209806268
2.103499999999997,1.122822667685512,-0.1565979218059392,0.3185243338182171
2.1069999999999998,1.2112427929207967,-0.0916158230956863,0.2940216564494687
2.110500000000002,1.2559843082956712,-0.0447432607041266,0.2673896773932873
2.113999999999997,1.2783559386477348,0.0191759324916617,0.2407576983371057
2.1175,1.253855006608238,0.0564614013020165,0.2279731615662473
2.121000000000002,1.2005893031666235,0.1012029166768912,0.2162550209683574
2.1244999999999976,1.1462589488812918,0.1395530363309626,0.2141239739516723
2.128,1.0695587095731491,0.2024058333537824,0.2141239739516723
2.1315000000000026,0.9992481206565574,0.2418223491808223,0.2162550209683574
2.134999999999998,0.8778046206442881,0.2908259585890671,0.2162550209683574
2.1385000000000005,0.7680792612299085,0.3217200316786187,0.2226464166891606
2.141999999999996,0.6231994800218592,0.3472873598910836,0.2173214171413259
2.1454999999999984,0.508147375730393,0.3568744534722885,0.2247774637058457
2.149000000000001,0.3430252658577135,0.369657244913895,0.2247774637058457
2.1524999999999963,0.2205171150017275,0.3760503859639502,0.2343645572870505
2.155999999999999,0.0521993072686464,0.3920288752659583,0.2439533961975074
2.1595000000000013,-0.0543303542853314,0.4058780628805333,0.2631275833599171
2.1629999999999967,-0.1896230419121759,0.4154651564617382,0.2833681666952953
2.166499999999999,-0.2833681666952953,0.4197272504951083,0.2982837504828389
2.1700000000000017,-0.3888331774055567,0.41120480775762,0.3323735214327921
2.173499999999997,-0.4516859744283765,0.3952245731263599,0.341960615013997
2.177,-0.5187991201553145,0.3707236410868635,0.3643322453660603
2.180500000000002,-0.5550199381219528,0.3323735214327921,0.3771150368076668
2.183999999999997,-0.5912390107593392,0.2940216564494687,0.3877685265618402
2.1875,-0.6072192453905992,0.2567361876391139,0.3898978282492732
2.1910000000000025,-0.6114795940947174,0.205601531214184,0.4037470158638482
2.194499999999998,-0.6082838962343158,0.1640557136997109,0.41120480775762
2.1980000000000004,-0.5976321518093943,0.1129210572747811,0.4218582975117934
2.201499999999996,-0.5773915684740161,0.0756355884644262,0.4293143440763132
2.2049999999999983,-0.5241258650324012,0.0245026773687483,0.4325100419367148
2.208500000000001,-0.4836446983616446,-0.0063913957208032,0.4410324846742031
2.211999999999996,-0.4218582975117934,-0.0575260521457331,0.4346410889533998
2.2154999999999987,-0.3803107346680683,-0.0937468701123714,0.4239875991992265
2.219000000000001,-0.3323735214327921,-0.1459461773810178,0.3909642244222418
2.2224999999999966,-0.300413052170272,-0.1874919948954908,0.3664615470534934
2.225999999999999,-0.2716500260974054,-0.2364956043037356,0.3302424744161071
2.2295000000000016,-0.2535404897787122,-0.2716500260974054,0.3057397970473587
2.232999999999997,-0.2375620004767041,-0.3078708440640437,0.2673896773932873
2.2364999999999995,-0.2269085107225308,-0.3323735214327921,0.2428870000245388
2.240000000000002,-0.2247774637058457,-0.3622011983493752,0.2002765316663493
2.2434999999999974,-0.233299906443334,-0.3717882919305801,0.166186760716396
2.247,-0.2482137449016255,-0.4016177141764152,0.1214435000122694
2.2505000000000024,-0.2716500260974054,-0.4207919013388249,0.0873537290623162
2.253999999999998,-0.3068061932203272,-0.4484902765679749,0.0436768645311581
2.2575000000000003,-0.3313071252598236,-0.4623394641825499,0.0191759324916617
2.261000000000003,-0.3781796876513833,-0.4623394641825499,-0.0106534897541733
2.264499999999998,-0.42292294835551,-0.4634041150262664,-0.0287630260728665
2.2680000000000007,-0.4857757453783297,-0.4591437663221482,-0.0404811666707564
2.271499999999996,-0.5358440056302911,-0.452750625272093,-0.0404811666707564
2.2749999999999986,-0.5880433128989375,-0.4516859744283765,-0.0223716303520633
2.278500000000001,-0.6231994800218592,-0.4452945787075733,-0.0042603487041181
2.2819999999999965,-0.6572875056425604,-0.4452945787075733,0.029827676916583
2.285499999999999,-0.6817901830113089,-0.4538170214450616,0.0564614013020165
2.289000000000001,-0.6956393706258839,-0.4559463231324946,0.096942567972773
2.292499999999997,-0.697768672313317,-0.4676662090596366,0.1320969897664428
2.296,-0.6945729744529154,-0.4868403962220463,0.1715135055934827
2.299500000000002,-0.6881815787321122,-0.4953628389595346,0.1970790884766957
2.3029999999999973,-0.6732677402738206,-0.5102766774178261,0.2364956043037356
2.3065,-0.6477004120613556,-0.5102766774178261,0.2631275833599171
2.3100000000000023,-0.5986968026531109,-0.5006895838366213,0.300413052170272
2.3134999999999977,-0.5528888911052677,-0.4911024902554164,0.3249157295390203
2.317,-0.4751222556241564,-0.4879067923950148,0.3526141047681703
2.3205000000000027,-0.4144005056180216,-0.4857757453783297,0.3632658491930918
2.323999999999998,-0.3345028231202252,-0.4772533026408414,0.3739193389472651
2.327500000000001,-0.2716500260974054,-0.4751222556241564,0.3675279432264619
2.330999999999996,-0.1832316461913727,-0.4740576047804398,0.3579391043160051
2.3344999999999985,-0.1320969897664428,-0.4772533026408414,0.3430252658577135
2.338000000000001,-0.0564614013020165,-0.4868403962220463,0.3089354949077603
2.3414999999999964,-0.0106534897541733,-0.4900360940824479,0.2791078179911772
2.344999999999999,0.0394165158270399,-0.492167141099133,0.2524758389349957
2.3485000000000014,0.0767019846373948,-0.4900360940824479,0.2258421145495622
2.3519999999999968,0.1193124529955843,-0.4847093492053612,0.1992101354933808
2.3554999999999997,0.1491418752414194,-0.480449000501243,0.1811005991746876
2.3590000000000018,0.1715135055934827,-0.4772533026408414,0.1448797812080492
2.362499999999997,0.1789695521580025,-0.4655351620429515,0.1193124529955843
2.366,0.1768385051413174,-0.4559463231324946,0.0884201252352847
2.369500000000002,0.1736428072809158,-0.4399678338304866,0.0607217500061347
2.3729999999999976,0.1651203645434275,-0.425053995372195,0.0308940730895516
2.3765,0.1534022239455376,-0.41120480775762,0.0063913957208032
2.3800000000000026,0.1235745470289545,-0.4080091098972184,-0.0213052341790947
2.383499999999998,0.0894847760790012,-0.4080091098972184,-0.0426122136874415
2.3870000000000005,0.0319587239332681,-0.4016177141764152,-0.0724398906040246
2.390499999999996,-0.0191759324916617,-0.38350643252847,-0.0884201252352847
2.3939999999999984,-0.0916158230956863,-0.3590055004889736,-0.1086607085706629
2.397500000000001,-0.1534022239455376,-0.3334381722765087,-0.1065296615539778
2.400999999999996,-0.2258421145495622,-0.3046751462036421,-0.0958761717998045
2.4044999999999987,-0.2641939795328856,-0.2823035158515788,-0.0703088435873395
2.4080000000000013,-0.286565609884949,-0.2567361876391139,-0.0340897709499532
2.4114999999999966,-0.2961527034661538,-0.2439533961975074,0.0
2.414999999999999,-0.2950880526224372,-0.2322352555996175,0.0287630260728665
2.4185000000000016,-0.2854992137119804,-0.2343645572870505,0.0500682602519613
2.421999999999997,-0.2673896773932873,-0.2354309534600191,0.0585907029894496
2.4254999999999995,-0.2503447919183106,-0.233299906443334,0.0681795418999064
2.429000000000002,-0.2311688594266489,-0.2269085107225308,0.0639174478665363
2.432499999999997,-0.2087989744038376,-0.2343645572870505,0.0681795418999064
2.436,-0.1885583910684593,-0.2343645572870505,0.0681795418999064
2.4395000000000024,-0.1576643179789077,-0.2354309534600191,0.0649838440395048
2.442999999999998,-0.1299659427497577,-0.2460844432141925,0.0532657034416149
2.4465000000000003,-0.1043986145372928,-0.2482137449016255,0.0511346564249298
2.450000000000003,-0.0745709376207097,-0.260998281672484,0.0362208179666383
2.4534999999999982,-0.0490036094082447,-0.2652586303766022,0.0202405833353782
2.4570000000000007,-0.0234362811957798,-0.2695207244099723,-0.0074577918937717
2.460499999999996,-0.0042603487041181,-0.2705853752536888,-0.0245026773687483
2.463999999999998,0.0127827914416064,-0.2727164222703739,-0.0404811666707564
2.467500000000001,0.0223716303520633,-0.2705853752536888,-0.0575260521457331
2.4709999999999965,0.0394165158270399,-0.258867234655799,-0.0703088435873395
2.474499999999999,0.0500682602519613,-0.2396913021641372,-0.0745709376207097
2.478000000000001,0.0703088435873395,-0.2173214171413259,-0.083093380358198
2.481499999999997,0.0852244273748831,-0.1981454846496642,-0.0873537290623162
2.4849999999999994,0.0884201252352847,-0.1842962970350892,-0.0958761717998045
2.488500000000002,0.0862890782185996,-0.1736428072809158,-0.1001382658331746
2.4919999999999973,0.0852244273748831,-0.1683160624038291,-0.1033339636935762
2.4955,0.0841580312019145,-0.1672514115601126,-0.1054650107102613
2.4990000000000023,0.0862890782185996,-0.1693824585767977,-0.096942567972773
2.5024999999999977,0.0948115209560879,-0.177904901314286,-0.0894847760790012
2.506,0.110790010258096,-0.1938833906162941,-0.0788312863248278
2.5095000000000027,0.1182478021518678,-0.2173214171413259,-0.0671131457269379
2.512999999999998,0.1289012919060412,-0.2428870000245388,-0.0543303542853314
2.5165000000000006,0.1289012919060412,-0.2620629325162006,-0.0500682602519613
2.519999999999996,0.1342280367831279,-0.2961527034661538,-0.0404811666707564
2.5234999999999985,0.1225098961852379,-0.3185243338182171,-0.0330233747769847
2.527000000000001,0.1075943123976944,-0.3387649171535954,-0.02769837522915
2.5304999999999964,0.096942567972773,-0.3547434064556034,-0.0234362811957798
2.533999999999999,0.0820287295144815,-0.3739193389472651,-0.0085224427374883
2.5375000000000014,0.0788312863248278,-0.38350643252847,0.0
2.540999999999997,0.0639174478665363,-0.4058780628805333,0.0085224427374883
2.5444999999999998,0.0607217500061347,-0.4218582975117934,0.0106534897541733
2.548000000000002,0.0521993072686464,-0.4367721359700849,0.0063913957208032
2.551499999999997,0.0543303542853314,-0.4484902765679749,0.002131047016685
2.555,0.0564614013020165,-0.4591437663221482,-0.0053267448770866
2.558500000000002,0.0564614013020165,-0.4687308599033531,-0.01598023463126
2.5619999999999976,0.0447432607041266,-0.4687308599033531,-0.0340897709499532
2.5655,0.0468725623915597,-0.4697955107470696,-0.0436768645311581
2.5690000000000026,0.0340897709499532,-0.4665998128866681,-0.0479389585645282
2.572499999999998,0.0287630260728665,-0.4665998128866681,-0.0500682602519613
2.5760000000000005,0.0245026773687483,-0.4751222556241564,-0.0468725623915597
2.579499999999996,0.0255673282124649,-0.4751222556241564,-0.0458079115478431
2.5829999999999984,0.02769837522915,-0.4793843496575265,-0.0479389585645282
2.586500000000001,0.029827676916583,-0.4783179534845579,-0.0447432607041266
2.5899999999999963,0.029827676916583,-0.4815136513449596,-0.0447432607041266
2.593499999999999,0.029827676916583,-0.4889714432387313,-0.0372854688103548
2.5970000000000013,0.0330233747769847,-0.4985585368199362,-0.0319587239332681
2.6004999999999967,0.0362208179666383,-0.5060163287137079,-0.0266319790561814
2.603999999999999,0.041545817514473,-0.5145387714511963,-0.0095870935812048
2.6075000000000017,0.0362208179666383,-0.5134723752782278,0.0
2.610999999999997,0.0308940730895516,-0.5049499325407395,0.0106534897541733
2.6145,0.0245026773687483,-0.4974938859762197,0.0170448854749766
2.618000000000002,0.0106534897541733,-0.4889714432387313,0.0308940730895516
2.621499999999997,0.0085224427374883,-0.4751222556241564,0.0447432607041266
2.625,0.0170448854749766,-0.4559463231324946,0.0543303542853314
2.6285000000000025,0.0223716303520633,-0.4474238803950063,0.0596570991624181
2.631999999999998,0.0426122136874415,-0.43890318298677,0.0617864008498512
2.6355000000000004,0.0617864008498512,-0.4293143440763132,0.0585907029894496
2.638999999999996,0.1012029166768912,-0.4165315526347067,0.0500682602519613
2.6424999999999983,0.1310323389227262,-0.4016177141764152,0.0351544217936697
2.646000000000001,0.1768385051413174,-0.3803107346680683,0.0234362811957798
2.649499999999996,0.2034722295267509,-0.3622011983493752,0.0106534897541733
2.6529999999999987,0.2407576983371057,-0.3281114273994219,-0.0117181405978899
2.656500000000001,0.2705853752536888,-0.2950880526224372,-0.0255673282124649
2.6599999999999966,0.2950880526224372,-0.2492801410745941,-0.0468725623915597
2.663499999999999,0.3036087500306735,-0.2087989744038376,-0.0596570991624181
2.6670000000000016,0.3068061932203272,-0.1651203645434275,-0.0788312863248278
2.670499999999997,0.2982837504828389,-0.1342280367831279,-0.096942567972773
2.6739999999999995,0.2791078179911772,-0.0948115209560879,-0.1043986145372928
2.677500000000002,0.2673896773932873,-0.0660484948832214,-0.1129210572747811
2.6809999999999974,0.2567361876391139,-0.0330233747769847,-0.1097253594143795
2.6845,0.2556715367953973,-0.0031956978604016,-0.1065296615539778
2.6880000000000024,0.2460844432141925,0.0372854688103548,-0.0980072188164895
2.691499999999998,0.2492801410745941,0.0671131457269379,-0.0990718696602061
2.6950000000000003,0.2578025838120824,0.1097253594143795,-0.0884201252352847
2.698500000000003,0.2716500260974054,0.1459461773810178,-0.0862890782185996
2.701999999999998,0.2982837504828389,0.191754088928861,-0.0798976824977964
2.7055000000000007,0.3185243338182171,0.2301042085829324,-0.0724398906040246
2.708999999999996,0.3430252658577135,0.2801724688348938,-0.0660484948832214
2.7124999999999986,0.3717882919305801,0.3174579376452486,-0.0575260521457331
2.716000000000001,0.3994866671597301,0.3685925940701784,-0.0468725623915597
2.7194999999999965,0.4314453910929982,0.4037470158638482,-0.0351544217936697
2.722999999999999,0.4687308599033531,0.4367721359700849,-0.0117181405978899
2.726500000000001,0.492167141099133,0.4623394641825499,0.0031956978604016
2.729999999999997,0.5283879590657713,0.4889714432387313,0.0245026773687483
2.7335,0.5358440056302911,0.5060163287137079,0.0319587239332681
2.737000000000002,0.5401060996636612,0.5145387714511963,0.0404811666707564
2.7404999999999973,0.5305172607532044,0.5219948180157161,0.0490036094082447
2.744,0.503885281697023,0.5145387714511963,0.0500682602519613
2.7475000000000023,0.4708619069200382,0.5092120265741096,0.0479389585645282
2.7509999999999977,0.425053995372195,0.4900360940824479,0.0511346564249298
2.7545,0.3739193389472651,0.4815136513449596,0.0479389585645282
2.7580000000000027,0.2993484013265554,0.4623394641825499,0.0319587239332681
2.761499999999998,0.2354309534600191,0.4431635316908882,0.0287630260728665
2.765000000000001,0.1587289688226243,0.4303807402492817,0.0170448854749766
2.768499999999996,0.1012029166768912,0.4197272504951083,0.0
2.7719999999999985,0.0213052341790947,0.4016177141764152,-0.0287630260728665
2.775500000000001,-0.0319587239332681,0.3856374795451551,-0.0521993072686464
2.7789999999999964,-0.1022693128498597,0.3547434064556034,-0.0894847760790012
2.782499999999999,-0.1576643179789077,0.3366338701369103,-0.1150521042914662
2.7860000000000014,-0.205601531214184,0.3121311927681619,-0.150206526085136
2.7894999999999968,-0.2311688594266489,0.2950880526224372,-0.1725781564371993
2.7929999999999997,-0.2418223491808223,0.2705853752536888,-0.2002765316663493
2.7965000000000018,-0.2407576983371057,0.2546051406224288,-0.2237128128621291
2.799999999999997,-0.2226464166891606,0.2301042085829324,-0.2492801410745941
2.8035,-0.1970790884766957,0.2183860679850424,-0.260998281672484
2.807000000000002,-0.1608600158393093,0.1906876927558924,-0.2812388650078622
2.8104999999999976,-0.1203788491685528,0.1747092034538843,-0.2918906094327836
2.814,-0.0724398906040246,0.1565979218059392,-0.300413052170272
2.8175000000000026,-0.0521993072686464,0.150206526085136,-0.302544099186957
2.820999999999998,-0.0191759324916617,0.1406194325039311,-0.2929570056057522
2.8245000000000005,0.01598023463126,0.1438151303643327,-0.2673896773932873
2.827999999999996,0.0713752397603081,0.1480754790684509,-0.2290395577392158
2.8314999999999984,0.1203788491685528,0.1565979218059392,-0.2002765316663493
2.835000000000001,0.1896230419121759,0.1555332709622227,-0.1491418752414194
2.838499999999996,0.2460844432141925,0.1608600158393093,-0.1075943123976944
2.8419999999999987,0.3376985209806268,0.1736428072809158,-0.0596570991624181
2.8455000000000013,0.4069427137242498,0.1874919948954908,-0.0266319790561814
2.8489999999999966,0.4985585368199362,0.1896230419121759,0.0191759324916617
2.852499999999999,0.561411333842756,0.1842962970350892,0.0404811666707564
2.8560000000000016,0.626395177882261,0.1651203645434275,0.0671131457269379
2.859499999999997,0.6668763445530174,0.1491418752414194,0.0798976824977964
2.8629999999999995,0.7030954171904037,0.1150521042914662,0.0958761717998045
2.866500000000002,0.713748906944577,0.0894847760790012,0.1043986145372928
2.869999999999997,0.7116178599278921,0.0521993072686464,0.1193124529955843
2.8735,0.6945729744529154,0.0255673282124649,0.1203788491685528
2.8770000000000024,0.6455693650446706,-0.0181095363186931,0.1075943123976944
2.880499999999998,0.5859140112115044,-0.0532657034416149,0.0926804739394028
2.8840000000000003,0.4879067923950148,-0.0820287295144815,0.0756355884644262
2.887499999999996,0.3888331774055567,-0.1001382658331746,0.0500682602519613
2.8909999999999982,0.2567361876391139,-0.1193124529955843,0.0362208179666383
2.8945000000000007,0.1587289688226243,-0.1203788491685528,0.0213052341790947
2.897999999999996,0.0287630260728665,-0.1075943123976944,-0.0053267448770866
2.901499999999998,-0.0468725623915597,-0.0948115209560879,-0.0234362811957798
2.905000000000001,-0.1342280367831279,-0.0628527970228197,-0.0468725623915597
2.9084999999999965,-0.1949497867892626,-0.0234362811957798,-0.0735062867769931
2.911999999999999,-0.2684543282370038,0.0362208179666383,-0.1203788491685528
2.915500000000001,-0.3291760782431385,0.0852244273748831,-0.1629910628559944
2.918999999999997,-0.3792460838243518,0.1597953649955928,-0.2205171150017275
2.9224999999999994,-0.4144005056180216,0.2258421145495622,-0.2663250265495707
2.926000000000002,-0.4506213235846599,0.2950880526224372,-0.3259803803827369
2.9294999999999973,-0.4815136513449596,0.3515477085952018,-0.369657244913895
2.933,-0.5049499325407395,0.4186608543221398,-0.4207919013388249
2.9365000000000023,-0.517734469311598,0.4591437663221482,-0.4548816722887781
2.9399999999999977,-0.5187991201553145,0.4974938859762197,-0.4772533026408414
2.9435,-0.5113430735907947,0.519865516328283,-0.4953628389595346
2.9470000000000027,-0.4783179534845579,0.5305172607532044,-0.4996249329929048
2.950499999999998,-0.4367721359700849,0.5326483077698895,-0.492167141099133
2.9540000000000006,-0.3632658491930918,0.5134723752782278,-0.4751222556241564
2.957499999999996,-0.2940216564494687,0.4900360940824479,-0.4484902765679749
2.9609999999999985,-0.1768385051413174,0.4420988808471717,-0.4144005056180216
2.964500000000001,-0.0767019846373948,0.3781796876513833,-0.3792460838243518
2.9679999999999964,0.0436768645311581,0.2854992137119804,-0.3387649171535954
2.971499999999999,0.124639197872671,0.2077325782308691,-0.3078708440640437
2.9750000000000014,0.2066679273871525,0.0958761717998045,-0.2727164222703739
2.978499999999997,0.2439533961975074,0.0117181405978899,-0.2428870000245388
2.9819999999999998,0.2578025838120824,-0.0937468701123714,-0.2205171150017275
2.985500000000002,0.2322352555996175,-0.1619246666830259,-0.1992101354933808
2.988999999999997,0.1608600158393093,-0.2162550209683574,-0.1821652500184041
2.9925,0.1012029166768912,-0.247149094057909,-0.1693824585767977
2.996000000000002,0.0181095363186931,-0.258867234655799,-0.1512729222581045
2.9994999999999976,-0.0426122136874415,-0.2535404897787122,-0.1480754790684509
3.003,-0.1225098961852379,-0.2311688594266489,-0.1459461773810178
3.0065000000000026,-0.1693824585767977,-0.2098636252475541,-0.1470108282247343
3.009999999999998,-0.2183860679850424,-0.1811005991746876,-0.1565979218059392
3.0135000000000005,-0.233299906443334,-0.1608600158393093,-0.1608600158393093
3.016999999999996,-0.2162550209683574,-0.124639197872671,-0.180035948330971
3.0204999999999984,-0.1874919948954908,-0.0809623333415129,-0.2045368803704674
3.024000000000001,-0.1693824585767977,-0.0031956978604016,-0.2567361876391139
3.0274999999999963,-0.1757738542976009,0.0596570991624181,-0.2940216564494687
3.030999999999999,-0.177904901314286,0.138488385487246,-0.3302424744161071
3.0345000000000013,-0.1619246666830259,0.205601531214184,-0.3504830577514853
3.0379999999999967,-0.1289012919060412,0.2972173543098703,-0.3675279432264619
3.041499999999999,-0.1097253594143795,0.355809802628572,-0.369657244913895
3.0450000000000017,-0.0777666354811113,0.4165315526347067,-0.3707236410868635
3.048499999999997,-0.0436768645311581,0.4548816722887781,-0.3653968962097769
3.052,0.0117181405978899,0.4911024902554164,-0.3494166615785167
3.055500000000002,0.069244192743623,0.5049499325407395,-0.3270467765557054
3.058999999999997,0.1608600158393093,0.4953628389595346,-0.2929570056057522
3.0625,0.2311688594266489,0.4708619069200382,-0.2652586303766022
3.0660000000000025,0.3185243338182171,0.4293143440763132,-0.219450718828759
3.069499999999998,0.3813771308410369,0.3856374795451551,-0.1768385051413174
3.0730000000000004,0.4484902765679749,0.3195889846619337,-0.1257055940456395
3.076499999999996,0.4708619069200382,0.2780431671474606,-0.0841580312019145
3.0799999999999983,0.4570127193054631,0.2279731615662473,-0.0351544217936697
3.083500000000001,0.4165315526347067,0.2045368803704674,0.0
3.086999999999996,0.3387649171535954,0.1864273440517743,0.0426122136874415
3.0904999999999987,0.2705853752536888,0.1811005991746876,0.0735062867769931
3.094000000000001,0.152337573101821,0.1885583910684593,0.1001382658331746
3.0974999999999966,0.0543303542853314,0.1906876927558924,0.1097253594143795
3.100999999999999,-0.0628527970228197,0.2130593231079557,0.1235745470289545
3.1045000000000016,-0.1416840833476476,0.2301042085829324,0.124639197872671
3.107999999999997,-0.2237128128621291,0.2524758389349957,0.1235745470289545
3.1114999999999995,-0.2716500260974054,0.2727164222703739,0.1182478021518678
3.115000000000002,-0.2982837504828389,0.2993484013265554,0.1022693128498597
3.1184999999999974,-0.2982837504828389,0.3174579376452486,0.0937468701123714
3.122,-0.2737810731140905,0.3504830577514853,0.0735062867769931
3.1255000000000024,-0.2492801410745941,0.3898978282492732,0.0490036094082447
3.128999999999998,-0.2141239739516723,0.4506213235846599,0.0117181405978899
3.1325000000000003,-0.1757738542976009,0.5060163287137079,-0.0234362811957798
3.136000000000003,-0.1352926876268444,0.5752605214573311,-0.0713752397603081
3.139499999999998,-0.1033339636935762,0.6189373859884891,-0.0980072188164895
3.1430000000000007,-0.0649838440395048,0.6636806466926157,-0.138488385487246
3.146499999999996,-0.0372854688103548,0.6924436727654824,-0.1576643179789077
3.1499999999999986,0.0074577918937717,0.7329248394362388,-0.1832316461913727
3.153500000000001,0.041545817514473,0.7584921676487036,-0.1960144376329791
3.1569999999999965,0.0809623333415129,0.7797974018277984,-0.1970790884766957
3.160499999999999,0.1214435000122694,0.7851241467048852,-0.2024058333537824
3.164000000000001,0.1544686201185061,0.780862052671515,-0.205601531214184
3.167499999999997,0.1896230419121759,0.7627525163528219,-0.2098636252475541
3.171,0.2141239739516723,0.7489033287382468,-0.2066679273871525
3.174500000000002,0.2290395577392158,0.7265316983861836,-0.2034722295267509
3.1779999999999973,0.2343645572870505,0.6817901830113089,-0.1938833906162941
3.1815,0.2343645572870505,0.6540918077821589,-0.1864273440517743
3.1850000000000023,0.2322352555996175,0.6104149432510009,-0.1811005991746876
3.1884999999999977,0.219450718828759,0.5454328445407479,-0.1565979218059392
3.192,0.2087989744038376,0.4889714432387313,-0.1438151303643327
3.1955000000000027,0.1811005991746876,0.4090737607409349,-0.1182478021518678
3.198999999999998,0.1565979218059392,0.3398295679973119,-0.1065296615539778
3.202500000000001,0.1118564064310645,0.2535404897787122,-0.0862890782185996
3.205999999999996,0.0681795418999064,0.2002765316663493,-0.0745709376207097
3.2094999999999985,0.0031956978604016,0.1470108282247343,-0.0649838440395048
3.213000000000001,-0.0607217500061347,0.1150521042914662,-0.0639174478665363
3.2164999999999964,-0.1565979218059392,0.0671131457269379,-0.0511346564249298
3.219999999999999,-0.2450180470412239,0.0308940730895516,-0.0404811666707564
3.2235000000000014,-0.3121311927681619,0.0191759324916617,-0.041545817514473
3.2269999999999968,-0.3749839897909817,-0.0010646508437165,-0.0394165158270399
3.2304999999999997,-0.4484902765679749,-0.013849187614575,-0.0436768645311581
3.2340000000000018,-0.4932317919428495,-0.0191759324916617,-0.0394165158270399
3.237499999999997,-0.5060163287137079,-0.0095870935812048,-0.0383501196540714
3.241,-0.4953628389595346,0.0010646508437165,-0.0330233747769847
3.244500000000002,-0.4687308599033531,0.0383501196540714,-0.0319587239332681
3.2479999999999976,-0.4367721359700849,0.0681795418999064,-0.02769837522915
3.2515,-0.3792460838243518,0.1193124529955843,-0.0330233747769847
3.2550000000000026,-0.3302424744161071,0.150206526085136,-0.0362208179666383
3.258499999999998,-0.2556715367953973,0.1896230419121759,-0.0479389585645282
3.2620000000000005,-0.1949497867892626,0.2119946722642392,-0.0479389585645282
3.265499999999996,-0.0937468701123714,0.2418223491808223,-0.0532657034416149
3.2689999999999984,-0.0095870935812048,0.2727164222703739,-0.0564614013020165
3.272500000000001,0.1129210572747811,0.3100018910807288,-0.0607217500061347
3.275999999999996,0.2151903701246408,0.3376985209806268,-0.0681795418999064
3.2794999999999987,0.3440916620306821,0.3653968962097769,-0.0809623333415129
3.2830000000000013,0.4207919013388249,0.3803107346680683,-0.0937468701123714
3.2864999999999966,0.5092120265741096,0.3728546881035486,-0.1161167551351827
3.289999999999999,0.5667380787198427,0.3622011983493752,-0.1225098961852379
3.2935000000000016,0.6200020368322057,0.3430252658577135,-0.1438151303643327
3.296999999999997,0.6370469223071823,0.316393286801532,-0.1470108282247343
3.3004999999999995,0.616806338971804,0.2833681666952953,-0.1576643179789077
3.304000000000002,0.5763251723010476,0.2641939795328856,-0.1629910628559944
3.307499999999997,0.4932317919428495,0.2375620004767041,-0.166186760716396
3.311,0.4175962034784233,0.2247774637058457,-0.1576643179789077
3.3145000000000024,0.3100018910807288,0.2024058333537824,-0.1565979218059392
3.317999999999998,0.2183860679850424,0.1906876927558924,-0.1544686201185061
3.3215000000000003,0.0767019846373948,0.1747092034538843,-0.1576643179789077
3.324999999999996,-0.0234362811957798,0.1640557136997109,-0.1597953649955928
3.3284999999999982,-0.1555332709622227,0.1534022239455376,-0.1608600158393093
3.3320000000000007,-0.2535404897787122,0.1331616406101593,-0.1651203645434275
3.335499999999996,-0.3781796876513833,0.1182478021518678,-0.1768385051413174
3.338999999999998,-0.4719265577637547,0.1043986145372928,-0.177904901314286
3.342500000000001,-0.5901743599156226,0.0841580312019145,-0.1736428072809158
3.3459999999999965,-0.6722030894301041,0.0671131457269379,-0.1704471094205142
3.349499999999999,-0.7691439120736251,0.0372854688103548,-0.1597953649955928
3.353000000000001,-0.8266699642193582,0.0191759324916617,-0.1448797812080492
3.356499999999997,-0.8767399698005716,-0.0085224427374883,-0.1278348957330726
3.3599999999999994,-0.901240901840068,-0.0266319790561814,-0.124639197872671
3.363500000000002,-0.9268082300525328,-0.0649838440395048,-0.1278348957330726
3.3669999999999973,-0.9363953236337376,-0.0937468701123714,-0.1267702448893561
3.3705,-0.9246771830358478,-0.1320969897664428,-0.1406194325039311
3.3740000000000023,-0.9001762509963515,-0.1651203645434275,-0.1534022239455376
3.3774999999999977,-0.8564993864651933,-0.2077325782308691,-0.1757738542976009
3.381,-0.8181475214818699,-0.2354309534600191,-0.1981454846496642
3.3845000000000027,-0.7563611206320187,-0.2737810731140905,-0.2279731615662473
3.387999999999998,-0.7073575112237738,-0.2982837504828389,-0.2460844432141925
3.3915000000000006,-0.6274598287259775,-0.3249157295390203,-0.2737810731140905
3.394999999999996,-0.5773915684740161,-0.3494166615785167,-0.2844345628682639
3.3984999999999985,-0.4974938859762197,-0.3803107346680683,-0.3068061932203272
3.402000000000001,-0.4442281825346047,-0.4016177141764152,-0.3131975889411305
3.4054999999999964,-0.369657244913895,-0.4207919013388249,-0.3206536355056502
3.408999999999999,-0.3110665419244454,-0.4293143440763132,-0.3291760782431385
3.4125000000000014,-0.247149094057909,-0.4367721359700849,-0.3334381722765087
3.415999999999997,-0.1949497867892626,-0.4378367868138015,-0.3281114273994219
3.4194999999999998,-0.1395530363309626,-0.4495549274116914,-0.3366338701369103
3.423000000000002,-0.1043986145372928,-0.4506213235846599,-0.3366338701369103
3.426499999999997,-0.0884201252352847,-0.4452945787075733,-0.3451563128743986
3.43,-0.0852244273748831,-0.4303807402492817,-0.3515477085952018
3.433500000000002,-0.0862890782185996,-0.4154651564617382,-0.3451563128743986
3.4369999999999976,-0.0809623333415129,-0.3941599222826434,-0.3387649171535954
3.4405,-0.0671131457269379,-0.3675279432264619,-0.3259803803827369
3.4440000000000026,-0.0671131457269379,-0.3355692192931938,-0.3153286359578155
3.447499999999998,-0.0777666354811113,-0.2908259585890671,-0.3014794483432405
3.4510000000000005,-0.0926804739394028,-0.2567361876391139,-0.2844345628682639
3.454499999999996,-0.1054650107102613,-0.2130593231079557,-0.2631275833599171
3.4579999999999984,-0.1150521042914662,-0.1832316461913727,-0.2418223491808223
3.461500000000001,-0.1278348957330726,-0.1459461773810178,-0.2173214171413259
3.4649999999999963,-0.1374237346435295,-0.1161167551351827,-0.2002765316663493
3.468499999999999,-0.1534022239455376,-0.0820287295144815,-0.1757738542976009
3.4720000000000013,-0.1629910628559944,-0.0585907029894496,-0.1597953649955928
3.4754999999999967,-0.1736428072809158,-0.0106534897541733,-0.136357338470561
3.478999999999999,-0.177904901314286,0.0149138384582915,-0.1171831513081512
3.4825000000000017,-0.1736428072809158,0.0543303542853314,-0.0926804739394028
3.485999999999997,-0.1640557136997109,0.0820287295144815,-0.0735062867769931
3.4895,-0.1352926876268444,0.1257055940456395,-0.0490036094082447
3.493000000000002,-0.1150521042914662,0.1587289688226243,-0.0340897709499532
3.496499999999997,-0.0916158230956863,0.1853609478788057,-0.0255673282124649
3.5,-0.0724398906040246,0.1938833906162941,-0.0191759324916617
3.5035000000000025,-0.0479389585645282,0.1896230419121759,-0.0170448854749766
3.506999999999998,-0.0362208179666383,0.177904901314286,-0.0095870935812048
3.5105000000000004,-0.0234362811957798,0.1640557136997109,-0.0063913957208032
3.513999999999996,-0.0213052341790947,0.1416840833476476,-0.0053267448770866
3.5174999999999983,-0.01598023463126,0.1129210572747811,0.0149138384582915
3.521000000000001,-0.0085224427374883,0.0852244273748831,0.0330233747769847
3.524499999999996,0.0191759324916617,0.0447432607041266,0.0639174478665363
3.5279999999999987,0.0394165158270399,0.0106534897541733,0.0809623333415129
3.531500000000001,0.0649838440395048,-0.0330233747769847,0.1022693128498597
3.5349999999999966,0.0809623333415129,-0.0788312863248278,0.1129210572747811
3.538499999999999,0.1043986145372928,-0.1438151303643327,0.1331616406101593
3.5420000000000016,0.1193124529955843,-0.1885583910684593,0.1470108282247343
3.545499999999997,0.1438151303643327,-0.2503447919183106,0.1619246666830259
3.5489999999999995,0.1608600158393093,-0.2854992137119804,0.1757738542976009
3.552500000000002,0.1672514115601126,-0.3195889846619337,0.1885583910684593
3.5559999999999974,0.1629910628559944,-0.3387649171535954,0.1970790884766957
3.5595,0.1406194325039311,-0.3547434064556034,0.205601531214184
3.5630000000000024,0.124639197872671,-0.3685925940701784,0.219450718828759
3.566499999999998,0.1022693128498597,-0.3813771308410369,0.2311688594266489
3.5700000000000003,0.0820287295144815,-0.3760503859639502,0.2343645572870505
3.573500000000003,0.0575260521457331,-0.3632658491930918,0.2396913021641372
3.576999999999998,0.0330233747769847,-0.3472873598910836,0.247149094057909
3.5805000000000007,0.0106534897541733,-0.3291760782431385,0.2556715367953973
3.583999999999996,0.0,-0.3174579376452486,0.258867234655799
3.5874999999999986,0.0,-0.2950880526224372,0.2727164222703739
3.591000000000001,-0.0053267448770866,-0.2844345628682639,0.2791078179911772
3.5944999999999965,-0.0085224427374883,-0.2705853752536888,0.2929570056057522
3.597999999999999,-0.002131047016685,-0.2556715367953973,0.2972173543098703
3.601500000000001,0.0042603487041181,-0.2322352555996175,0.3068061932203272
3.604999999999997,0.013849187614575,-0.2205171150017275,0.3174579376452486
3.6085,0.0351544217936697,-0.205601531214184,0.3238510786953038
3.612000000000002,0.0521993072686464,-0.1906876927558924,0.3334381722765087
3.615499999999997,0.083093380358198,-0.1619246666830259,0.3398295679973119
3.619,0.1182478021518678,-0.1512729222581045,0.3494166615785167
3.6225000000000014,0.1672514115601126,-0.1459461773810178,0.3579391043160051
3.6259999999999977,0.2098636252475541,-0.138488385487246,0.3664615470534934
3.6295,0.2631275833599171,-0.1427504795206162,0.3675279432264619
3.6330000000000022,0.3068061932203272,-0.1480754790684509,0.3675279432264619
3.636499999999998,0.3653968962097769,-0.1576643179789077,0.3590055004889736
3.640000000000001,0.4122694586013365,-0.1651203645434275,0.3590055004889736
3.643499999999996,0.4516859744283765,-0.1672514115601126,0.3515477085952018
3.6469999999999994,0.4772533026408414,-0.1715135055934827,0.3355692192931938
3.650500000000001,0.492167141099133,-0.1747092034538843,0.3174579376452486
3.653999999999997,0.4911024902554164,-0.1704471094205142,0.2972173543098703
3.657499999999999,0.4825800475179281,-0.1587289688226243,0.2716500260974054
3.661000000000002,0.4719265577637547,-0.1427504795206162,0.247149094057909
3.6644999999999968,0.4346410889533998,-0.1267702448893561,0.2098636252475541
3.6679999999999993,0.3952245731263599,-0.1150521042914662,0.1821652500184041
3.6715000000000018,0.3291760782431385,-0.0990718696602061,0.1480754790684509
3.674999999999997,0.2759121201307756,-0.0809623333415129,0.1289012919060412
3.6785,0.2087989744038376,-0.0607217500061347,0.1012029166768912
3.682000000000002,0.1534022239455376,-0.0383501196540714,0.0937468701123714
3.6854999999999976,0.0884201252352847,-0.0095870935812048,0.0894847760790012
3.689,0.0394165158270399,0.0117181405978899,0.0926804739394028
3.6925000000000026,-0.0234362811957798,0.0404811666707564,0.0990718696602061
3.695999999999998,-0.0713752397603081,0.0660484948832214,0.1086607085706629
3.699500000000001,-0.1299659427497577,0.0916158230956863,0.1310323389227262
3.702999999999996,-0.1640557136997109,0.1086607085706629,0.152337573101821
3.7064999999999984,-0.1992101354933808,0.1257055940456395,0.1842962970350892
3.710000000000001,-0.2141239739516723,0.1342280367831279,0.2141239739516723
3.713499999999996,-0.219450718828759,0.1406194325039311,0.2514094427620272
3.716999999999999,-0.2205171150017275,0.136357338470561,0.274847469287059
3.720500000000001,-0.2119946722642392,0.1299659427497577,0.302544099186957
3.7239999999999966,-0.205601531214184,0.1235745470289545,0.3249157295390203
3.727499999999999,-0.1928187397725775,0.1086607085706629,0.341960615013997
3.7310000000000016,-0.1853609478788057,0.0926804739394028,0.3526141047681703
3.734499999999997,-0.1704471094205142,0.0767019846373948,0.3653968962097769
3.738,-0.1470108282247343,0.0681795418999064,0.3760503859639502
3.741500000000002,-0.0990718696602061,0.0383501196540714,0.3792460838243518
3.744999999999997,-0.0575260521457331,0.013849187614575,0.3877685265618402
3.7485,0.013849187614575,-0.01598023463126,0.3771150368076668
3.7520000000000016,0.0724398906040246,-0.0458079115478431,0.369657244913895
3.755499999999998,0.1555332709622227,-0.0820287295144815,0.3536787556118869
3.759,0.2215817658454441,-0.0990718696602061,0.3355692192931938
3.762499999999996,0.3068061932203272,-0.1214435000122694,0.316393286801532
3.7659999999999982,0.3749839897909817,-0.124639197872671,0.302544099186957
3.7695000000000007,0.4474238803950063,-0.136357338470561,0.2940216564494687
3.772999999999996,0.4964292351325031,-0.1416840833476476,0.288694911572382
3.776499999999999,0.561411333842756,-0.1331616406101593,0.2950880526224372
3.780000000000001,0.5955011047927092,-0.1267702448893561,0.3036087500306735
3.783499999999997,0.6253287817092923,-0.1150521042914662,0.3057397970473587
3.786999999999999,0.6338512244467807,-0.1129210572747811,0.3185243338182171
3.7905000000000015,0.6381133184801508,-0.1139874534477496,0.3323735214327921
3.793999999999997,0.6253287817092923,-0.1161167551351827,0.3376985209806268
3.7975,0.5955011047927092,-0.1193124529955843,0.3600701513326901
3.801000000000002,0.5699337765802444,-0.1203788491685528,0.3739193389472651
3.804499999999997,0.5102766774178261,-0.1161167551351827,0.4005513180034466
3.808,0.4516859744283765,-0.1129210572747811,0.4239875991992265
3.8115000000000014,0.3622011983493752,-0.0948115209560879,0.4665998128866681
3.8149999999999977,0.2940216564494687,-0.083093380358198,0.508147375730393
3.8185,0.2045368803704674,-0.055395005129048,0.5656734278761262
3.8220000000000023,0.1459461773810178,-0.0372854688103548,0.6061545945468827
3.825499999999998,0.0703088435873395,-0.0095870935812048,0.6551582039551274
3.8290000000000006,0.0202405833353782,0.01598023463126,0.683921230027994
3.832499999999996,-0.0266319790561814,0.0468725623915597,0.7148135577882937
3.8359999999999994,-0.055395005129048,0.0617864008498512,0.7297291415758372
3.839500000000001,-0.0681795418999064,0.0767019846373948,0.7425119330174437
3.842999999999997,-0.0585907029894496,0.0948115209560879,0.753165422771617
3.846499999999999,-0.0383501196540714,0.1171831513081512,0.753165422771617
3.8500000000000014,-0.01598023463126,0.1289012919060412,0.7467722817215618
3.853499999999997,0.0127827914416064,0.1480754790684509,0.7329248394362388
3.8569999999999993,0.0351544217936697,0.1587289688226243,0.7180110009779472
3.860500000000002,0.0607217500061347,0.1789695521580025,0.7062911150508053
3.863999999999997,0.0788312863248278,0.1811005991746876,0.697768672313317
3.8675,0.110790010258096,0.1928187397725775,0.6860505317154271
3.871000000000002,0.1310323389227262,0.1992101354933808,0.6722030894301041
3.8744999999999976,0.1608600158393093,0.2077325782308691,0.6658099483800488
3.878,0.1811005991746876,0.2119946722642392,0.6658099483800488
3.8815000000000026,0.233299906443334,0.2279731615662473,0.6690056462404504
3.884999999999998,0.274847469287059,0.2386266513204207,0.6711366932571355
3.888500000000001,0.3100018910807288,0.260998281672484,0.6817901830113089
3.891999999999996,0.3451563128743986,0.2684543282370038,0.7009661155029706
3.8954999999999984,0.3856374795451551,0.2833681666952953,0.7286627454028686
3.899000000000001,0.4080091098972184,0.2993484013265554,0.753165422771617
3.902499999999996,0.425053995372195,0.3089354949077603,0.7861887975486017
3.905999999999999,0.4303807402492817,0.302544099186957,0.8117561257610666
3.909500000000001,0.4218582975117934,0.288694911572382,0.8501062454151381
3.9129999999999967,0.3962909692993285,0.2844345628682639,0.8735442719401699
3.916499999999999,0.3387649171535954,0.2769767709744921,0.9001762509963515
3.9200000000000017,0.2695207244099723,0.2759121201307756,0.9225478813484148
3.923499999999997,0.177904901314286,0.2833681666952953,0.956635906969116
3.927,0.1054650107102613,0.286565609884949,0.984334282198266
3.930500000000002,0.0085224427374883,0.3046751462036421,1.0130973082711323
3.9339999999999975,-0.0639174478665363,0.3121311927681619,1.0344025424502272
3.9375,-0.1491418752414194,0.3078708440640437,1.039729287327314
3.9410000000000025,-0.2034722295267509,0.3036087500306735,1.043991381360684
3.944499999999998,-0.2641939795328856,0.3078708440640437,1.0237507980253058
3.948,-0.2961527034661538,0.2993484013265554,1.009901610410731
3.951499999999996,-0.3227846825223353,0.2929570056057522,0.984334282198266
3.9549999999999983,-0.3206536355056502,0.2876302607286655,0.9672893967232892
3.958500000000001,-0.2854992137119804,0.2716500260974054,0.944917766371226
3.961999999999996,-0.2492801410745941,0.2620629325162006,0.9353306727900212
3.965499999999999,-0.1811005991746876,0.2492801410745941,0.9108279954212728
3.969000000000001,-0.1225098961852379,0.2343645572870505,0.8991098548233829
3.9724999999999966,-0.0394165158270399,0.2119946722642392,0.8778046206442881
3.975999999999999,0.0170448854749766,0.1832316461913727,0.8714132249234848
3.9795000000000016,0.0884201252352847,0.1512729222581045,0.8533036886047917
3.982999999999997,0.1331616406101593,0.1235745470289545,0.847976943727705
3.9865,0.1928187397725775,0.0905494269227178,0.8490415945714216
3.990000000000002,0.2226464166891606,0.069244192743623,0.8522372924318231
3.993499999999997,0.2578025838120824,0.0351544217936697,0.8671511308901148
3.997,0.2705853752536888,0.0106534897541733,0.8788692714880046
4.000500000000002,0.2823035158515788,-0.0202405833353782,0.8873917142254929
4.003999999999998,0.2844345628682639,-0.0372854688103548,0.8937848552755481
4.0075,0.2663250265495707,-0.0671131457269379,0.9086986937338396
4.011000000000003,0.2418223491808223,-0.083093380358198,0.9150900894546428
4.014499999999998,0.2109282760912707,-0.1118564064310645,0.9268082300525328
4.018000000000001,0.1747092034538843,-0.1342280367831279,0.9321349749296196
4.021499999999996,0.1342280367831279,-0.1597953649955928,0.9417220685108244
4.024999999999999,0.1139874534477496,-0.1715135055934827,0.9459841625441944
4.028500000000001,0.083093380358198,-0.1874919948954908,0.9502445112483128
4.0319999999999965,0.0660484948832214,-0.1992101354933808,0.947048813387911
4.035499999999999,0.0511346564249298,-0.2151903701246408,0.9374617198067065
4.0390000000000015,0.0479389585645282,-0.2279731615662473,0.9321349749296196
4.042499999999997,0.0521993072686464,-0.2418223491808223,0.9097633445775564
4.045999999999999,0.0596570991624181,-0.2439533961975074,0.8884581103984615
4.049500000000002,0.0767019846373948,-0.2460844432141925,0.8671511308901148
4.052999999999997,0.0926804739394028,-0.2407576983371057,0.8373234539735316
4.0565,0.1161167551351827,-0.2258421145495622,0.8074957770569485
4.060000000000002,0.136357338470561,-0.2109282760912707,0.7861887975486017
4.063499999999998,0.1619246666830259,-0.1853609478788057,0.7627525163528219
4.067,0.1896230419121759,-0.1693824585767977,0.7425119330174437
4.070500000000003,0.2215817658454441,-0.1331616406101593,0.7190756518216638
4.073999999999998,0.2396913021641372,-0.110790010258096,0.7126842561008605
4.077500000000001,0.2641939795328856,-0.0703088435873395,0.697768672313317
4.080999999999996,0.2823035158515788,-0.0394165158270399,0.6892479749050807
4.084499999999999,0.2918906094327836,0.002131047016685,0.6796591359946239
4.088000000000001,0.2950880526224372,0.0330233747769847,0.6668763445530174
4.091499999999996,0.2918906094327836,0.0585907029894496,0.6615495996759307
4.094999999999999,0.2801724688348938,0.0735062867769931,0.6487650629050722
4.098500000000001,0.2567361876391139,0.1012029166768912,0.6359822714634658
4.101999999999997,0.2269085107225308,0.1193124529955843,0.6338512244467807
4.105499999999999,0.1981454846496642,0.1480754790684509,0.626395177882261
4.109000000000002,0.1768385051413174,0.1629910628559944,0.6274598287259775
4.112499999999997,0.150206526085136,0.1874919948954908,0.6317219227593476
4.116,0.1470108282247343,0.1970790884766957,0.6434400633572375
4.119500000000002,0.1629910628559944,0.2045368803704674,0.6583539018155291
4.1229999999999976,0.1747092034538843,0.2077325782308691,0.6551582039551274
4.1265,0.205601531214184,0.2077325782308691,0.6572875056425604
4.130000000000003,0.2428870000245388,0.205601531214184,0.6466357612176391
4.133499999999998,0.2972173543098703,0.1960144376329791,0.626395177882261
4.1370000000000005,0.3345028231202252,0.1811005991746876,0.602958896686481
4.140499999999996,0.3792460838243518,0.1651203645434275,0.5656734278761262
4.143999999999998,0.4058780628805333,0.1427504795206162,0.5411707505073777
4.147500000000001,0.4293143440763132,0.1193124529955843,0.4911024902554164
4.150999999999996,0.4314453910929982,0.0990718696602061,0.4548816722887781
4.154499999999999,0.4080091098972184,0.0724398906040246,0.4069427137242498
4.158000000000001,0.3749839897909817,0.0532657034416149,0.3717882919305801
4.161499999999997,0.3174579376452486,0.0234362811957798,0.3291760782431385
4.164999999999999,0.2769767709744921,0.013849187614575,0.3036087500306735
4.168500000000002,0.2173214171413259,0.0010646508437165,0.2673896773932873
4.171999999999997,0.1512729222581045,-0.0149138384582915,0.2290395577392158
4.1755,0.0649838440395048,-0.0362208179666383,0.1896230419121759
4.179000000000002,0.0031956978604016,-0.0521993072686464,0.1608600158393093
4.182499999999997,-0.0745709376207097,-0.0671131457269379,0.1193124529955843
4.186,-0.1438151303643327,-0.0745709376207097,0.0980072188164895
4.189500000000002,-0.2386266513204207,-0.0735062867769931,0.0703088435873395
4.192999999999998,-0.3089354949077603,-0.0777666354811113,0.0564614013020165
4.1965,-0.3813771308410369,-0.0820287295144815,0.0596570991624181
4.199999999999996,-0.4122694586013365,-0.0756355884644262,0.069244192743623
4.203499999999998,-0.4665998128866681,-0.0703088435873395,0.0809623333415129
4.207000000000001,-0.4985585368199362,-0.0681795418999064,0.0894847760790012
4.210499999999996,-0.517734469311598,-0.069244192743623,0.1118564064310645
4.213999999999999,-0.5187991201553145,-0.0735062867769931,0.1193124529955843
4.217500000000001,-0.5113430735907947,-0.0862890782185996,0.1342280367831279
4.2209999999999965,-0.4974938859762197,-0.0905494269227178,0.136357338470561
4.224499999999999,-0.4708619069200382,-0.1075943123976944,0.136357338470561
4.2280000000000015,-0.4495549274116914,-0.1129210572747811,0.1299659427497577
4.231499999999997,-0.4293143440763132,-0.1278348957330726,0.1139874534477496
4.234999999999999,-0.4122694586013365,-0.138488385487246,0.1065296615539778
4.238500000000002,-0.3877685265618402,-0.1512729222581045,0.0820287295144815
4.241999999999997,-0.3717882919305801,-0.166186760716396,0.0660484948832214
4.2455,-0.3408942188410284,-0.1757738542976009,0.029827676916583
4.249000000000002,-0.314262239784847,-0.177904901314286,0.013849187614575
4.252499999999998,-0.2705853752536888,-0.1789695521580025,-0.0213052341790947
4.256,-0.2375620004767041,-0.1811005991746876,-0.0479389585645282
4.259500000000003,-0.1874919948954908,-0.1842962970350892,-0.0884201252352847
4.262999999999998,-0.1427504795206162,-0.191754088928861,-0.1150521042914662
4.266500000000001,-0.0767019846373948,-0.1949497867892626,-0.1427504795206162
4.269999999999996,-0.0234362811957798,-0.1981454846496642,-0.1619246666830259
4.273499999999999,0.0426122136874415,-0.2087989744038376,-0.1789695521580025
4.277000000000001,0.0958761717998045,-0.2205171150017275,-0.1928187397725775
4.280499999999996,0.1512729222581045,-0.233299906443334,-0.2066679273871525
4.283999999999999,0.1683160624038291,-0.2386266513204207,-0.2226464166891606
4.287500000000001,0.1842962970350892,-0.2535404897787122,-0.2354309534600191
4.290999999999997,0.1832316461913727,-0.2578025838120824,-0.2460844432141925
4.294499999999999,0.1651203645434275,-0.2705853752536888,-0.2514094427620272
4.298000000000002,0.1491418752414194,-0.2759121201307756,-0.2524758389349957
4.301499999999997,0.1289012919060412,-0.2791078179911772,-0.2556715367953973
4.305,0.1182478021518678,-0.2833681666952953,-0.2578025838120824
4.308500000000002,0.0926804739394028,-0.286565609884949,-0.2695207244099723
4.311999999999998,0.0703088435873395,-0.2823035158515788,-0.2844345628682639
4.3155,0.029827676916583,-0.2801724688348938,-0.3121311927681619
4.319000000000003,-0.0063913957208032,-0.2684543282370038,-0.3334381722765087
4.322499999999998,-0.0628527970228197,-0.258867234655799,-0.3600701513326901
4.3260000000000005,-0.0980072188164895,-0.2460844432141925,-0.3749839897909817
4.329499999999996,-0.1555332709622227,-0.2183860679850424,-0.397355620143045
4.332999999999998,-0.1842962970350892,-0.2013411825100658,-0.4154651564617382
4.336500000000001,-0.2162550209683574,-0.1747092034538843,-0.4410324846742031
4.339999999999996,-0.2364956043037356,-0.1480754790684509,-0.4634041150262664
4.343499999999999,-0.2578025838120824,-0.1182478021518678,-0.4964292351325031
4.347000000000001,-0.2620629325162006,-0.1022693128498597,-0.5230612141886847
4.350499999999997,-0.258867234655799,-0.0703088435873395,-0.5582156359823544
4.353999999999999,-0.2503447919183106,-0.0521993072686464,-0.5912390107593392
4.357500000000002,-0.2322352555996175,-0.0223716303520633,-0.630655526586379
4.360999999999997,-0.219450718828759,-0.0031956978604016,-0.6594185526592456
4.3645,-0.2013411825100658,0.0223716303520633,-0.6956393706258839
4.368000000000002,-0.191754088928861,0.0426122136874415,-0.7244023966987505
4.3714999999999975,-0.1757738542976009,0.0671131457269379,-0.7520990265986485
4.375,-0.1597953649955928,0.0820287295144815,-0.7734060061069953
4.3785000000000025,-0.1438151303643327,0.1022693128498597,-0.8000379851631767
4.381999999999998,-0.1342280367831279,0.1129210572747811,-0.8138871727777518
4.3855,-0.1225098961852379,0.124639197872671,-0.8309320582527283
4.388999999999996,-0.110790010258096,0.1267702448893561,-0.847976943727705
4.392499999999998,-0.096942567972773,0.1278348957330726,-0.8543683394485082
4.396000000000001,-0.0884201252352847,0.1182478021518678,-0.8607597351693115
4.399499999999996,-0.0777666354811113,0.1065296615539778,-0.8554329902922247
4.402999999999999,-0.0596570991624181,0.0926804739394028,-0.8341277561131301
4.406500000000001,-0.02769837522915,0.0809623333415129,-0.8085604279006651
4.409999999999997,-0.0042603487041181,0.069244192743623,-0.7766017039673969
4.413499999999999,0.0330233747769847,0.0585907029894496,-0.7361205372966404
4.417000000000002,0.0585907029894496,0.0458079115478431,-0.7062911150508053
4.420499999999997,0.0884201252352847,0.0191759324916617,-0.6658099483800488
4.424,0.1097253594143795,-0.0010646508437165,-0.6359822714634658
4.427500000000002,0.1214435000122694,-0.0287630260728665,-0.6061545945468827
4.430999999999997,0.1182478021518678,-0.0511346564249298,-0.5805872663344177
4.4345,0.1033339636935762,-0.0777666354811113,-0.5454328445407479
4.438000000000002,0.0862890782185996,-0.1001382658331746,-0.5209301671719996
4.441499999999998,0.0639174478665363,-0.1214435000122694,-0.4815136513449596
4.445,0.0383501196540714,-0.1331616406101593,-0.4463592295512898
4.448500000000003,-0.0127827914416064,-0.1534022239455376,-0.4037470158638482
4.451999999999998,-0.0468725623915597,-0.166186760716396,-0.3707236410868635
4.455500000000001,-0.0884201252352847,-0.1725781564371993,-0.3334381722765087
4.458999999999996,-0.124639197872671,-0.1747092034538843,-0.3078708440640437
4.462499999999999,-0.180035948330971,-0.177904901314286,-0.2823035158515788
4.466000000000001,-0.2162550209683574,-0.1853609478788057,-0.2641939795328856
4.4694999999999965,-0.2567361876391139,-0.1938833906162941,-0.2418223491808223
4.472999999999999,-0.2950880526224372,-0.1949497867892626,-0.2322352555996175
4.4765000000000015,-0.3398295679973119,-0.1928187397725775,-0.2269085107225308
4.479999999999997,-0.3653968962097769,-0.191754088928861,-0.2215817658454441
4.483499999999999,-0.4026823650201317,-0.1896230419121759,-0.2183860679850424
4.487000000000002,-0.4293143440763132,-0.1842962970350892,-0.2173214171413259
4.490499999999997,-0.4623394641825499,-0.1757738542976009,-0.2162550209683574
4.494,-0.4836446983616446,-0.166186760716396,-0.2162550209683574
4.497500000000002,-0.5113430735907947,-0.1480754790684509,-0.2215817658454441
4.500999999999998,-0.5294526099094878,-0.1395530363309626,-0.2247774637058457
4.5045,-0.5443664483677794,-0.1267702448893561,-0.2311688594266489
4.508000000000003,-0.5624759846864725,-0.1150521042914662,-0.2269085107225308
4.511499999999998,-0.5709984274239609,-0.0980072188164895,-0.2183860679850424
4.515000000000001,-0.5709984274239609,-0.0916158230956863,-0.2173214171413259
4.518499999999996,-0.5550199381219528,-0.0852244273748831,-0.2013411825100658
4.521999999999999,-0.533712958613606,-0.0767019846373948,-0.1960144376329791
4.525500000000001,-0.4996249329929048,-0.0671131457269379,-0.1885583910684593
4.528999999999996,-0.4751222556241564,-0.0660484948832214,-0.1811005991746876
4.532499999999999,-0.4165315526347067,-0.0660484948832214,-0.1757738542976009
4.536000000000001,-0.3653968962097769,-0.0713752397603081,-0.1672514115601126
4.539499999999997,-0.302544099186957,-0.0703088435873395,-0.1715135055934827
4.542999999999999,-0.2524758389349957,-0.0777666354811113,-0.1715135055934827
4.546500000000002,-0.1821652500184041,-0.0926804739394028,-0.1885583910684593
4.549999999999997,-0.1342280367831279,-0.1012029166768912,-0.1960144376329791
4.5535,-0.0777666354811113,-0.1235745470289545,-0.2130593231079557
4.557000000000002,-0.0511346564249298,-0.1374237346435295,-0.233299906443334
4.5604999999999976,-0.0213052341790947,-0.1640557136997109,-0.258867234655799
4.564,-0.0085224427374883,-0.1842962970350892,-0.2759121201307756
4.567500000000003,-0.0053267448770866,-0.2077325782308691,-0.300413052170272
4.570999999999998,-0.0063913957208032,-0.2215817658454441,-0.3313071252598236
4.5745000000000005,-0.0085224427374883,-0.2322352555996175,-0.3622011983493752
4.577999999999996,-0.0181095363186931,-0.2322352555996175,-0.3898978282492732
4.581499999999998,-0.0436768645311581,-0.2428870000245388,-0.4218582975117934
4.585000000000001,-0.0628527970228197,-0.2460844432141925,-0.452750625272093
4.588499999999996,-0.0926804739394028,-0.2407576983371057,-0.4868403962220463
4.591999999999999,-0.1097253594143795,-0.2364956043037356,-0.5060163287137079
4.595500000000001,-0.1310323389227262,-0.2279731615662473,-0.533712958613606
4.598999999999997,-0.1491418752414194,-0.2237128128621291,-0.5560845889656694
4.602499999999999,-0.1693824585767977,-0.2183860679850424,-0.5731294744406459
4.606000000000002,-0.1757738542976009,-0.2109282760912707,-0.5912390107593392
4.609499999999997,-0.1928187397725775,-0.1949497867892626,-0.6072192453905992
4.613,-0.2034722295267509,-0.1906876927558924,-0.6136106411114024
4.616500000000002,-0.2279731615662473,-0.1853609478788057,-0.6136106411114024
4.619999999999997,-0.2439533961975074,-0.1736428072809158,-0.6136106411114024
4.6235,-0.274847469287059,-0.1608600158393093,-0.6061545945468827
4.627000000000002,-0.3036087500306735,-0.152337573101821,-0.5997614534968274
4.630499999999998,-0.3504830577514853,-0.138488385487246,-0.5891097090719061
4.634,-0.397355620143045,-0.1342280367831279,-0.5837829641948193
4.637499999999996,-0.4634041150262664,-0.124639197872671,-0.5731294744406459
4.640999999999998,-0.5156034222949128,-0.1203788491685528,-0.5560845889656694
4.644500000000001,-0.5816519171781342,-0.1086607085706629,-0.5294526099094878
4.647999999999996,-0.6178727351447726,-0.0958761717998045,-0.5113430735907947
4.651499999999999,-0.6530271569384424,-0.0820287295144815,-0.4697955107470696
4.655000000000001,-0.6604849488322142,-0.069244192743623,-0.4452945787075733
4.6584999999999965,-0.6530271569384424,-0.0490036094082447,-0.4037470158638482
4.661999999999999,-0.6477004120613556,-0.0351544217936697,-0.38350643252847
4.6655000000000015,-0.6178727351447726,-0.0202405833353782,-0.3515477085952018
4.668999999999997,-0.5912390107593392,-0.0106534897541733,-0.3334381722765087
4.672499999999999,-0.5379750526469761,0.0053267448770866,-0.3036087500306735
4.676000000000002,-0.4889714432387313,0.0106534897541733,-0.286565609884949
4.679499999999997,-0.4122694586013365,0.0234362811957798,-0.260998281672484
4.683,-0.3483520107348002,0.0223716303520633,-0.2386266513204207
4.686500000000002,-0.2673896773932873,0.0191759324916617,-0.2119946722642392
4.689999999999998,-0.2013411825100658,0.0127827914416064,-0.1981454846496642
4.6935,-0.1118564064310645,0.0117181405978899,-0.1704471094205142
4.697000000000003,-0.0458079115478431,0.0106534897541733,-0.1672514115601126
4.700499999999998,0.0202405833353782,0.0149138384582915,-0.1565979218059392
4.704000000000001,0.0617864008498512,0.0223716303520633,-0.1512729222581045
4.707499999999996,0.0937468701123714,0.0447432607041266,-0.1587289688226243
4.710999999999999,0.1065296615539778,0.0543303542853314,-0.1576643179789077
4.714500000000001,0.1193124529955843,0.0607217500061347,-0.1597953649955928
4.717999999999996,0.1257055940456395,0.0564614013020165,-0.1512729222581045
4.721499999999999,0.1565979218059392,0.0532657034416149,-0.1438151303643327
4.725000000000001,0.1832316461913727,0.0500682602519613,-0.136357338470561
4.728499999999997,0.2215817658454441,0.0308940730895516,-0.1182478021518678
4.731999999999999,0.2503447919183106,0.0095870935812048,-0.1075943123976944
4.735500000000002,0.2812388650078622,-0.0234362811957798,-0.0990718696602061
4.738999999999997,0.2982837504828389,-0.0543303542853314,-0.0937468701123714
4.7425,0.2982837504828389,-0.1043986145372928,-0.0905494269227178
4.746000000000002,0.288694911572382,-0.1470108282247343,-0.0905494269227178
4.749499999999998,0.2546051406224288,-0.2013411825100658,-0.0894847760790012
4.753,0.2215817658454441,-0.2396913021641372,-0.0916158230956863
4.756500000000003,0.1640557136997109,-0.2844345628682639,-0.0937468701123714
4.759999999999998,0.1182478021518678,-0.3153286359578155,-0.1012029166768912
4.7635000000000005,0.0404811666707564,-0.3515477085952018,-0.1139874534477496
4.766999999999996,-0.0127827914416064,-0.3707236410868635,-0.124639197872671
4.770499999999998,-0.0798976824977964,-0.3845728287014385,-0.1459461773810178
4.774000000000001,-0.124639197872671,-0.3909642244222418,-0.1587289688226243
4.777499999999996,-0.1789695521580025,-0.3824417816847534,-0.1842962970350892
4.780999999999999,-0.2087989744038376,-0.3760503859639502,-0.2066679273871525
4.784500000000001,-0.2450180470412239,-0.3653968962097769,-0.2418223491808223
4.787999999999997,-0.2695207244099723,-0.3430252658577135,-0.2673896773932873
4.791499999999999,-0.3078708440640437,-0.3089354949077603,-0.3110665419244454
4.795000000000002,-0.3281114273994219,-0.2737810731140905,-0.3483520107348002
4.798499999999997,-0.3579391043160051,-0.2162550209683574,-0.3930952714389268
4.802,-0.3760503859639502,-0.1651203645434275,-0.4239875991992265
4.805500000000002,-0.3941599222826434,-0.0894847760790012,-0.4623394641825499
4.8089999999999975,-0.4058780628805333,-0.0287630260728665,-0.4900360940824479
4.8125,-0.4144005056180216,0.0521993072686464,-0.5219948180157161
4.8160000000000025,-0.4282496932325966,0.1161167551351827,-0.5369104018032596
4.819499999999998,-0.4218582975117934,0.1981454846496642,-0.5486285424011496
4.823,-0.4048134120368167,0.2546051406224288,-0.5518242402615512
4.826499999999996,-0.3590055004889736,0.3270467765557054,-0.5486285424011496
4.829999999999998,-0.3217200316786187,0.3675279432264619,-0.5496931932448661
4.833500000000001,-0.2844345628682639,0.41120480775762,-0.5550199381219528
4.836999999999996,-0.2652586303766022,0.4293143440763132,-0.5667380787198427
4.840499999999999,-0.2396913021641372,0.4325100419367148,-0.5720648235969293
4.844000000000001,-0.2141239739516723,0.4282496932325966,-0.5837829641948193
4.847499999999997,-0.1896230419121759,0.4069427137242498,-0.5827165680218508
4.850999999999999,-0.1672514115601126,0.3824417816847534,-0.5901743599156226
4.854500000000002,-0.150206526085136,0.3440916620306821,-0.5986968026531109
4.857999999999997,-0.1331616406101593,0.3121311927681619,-0.6061545945468827
4.8615,-0.1086607085706629,0.2737810731140905,-0.6157416881280875
4.865000000000002,-0.0926804739394028,0.2450180470412239,-0.614677037284371
4.868499999999997,-0.0596570991624181,0.2002765316663493,-0.6253287817092923
4.872,-0.0436768645311581,0.1715135055934827,-0.6359822714634658
4.875500000000002,-0.0127827914416064,0.1352926876268444,-0.6477004120613556
4.878999999999998,0.0085224427374883,0.1182478021518678,-0.6626142505196473
4.8825,0.0436768645311581,0.1065296615539778,-0.6860505317154271
4.885999999999996,0.0681795418999064,0.096942567972773,-0.7073575112237738
4.889499999999998,0.1043986145372928,0.0862890782185996,-0.7350541411236718
4.893000000000001,0.1299659427497577,0.0735062867769931,-0.7574257714757352
4.896499999999996,0.1736428072809158,0.0681795418999064,-0.7797974018277984
4.899999999999999,0.2002765316663493,0.0671131457269379,-0.8032336830235783
4.903500000000001,0.2151903701246408,0.069244192743623,-0.8319967090964449
4.9069999999999965,0.2237128128621291,0.0767019846373948,-0.8426501988506182
4.910499999999999,0.2269085107225308,0.0862890782185996,-0.8554329902922247
4.9140000000000015,0.2343645572870505,0.0958761717998045,-0.8522372924318231
4.917499999999997,0.2364956043037356,0.096942567972773,-0.8405191518339332
4.920999999999999,0.2503447919183106,0.0958761717998045,-0.8224096155152401
4.924500000000002,0.2652586303766022,0.0820287295144815,-0.7968422873027752
4.927999999999997,0.2844345628682639,0.0713752397603081,-0.780862052671515
4.9315,0.3185243338182171,0.055395005129048,-0.7563611206320187
4.935000000000002,0.341960615013997,0.0447432607041266,-0.7382515843133254
4.938499999999998,0.3653968962097769,0.0372854688103548,-0.7212066988383489
4.942,0.3888331774055567,0.029827676916583,-0.7105532090841755
4.945500000000003,0.4058780628805333,0.0266319790561814,-0.7030954171904037
4.948999999999998,0.41120480775762,0.0234362811957798,-0.6956393706258839
4.952500000000001,0.4175962034784233,0.0255673282124649,-0.6945729744529154
4.955999999999996,0.4239875991992265,0.0330233747769847,-0.6828548338550254
4.959499999999999,0.4367721359700849,0.0426122136874415,-0.6924436727654824
4.963000000000001,0.4346410889533998,0.055395005129048,-0.697768672313317
4.966499999999996,0.4282496932325966,0.0820287295144815,-0.7190756518216638
4.969999999999999,0.42292294835551,0.0958761717998045,-0.7414472821737271
4.973500000000001,0.4133358547743051,0.1235745470289545,-0.7755353077944284
4.976999999999997,0.4005513180034466,0.1438151303643327,-0.80642938088398
4.980499999999999,0.3877685265618402,0.1768385051413174,-0.8469105475547365
4.984000000000002,0.3803107346680683,0.1960144376329791,-0.8788692714880046
4.987499999999997,0.3781796876513833,0.2119946722642392,-0.9193504381587612
4.991,0.3781796876513833,0.2237128128621291,-0.9481134642316276
4.994500000000002,0.38350643252847,0.2364956043037356,-0.9800739334941478
4.9979999999999976,0.3898978282492732,0.2439533961975074,-1.0035102146899275
5.0015,0.3994866671597301,0.2439533961975074,-1.0312068445898257
5.005000000000003,0.3930952714389268,0.2407576983371057,-1.0461224283773694
5.008499999999998,0.3845728287014385,0.2354309534600191,-1.0578405689752592
5.0120000000000005,0.3728546881035486,0.2226464166891606,-1.0599698706626923
5.015499999999996,0.3536787556118869,0.2045368803704674,-1.0578405689752592
5.018999999999998,0.3270467765557054,0.1864273440517743,-1.0503827770814873
5.022500000000001,0.2833681666952953,0.1672514115601126,-1.032273240762794
5.025999999999996,0.2364956043037356,0.150206526085136,-1.0184240531482192
5.029499999999999,0.1629910628559944,0.138488385487246,-0.9928567249357544
5.033000000000001,0.1012029166768912,0.1235745470289545,-0.9651583497066044
5.036499999999997,0.0330233747769847,0.1043986145372928,-0.9353306727900212
5.039999999999999,-0.0223716303520633,0.0948115209560879,-0.9076322975608712
5.043500000000002,-0.1065296615539778,0.0745709376207097,-0.8788692714880046
5.046999999999997,-0.166186760716396,0.0607217500061347,-0.8660864800463982
5.0505,-0.2386266513204207,0.0436768645311581,-0.8522372924318231
5.054000000000002,-0.288694911572382,0.029827676916583,-0.8586286881526264
5.057499999999997,-0.3526141047681703,0.0074577918937717,-0.8650218292026817
5.061,-0.3962909692993285,-0.0063913957208032,-0.8767399698005716
5.064500000000002,-0.4378367868138015,-0.0255673282124649,-0.8959141569629812
5.067999999999998,-0.4634041150262664,-0.0383501196540714,-0.917221136471328
5.0715,-0.4985585368199362,-0.0404811666707564,-0.9555712561253994
5.074999999999996,-0.5315836569261729,-0.0468725623915597,-0.996052422796156
5.078499999999998,-0.5795208701614492,-0.0458079115478431,-1.0344025424502272
5.082000000000001,-0.600827849669796,-0.055395005129048,-1.0695587095731491
5.085499999999996,-0.614677037284371,-0.0671131457269379,-1.1004510373334488
5.088999999999999,-0.6221330838488908,-0.0745709376207097,-1.1281494125625986
5.092500000000001,-0.6082838962343158,-0.0841580312019145,-1.1483899958979769
5.0959999999999965,-0.5944364539489927,-0.0948115209560879,-1.1654348813729536
5.099499999999999,-0.5464974953844645,-0.1012029166768912,-1.1803487198312452
5.1030000000000015,-0.4996249329929048,-0.1075943123976944,-1.1878065117250167
5.106499999999997,-0.42292294835551,-0.1193124529955843,-1.1952625582895369
5.109999999999999,-0.3536787556118869,-0.1267702448893561,-1.1995246523229068
5.113500000000002,-0.260998281672484,-0.136357338470561,-1.1952625582895369
5.116999999999997,-0.1906876927558924,-0.1331616406101593,-1.192066860429135
5.1205,-0.096942567972773,-0.1320969897664428,-1.18247976684793
5.124000000000002,-0.0202405833353782,-0.1257055940456395,-1.1622391835125518
5.127499999999998,0.0756355884644262,-0.1129210572747811,-1.1462589488812918
5.131,0.1395530363309626,-0.1022693128498597,-1.1334761574396854
5.134500000000003,0.2034722295267509,-0.0926804739394028,-1.1185623189813938
5.137999999999998,0.2439533961975074,-0.083093380358198,-1.1057777822105357
5.141500000000001,0.2844345628682639,-0.0788312863248278,-1.095126037785614
5.144999999999996,0.3014794483432405,-0.0809623333415129,-1.0866035950481256
5.148499999999999,0.3121311927681619,-0.0841580312019145,-1.0770147561376688
5.152000000000001,0.3089354949077603,-0.0873537290623162,-1.0844725480314406
5.155499999999996,0.2940216564494687,-0.0884201252352847,-1.0844725480314406
5.158999999999999,0.2727164222703739,-0.096942567972773,-1.083406151858472
5.162500000000001,0.2258421145495622,-0.1054650107102613,-1.095126037785614
5.165999999999997,0.1832316461913727,-0.1118564064310645,-1.1025820843501335
5.169499999999999,0.1203788491685528,-0.1267702448893561,-1.1100398762439057
5.173000000000002,0.0788312863248278,-0.1278348957330726,-1.1004510373334488
5.176499999999997,0.0181095363186931,-0.1374237346435295,-1.1015174335064173
5.18,-0.0255673282124649,-0.1416840833476476,-1.1004510373334488
5.183500000000002,-0.0862890782185996,-0.1374237346435295,-1.0876682458918423
5.186999999999998,-0.1225098961852379,-0.1459461773810178,-1.0770147561376688
5.1905,-0.1651203645434275,-0.1555332709622227,-1.0589052198189757
5.194000000000003,-0.1789695521580025,-0.1672514115601126,-1.0461224283773694
5.197499999999998,-0.1864273440517743,-0.1715135055934827,-1.0194887039919358
5.2010000000000005,-0.1768385051413174,-0.1672514115601126,-0.996052422796156
5.204499999999996,-0.1470108282247343,-0.1608600158393093,-0.970485094583691
5.207999999999998,-0.1171831513081512,-0.1416840833476476,-0.9513109074212812
5.211500000000001,-0.0713752397603081,-0.1097253594143795,-0.9193504381587612
5.214999999999996,-0.0340897709499532,-0.083093380358198,-0.8873917142254929
5.218499999999999,0.0191759324916617,-0.0468725623915597,-0.8490415945714216
5.222000000000001,0.0585907029894496,-0.0181095363186931,-0.8245406625319252
5.225499999999997,0.1129210572747811,0.0149138384582915,-0.7861887975486017
5.228999999999999,0.1480754790684509,0.0404811666707564,-0.7659482142132235
5.232500000000002,0.1821652500184041,0.0820287295144815,-0.7414472821737271
5.235999999999997,0.1992101354933808,0.1193124529955843,-0.723336000525782
5.2395,0.2183860679850424,0.1576643179789077,-0.7116178599278921
5.243000000000002,0.2311688594266489,0.180035948330971,-0.7009661155029706
5.2464999999999975,0.233299906443334,0.2045368803704674,-0.7009661155029706
5.25,0.2279731615662473,0.2311688594266489,-0.7062911150508053
5.2535000000000025,0.2183860679850424,0.258867234655799,-0.7105532090841755
5.256999999999998,0.2098636252475541,0.274847469287059,-0.7116178599278921
5.2605,0.2066679273871525,0.2972173543098703,-0.713748906944577
5.263999999999996,0.1960144376329791,0.2972173543098703,-0.7073575112237738
5.267499999999998,0.2162550209683574,0.3046751462036421,-0.697768672313317
5.271000000000001,0.2354309534600191,0.3110665419244454,-0.683921230027994
5.274499999999996,0.274847469287059,0.3089354949077603,-0.6615495996759307
5.277999999999999,0.316393286801532,0.3121311927681619,-0.6327865736030641
5.281500000000001,0.3845728287014385,0.300413052170272,-0.605088198373914
5.284999999999997,0.4367721359700849,0.2833681666952953,-0.5805872663344177
5.288499999999999,0.4825800475179281,0.2652586303766022,-0.5486285424011496
5.292000000000002,0.5113430735907947,0.2418223491808223,-0.5315836569261729
5.295499999999997,0.5539552872782363,0.205601531214184,-0.4953628389595346
5.299,0.5720648235969293,0.1757738542976009,-0.4687308599033531
5.302500000000002,0.5784562193177326,0.1395530363309626,-0.4314453910929982
5.305999999999997,0.5688691257365278,0.1193124529955843,-0.4016177141764152
5.3095,0.5464974953844645,0.0905494269227178,-0.3483520107348002
5.313000000000002,0.5230612141886847,0.0671131457269379,-0.3185243338182171
5.316499999999998,0.4761869064678729,0.0383501196540714,-0.2695207244099723
5.32,0.4271832970596281,0.0191759324916617,-0.2279731615662473
5.323499999999996,0.3643322453660603,-0.0074577918937717,-0.1704471094205142
5.326999999999998,0.3206536355056502,-0.0255673282124649,-0.1342280367831279
5.330500000000001,0.260998281672484,-0.0564614013020165,-0.0841580312019145
5.333999999999996,0.2269085107225308,-0.0660484948832214,-0.0426122136874415
5.337499999999999,0.1757738542976009,-0.0798976824977964,0.0053267448770866
5.341000000000001,0.1480754790684509,-0.0937468701123714,0.0372854688103548
5.3444999999999965,0.1299659427497577,-0.1075943123976944,0.0767019846373948
5.347999999999999,0.1225098961852379,-0.1129210572747811,0.0980072188164895
5.3515000000000015,0.1012029166768912,-0.1065296615539778,0.1225098961852379
5.354999999999997,0.0884201252352847,-0.1012029166768912,0.1342280367831279
5.358499999999999,0.0820287295144815,-0.0905494269227178,0.1491418752414194
5.362000000000002,0.0788312863248278,-0.0745709376207097,0.1651203645434275
5.365499999999997,0.0724398906040246,-0.0575260521457331,0.1811005991746876
5.369,0.0745709376207097,-0.041545817514473,0.1949497867892626
5.372500000000002,0.0788312863248278,-0.0202405833353782,0.2162550209683574
5.375999999999998,0.0990718696602061,0.0031956978604016,0.2364956043037356
5.3795,0.0980072188164895,0.0394165158270399,0.2556715367953973
5.383000000000003,0.1075943123976944,0.0681795418999064,0.2716500260974054
5.386499999999998,0.1225098961852379,0.1097253594143795,0.2982837504828389
5.390000000000001,0.1374237346435295,0.1448797812080492,0.314262239784847
5.393499999999996,0.1544686201185061,0.1832316461913727,0.3334381722765087
5.396999999999999,0.1693824585767977,0.219450718828759,0.3430252658577135
5.400500000000001,0.1587289688226243,0.2578025838120824,0.3504830577514853
5.403999999999996,0.150206526085136,0.2833681666952953,0.355809802628572
5.407499999999999,0.1427504795206162,0.3089354949077603,0.369657244913895
5.411000000000001,0.138488385487246,0.3323735214327921,0.3813771308410369
5.414499999999997,0.1299659427497577,0.3547434064556034,0.4005513180034466
5.417999999999999,0.1342280367831279,0.3717882919305801,0.4133358547743051
5.421500000000002,0.1448797812080492,0.3867021303888716,0.4357057397971164
5.424999999999997,0.1629910628559944,0.3877685265618402,0.4548816722887781
5.4285,0.1885583910684593,0.3888331774055567,0.4719265577637547
5.432000000000002,0.2258421145495622,0.3824417816847534,0.4900360940824479
5.4354999999999976,0.2812388650078622,0.3675279432264619,0.4964292351325031
5.439,0.3185243338182171,0.3547434064556034,0.5006895838366213
5.442500000000003,0.3749839897909817,0.3398295679973119,0.4911024902554164
5.445999999999998,0.4207919013388249,0.3249157295390203,0.4889714432387313
5.4495000000000005,0.4729912086074713,0.3153286359578155,0.4879067923950148
5.452999999999996,0.4879067923950148,0.3057397970473587,0.4697955107470696
5.456499999999998,0.5124077244345112,0.2982837504828389,0.464468765869983
5.460000000000001,0.5294526099094878,0.288694911572382,0.4634041150262664
5.463499999999996,0.5283879590657713,0.2833681666952953,0.4495549274116914
5.466999999999999,0.5092120265741096,0.2769767709744921,0.43890318298677
5.470500000000001,0.4761869064678729,0.2514094427620272,0.4303807402492817
5.473999999999997,0.4548816722887781,0.2364956043037356,0.425053995372195
5.477499999999999,0.4218582975117934,0.2173214171413259,0.4154651564617382
5.481000000000002,0.3952245731263599,0.2024058333537824,0.4144005056180216
5.484499999999997,0.369657244913895,0.177904901314286,0.4261186462159115
5.488,0.3685925940701784,0.1629910628559944,0.4367721359700849
5.491500000000002,0.369657244913895,0.1299659427497577,0.4634041150262664
5.494999999999997,0.38350643252847,0.1075943123976944,0.4783179534845579
5.4985,0.4154651564617382,0.0809623333415129,0.5092120265741096
5.502000000000002,0.4495549274116914,0.0607217500061347,0.5241258650324012
5.505499999999998,0.4825800475179281,0.0330233747769847,0.5433017975240628
5.509,0.5102766774178261,0.0117181405978899,0.5528888911052677
5.512499999999996,0.5496931932448661,-0.0085224427374883,0.5678027295635593
5.515999999999998,0.5667380787198427,-0.0191759324916617,0.5752605214573311
5.519500000000001,0.5923054069323076,-0.0340897709499532,0.5752605214573311
5.522999999999996,0.5955011047927092,-0.0394165158270399,0.5731294744406459
5.526499999999999,0.5955011047927092,-0.0564614013020165,0.5656734278761262
5.530000000000001,0.5848476150385359,-0.0649838440395048,0.5656734278761262
5.5334999999999965,0.5422354013510943,-0.0724398906040246,0.5550199381219528
5.536999999999999,0.5113430735907947,-0.0703088435873395,0.5464974953844645
5.5405000000000015,0.4793843496575265,-0.0703088435873395,0.5294526099094878
5.543999999999997,0.4538170214450616,-0.0639174478665363,0.5251905158761178
5.547499999999999,0.4154651564617382,-0.0564614013020165,0.5145387714511963
5.551000000000002,0.3962909692993285,-0.0564614013020165,0.5049499325407395
5.554499999999997,0.3803107346680683,-0.0458079115478431,0.503885281697023
5.558,0.3749839897909817,-0.0330233747769847,0.4974938859762197
5.561500000000002,0.3728546881035486,-0.0170448854749766,0.5006895838366213
5.564999999999998,0.3856374795451551,-0.0053267448770866,0.5134723752782278
5.5685,0.4058780628805333,0.0095870935812048,0.5283879590657713
5.572000000000003,0.4186608543221398,0.0245026773687483,0.5390397034906926
5.575499999999998,0.425053995372195,0.0447432607041266,0.5528888911052677
5.579000000000001,0.4282496932325966,0.0543303542853314,0.5582156359823544
5.582499999999996,0.4271832970596281,0.0681795418999064,0.5805872663344177
5.585999999999999,0.4175962034784233,0.0798976824977964,0.5923054069323076
5.589500000000001,0.3930952714389268,0.0937468701123714,0.6178727351447726
5.592999999999996,0.3728546881035486,0.1161167551351827,0.6349176206197492
