time,Gyr_X,Gyr_Y,Gyr_Z
0.0,0.0063913957208032,0.0031956978604016,-0.0031956978604016
0.0035000000000025,0.0031956978604016,0.0010646508437165,-0.0063913957208032
0.007000000000005,0.0042603487041181,-5.217422403749877e-19,-0.0042603487041181
0.0104999999999932,0.0063913957208032,0.0031956978604016,-0.002131047016685
0.0139999999999957,0.0010646508437165,0.0031956978604016,-0.0053267448770866
0.0174999999999982,0.0085224427374883,-1.0436982219381666e-18,-0.0053267448770866
0.0210000000000007,0.0010646508437165,0.0031956978604016,-0.0031956978604016
0.0245000000000032,0.0074577918937717,0.0042603487041181,-0.0042603487041181
0.0279999999999915,0.0042603487041181,0.0053267448770866,-0.0042603487041181
0.031499999999994,0.0042603487041181,0.002131047016685,-0.0063913957208032
0.0349999999999965,0.0053267448770866,0.0010646508437165,-0.0031956978604016
0.038499999999999,2.6097799078158957e-19,0.002131047016685,-0.0042603487041181
0.0420000000000015,0.0042603487041181,0.002131047016685,-0.0074577918937717
0.045500000000004,0.002131047016685,0.0010646508437165,-0.0031956978604016
0.0489999999999923,0.0042603487041181,0.002131047016685,-0.0053267448770866
0.0524999999999948,0.0031956978604016,0.002131047016685,-0.0031956978604016
0.0559999999999973,0.0010646508437165,0.002131047016685,-0.0010646508437165
0.0594999999999998,0.002131047016685,0.0042603487041181,-0.0031956978604016
0.0630000000000023,0.0031956978604016,0.002131047016685,-0.0031956978604016
0.0665000000000048,0.0031956978604016,-3.913601155782886e-19,-0.0031956978604016
0.0699999999999931,0.002131047016685,0.0042603487041181,-0.0063913957208032
0.0734999999999956,0.0042603487041181,0.0053267448770866,-0.0031956978604016
0.0769999999999981,0.002131047016685,0.002131047016685,-0.0031956978604016
0.0805000000000006,0.0042603487041181,0.0042603487041181,-0.0042603487041181
0.0840000000000031,0.0042603487041181,-5.217422403749877e-19,-0.002131047016685
0.0874999999999914,0.0031956978604016,0.0042603487041181,-0.0063913957208032
0.0909999999999939,0.0053267448770866,-6.523381063598781e-19,-0.0053267448770866
0.0944999999999964,0.0031956978604016,0.0010646508437165,0.0
0.0979999999999989,0.0042603487041181,0.0010646508437165,-0.0053267448770866
0.1015000000000014,0.0042603487041181,-5.217422403749877e-19,-0.0031956978604016
0.1050000000000039,0.002131047016685,0.002131047016685,-0.0053267448770866
0.1084999999999922,0.0042603487041181,0.0053267448770866,-0.0010646508437165
0.1119999999999947,0.0085224427374883,0.0031956978604016,-0.0053267448770866
0.1154999999999972,0.0031956978604016,0.0053267448770866,-0.0095870935812048
0.1189999999999997,0.0031956978604016,0.002131047016685,-0.0042603487041181
0.1225000000000022,0.0063913957208032,-7.827202311565772e-19,-0.002131047016685
0.1260000000000047,0.0042603487041181,0.002131047016685,-0.0031956978604016
0.129499999999993,0.0010646508437165,0.0031956978604016,-0.0042603487041181
0.1329999999999955,0.002131047016685,0.0010646508437165,-0.0031956978604016
0.136499999999998,0.0042603487041181,-5.217422403749877e-19,-0.0010646508437165
0.1400000000000005,0.0053267448770866,-6.523381063598781e-19,-0.0031956978604016
0.143500000000003,0.0031956978604016,0.0010646508437165,-0.0053267448770866
0.1469999999999913,0.0042603487041181,0.0010646508437165,-0.002131047016685
0.1504999999999938,0.002131047016685,0.002131047016685,-0.0042603487041181
0.1539999999999963,0.0053267448770866,0.0042603487041181,-0.0042603487041181
0.1574999999999988,0.0010646508437165,0.0042603487041181,-0.0042603487041181
0.1610000000000013,0.0063913957208032,0.0010646508437165,-0.0063913957208032
0.1645000000000038,0.0010646508437165,0.0010646508437165,-0.0031956978604016
0.1679999999999921,0.0042603487041181,0.002131047016685,-0.0031956978604016
0.1714999999999946,0.0031956978604016,0.002131047016685,0.0
0.1749999999999971,0.0031956978604016,0.002131047016685,-0.0010646508437165
0.1784999999999996,0.0031956978604016,0.002131047016685,-0.0053267448770866
0.1820000000000021,0.0031956978604016,0.002131047016685,-0.0053267448770866
0.1855000000000046,0.0031956978604016,0.0010646508437165,-0.0031956978604016
0.1889999999999929,0.0031956978604016,0.0031956978604016,-0.0074577918937717
0.1924999999999954,0.002131047016685,0.002131047016685,-0.0042603487041181
0.1959999999999979,0.0042603487041181,0.0031956978604016,-0.0074577918937717
0.1995000000000004,0.002131047016685,0.0031956978604016,-0.0042603487041181
0.2030000000000029,0.0042603487041181,0.0010646508437165,-0.0053267448770866
0.2064999999999912,0.0010646508437165,0.0053267448770866,-0.0085224427374883
0.2099999999999937,0.0031956978604016,0.0031956978604016,-0.0031956978604016
0.2134999999999962,0.0031956978604016,0.002131047016685,-0.0053267448770866
0.2169999999999987,0.0053267448770866,0.002131047016685,-0.0031956978604016
0.2205000000000012,0.002131047016685,0.0010646508437165,-0.002131047016685
0.2240000000000037,0.0031956978604016,0.002131047016685,-0.0053267448770866
0.227499999999992,0.0031956978604016,0.0031956978604016,-0.0042603487041181
0.2309999999999945,0.0042603487041181,0.002131047016685,-0.0031956978604016
0.234499999999997,0.0031956978604016,0.0010646508437165,-0.0042603487041181
0.2379999999999995,0.002131047016685,0.0031956978604016,-0.0010646508437165
0.241500000000002,0.0042603487041181,-5.217422403749877e-19,-0.0042603487041181
0.2450000000000045,0.0042603487041181,0.002131047016685,-0.0042603487041181
0.2484999999999928,0.0042603487041181,0.0031956978604016,-0.002131047016685
0.2519999999999953,0.0031956978604016,0.0031956978604016,-0.0031956978604016
0.2554999999999978,0.002131047016685,0.0010646508437165,-0.0031956978604016
0.2590000000000003,0.002131047016685,0.0031956978604016,-0.0042603487041181
0.2625000000000028,0.0053267448770866,0.0010646508437165,-0.0010646508437165
0.2659999999999911,0.0031956978604016,0.002131047016685,-0.0042603487041181
0.2694999999999936,0.0031956978604016,0.002131047016685,-0.0053267448770866
0.2729999999999961,3.913601155782886e-19,0.0031956978604016,-0.0042603487041181
0.2764999999999986,0.0042603487041181,0.0031956978604016,-0.0031956978604016
0.2800000000000011,0.0031956978604016,0.0042603487041181,-0.0042603487041181
0.2835000000000036,0.002131047016685,0.0010646508437165,-0.0010646508437165
0.2869999999999919,0.002131047016685,0.0031956978604016,-0.0063913957208032
0.2904999999999944,0.0042603487041181,0.0031956978604016,-0.0042603487041181
0.2939999999999969,0.0042603487041181,0.0031956978604016,-0.0031956978604016
0.2974999999999994,0.0053267448770866,0.0042603487041181,-0.0042603487041181
0.3010000000000019,0.0063913957208032,0.002131047016685,-0.0042603487041181
0.3045000000000044,0.0010646508437165,-1.3038212479669908e-19,-0.002131047016685
0.3079999999999927,0.0053267448770866,0.002131047016685,-0.0031956978604016
0.3114999999999952,0.0053267448770866,0.0010646508437165,-0.0053267448770866
0.3149999999999977,0.0031956978604016,0.0031956978604016,-0.0074577918937717
0.3185000000000002,0.002131047016685,0.002131047016685,-0.0031956978604016
0.3220000000000027,0.0042603487041181,0.002131047016685,-0.0031956978604016
0.325499999999991,0.0042603487041181,0.002131047016685,-0.0063913957208032
0.3289999999999935,0.0031956978604016,-3.913601155782886e-19,-0.0031956978604016
0.332499999999996,0.0010646508437165,0.002131047016685,-0.0053267448770866
0.3359999999999985,0.0074577918937717,0.0031956978604016,-0.002131047016685
0.339500000000001,0.0010646508437165,-1.3038212479669908e-19,-0.0031956978604016
0.3430000000000035,0.0042603487041181,0.0042603487041181,-0.0063913957208032
0.3464999999999918,0.0053267448770866,0.0010646508437165,-0.0053267448770866
0.3499999999999943,0.0031956978604016,0.0042603487041181,-0.0063913957208032
0.3534999999999968,0.0063913957208032,0.002131047016685,-0.0063913957208032
0.3569999999999993,0.0031956978604016,0.0031956978604016,-0.0053267448770866
0.3605000000000018,0.002131047016685,0.0042603487041181,-0.0063913957208032
0.3640000000000043,0.0031956978604016,0.002131047016685,-0.0042603487041181
0.3674999999999926,0.0031956978604016,0.0010646508437165,-0.0010646508437165
0.3709999999999951,0.002131047016685,0.0042603487041181,-0.0063913957208032
0.3744999999999976,0.0031956978604016,0.002131047016685,-0.0053267448770866
0.3780000000000001,0.0053267448770866,0.0031956978604016,-0.0010646508437165
0.3815000000000026,0.002131047016685,-2.6097799078158957e-19,-0.0042603487041181
0.3850000000000051,0.0053267448770866,0.0010646508437165,0.0
0.3884999999999934,0.0042603487041181,0.002131047016685,-0.0042603487041181
0.3919999999999959,0.0042603487041181,0.0031956978604016,-0.0053267448770866
0.3954999999999984,0.0031956978604016,0.0031956978604016,-0.002131047016685
0.3990000000000009,0.0042603487041181,-5.217422403749877e-19,-0.0031956978604016
0.4025000000000034,0.0053267448770866,0.0031956978604016,-0.0063913957208032
0.4059999999999917,0.0010646508437165,0.0031956978604016,-0.002131047016685
0.4094999999999942,0.0053267448770866,0.0042603487041181,-0.0031956978604016
0.4129999999999967,0.0053267448770866,0.0010646508437165,-0.002131047016685
0.4164999999999992,0.0031956978604016,0.0042603487041181,-0.0031956978604016
0.4200000000000017,0.0042603487041181,0.002131047016685,-0.0010646508437165
0.4235000000000042,0.0042603487041181,-5.217422403749877e-19,-0.0042603487041181
0.4269999999999925,0.0042603487041181,0.0031956978604016,-0.002131047016685
0.430499999999995,0.0031956978604016,0.0031956978604016,-0.0042603487041181
0.4339999999999975,0.0010646508437165,0.0042603487041181,-0.0031956978604016
0.4375,0.0031956978604016,0.0010646508437165,-0.0042603487041181
0.4410000000000025,0.0010646508437165,0.0042603487041181,-0.0042603487041181
0.444500000000005,0.0074577918937717,0.002131047016685,-0.0042603487041181
0.4479999999999933,0.0063913957208032,0.0074577918937717,-0.0031956978604016
0.4514999999999958,0.0031956978604016,0.0063913957208032,-0.0074577918937717
0.4549999999999983,0.0031956978604016,0.0031956978604016,-0.0095870935812048
0.4585000000000008,0.0031956978604016,-0.0042603487041181,-0.0053267448770866
0.4620000000000033,-1.1740803467348658e-18,-0.0095870935812048,-0.0063913957208032
0.4654999999999916,0.002131047016685,-0.01598023463126,-0.0053267448770866
0.4689999999999941,-2.0873964438763333e-18,-0.0170448854749766,-0.0074577918937717
0.4724999999999966,0.0010646508437165,-0.0181095363186931,-0.0042603487041181
0.4759999999999991,0.002131047016685,-0.0095870935812048,-0.0074577918937717
0.4795000000000016,0.0031956978604016,-0.0063913957208032,-0.0042603487041181
0.4830000000000041,0.0106534897541733,0.002131047016685,-0.0031956978604016
0.4864999999999924,0.013849187614575,-1.6960363282980449e-18,-0.002131047016685
0.4899999999999949,0.0085224427374883,-0.0074577918937717,-0.002131047016685
0.4934999999999974,0.0095870935812048,-0.0106534897541733,-0.0085224427374883
0.4969999999999999,0.0010646508437165,-0.0117181405978899,-0.0031956978604016
0.5005000000000024,-1.8264184530947443e-18,-0.0149138384582915,-0.0063913957208032
0.5040000000000049,0.0010646508437165,-0.0106534897541733,-0.0074577918937717
0.5074999999999932,0.0042603487041181,-0.0010646508437165,-0.0042603487041181
0.5109999999999957,0.0053267448770866,0.0085224427374883,-0.0031956978604016
0.5144999999999982,0.0042603487041181,0.0085224427374883,-0.0042603487041181
0.5180000000000007,0.0031956978604016,0.002131047016685,0.0
0.5215000000000032,0.0031956978604016,0.0031956978604016,0.0
0.5249999999999915,0.002131047016685,-0.0053267448770866,-0.0010646508437165
0.528499999999994,0.002131047016685,-0.0010646508437165,-0.002131047016685
0.5319999999999965,0.0095870935812048,-1.1740803467348658e-18,0.0010646508437165
0.535499999999999,0.0095870935812048,0.0063913957208032,0.0010646508437165
0.5390000000000015,0.0127827914416064,0.0031956978604016,0.002131047016685
0.542500000000004,0.013849187614575,0.0010646508437165,0.0031956978604016
0.5459999999999923,0.0127827914416064,-0.0106534897541733,0.0053267448770866
0.5494999999999948,0.0085224427374883,-0.0106534897541733,0.0106534897541733
0.5529999999999973,0.0053267448770866,-0.01598023463126,0.0074577918937717
0.5564999999999998,0.0085224427374883,-0.0149138384582915,0.0031956978604016
0.5600000000000023,0.0117181405978899,-0.0063913957208032,0.002131047016685
0.5635000000000048,0.0095870935812048,-1.1740803467348658e-18,-0.0031956978604016
0.5669999999999931,0.0063913957208032,0.0095870935812048,-0.0031956978604016
0.5704999999999956,0.002131047016685,0.0117181405978899,-0.0031956978604016
0.5739999999999981,0.002131047016685,0.0106534897541733,-0.0031956978604016
0.5775000000000006,1.1740803467348658e-18,0.0095870935812048,-0.0042603487041181
0.5810000000000031,0.002131047016685,0.0095870935812048,-0.0031956978604016
0.5844999999999914,-0.002131047016685,0.0053267448770866,-0.0063913957208032
0.5879999999999939,-0.0031956978604016,-0.0010646508437165,-0.0063913957208032
0.5914999999999964,-0.0095870935812048,-0.0053267448770866,-0.0106534897541733
0.5949999999999989,-0.0074577918937717,-0.002131047016685,-0.0095870935812048
0.5985000000000014,-0.0053267448770866,-0.0010646508437165,-0.0106534897541733
0.6020000000000039,-0.0042603487041181,0.0031956978604016,-0.0106534897541733
0.6054999999999922,-0.0117181405978899,-0.0010646508437165,-0.0095870935812048
0.6089999999999947,-0.0191759324916617,-0.013849187614575,-0.0085224427374883
0.6124999999999972,-0.0245026773687483,-0.0223716303520633,-0.0085224427374883
0.6159999999999997,-0.0330233747769847,-0.0287630260728665,-0.0095870935812048
0.6195000000000022,-0.0362208179666383,-0.0308940730895516,-0.0085224427374883
0.6230000000000047,-0.0351544217936697,-0.02769837522915,-0.0063913957208032
0.626499999999993,-0.0340897709499532,-0.0181095363186931,-0.0053267448770866
0.6299999999999955,-0.0287630260728665,-0.0063913957208032,-0.0031956978604016
0.633499999999998,-0.0181095363186931,0.0053267448770866,0.0
0.6370000000000005,-0.0042603487041181,0.0202405833353782,-0.0010646508437165
0.640500000000003,0.0085224427374883,0.0245026773687483,0.0
0.6439999999999912,0.0149138384582915,0.0319587239332681,0.0
0.6474999999999937,0.0170448854749766,0.0287630260728665,-0.0042603487041181
0.6509999999999962,0.0181095363186931,0.0287630260728665,-0.0031956978604016
0.6544999999999987,0.013849187614575,0.0266319790561814,-0.002131047016685
0.6580000000000013,0.013849187614575,0.0287630260728665,-0.0117181405978899
0.6615000000000038,0.0106534897541733,0.0287630260728665,-0.0085224427374883
0.664999999999992,0.0085224427374883,0.0351544217936697,-0.0117181405978899
0.6684999999999945,0.0085224427374883,0.0330233747769847,-0.0074577918937717
0.671999999999997,0.0053267448770866,0.0202405833353782,0.0
0.6754999999999995,0.0010646508437165,-1.3038212479669908e-19,0.0
0.679000000000002,-0.0010646508437165,-0.0213052341790947,-0.002131047016685
0.6825000000000045,-0.0031956978604016,-0.0362208179666383,-0.0095870935812048
0.6859999999999928,-0.0042603487041181,-0.0479389585645282,-0.0095870935812048
0.6894999999999953,-0.0095870935812048,-0.0511346564249298,-0.0095870935812048
0.6929999999999978,-0.0063913957208032,-0.0404811666707564,-0.0127827914416064
0.6965000000000003,-0.002131047016685,-0.0330233747769847,-0.0063913957208032
0.7000000000000028,-0.0053267448770866,-0.0149138384582915,-0.0095870935812048
0.7034999999999911,-0.0074577918937717,-0.0063913957208032,-0.0074577918937717
0.7069999999999936,-0.0149138384582915,0.0085224427374883,-0.0106534897541733
0.7104999999999961,-0.0191759324916617,0.0063913957208032,-0.0085224427374883
0.7139999999999986,-0.0223716303520633,2.739734550236212e-18,-0.0053267448770866
0.7175000000000011,-0.0234362811957798,-0.0042603487041181,-0.0074577918937717
0.7210000000000036,-0.0245026773687483,-0.0106534897541733,-0.0085224427374883
0.7244999999999919,-0.0191759324916617,-0.0223716303520633,-0.0095870935812048
0.7279999999999944,-0.013849187614575,-0.0383501196540714,-0.0095870935812048
0.7314999999999969,-0.0031956978604016,-0.0383501196540714,-0.0095870935812048
0.7349999999999994,0.0127827914416064,-0.0404811666707564,-0.0117181405978899
0.7385000000000019,0.0266319790561814,-0.041545817514473,-0.0085224427374883
0.7420000000000044,0.0404811666707564,-0.0362208179666383,-0.0085224427374883
0.7454999999999927,0.0447432607041266,-0.0372854688103548,-0.0085224427374883
0.7489999999999952,0.0543303542853314,-0.0404811666707564,-0.002131047016685
0.7524999999999977,0.0596570991624181,-0.0479389585645282,-0.0042603487041181
0.7560000000000002,0.0713752397603081,-0.0596570991624181,0.0010646508437165
0.7595000000000027,0.0798976824977964,-0.0724398906040246,0.0
0.762999999999991,0.0937468701123714,-0.0873537290623162,-0.002131047016685
0.7664999999999935,0.1086607085706629,-0.0990718696602061,-0.0031956978604016
0.769999999999996,0.1235745470289545,-0.1203788491685529,-0.0042603487041181
0.7734999999999985,0.1491418752414194,-0.1384883854872461,0.0
0.777000000000001,0.1747092034538843,-0.1608600158393094,0.0
0.7805000000000035,0.1949497867892626,-0.1842962970350892,-0.0010646508437165
0.7839999999999918,0.2215817658454441,-0.2066679273871526,0.0031956978604016
0.7874999999999943,0.235430953460019,-0.2269085107225308,-0.0042603487041181
0.7909999999999968,0.2439533961975073,-0.2578025838120825,-0.0074577918937717
0.7944999999999993,0.2396913021641372,-0.2769767709744922,-0.0063913957208032
0.7980000000000018,0.2183860679850424,-0.314262239784847,-0.0031956978604016
0.8015000000000043,0.2034722295267509,-0.3345028231202252,-0.0053267448770866
0.8049999999999926,0.1534022239455375,-0.3760503859639502,-0.0074577918937717
0.8084999999999951,0.0926804739394028,-0.4101401569139035,-0.01598023463126
0.8119999999999976,0.0266319790561814,-0.4548816722887781,-0.029827676916583
0.8155000000000001,-0.0213052341790948,-0.4932317919428495,-0.0372854688103548
0.8190000000000026,-0.0681795418999065,-0.5411707505073777,-0.0447432607041266
0.8225000000000051,-0.0958761717998045,-0.5805872663344177,-0.0458079115478431
0.8259999999999934,-0.136357338470561,-0.626395177882261,-0.0500682602519613
0.8294999999999959,-0.1608600158393094,-0.6636806466926157,-0.0585907029894496
0.8329999999999984,-0.1949497867892627,-0.6967040214696004,-0.069244192743623
0.8365000000000009,-0.2130593231079558,-0.7244023966987505,-0.0788312863248278
0.8400000000000034,-0.2269085107225308,-0.7446429800341288,-0.0937468701123714
0.8434999999999917,-0.2301042085829324,-0.7520990265986485,-0.1139874534477496
0.8469999999999942,-0.2386266513204208,-0.7467722817215618,-0.1267702448893561
0.8504999999999967,-0.2503447919183107,-0.727598094559152,-0.1352926876268444
0.8539999999999992,-0.272716422270374,-0.6967040214696004,-0.152337573101821
0.8575000000000017,-0.286565609884949,-0.6658099483800488,-0.1587289688226243
0.8610000000000042,-0.3110665419244454,-0.6157416881280875,-0.1747092034538843
0.8644999999999925,-0.3376985209806269,-0.5741958706136145,-0.1864273440517743
0.867999999999995,-0.3643322453660604,-0.5283879590657713,-0.2098636252475541
0.8714999999999975,-0.38350643252847,-0.4953628389595345,-0.2237128128621291
0.875,-0.4133358547743052,-0.4602084171658647,-0.2492801410745941
0.8785000000000025,-0.4325100419367148,-0.4357057397971163,-0.2578025838120824
0.882000000000005,-0.4495549274116915,-0.4016177141764151,-0.2727164222703739
0.8854999999999933,-0.4516859744283765,-0.3771150368076667,-0.2695207244099723
0.8889999999999958,-0.4144005056180217,-0.3345028231202251,-0.2567361876391139
0.8924999999999983,-0.3568744534722886,-0.3121311927681618,-0.2407576983371057
0.8960000000000008,-0.2652586303766022,-0.288694911572382,-0.2034722295267509
0.8995000000000033,-0.205601531214184,-0.274847469287059,-0.1811005991746876
0.9029999999999916,-0.164055713699711,-0.2705853752536888,-0.1651203645434275
0.906499999999994,-0.1597953649955928,-0.2791078179911772,-0.1544686201185061
0.9099999999999966,-0.1885583910684594,-0.2876302607286655,-0.1395530363309626
0.9134999999999992,-0.2237128128621292,-0.3046751462036421,-0.1182478021518678
0.9170000000000016,-0.2791078179911772,-0.3281114273994219,-0.0958761717998045
0.920500000000004,-0.3217200316786188,-0.3451563128743986,-0.0724398906040246
0.9239999999999924,-0.3664615470534934,-0.3675279432264619,-0.0383501196540714
0.9274999999999948,-0.3898978282492733,-0.3845728287014385,-0.013849187614575
0.9309999999999974,-0.3941599222826434,-0.4069427137242498,0.0127827914416064
0.9345,-0.39522457312636,-0.4229229483555099,0.0319587239332681
0.9380000000000024,-0.38350643252847,-0.43890318298677,0.0607217500061347
0.9415000000000048,-0.3803107346680684,-0.4410324846742031,0.0756355884644262
0.9449999999999932,-0.38350643252847,-0.4452945787075732,0.0948115209560879
0.9484999999999956,-0.3909642244222419,-0.4420988808471716,0.1097253594143795
0.9519999999999982,-0.4005513180034467,-0.4250539953721949,0.1310323389227262
0.9555000000000008,-0.409073760740935,-0.4026823650201316,0.1438151303643327
0.9590000000000032,-0.409073760740935,-0.3749839897909816,0.1534022239455376
0.9624999999999916,-0.4016177141764152,-0.3494166615785167,0.1608600158393093
0.965999999999994,-0.3941599222826434,-0.3089354949077602,0.1565979218059392
0.9694999999999964,-0.3803107346680684,-0.2769767709744921,0.1576643179789077
0.972999999999999,-0.3504830577514853,-0.2332999064433339,0.150206526085136
0.9765000000000016,-0.3249157295390203,-0.1960144376329791,0.1470108282247343
0.980000000000004,-0.2780431671474606,-0.1459461773810178,0.136357338470561
0.9834999999999924,-0.2418223491808223,-0.1043986145372928,0.1267702448893561
0.9869999999999948,-0.1864273440517743,-0.0447432607041266,0.1161167551351827
0.9904999999999972,-0.1427504795206162,0.0031956978604016,0.1086607085706629
0.9939999999999998,-0.0841580312019145,0.069244192743623,0.0990718696602061
0.9975000000000024,-0.0404811666707564,0.1171831513081512,0.0958761717998045
1.0010000000000048,0.0085224427374883,0.1757738542976009,0.0916158230956863
1.004499999999993,0.0404811666707565,0.219450718828759,0.083093380358198
1.0079999999999956,0.0703088435873396,0.2673896773932873,0.0681795418999064
1.011499999999998,0.0798976824977964,0.302544099186957,0.0607217500061347
1.0150000000000006,0.080962333341513,0.3408942188410284,0.0543303542853314
1.018500000000003,0.0798976824977964,0.3664615470534934,0.0607217500061347
1.0219999999999914,0.069244192743623,0.397355620143045,0.069244192743623
1.025499999999994,0.0617864008498513,0.4175962034784233,0.0820287295144815
1.0289999999999964,0.0617864008498513,0.4495549274116914,0.1001382658331746
1.0324999999999989,0.0660484948832214,0.4719265577637547,0.1150521042914662
1.0360000000000014,0.0852244273748831,0.5049499325407395,0.1427504795206162
1.039500000000004,0.1043986145372928,0.5273215628928027,0.1651203645434275
1.0429999999999922,0.136357338470561,0.561411333842756,0.1928187397725775
1.0464999999999949,0.1651203645434276,0.5901743599156226,0.2066679273871525
1.0499999999999972,0.203472229526751,0.6295908757426625,0.2322352555996175
1.0534999999999997,0.2354309534600192,0.6594185526592456,0.2450180470412239
1.0570000000000022,0.272716422270374,0.7020307663466872,0.2599318854995155
1.0605000000000049,0.298283750482839,0.7318584432632703,0.2652586303766022
1.063999999999993,0.3345028231202253,0.7712749590903102,0.2641939795328856
1.0674999999999957,0.3643322453660604,0.7989733343194602,0.2599318854995155
1.070999999999998,0.3973556201430451,0.8351924069568466,0.2503447919183106
1.0745000000000005,0.4250539953721951,0.8575640373089098,0.2375620004767041
1.078000000000003,0.4580773701491798,0.877804620644288,0.2205171150017275
1.0814999999999912,0.4825800475179282,0.8863270633817764,0.2024058333537824
1.0849999999999935,0.5113430735907948,0.9023072980130364,0.1768385051413174
1.0884999999999962,0.5305172607532045,0.9108279954212728,0.152337573101821
1.0919999999999987,0.5443664483677795,0.9118943915942412,0.1182478021518678
1.0955000000000013,0.5475621462281811,0.917221136471328,0.096942567972773
1.0990000000000038,0.5518242402615513,0.909763344577556,0.0713752397603081
1.102499999999992,0.5464974953844646,0.9118943915942412,0.0521993072686464
1.1059999999999943,0.5401060996636613,0.9023072980130364,0.0319587239332681
1.109499999999997,0.529452609909488,0.895914156962981,0.01598023463126
1.1129999999999995,0.5124077244345113,0.8873917142254928,0.0031956978604016
1.116500000000002,0.4985585368199363,0.8799356676609731,-0.0031956978604016
1.1200000000000043,0.4793843496575266,0.8671511308901146,-0.0074577918937717
1.1234999999999928,0.4580773701491798,0.8458458967110198,-0.0106534897541733
1.1269999999999951,0.420791901338825,0.8341277561131301,-0.01598023463126
1.1304999999999978,0.3941599222826435,0.8170828706381533,-0.0170448854749766
1.1340000000000003,0.3494166615785168,0.8011026360068932,-0.0202405833353782
1.1375000000000028,0.3142622397848471,0.7829930996882002,-0.0202405833353782
1.1409999999999911,0.2546051406224289,0.7648835633695069,-0.0181095363186931
1.1444999999999936,0.2130593231079558,0.753165422771617,-0.0127827914416064
1.147999999999996,0.1565979218059393,0.7403808860007585,-0.0042603487041181
1.1514999999999986,0.1139874534477497,0.7286627454028686,0.0
1.1550000000000011,0.0703088435873396,0.7116178599278921,0.0181095363186931
1.1585000000000036,0.0351544217936698,0.6924436727654824,0.0255673282124649
1.161999999999992,8.23211361847539e-17,0.6722030894301041,0.0404811666707564
1.1654999999999944,-0.0170448854749765,0.6562228547988439,0.0479389585645282
1.168999999999997,-0.0404811666707564,0.6295908757426625,0.0564614013020165
1.1724999999999994,-0.0511346564249297,0.6136106411114024,0.0649838440395048
1.176000000000002,-0.0511346564249298,0.5891097090719061,0.0713752397603081
1.1795000000000044,-0.0500682602519612,0.5688691257365278,0.0745709376207097
1.1829999999999927,-0.0404811666707564,0.5411707505073777,0.0841580312019145
1.1864999999999952,-0.0266319790561814,0.5156034222949128,0.0894847760790012
1.1899999999999975,-0.0053267448770866,0.4815136513449596,0.0937468701123714
1.1935000000000002,0.0181095363186932,0.4570127193054631,0.0948115209560879
1.1970000000000027,0.0468725623915597,0.425053995372195,0.1001382658331746
1.200499999999991,0.0745709376207097,0.4005513180034466,0.1022693128498597
1.2039999999999935,0.1150521042914662,0.3675279432264619,0.1043986145372928
1.207499999999996,0.1406194325039312,0.3408942188410284,0.1075943123976944
1.2109999999999983,0.1800359483309711,0.3068061932203272,0.1075943123976944
1.214500000000001,0.2024058333537824,0.2801724688348938,0.1086607085706629
1.2180000000000035,0.2311688594266489,0.2428870000245388,0.1086607085706629
1.2214999999999918,0.2492801410745941,0.219450718828759,0.1086607085706629
1.2249999999999943,0.2652586303766022,0.1832316461913726,0.1086607085706629
1.2284999999999968,0.2727164222703739,0.1597953649955928,0.1033339636935762
1.231999999999999,0.274847469287059,0.1374237346435295,0.096942567972773
1.2355000000000018,0.2684543282370038,0.1150521042914661,0.0958761717998045
1.2390000000000043,0.2546051406224288,0.0958761717998044,0.0980072188164895
1.2424999999999926,0.2375620004767041,0.083093380358198,0.0926804739394028
1.2459999999999951,0.2034722295267509,0.0671131457269379,0.0841580312019145
1.2494999999999976,0.1725781564371993,0.0564614013020165,0.0777666354811113
1.253,0.1214435000122694,0.0404811666707564,0.0756355884644262
1.2565000000000026,0.083093380358198,0.029827676916583,0.0788312863248278
1.259999999999991,0.0234362811957798,0.0245026773687483,0.0767019846373948
1.2634999999999934,-0.0181095363186931,0.0149138384582915,0.0798976824977964
1.266999999999996,-0.0713752397603081,0.0063913957208032,0.0767019846373948
1.2704999999999984,-0.110790010258096,0.0053267448770867,0.0767019846373948
1.274000000000001,-0.1576643179789077,0.0010646508437165,0.0681795418999064
1.2775000000000034,-0.1885583910684593,2.3091743007436364e-17,0.0639174478665363
1.2809999999999917,-0.2215817658454441,0.0053267448770867,0.0543303542853314
1.2844999999999942,-0.2396913021641372,0.0063913957208032,0.0490036094082447
1.2879999999999967,-0.2535404897787122,0.0149138384582915,0.0383501196540714
1.2914999999999992,-0.260998281672484,0.0213052341790948,0.0362208179666383
1.2950000000000017,-0.2599318854995155,0.0319587239332682,0.0245026773687483
1.2985000000000042,-0.2524758389349957,0.0362208179666383,0.0223716303520633
1.3019999999999925,-0.2428870000245388,0.041545817514473,0.0127827914416064
1.305499999999995,-0.2290395577392158,0.0447432607041266,0.0085224427374883
1.3089999999999975,-0.205601531214184,0.0500682602519613,0.0
1.3125,-0.1853609478788057,0.0490036094082448,-0.0042603487041181
1.3160000000000025,-0.1544686201185061,0.0468725623915597,-0.0053267448770866
1.319500000000005,-0.1299659427497577,0.0436768645311581,-0.0074577918937717
1.3229999999999933,-0.0894847760790012,0.0372854688103548,-0.0117181405978899
1.3264999999999958,-0.0617864008498512,0.0330233747769847,-0.0042603487041181
1.3299999999999983,-0.0191759324916616,0.02769837522915,-0.0063913957208032
1.3335000000000008,0.0149138384582915,0.02769837522915,-0.0053267448770866
1.3370000000000033,0.055395005129048,0.0287630260728665,-0.0063913957208032
1.3404999999999916,0.0809623333415129,0.0234362811957798,-0.0042603487041181
1.343999999999994,0.1150521042914662,0.0234362811957798,-0.002131047016685
1.3474999999999966,0.1374237346435295,0.0202405833353782,-0.0010646508437165
1.350999999999999,0.1470108282247343,0.0245026773687483,0.0
1.3545000000000016,0.1565979218059392,0.0245026773687483,0.0042603487041181
1.358000000000004,0.1565979218059392,0.0191759324916616,0.0063913957208032
1.3614999999999924,0.1438151303643327,0.0245026773687483,0.0042603487041181
1.3649999999999949,0.1225098961852379,0.0308940730895516,0.0074577918937717
1.3684999999999974,0.0990718696602061,0.0404811666707564,0.0149138384582915
1.372,0.0724398906040246,0.0532657034416149,0.0191759324916617
1.3755000000000024,0.0511346564249298,0.0639174478665363,0.0308940730895516
1.3790000000000049,0.0170448854749766,0.0735062867769931,0.0394165158270399
1.3824999999999932,-0.0063913957208032,0.0798976824977964,0.0521993072686464
1.3859999999999957,-0.041545817514473,0.0809623333415129,0.0617864008498512
1.3894999999999982,-0.069244192743623,0.0841580312019145,0.0671131457269379
1.393000000000001,-0.1033339636935762,0.0820287295144815,0.0745709376207097
1.3965000000000032,-0.1299659427497577,0.0767019846373948,0.0735062867769931
1.3999999999999917,-0.1597953649955928,0.0713752397603081,0.0735062867769931
1.403499999999994,-0.1832316461913727,0.0628527970228198,0.0745709376207097
1.4069999999999965,-0.2087989744038376,0.0532657034416149,0.0756355884644262
1.410499999999999,-0.2226464166891606,0.0468725623915597,0.0788312863248278
1.4140000000000017,-0.2386266513204207,0.0340897709499532,0.0862890782185996
1.417500000000004,-0.2460844432141925,0.0266319790561815,0.0894847760790012
1.4209999999999925,-0.2439533961975074,0.0095870935812048,0.0990718696602061
1.4244999999999948,-0.2418223491808223,0.0010646508437165,0.1065296615539778
1.4279999999999973,-0.2343645572870505,-0.0149138384582915,0.1129210572747811
1.4314999999999998,-0.2226464166891606,-0.0234362811957798,0.1161167551351827
1.4350000000000025,-0.2087989744038376,-0.0319587239332681,0.1225098961852379
1.4385000000000048,-0.1981454846496642,-0.0394165158270399,0.1214435000122694
1.441999999999993,-0.1832316461913727,-0.0404811666707564,0.1257055940456395
1.4454999999999956,-0.1725781564371993,-0.0362208179666383,0.1299659427497577
1.448999999999998,-0.1491418752414194,-0.0181095363186931,0.136357338470561
1.4525000000000006,-0.1320969897664428,1.6177215569447488e-17,0.136357338470561
1.456000000000003,-0.0980072188164895,0.0351544217936698,0.1416840833476476
1.4594999999999914,-0.0735062867769931,0.0703088435873395,0.1448797812080492
1.462999999999994,-0.0287630260728665,0.110790010258096,0.1512729222581045
1.4664999999999964,0.0085224427374883,0.1406194325039311,0.1576643179789077
1.4699999999999989,0.0607217500061347,0.1768385051413174,0.1629910628559944
1.4735000000000014,0.1075943123976944,0.2002765316663493,0.1608600158393093
1.477000000000004,0.1683160624038291,0.2215817658454441,0.1619246666830259
1.4804999999999922,0.2173214171413259,0.235430953460019,0.1565979218059392
1.4839999999999949,0.2695207244099724,0.2439533961975073,0.150206526085136
1.4874999999999972,0.3153286359578156,0.2418223491808223,0.1480754790684509
1.4909999999999997,0.3622011983493753,0.2364956043037356,0.1374237346435295
1.4945000000000022,0.3877685265618402,0.2247774637058456,0.1342280367831279
1.4980000000000049,0.4218582975117934,0.2087989744038375,0.1299659427497577
1.501499999999993,0.4399678338304866,0.1874919948954908,0.1225098961852379
1.5049999999999957,0.4548816722887781,0.1629910628559943,0.1161167551351827
1.508499999999998,0.4612730680095813,0.1416840833476476,0.110790010258096
1.5120000000000005,0.4570127193054631,0.1097253594143794,0.1043986145372928
1.515500000000003,0.4452945787075733,0.0820287295144814,0.0990718696602061
1.5189999999999912,0.42292294835551,0.0468725623915596,0.0958761717998045
1.5224999999999935,0.3909642244222418,0.0276983752291499,0.0905494269227178
1.5259999999999962,0.3472873598910836,-0.0010646508437165,0.0937468701123714
1.5294999999999987,0.3078708440640437,-0.0149138384582915,0.0926804739394028
1.5330000000000013,0.2460844432141925,-0.0372854688103548,0.1022693128498597
1.5365000000000038,0.1970790884766957,-0.0543303542853315,0.1118564064310645
1.539999999999992,0.1257055940456395,-0.0735062867769932,0.1257055940456395
1.5434999999999943,0.0671131457269379,-0.0916158230956863,0.136357338470561
1.546999999999997,-0.0074577918937717,-0.1150521042914662,0.1544686201185061
1.5504999999999995,-0.0703088435873395,-0.1278348957330726,0.1608600158393093
1.554000000000002,-0.1470108282247344,-0.1502065260851359,0.1651203645434275
1.5575000000000043,-0.205601531214184,-0.1629910628559944,0.166186760716396
1.5609999999999928,-0.274847469287059,-0.1757738542976009,0.166186760716396
1.5644999999999951,-0.3249157295390203,-0.180035948330971,0.1651203645434275
1.5679999999999978,-0.3749839897909817,-0.1885583910684593,0.166186760716396
1.5715000000000003,-0.4058780628805333,-0.1906876927558924,0.1715135055934827
1.5750000000000028,-0.4378367868138015,-0.2013411825100658,0.1747092034538843
1.5784999999999911,-0.4463592295512898,-0.2066679273871525,0.1768385051413174
1.5819999999999936,-0.452750625272093,-0.2173214171413258,0.1704471094205142
1.585499999999996,-0.4484902765679749,-0.2301042085829323,0.166186760716396
1.5889999999999986,-0.4325100419367148,-0.2332999064433339,0.152337573101821
1.5925000000000011,-0.4069427137242499,-0.235430953460019,0.1427504795206162
1.5960000000000036,-0.3717882919305801,-0.2386266513204206,0.1203788491685528
1.599499999999992,-0.339829567997312,-0.2375620004767041,0.1065296615539778
1.6029999999999944,-0.2876302607286656,-0.2418223491808223,0.0735062867769931
1.606499999999997,-0.2482137449016256,-0.2418223491808223,0.0500682602519613
1.6099999999999994,-0.1949497867892626,-0.2386266513204206,0.0191759324916617
1.613500000000002,-0.1470108282247344,-0.2343645572870505,-0.0010646508437165
1.6170000000000044,-0.0798976824977964,-0.2311688594266489,-0.0351544217936697
1.6204999999999927,-0.0319587239332681,-0.2301042085829324,-0.0543303542853314
1.6239999999999952,0.0362208179666382,-0.2258421145495622,-0.0820287295144815
1.6274999999999975,0.085224427374883,-0.2226464166891606,-0.096942567972773
1.6310000000000002,0.1459461773810178,-0.219450718828759,-0.1182478021518678
1.6345000000000027,0.1906876927558924,-0.2130593231079558,-0.1278348957330726
1.637999999999991,0.2396913021641372,-0.2077325782308691,-0.1448797812080492
1.6414999999999935,0.2759121201307756,-0.2024058333537824,-0.1565979218059392
1.644999999999996,0.3110665419244454,-0.2024058333537824,-0.1651203645434275
1.6484999999999983,0.3387649171535954,-0.2045368803704675,-0.1683160624038291
1.652000000000001,0.3622011983493752,-0.2077325782308691,-0.1672514115601126
1.6555000000000035,0.3685925940701784,-0.2130593231079558,-0.1629910628559944
1.6589999999999918,0.3803107346680683,-0.2183860679850425,-0.152337573101821
1.6624999999999943,0.3792460838243518,-0.2258421145495623,-0.1406194325039311
1.6659999999999968,0.3760503859639502,-0.2354309534600191,-0.1214435000122694
1.669499999999999,0.3600701513326901,-0.2460844432141925,-0.1054650107102613
1.6730000000000018,0.3558098026285719,-0.2609982816724841,-0.0767019846373948
1.6765000000000043,0.3334381722765086,-0.2716500260974054,-0.0607217500061347
1.6799999999999926,0.3195889846619336,-0.286565609884949,-0.0372854688103548
1.6834999999999951,0.3004130521702719,-0.2929570056057523,-0.0287630260728665
1.6869999999999976,0.2759121201307755,-0.3078708440640438,-0.0170448854749766
1.6905,0.2524758389349956,-0.3153286359578156,-0.0149138384582915
1.6940000000000026,0.2226464166891606,-0.3174579376452486,-0.0170448854749766
1.697499999999991,0.1949497867892626,-0.316393286801532,-0.0223716303520633
1.7009999999999934,0.1597953649955928,-0.3057397970473587,-0.0340897709499532
1.704499999999996,0.1406194325039311,-0.2940216564494687,-0.0490036094082447
1.7079999999999984,0.1118564064310645,-0.2695207244099723,-0.0735062867769931
1.711500000000001,0.0873537290623161,-0.2503447919183106,-0.0916158230956863
1.7150000000000034,0.0649838440395048,-0.2215817658454441,-0.1235745470289545
1.7184999999999917,0.0458079115478431,-0.1928187397725775,-0.1470108282247343
1.7219999999999942,0.0149138384582915,-0.1544686201185061,-0.1842962970350892
1.7254999999999967,-0.0127827914416064,-0.1225098961852379,-0.2034722295267509
1.7289999999999992,-0.0511346564249298,-0.0798976824977964,-0.233299906443334
1.7325000000000017,-0.0862890782185996,-0.0511346564249298,-0.2439533961975074
1.7360000000000042,-0.1235745470289545,-0.0170448854749766,-0.2524758389349957
1.7394999999999925,-0.1534022239455376,0.0031956978604016,-0.2567361876391139
1.742999999999995,-0.1821652500184041,0.0308940730895516,-0.2599318854995155
1.7464999999999975,-0.1970790884766957,0.0394165158270399,-0.2716500260974054
1.75,-0.2205171150017275,0.0585907029894496,-0.2823035158515788
1.7535000000000025,-0.2343645572870505,0.069244192743623,-0.286565609884949
1.757000000000005,-0.2460844432141925,0.0756355884644262,-0.2844345628682639
1.7604999999999933,-0.260998281672484,0.0767019846373948,-0.2737810731140905
1.7639999999999958,-0.2663250265495707,0.0735062867769932,-0.2578025838120824
1.7674999999999983,-0.2663250265495707,0.069244192743623,-0.2396913021641372
1.7710000000000008,-0.2567361876391139,0.0543303542853315,-0.2098636252475541
1.7745000000000033,-0.2418223491808223,0.0372854688103548,-0.1811005991746876
1.7779999999999916,-0.2247774637058457,0.0117181405978899,-0.1470108282247343
1.781499999999994,-0.1992101354933808,-0.0138491876145749,-0.1129210572747811
1.7849999999999966,-0.1683160624038291,-0.0521993072686463,-0.0798976824977964
1.788499999999999,-0.1427504795206162,-0.0767019846373947,-0.0521993072686464
1.7920000000000016,-0.1022693128498597,-0.1118564064310645,-0.029827676916583
1.795500000000004,-0.0713752397603081,-0.136357338470561,-0.0117181405978899
1.7989999999999924,-0.0255673282124649,-0.1608600158393093,0.0
1.8024999999999949,0.0074577918937717,-0.1811005991746876,0.0074577918937717
1.8059999999999972,0.0500682602519613,-0.2002765316663493,0.0095870935812048
1.8095,0.085224427374883,-0.2162550209683574,0.01598023463126
1.8130000000000024,0.1299659427497577,-0.2279731615662473,0.0181095363186931
1.8165000000000049,0.1565979218059392,-0.2364956043037356,0.0181095363186931
1.8199999999999927,0.2034722295267509,-0.2492801410745941,0.0127827914416064
1.823499999999996,0.233299906443334,-0.2567361876391139,0.0063913957208032
1.8269999999999984,0.2705853752536888,-0.2673896773932873,-0.0053267448770866
1.830500000000001,0.2940216564494687,-0.2759121201307756,-0.0223716303520633
1.8340000000000032,0.316393286801532,-0.2982837504828389,-0.0479389585645282
1.8374999999999917,0.3249157295390203,-0.3185243338182172,-0.0724398906040246
1.840999999999994,0.3281114273994219,-0.3313071252598237,-0.1001382658331746
1.8444999999999965,0.3238510786953038,-0.3376985209806269,-0.1278348957330726
1.847999999999999,0.3046751462036421,-0.3462209637181152,-0.1565979218059392
1.8515000000000013,0.2876302607286655,-0.3440916620306821,-0.1725781564371993
1.855000000000004,0.2556715367953973,-0.3515477085952019,-0.1885583910684593
1.8584999999999925,0.2311688594266489,-0.3526141047681704,-0.1842962970350892
1.8619999999999948,0.1949497867892625,-0.3504830577514853,-0.1811005991746876
1.8654999999999973,0.166186760716396,-0.3526141047681703,-0.1832316461913727
1.869,0.1299659427497577,-0.3504830577514853,-0.1821652500184041
1.8725000000000025,0.099071869660206,-0.3440916620306821,-0.1821652500184041
1.8760000000000048,0.0553950051290479,-0.3355692192931938,-0.1842962970350892
1.879499999999993,0.0213052341790947,-0.3238510786953038,-0.1842962970350892
1.882999999999996,-0.0287630260728665,-0.3121311927681619,-0.1736428072809158
1.886499999999998,-0.0628527970228198,-0.2993484013265554,-0.1597953649955928
1.8900000000000008,-0.110790010258096,-0.2780431671474606,-0.1448797812080492
1.893500000000003,-0.1448797812080493,-0.2652586303766022,-0.1299659427497577
1.8969999999999916,-0.1885583910684594,-0.2460844432141924,-0.1075943123976944
1.9004999999999936,-0.2162550209683574,-0.2364956043037356,-0.0873537290623162
1.9039999999999964,-0.2428870000245389,-0.2269085107225307,-0.0543303542853314
1.9074999999999989,-0.2578025838120824,-0.2237128128621291,-0.0330233747769847
1.9110000000000011,-0.2652586303766022,-0.2109282760912706,0.0
1.914500000000004,-0.2599318854995155,-0.2056015312141839,0.0191759324916617
1.917999999999992,-0.2396913021641372,-0.1906876927558924,0.0458079115478431
1.9214999999999949,-0.2141239739516723,-0.1768385051413174,0.0607217500061347
1.9249999999999967,-0.1672514115601126,-0.1608600158393093,0.0809623333415129
1.9285,-0.1203788491685529,-0.1448797812080492,0.0948115209560879
1.9320000000000024,-0.0490036094082448,-0.1182478021518678,0.1054650107102613
1.9355000000000049,0.0053267448770866,-0.1012029166768912,0.1171831513081512
1.938999999999993,0.0798976824977964,-0.0735062867769932,0.1235745470289545
1.9424999999999957,0.138488385487246,-0.0521993072686464,0.1289012919060412
1.945999999999998,0.2098636252475541,-0.0287630260728665,0.1299659427497577
1.9495000000000005,0.260998281672484,-0.0085224427374883,0.1235745470289545
1.953000000000003,0.3078708440640437,0.0213052341790947,0.1193124529955843
1.9564999999999912,0.3387649171535954,0.0479389585645282,0.1139874534477496
1.9599999999999935,0.3547434064556034,0.0798976824977963,0.1022693128498597
1.963499999999996,0.3622011983493752,0.1001382658331746,0.096942567972773
1.9669999999999987,0.3462209637181151,0.1225098961852379,0.0777666354811113
1.9705000000000013,0.3270467765557054,0.1310323389227262,0.0713752397603081
1.974000000000004,0.288694911572382,0.1395530363309625,0.0511346564249298
1.977499999999992,0.2556715367953973,0.1438151303643327,0.0458079115478431
1.9809999999999943,0.1949497867892626,0.1534022239455376,0.0404811666707564
1.984499999999997,0.1480754790684509,0.1534022239455376,0.0372854688103548
1.9879999999999995,0.0745709376207097,0.150206526085136,0.0404811666707564
1.991500000000002,0.0266319790561814,0.1480754790684509,0.0426122136874415
1.9950000000000043,-0.0372854688103548,0.1438151303643327,0.0426122136874415
1.9984999999999928,-0.0873537290623161,0.136357338470561,0.0447432607041266
2.001999999999996,-0.1363573384705609,0.124639197872671,0.0447432607041266
2.005499999999998,-0.1715135055934827,0.1139874534477496,0.0479389585645282
2.0090000000000003,-0.205601531214184,0.0894847760790013,0.0543303542853314
2.012500000000003,-0.2279731615662473,0.0713752397603081,0.0564614013020165
2.015999999999991,-0.2450180470412239,0.0458079115478432,0.0543303542853314
2.0194999999999936,-0.2503447919183106,0.0255673282124649,0.0500682602519613
2.022999999999996,-0.2514094427620272,-0.0063913957208032,0.0394165158270399
2.026499999999998,-0.2503447919183106,-0.0319587239332681,0.0383501196540714
2.030000000000001,-0.2354309534600191,-0.0628527970228197,0.0383501196540714
2.033500000000004,-0.2162550209683574,-0.0841580312019145,0.0383501196540714
2.036999999999992,-0.1800359483309711,-0.1182478021518678,0.0447432607041266
2.0404999999999944,-0.1406194325039311,-0.1427504795206162,0.0500682602519613
2.043999999999997,-0.0767019846373948,-0.1704471094205142,0.0511346564249298
2.0474999999999994,-0.0234362811957798,-0.1906876927558924,0.0479389585645282
2.051000000000002,0.0532657034416149,-0.2077325782308691,0.0383501196540714
2.0545000000000044,0.1161167551351827,-0.2162550209683574,0.029827676916583
2.0579999999999927,0.1917540889288609,-0.2258421145495623,0.013849187614575
2.0614999999999952,0.247149094057909,-0.2311688594266489,0.0042603487041181
2.0649999999999977,0.3110665419244453,-0.233299906443334,-0.01598023463126
2.0685,0.3504830577514852,-0.2364956043037357,-0.0351544217936697
2.0720000000000027,0.3835064325284699,-0.2332999064433341,-0.0575260521457331
2.075499999999991,0.3941599222826433,-0.2332999064433341,-0.0788312863248278
2.078999999999993,0.385637479545155,-0.2322352555996175,-0.1022693128498597
2.082499999999996,0.3685925940701784,-0.2237128128621292,-0.1161167551351827
2.0859999999999985,0.3270467765557054,-0.2173214171413259,-0.1331616406101593
2.089500000000001,0.2812388650078622,-0.2237128128621292,-0.138488385487246
2.0930000000000035,0.2119946722642392,-0.2322352555996175,-0.1470108282247343
2.096499999999992,0.152337573101821,-0.2396913021641372,-0.1416840833476476
2.0999999999999943,0.0617864008498512,-0.2514094427620272,-0.1406194325039311
2.103499999999997,-0.0031956978604016,-0.2641939795328856,-0.1406194325039311
2.1069999999999998,-0.1001382658331747,-0.2929570056057522,-0.1310323389227262
2.110500000000002,-0.1715135055934828,-0.314262239784847,-0.1214435000122694
2.1140000000000043,-0.2663250265495708,-0.3504830577514852,-0.1022693128498597
2.1174999999999926,-0.3259803803827369,-0.3803107346680683,-0.083093380358198
2.120999999999995,-0.4026823650201317,-0.427183297059628,-0.0490036094082447
2.1244999999999976,-0.4484902765679749,-0.4602084171658647,-0.0234362811957798
2.128,-0.4985585368199363,-0.5134723752782276,0.0149138384582915
2.1315000000000026,-0.5241258650324013,-0.5475621462281809,0.0426122136874415
2.134999999999991,-0.5401060996636613,-0.5986968026531108,0.0788312863248278
2.1384999999999934,-0.5358440056302912,-0.6359822714634656,0.1054650107102613
2.141999999999996,-0.5166698184678815,-0.6828548338550253,0.1406194325039311
2.1454999999999984,-0.4889714432387314,-0.7180110009779471,0.166186760716396
2.149000000000001,-0.4389031829867701,-0.7616878655091054,0.1970790884766957
2.1525000000000034,-0.3898978282492734,-0.7925801932694049,0.219450718828759
2.155999999999992,-0.3185243338182172,-0.8319967090964449,0.2428870000245388
2.159499999999994,-0.2620629325162007,-0.8575640373089098,0.2546051406224288
2.1629999999999967,-0.1842962970350893,-0.8884581103984615,0.2695207244099723
2.166499999999999,-0.1257055940456397,-0.903371948856753,0.2727164222703739
2.1700000000000017,-0.0490036094082449,-0.928939277069218,0.2663250265495707
2.173500000000004,0.0021310470166849,-0.940657417667108,0.2620629325162006
2.1769999999999925,0.0660484948832213,-0.944917766371226,0.2439533961975074
2.180499999999995,0.1054650107102612,-0.9438531155275096,0.2226464166891606
2.183999999999997,0.1480754790684508,-0.9385263706504228,0.1970790884766957
2.1875,0.1768385051413173,-0.9353306727900212,0.1715135055934827
2.1910000000000025,0.1970790884766955,-0.9161547402983594,0.1331616406101593
2.194500000000005,0.2130593231079556,-0.9001762509963515,0.1043986145372928
2.1979999999999933,0.2162550209683572,-0.8724778757672014,0.0607217500061347
2.201499999999996,0.2109282760912706,-0.84584589671102,0.02769837522915
2.2049999999999983,0.1992101354933806,-0.81069147491735,-0.0191759324916617
2.208500000000001,0.1789695521580024,-0.7766017039673969,-0.0468725623915597
2.2120000000000037,0.1480754790684508,-0.723336000525782,-0.0905494269227178
2.215499999999992,0.1139874534477495,-0.6785944851509074,-0.1225098961852379
2.218999999999994,0.0596570991624181,-0.6221330838488908,-0.1576643179789077
2.2224999999999966,0.0202405833353781,-0.5752605214573311,-0.1821652500184041
2.225999999999999,-0.0458079115478432,-0.5156034222949128,-0.2045368803704674
2.2295000000000016,-0.0990718696602061,-0.4697955107470696,-0.219450718828759
2.233000000000004,-0.1661867607163961,-0.4037470158638482,-0.233299906443334
2.2364999999999924,-0.2162550209683574,-0.3568744534722885,-0.2343645572870505
2.239999999999995,-0.2833681666952954,-0.3004130521702719,-0.2322352555996175
2.2434999999999974,-0.3249157295390204,-0.2567361876391138,-0.2301042085829324
2.247,-0.3771150368076668,-0.2087989744038375,-0.2301042085829324
2.2505000000000024,-0.4165315526347067,-0.1725781564371992,-0.2290395577392158
2.254000000000005,-0.4570127193054631,-0.1299659427497577,-0.2237128128621291
2.257499999999993,-0.480449000501243,-0.1043986145372927,-0.2162550209683574
2.260999999999996,-0.503885281697023,-0.0628527970228197,-0.2066679273871525
2.264499999999998,-0.5145387714511963,-0.0351544217936697,-0.1981454846496642
2.2680000000000007,-0.5156034222949128,-0.002131047016685,-0.1864273440517743
2.271500000000003,-0.508147375730393,0.0191759324916617,-0.1832316461913727
2.2749999999999915,-0.4836446983616446,0.0479389585645283,-0.1725781564371993
2.278499999999994,-0.4559463231324946,0.067113145726938,-0.166186760716396
2.2819999999999965,-0.4058780628805333,0.0916158230956864,-0.1597953649955928
2.285499999999999,-0.3611348021764067,0.108660708570663,-0.152337573101821
2.289000000000001,-0.2854992137119804,0.1310323389227263,-0.1438151303643327
2.292500000000004,-0.2269085107225307,0.1459461773810178,-0.1438151303643327
2.2959999999999923,-0.1406194325039311,0.1661867607163961,-0.138488385487246
2.2994999999999948,-0.069244192743623,0.1821652500184041,-0.1427504795206162
2.3029999999999973,2.439620547896793e-17,0.1992101354933808,-0.1406194325039311
2.3065,0.0884201252352847,0.2215817658454441,-0.1448797812080492
2.3100000000000023,0.1523375731018211,0.2375620004767041,-0.150206526085136
2.3135000000000048,0.2290395577392159,0.2588672346557989,-0.1512729222581045
2.316999999999993,0.2631275833599171,0.2684543282370037,-0.1555332709622227
2.320499999999996,0.3078708440640438,0.2705853752536888,-0.1565979218059392
2.323999999999998,0.3174579376452486,0.2727164222703739,-0.1693824585767977
2.327500000000001,0.3163932868015321,0.288694911572382,-0.1725781564371993
2.331000000000003,0.3014794483432405,0.2961527034661537,-0.1789695521580025
2.334499999999992,0.2631275833599171,0.3004130521702719,-0.1832316461913727
2.337999999999994,0.2258421145495623,0.3014794483432405,-0.1789695521580025
2.3414999999999964,0.1672514115601126,0.2854992137119804,-0.1619246666830259
2.344999999999999,0.1171831513081513,0.2695207244099723,-0.150206526085136
2.3485000000000014,0.0447432607041266,0.2428870000245388,-0.1225098961852379
2.352000000000004,2.6222623932062678e-17,0.2141239739516723,-0.1012029166768912
2.355499999999992,-0.0607217500061346,0.1747092034538843,-0.0820287295144815
2.3589999999999947,-0.1075943123976944,0.1470108282247343,-0.069244192743623
2.362499999999997,-0.1597953649955928,0.1033339636935763,-0.0500682602519613
2.366,-0.1928187397725775,0.0724398906040246,-0.029827676916583
2.369500000000002,-0.2215817658454441,0.0340897709499532,-0.002131047016685
2.3730000000000047,-0.2364956043037356,0.0053267448770867,0.01598023463126
2.376499999999993,-0.233299906443334,-0.0245026773687483,0.0383501196540714
2.3799999999999955,-0.2205171150017275,-0.0490036094082447,0.0585907029894496
2.383499999999998,-0.1811005991746876,-0.0756355884644262,0.0862890782185996
2.3870000000000005,-0.1395530363309626,-0.0990718696602061,0.110790010258096
2.390500000000003,-0.069244192743623,-0.1203788491685528,0.138488385487246
2.3939999999999912,-0.0117181405978899,-0.1416840833476476,0.1629910628559944
2.3974999999999937,0.083093380358198,-0.1651203645434275,0.1928187397725775
2.400999999999996,0.1534022239455376,-0.1811005991746876,0.2119946722642392
2.4044999999999987,0.2492801410745941,-0.205601531214184,0.2311688594266489
2.4080000000000013,0.3185243338182171,-0.2269085107225308,0.2439533961975074
2.411500000000004,0.4080091098972183,-0.2460844432141925,0.2546051406224288
2.414999999999992,0.4644687658699829,-0.2620629325162006,0.2599318854995155
2.4184999999999945,0.5251905158761178,-0.2844345628682639,0.2631275833599171
2.421999999999997,0.5635423808594411,-0.2940216564494688,0.2620629325162006
2.4254999999999995,0.586978662055221,-0.3057397970473587,0.2620629325162006
2.429000000000002,0.602958896686481,-0.3142622397848471,0.2567361876391139
2.4325000000000045,0.5997614534968274,-0.3195889846619337,0.2599318854995155
2.435999999999993,0.5859140112115044,-0.3291760782431385,0.2599318854995155
2.439499999999996,0.5539552872782363,-0.3376985209806269,0.2578025838120824
2.442999999999998,0.5187991201553145,-0.339829567997312,0.2535404897787122
2.4465000000000003,0.4602084171658647,-0.3334381722765087,0.247149094057909
2.450000000000003,0.4080091098972183,-0.3313071252598237,0.2311688594266489
2.453499999999991,0.3355692192931937,-0.3323735214327922,0.2173214171413259
2.4569999999999936,0.274847469287059,-0.3259803803827369,0.2002765316663493
2.460499999999996,0.1970790884766956,-0.3217200316786187,0.1832316461913727
2.463999999999998,0.1470108282247343,-0.3206536355056502,0.1693824585767977
2.467500000000001,0.071375239760308,-0.3195889846619337,0.1555332709622227
2.471000000000004,0.0234362811957798,-0.316393286801532,0.1470108282247343
2.474499999999992,-0.0362208179666383,-0.3110665419244454,0.1342280367831279
2.4779999999999944,-0.0767019846373948,-0.3100018910807288,0.1278348957330726
2.481499999999997,-0.1214435000122694,-0.3057397970473587,0.1139874534477496
2.4849999999999994,-0.1491418752414194,-0.3057397970473587,0.1033339636935762
2.488500000000002,-0.1757738542976009,-0.3036087500306735,0.083093380358198
2.4920000000000044,-0.1906876927558924,-0.2993484013265554,0.0767019846373948
2.4954999999999927,-0.1970790884766957,-0.2961527034661538,0.0596570991624181
2.4989999999999952,-0.1949497867892626,-0.2918906094327836,0.0479389585645282
2.5024999999999977,-0.1747092034538844,-0.2823035158515788,0.0308940730895516
2.506,-0.1587289688226243,-0.2759121201307756,0.0170448854749766
2.5095000000000027,-0.1267702448893561,-0.258867234655799,0.0085224427374883
2.512999999999991,-0.0958761717998045,-0.2503447919183106,-0.0053267448770866
2.516499999999993,-0.055395005129048,-0.2354309534600191,-0.0202405833353782
2.519999999999996,-0.0213052341790948,-0.219450718828759,-0.029827676916583
2.5234999999999985,0.0223716303520632,-0.1992101354933808,-0.0500682602519613
2.527000000000001,0.0543303542853314,-0.1853609478788057,-0.0628527970228197
2.5305000000000035,0.0948115209560879,-0.1640557136997109,-0.0798976824977964
2.533999999999992,0.1193124529955843,-0.1416840833476477,-0.0905494269227178
2.5374999999999943,0.1459461773810178,-0.1161167551351827,-0.1001382658331746
2.540999999999997,0.1672514115601126,-0.096942567972773,-0.1065296615539778
2.5444999999999998,0.180035948330971,-0.0788312863248279,-0.1171831513081512
2.548000000000002,0.1842962970350892,-0.0649838440395049,-0.1235745470289545
2.5515000000000043,0.1896230419121759,-0.0404811666707565,-0.1267702448893561
2.5549999999999926,0.1832316461913727,-0.0234362811957798,-0.136357338470561
2.558499999999995,0.1768385051413174,-0.0042603487041181,-0.1459461773810178
2.5619999999999976,0.1704471094205142,0.0106534897541733,-0.1459461773810178
2.5655,0.1597953649955928,0.0287630260728665,-0.1491418752414194
2.5690000000000026,0.1534022239455376,0.0404811666707564,-0.1459461773810178
2.572499999999991,0.150206526085136,0.0521993072686463,-0.138488385487246
2.5759999999999934,0.1470108282247343,0.0628527970228197,-0.1352926876268444
2.579499999999996,0.1576643179789077,0.0756355884644262,-0.1342280367831279
2.5829999999999984,0.1608600158393093,0.0894847760790012,-0.1320969897664428
2.586500000000001,0.1629910628559944,0.1001382658331746,-0.1289012919060412
2.5900000000000034,0.1704471094205142,0.1012029166768911,-0.1267702448893561
2.593499999999992,0.1725781564371993,0.1043986145372928,-0.1235745470289545
2.596999999999994,0.1725781564371993,0.1075943123976944,-0.1225098961852379
2.6004999999999967,0.1747092034538844,0.1139874534477496,-0.1203788491685528
2.603999999999999,0.1800359483309711,0.1214435000122694,-0.1193124529955843
2.6075000000000017,0.1800359483309711,0.1267702448893561,-0.1193124529955843
2.611000000000004,0.1842962970350892,0.1278348957330726,-0.1225098961852379
2.6144999999999925,0.1938833906162941,0.1267702448893561,-0.1193124529955843
2.617999999999995,0.205601531214184,0.1203788491685528,-0.1214435000122694
2.621499999999997,0.2162550209683574,0.1161167551351827,-0.110790010258096
2.625,0.233299906443334,0.1118564064310645,-0.0980072188164895
2.6285000000000025,0.258867234655799,0.1054650107102613,-0.0756355884644262
2.632000000000005,0.2801724688348938,0.1033339636935762,-0.0639174478665363
2.6354999999999933,0.3078708440640437,0.1022693128498597,-0.0394165158270399
2.638999999999996,0.3238510786953038,0.0958761717998044,-0.029827676916583
2.6424999999999983,0.3526141047681703,0.096942567972773,-0.0191759324916617
2.646000000000001,0.3600701513326901,0.0926804739394028,-0.0181095363186931
2.6495000000000037,0.3653968962097769,0.0926804739394028,-0.01598023463126
2.652999999999992,0.3643322453660603,0.0873537290623161,-0.0202405833353782
2.656499999999994,0.3494166615785167,0.0884201252352846,-0.0330233747769847
2.6599999999999966,0.3259803803827369,0.085224427374883,-0.0458079115478431
2.663499999999999,0.2833681666952953,0.0905494269227177,-0.0628527970228197
2.6670000000000016,0.2460844432141925,0.0926804739394028,-0.0820287295144815
2.670500000000004,0.1864273440517743,0.0958761717998044,-0.1043986145372928
2.6739999999999924,0.1406194325039311,0.096942567972773,-0.1193124529955843
2.677499999999995,0.0777666354811113,0.0958761717998044,-0.1416840833476476
2.6809999999999974,0.0362208179666383,0.0937468701123714,-0.1544686201185061
2.6845,-0.0106534897541733,0.0948115209560879,-0.1704471094205142
2.6880000000000024,-0.041545817514473,0.0948115209560879,-0.177904901314286
2.691500000000005,-0.0798976824977964,0.1012029166768912,-0.1885583910684593
2.694999999999993,-0.1012029166768911,0.1043986145372928,-0.1960144376329791
2.698499999999996,-0.1193124529955843,0.110790010258096,-0.2066679273871525
2.701999999999998,-0.1289012919060412,0.1161167551351827,-0.2119946722642392
2.7055000000000007,-0.1395530363309625,0.1171831513081513,-0.2269085107225308
2.709000000000003,-0.1438151303643327,0.122509896185238,-0.2386266513204207
2.7124999999999915,-0.1534022239455376,0.1299659427497577,-0.2535404897787122
2.715999999999994,-0.1608600158393093,0.136357338470561,-0.2599318854995155
2.7194999999999965,-0.1715135055934827,0.1416840833476477,-0.274847469287059
2.722999999999999,-0.1811005991746876,0.1491418752414194,-0.274847469287059
2.726500000000001,-0.1896230419121758,0.1565979218059392,-0.2791078179911772
2.730000000000004,-0.1917540889288609,0.1661867607163961,-0.2716500260974054
2.7334999999999923,-0.1928187397725775,0.1768385051413175,-0.258867234655799
2.7369999999999948,-0.1853609478788057,0.1853609478788058,-0.2492801410745941
2.7404999999999973,-0.1736428072809158,0.191754088928861,-0.2343645572870505
2.744,-0.1597953649955928,0.2002765316663493,-0.2205171150017275
2.7475000000000023,-0.1310323389227262,0.2109282760912707,-0.2098636252475541
2.7510000000000048,-0.1086607085706629,0.2226464166891606,-0.1981454846496642
2.754499999999993,-0.0745709376207097,0.2386266513204207,-0.1896230419121759
2.757999999999996,-0.0447432607041266,0.2524758389349957,-0.180035948330971
2.761499999999998,-0.0127827914416064,0.2673896773932873,-0.1693824585767977
2.765000000000001,0.0021310470166851,0.2801724688348938,-0.166186760716396
2.768500000000003,0.0202405833353782,0.2982837504828389,-0.1651203645434275
2.771999999999992,0.0330233747769847,0.3100018910807288,-0.1651203645434275
2.775499999999994,0.0394165158270399,0.3227846825223353,-0.166186760716396
2.7789999999999964,0.0426122136874416,0.3313071252598236,-0.1704471094205142
2.782499999999999,0.0479389585645282,0.3366338701369103,-0.1715135055934827
2.7860000000000014,0.0394165158270399,0.3408942188410284,-0.1811005991746876
2.789500000000004,0.0372854688103549,0.3430252658577135,-0.1885583910684593
2.792999999999992,0.0351544217936698,0.3376985209806268,-0.1960144376329791
2.7964999999999947,0.0319587239332682,0.3366338701369103,-0.2034722295267509
2.799999999999997,0.0255673282124649,0.3291760782431385,-0.2130593231079557
2.8035,0.0181095363186932,0.3195889846619337,-0.2237128128621291
2.807000000000002,0.0095870935812048,0.3089354949077603,-0.2322352555996175
2.8105000000000047,3.6529224026647643e-17,0.2982837504828389,-0.247149094057909
2.813999999999993,-0.0095870935812048,0.2854992137119804,-0.2556715367953973
2.8174999999999955,-0.0213052341790947,0.2695207244099723,-0.2631275833599171
2.820999999999998,-0.0340897709499532,0.2546051406224288,-0.2705853752536888
2.8245000000000005,-0.0511346564249298,0.2364956043037356,-0.2631275833599171
2.828000000000003,-0.0564614013020165,0.2237128128621291,-0.2546051406224288
2.8314999999999912,-0.0735062867769931,0.2119946722642392,-0.2492801410745941
2.8349999999999937,-0.0820287295144814,0.1992101354933808,-0.2290395577392158
2.838499999999996,-0.0873537290623161,0.1949497867892626,-0.2215817658454441
2.8419999999999987,-0.085224427374883,0.1896230419121759,-0.2109282760912707
2.8455000000000013,-0.0905494269227178,0.1811005991746876,-0.1906876927558924
2.849000000000004,-0.0809623333415129,0.1747092034538843,-0.1747092034538843
2.852499999999992,-0.0703088435873395,0.1768385051413174,-0.1470108282247343
2.8559999999999945,-0.0532657034416149,0.1768385051413174,-0.1257055940456395
2.859499999999997,-0.029827676916583,0.1789695521580025,-0.0862890782185996
2.8629999999999995,-0.0106534897541733,0.1757738542976009,-0.0564614013020165
2.866500000000002,0.0191759324916617,0.1789695521580025,-0.0181095363186931
2.8700000000000045,0.0426122136874415,0.1757738542976009,0.0095870935812048
2.873499999999993,0.0745709376207097,0.1715135055934827,0.0426122136874415
2.876999999999996,0.1022693128498597,0.1629910628559944,0.0660484948832214
2.880499999999998,0.1384883854872461,0.1629910628559944,0.0937468701123714
2.8840000000000003,0.164055713699711,0.1587289688226242,0.110790010258096
2.887500000000003,0.191754088928861,0.1544686201185061,0.1225098961852379
2.890999999999991,0.2119946722642392,0.1448797812080492,0.1214435000122694
2.8944999999999936,0.2311688594266489,0.138488385487246,0.1193124529955843
2.897999999999996,0.2492801410745941,0.1320969897664428,0.1129210572747811
2.901499999999998,0.2599318854995155,0.124639197872671,0.0980072188164895
2.905000000000001,0.2652586303766022,0.1193124529955843,0.0905494269227178
2.908500000000004,0.2641939795328856,0.1171831513081512,0.0713752397603081
2.911999999999992,0.2641939795328856,0.1097253594143794,0.0543303542853314
2.9154999999999944,0.2578025838120824,0.1012029166768911,0.0340897709499532
2.918999999999997,0.247149094057909,0.0980072188164895,0.0074577918937717
2.9224999999999994,0.2226464166891606,0.0873537290623161,-0.0223716303520633
2.926000000000002,0.2024058333537824,0.085224427374883,-0.0468725623915597
2.9295000000000044,0.1576643179789077,0.0873537290623161,-0.0703088435873395
2.9329999999999927,0.1235745470289545,0.0916158230956863,-0.0894847760790012
2.9364999999999952,0.0745709376207097,0.0948115209560879,-0.0980072188164895
2.9399999999999977,0.0351544217936698,0.0980072188164895,-0.1054650107102613
2.9435,-0.0223716303520633,0.1001382658331746,-0.1043986145372928
2.9470000000000027,-0.0660484948832214,0.1065296615539779,-0.1022693128498597
2.950499999999991,-0.1193124529955843,0.110790010258096,-0.096942567972773
2.953999999999993,-0.152337573101821,0.1171831513081513,-0.0884201252352847
2.957499999999996,-0.1928187397725775,0.1310323389227263,-0.0703088435873395
2.9609999999999985,-0.2119946722642392,0.1438151303643328,-0.0575260521457331
2.964500000000001,-0.2290395577392158,0.1565979218059392,-0.0308940730895516
2.9680000000000035,-0.2290395577392158,0.1683160624038291,-0.0063913957208032
2.971499999999992,-0.2045368803704674,0.1842962970350892,0.02769837522915
2.9749999999999943,-0.1768385051413174,0.191754088928861,0.0575260521457331
2.978499999999997,-0.1278348957330726,0.2013411825100658,0.0958761717998045
2.9819999999999998,-0.0745709376207097,0.2034722295267509,0.1235745470289545
2.985500000000002,-0.0042603487041181,0.2013411825100658,0.1534022239455376
2.9890000000000043,0.0543303542853315,0.1981454846496642,0.1629910628559944
2.9924999999999926,0.136357338470561,0.1874919948954908,0.1747092034538843
2.995999999999995,0.1981454846496642,0.1853609478788057,0.177904901314286
2.9994999999999976,0.2727164222703739,0.1736428072809158,0.1672514115601126
3.003,0.316393286801532,0.1672514115601125,0.1576643179789077
3.0065000000000026,0.3664615470534934,0.1587289688226242,0.136357338470561
3.009999999999991,0.3856374795451551,0.1597953649955927,0.1161167551351827
3.0134999999999934,0.4037470158638482,0.1502065260851359,0.0905494269227178
3.016999999999996,0.3994866671597301,0.1480754790684508,0.0660484948832214
3.0204999999999984,0.3845728287014385,0.138488385487246,0.0330233747769847
3.024000000000001,0.355809802628572,0.1320969897664427,0.0117181405978899
3.0275000000000034,0.3217200316786187,0.1320969897664428,-0.0234362811957798
3.030999999999992,0.2833681666952953,0.1257055940456395,-0.041545817514473
3.034499999999994,0.2343645572870506,0.1182478021518678,-0.0703088435873395
3.0379999999999967,0.1970790884766957,0.1161167551351827,-0.0894847760790012
3.041499999999999,0.1523375731018211,0.1203788491685528,-0.1043986145372928
3.0450000000000017,0.1203788491685529,0.1257055940456395,-0.1118564064310645
3.048500000000004,0.0937468701123714,0.1395530363309626,-0.1129210572747811
3.0519999999999925,0.0809623333415129,0.1565979218059392,-0.1139874534477496
3.055499999999995,0.069244192743623,0.1853609478788057,-0.1150521042914662
3.058999999999997,0.0724398906040246,0.2066679273871525,-0.1075943123976944
3.0625,0.0862890782185996,0.2322352555996175,-0.1001382658331746
3.0660000000000025,0.1054650107102613,0.2556715367953973,-0.083093380358198
3.069500000000005,0.1342280367831279,0.2791078179911772,-0.0585907029894496
3.0729999999999933,0.1629910628559944,0.2993484013265554,-0.0383501196540714
3.076499999999996,0.1970790884766957,0.3174579376452486,-0.0063913957208032
3.0799999999999983,0.2258421145495623,0.3302424744161071,0.013849187614575
3.083500000000001,0.2599318854995155,0.3494166615785167,0.0362208179666383
3.0870000000000037,0.2886949115723821,0.357939104316005,0.0564614013020165
3.090499999999992,0.3206536355056503,0.3707236410868635,0.0671131457269379
3.093999999999994,0.341960615013997,0.37178829193058,0.0767019846373948
3.0974999999999966,0.3622011983493753,0.3771150368076667,0.0820287295144815
3.100999999999999,0.369657244913895,0.3760503859639502,0.0873537290623162
3.1045000000000016,0.3803107346680684,0.3664615470534933,0.0873537290623162
3.108000000000004,0.3824417816847535,0.3622011983493752,0.083093380358198
3.1114999999999924,0.3739193389472652,0.3515477085952018,0.0628527970228197
3.114999999999995,0.3622011983493753,0.3387649171535953,0.0490036094082447
3.1184999999999974,0.3334381722765087,0.3217200316786187,0.01598023463126
3.122,0.3100018910807289,0.3078708440640437,-0.0106534897541733
3.1255000000000024,0.2759121201307756,0.2897613077453505,-0.0532657034416149
3.129000000000005,0.2396913021641372,0.2791078179911771,-0.0937468701123714
3.132499999999993,0.1992101354933808,0.2695207244099723,-0.1416840833476476
3.135999999999996,0.164055713699711,0.2620629325162006,-0.1864273440517743
3.139499999999998,0.1171831513081513,0.2546051406224288,-0.2364956043037356
3.1430000000000007,0.083093380358198,0.2514094427620272,-0.2769767709744921
3.146500000000003,0.0447432607041266,0.2450180470412239,-0.3206536355056502
3.1499999999999915,0.0181095363186931,0.2407576983371057,-0.3451563128743986
3.153499999999994,-0.002131047016685,0.2354309534600191,-0.369657244913895
3.1569999999999965,-0.0202405833353782,0.2247774637058457,-0.3813771308410369
3.160499999999999,-0.0330233747769846,0.2119946722642392,-0.3760503859639502
3.164000000000001,-0.0372854688103548,0.1938833906162941,-0.3664615470534934
3.167500000000004,-0.0372854688103548,0.1704471094205142,-0.3387649171535954
3.1709999999999923,-0.029827676916583,0.1459461773810178,-0.3078708440640437
3.1744999999999948,-0.0202405833353782,0.1097253594143795,-0.258867234655799
3.1779999999999973,-0.0031956978604016,0.0841580312019145,-0.2215817658454441
3.1815,0.013849187614575,0.0479389585645282,-0.1693824585767977
3.1850000000000023,0.0308940730895516,0.0202405833353782,-0.1257055940456395
3.1885000000000048,0.0543303542853314,-0.0117181405978899,-0.0767019846373948
3.191999999999993,0.0735062867769931,-0.0330233747769847,-0.0394165158270399
3.195499999999996,0.0894847760790012,-0.0607217500061347,0.0031956978604016
3.198999999999998,0.1001382658331746,-0.0767019846373948,0.0319587239332681
3.202500000000001,0.1086607085706629,-0.0948115209560879,0.0575260521457331
3.206000000000003,0.110790010258096,-0.1043986145372928,0.0767019846373948
3.209499999999992,0.0990718696602061,-0.1139874534477496,0.0841580312019145
3.212999999999994,0.0926804739394028,-0.122509896185238,0.0841580312019145
3.2164999999999964,0.0617864008498512,-0.1278348957330726,0.0873537290623162
3.219999999999999,0.043676864531158,-0.1225098961852379,0.0788312863248278
3.2235000000000014,0.0138491876145749,-0.1171831513081512,0.0703088435873395
3.227000000000004,-0.0085224427374883,-0.1065296615539778,0.0607217500061347
3.230499999999992,-0.0245026773687484,-0.0958761717998045,0.0372854688103548
3.2339999999999947,-0.0394165158270399,-0.0873537290623162,0.0234362811957798
3.237499999999997,-0.0447432607041266,-0.0735062867769931,0.0
3.241,-0.0436768645311581,-0.055395005129048,-0.0255673282124649
3.244500000000002,-0.0266319790561814,-0.0372854688103548,-0.0543303542853314
3.2480000000000047,-0.0031956978604016,-0.0202405833353782,-0.083093380358198
3.251499999999993,0.029827676916583,-3.6528369061894885e-18,-0.110790010258096
3.2549999999999955,0.0628527970228197,0.0106534897541733,-0.1352926876268444
3.258499999999998,0.1129210572747811,0.0255673282124649,-0.1565979218059392
3.2620000000000005,0.1491418752414194,0.0308940730895516,-0.1704471094205142
3.265500000000003,0.1949497867892626,0.041545817514473,-0.1821652500184041
3.2689999999999912,0.2258421145495622,0.0426122136874415,-0.1864273440517743
3.2724999999999937,0.2556715367953973,0.0415458175144729,-0.1885583910684593
3.275999999999996,0.2727164222703739,0.0394165158270399,-0.1832316461913727
3.2794999999999987,0.2780431671474606,0.0404811666707564,-0.1747092034538843
3.2830000000000013,0.2769767709744921,0.0372854688103548,-0.1640557136997109
3.286500000000004,0.2663250265495707,0.0351544217936697,-0.1459461773810178
3.289999999999992,0.2524758389349957,0.0372854688103548,-0.1331616406101593
3.2934999999999945,0.2279731615662473,0.0330233747769846,-0.1150521042914662
3.296999999999997,0.2109282760912707,0.0319587239332681,-0.0958761717998045
3.3004999999999995,0.1928187397725775,0.0383501196540713,-0.0756355884644262
3.304000000000002,0.1821652500184041,0.0426122136874415,-0.0639174478665363
3.3075000000000045,0.1789695521580025,0.0532657034416149,-0.0447432607041266
3.310999999999993,0.180035948330971,0.0639174478665363,-0.0372854688103548
3.314499999999996,0.1885583910684593,0.0735062867769931,-0.0308940730895516
3.317999999999998,0.1938833906162941,0.0862890782185996,-0.029827676916583
3.3215000000000003,0.2087989744038376,0.1022693128498597,-0.0383501196540714
3.325000000000003,0.2215817658454441,0.1129210572747811,-0.0521993072686464
3.328499999999991,0.2364956043037356,0.1257055940456395,-0.0756355884644262
3.3319999999999936,0.2482137449016256,0.138488385487246,-0.0958761717998045
3.335499999999996,0.258867234655799,0.1576643179789077,-0.1235745470289545
3.338999999999998,0.2695207244099723,0.1672514115601125,-0.1470108282247343
3.342500000000001,0.274847469287059,0.1906876927558924,-0.1832316461913727
3.346000000000004,0.2759121201307756,0.1992101354933807,-0.2098636252475541
3.349499999999992,0.2833681666952953,0.2173214171413258,-0.2450180470412239
3.3529999999999944,0.2833681666952954,0.2322352555996174,-0.2727164222703739
3.356499999999997,0.2759121201307756,0.2492801410745941,-0.3057397970473587
3.3599999999999994,0.2716500260974054,0.2652586303766021,-0.3291760782431385
3.363500000000002,0.2609982816724841,0.2865656098849489,-0.3622011983493752
3.3670000000000044,0.2514094427620272,0.3057397970473586,-0.3760503859639502
3.3704999999999927,0.2460844432141925,0.3185243338182171,-0.4005513180034466
3.3739999999999952,0.2439533961975074,0.3281114273994219,-0.4154651564617382
3.3774999999999977,0.2460844432141925,0.3366338701369102,-0.4282496932325966
3.381,0.2492801410745941,0.3376985209806268,-0.4314453910929982
3.3845000000000027,0.2535404897787123,0.3366338701369102,-0.4346410889533998
3.387999999999991,0.2524758389349957,0.3313071252598236,-0.4261186462159115
3.391499999999993,0.2535404897787123,0.3185243338182171,-0.4165315526347067
3.394999999999996,0.2482137449016256,0.3089354949077602,-0.4037470158638482
3.3984999999999985,0.2386266513204207,0.288694911572382,-0.3898978282492732
3.402000000000001,0.2364956043037356,0.2727164222703739,-0.3707236410868635
3.4055000000000035,0.2183860679850425,0.2460844432141924,-0.3483520107348002
3.408999999999992,0.205601531214184,0.2279731615662473,-0.3270467765557054
3.4124999999999943,0.1800359483309711,0.2066679273871525,-0.3036087500306735
3.415999999999997,0.1597953649955928,0.1896230419121758,-0.2823035158515788
3.4194999999999998,0.1289012919060412,0.1619246666830258,-0.2620629325162006
3.423000000000002,0.1065296615539779,0.1406194325039311,-0.2428870000245388
3.4265000000000043,0.0745709376207097,0.1097253594143795,-0.2279731615662473
3.4299999999999926,0.0458079115478431,0.0926804739394028,-0.2183860679850424
3.433499999999995,0.0106534897541734,0.0820287295144815,-0.2162550209683574
3.4369999999999976,-0.0170448854749766,0.0724398906040246,-0.2151903701246408
3.4405,-0.0532657034416149,0.0703088435873395,-0.2183860679850424
3.4440000000000026,-0.0798976824977964,0.0628527970228198,-0.2258421145495622
3.447499999999991,-0.1171831513081512,0.0607217500061347,-0.2375620004767041
3.4509999999999934,-0.1448797812080492,0.0607217500061347,-0.247149094057909
3.454499999999996,-0.1853609478788057,0.0585907029894496,-0.2641939795328856
3.4579999999999984,-0.2162550209683574,0.0585907029894496,-0.2780431671474606
3.461500000000001,-0.2503447919183106,0.0628527970228198,-0.3014794483432405
3.4650000000000034,-0.2684543282370038,0.0639174478665363,-0.316393286801532
3.468499999999992,-0.2823035158515788,0.0649838440395049,-0.3408942188410284
3.471999999999994,-0.286565609884949,0.0607217500061347,-0.3526141047681703
3.4754999999999967,-0.2759121201307756,0.0575260521457331,-0.3653968962097769
3.478999999999999,-0.2535404897787122,0.055395005129048,-0.3771150368076668
3.4825000000000017,-0.2205171150017275,0.0543303542853315,-0.3867021303888716
3.486000000000004,-0.1874919948954908,0.0468725623915597,-0.3941599222826434
3.4894999999999925,-0.1352926876268444,0.0436768645311581,-0.3941599222826434
3.492999999999995,-0.0948115209560879,0.041545817514473,-0.3930952714389268
3.496499999999997,-0.041545817514473,0.0362208179666383,-0.3877685265618402
3.5,5.218491109690834e-18,0.0426122136874415,-0.3792460838243518
3.5035000000000025,0.0468725623915597,0.041545817514473,-0.3590055004889736
3.507000000000005,0.0788312863248278,0.0458079115478431,-0.3408942188410284
3.5104999999999933,0.122509896185238,0.0596570991624181,-0.3131975889411305
3.513999999999996,0.1416840833476476,0.0671131457269379,-0.2940216564494687
3.5174999999999983,0.1715135055934827,0.0809623333415129,-0.2641939795328856
3.521000000000001,0.1864273440517743,0.0980072188164895,-0.2428870000245388
3.5245000000000037,0.1981454846496642,0.1278348957330726,-0.2279731615662473
3.527999999999992,0.2077325782308691,0.1512729222581045,-0.2119946722642392
3.531499999999994,0.2077325782308691,0.1811005991746876,-0.2013411825100658
3.5349999999999966,0.2013411825100658,0.2002765316663493,-0.1981454846496642
3.538499999999999,0.1906876927558924,0.2247774637058457,-0.2002765316663493
3.5420000000000016,0.1768385051413175,0.2439533961975073,-0.1992101354933808
3.545500000000004,0.1523375731018211,0.2641939795328856,-0.2077325782308691
3.5489999999999924,0.122509896185238,0.2759121201307756,-0.2162550209683574
3.552499999999995,0.0777666354811113,0.288694911572382,-0.2364956043037356
3.5559999999999974,0.0372854688103548,0.2897613077453506,-0.2503447919183106
3.5595,-0.0245026773687483,0.2918906094327836,-0.2737810731140905
3.5630000000000024,-0.0735062867769931,0.2854992137119804,-0.2876302607286655
3.566500000000005,-0.1480754790684509,0.2801724688348938,-0.3089354949077603
3.569999999999993,-0.1960144376329791,0.2759121201307756,-0.3259803803827369
3.573499999999996,-0.2514094427620271,0.2684543282370039,-0.3408942188410284
3.576999999999998,-0.2876302607286655,0.2599318854995155,-0.355809802628572
3.5805000000000007,-0.3217200316786187,0.2546051406224288,-0.3632658491930918
3.584000000000003,-0.3313071252598236,0.2514094427620272,-0.3739193389472651
3.5874999999999915,-0.3334381722765086,0.2482137449016256,-0.3749839897909817
3.590999999999994,-0.3174579376452485,0.2407576983371058,-0.3707236410868635
3.5944999999999965,-0.2844345628682638,0.2322352555996175,-0.3739193389472651
3.597999999999999,-0.2492801410745941,0.2215817658454441,-0.369657244913895
3.601500000000001,-0.1928187397725775,0.2109282760912707,-0.3643322453660603
3.605000000000004,-0.1427504795206162,0.1949497867892626,-0.3526141047681703
3.608499999999992,-0.0703088435873395,0.1747092034538843,-0.3398295679973119
3.6119999999999943,-0.0170448854749766,0.1608600158393093,-0.3195889846619337
3.615499999999997,0.0511346564249298,0.1470108282247343,-0.3046751462036421
3.619,0.110790010258096,0.1374237346435295,-0.2823035158515788
3.6225000000000014,0.177904901314286,0.124639197872671,-0.2599318854995155
3.6260000000000048,0.2301042085829324,0.1161167551351827,-0.2407576983371057
3.629499999999993,0.2812388650078622,0.1086607085706629,-0.2183860679850424
3.632999999999996,0.3185243338182171,0.1043986145372927,-0.2002765316663493
3.636499999999998,0.3526141047681703,0.1001382658331746,-0.1832316461913727
3.640000000000001,0.3707236410868635,0.0958761717998044,-0.1715135055934827
3.643500000000003,0.3909642244222418,0.099071869660206,-0.1555332709622227
3.646999999999992,0.3920288752659583,0.1033339636935762,-0.1480754790684509
3.650499999999994,0.3877685265618402,0.1065296615539778,-0.1416840833476476
3.653999999999997,0.3792460838243518,0.1075943123976943,-0.1427504795206162
3.657499999999999,0.3590055004889736,0.1086607085706629,-0.1480754790684509
3.661000000000002,0.3366338701369103,0.1033339636935762,-0.152337573101821
3.664500000000004,0.2982837504828389,0.0916158230956863,-0.1608600158393093
3.667999999999992,0.2620629325162006,0.0926804739394028,-0.1736428072809158
3.671499999999994,0.2141239739516723,0.0798976824977963,-0.1906876927558924
3.674999999999997,0.1715135055934827,0.071375239760308,-0.2034722295267509
3.6785,0.1129210572747811,0.0585907029894496,-0.2205171150017275
3.682000000000002,0.0703088435873395,0.0479389585645282,-0.2322352555996175
3.6855000000000047,0.0031956978604016,0.0372854688103548,-0.2407576983371057
3.688999999999993,-0.0383501196540714,0.02769837522915,-0.2482137449016255
3.692499999999996,-0.1097253594143795,0.0149138384582915,-0.2556715367953973
3.695999999999998,-0.1597953649955928,-0.0031956978604015,-0.2620629325162006
3.699500000000001,-0.2215817658454441,-0.0223716303520632,-0.2535404897787122
3.703000000000003,-0.2652586303766022,-0.0372854688103548,-0.2524758389349957
3.7064999999999912,-0.3174579376452486,-0.0607217500061346,-0.2460844432141925
3.7099999999999937,-0.3536787556118869,-0.0756355884644262,-0.2375620004767041
3.713499999999996,-0.3952245731263599,-0.0937468701123713,-0.2322352555996175
3.716999999999999,-0.4175962034784233,-0.0980072188164895,-0.219450718828759
3.720500000000001,-0.4420988808471717,-0.1033339636935762,-0.2066679273871525
3.724000000000004,-0.4570127193054631,-0.1012029166768911,-0.1970790884766957
3.727499999999992,-0.4602084171658648,-0.096942567972773,-0.1853609478788057
3.7309999999999945,-0.4591437663221482,-0.085224427374883,-0.1832316461913727
3.734499999999997,-0.4474238803950063,-0.0777666354811112,-0.1704471094205142
3.738,-0.4346410889533998,-0.0660484948832213,-0.166186760716396
3.741500000000002,-0.4122694586013365,-0.043676864531158,-0.1640557136997109
3.745000000000005,-0.3909642244222418,-0.0245026773687483,-0.1565979218059392
3.748499999999993,-0.3472873598910836,0.0074577918937718,-0.1555332709622227
3.7519999999999953,-0.314262239784847,0.0287630260728665,-0.1459461773810178
3.755499999999998,-0.2631275833599171,0.0532657034416149,-0.1352926876268444
3.759,-0.2162550209683574,0.0735062867769932,-0.1320969897664428
3.762500000000003,-0.1555332709622227,0.0873537290623162,-0.1214435000122694
3.765999999999991,-0.1054650107102613,0.1012029166768912,-0.1118564064310645
3.7694999999999936,-0.041545817514473,0.1150521042914662,-0.1075943123976944
3.772999999999996,0.002131047016685,0.1235745470289545,-0.1043986145372928
3.776499999999999,0.0617864008498512,0.1278348957330726,-0.0980072188164895
3.780000000000001,0.096942567972773,0.1320969897664428,-0.0980072188164895
3.783500000000004,0.150206526085136,0.1363573384705609,-0.0980072188164895
3.786999999999992,0.1757738542976009,0.138488385487246,-0.0980072188164895
3.7904999999999935,0.205601531214184,0.1363573384705609,-0.1001382658331746
3.793999999999997,0.2258421145495623,0.138488385487246,-0.1054650107102613
3.7975,0.2396913021641372,0.1416840833476476,-0.1086607085706629
3.801000000000002,0.2418223491808223,0.1406194325039311,-0.1161167551351827
3.804500000000005,0.2428870000245389,0.1438151303643327,-0.1193124529955843
3.8079999999999927,0.2301042085829324,0.1427504795206162,-0.1267702448893561
3.8114999999999952,0.2109282760912707,0.1448797812080492,-0.1310323389227262
3.8149999999999977,0.191754088928861,0.1470108282247343,-0.1352926876268444
3.8185,0.1629910628559944,0.152337573101821,-0.1438151303643327
3.8220000000000023,0.1395530363309626,0.1640557136997109,-0.1470108282247343
3.825499999999991,0.1043986145372928,0.1757738542976009,-0.1491418752414194
3.8289999999999935,0.0788312863248279,0.1928187397725775,-0.1534022239455376
3.832499999999996,0.0404811666707565,0.2183860679850424,-0.1544686201185061
3.8359999999999994,0.0159802346312601,0.2386266513204207,-0.1512729222581045
3.839500000000001,-0.0053267448770866,0.2727164222703739,-0.1597953649955928
3.843000000000004,-0.0234362811957798,0.2972173543098703,-0.1608600158393093
3.846499999999992,-0.0447432607041265,0.3270467765557054,-0.166186760716396
3.8499999999999934,-0.0585907029894496,0.3483520107348002,-0.1693824585767977
3.853499999999997,-0.071375239760308,0.3760503859639502,-0.1768385051413174
3.8569999999999993,-0.0777666354811113,0.3930952714389268,-0.180035948330971
3.860500000000002,-0.0873537290623161,0.4218582975117934,-0.1757738542976009
3.864000000000004,-0.0905494269227177,0.4420988808471717,-0.1683160624038291
3.8674999999999926,-0.085224427374883,0.4740576047804398,-0.1565979218059392
3.870999999999995,-0.0809623333415129,0.492167141099133,-0.1470108282247343
3.8744999999999976,-0.0649838440395048,0.5241258650324012,-0.1278348957330726
3.878,-0.0468725623915596,0.547562146228181,-0.1118564064310645
3.8815000000000026,-0.0191759324916616,0.5752605214573311,-0.0958761717998045
3.884999999999991,0.0010646508437166,0.5933700577760241,-0.0767019846373948
3.8884999999999934,0.03941651582704,0.614677037284371,-0.0543303542853314
3.891999999999996,0.067113145726938,0.6349176206197492,-0.0372854688103548
3.8954999999999984,0.1054650107102614,0.6508961099217573,-0.0127827914416064
3.899000000000001,0.1374237346435296,0.6626142505196473,0.002131047016685
3.9025000000000034,0.1672514115601127,0.6743323911175372,0.0266319790561814
3.905999999999992,0.1917540889288611,0.6775280889779387,0.0340897709499532
3.909499999999994,0.2151903701246409,0.6764634381342222,0.0543303542853314
3.9129999999999967,0.2247774637058458,0.6817901830113089,0.0607217500061347
3.916499999999999,0.2343645572870506,0.6775280889779387,0.069244192743623
3.9200000000000017,0.2269085107225308,0.6753987872905056,0.0756355884644262
3.923500000000004,0.2226464166891607,0.6636806466926157,0.0809623333415129
3.926999999999993,0.2119946722642393,0.6540918077821589,0.0894847760790012
3.930499999999995,0.1928187397725776,0.6370469223071823,0.0926804739394028
3.9339999999999975,0.1800359483309711,0.6231994800218592,0.0958761717998045
3.9375,0.1587289688226243,0.6072192453905992,0.1001382658331746
3.9410000000000025,0.148075479068451,0.5891097090719061,0.1043986145372928
3.944500000000005,0.1310323389227263,0.5656734278761262,0.110790010258096
3.947999999999993,0.1171831513081513,0.5454328445407479,0.1203788491685528
3.951499999999996,0.1043986145372928,0.5230612141886847,0.1289012919060412
3.9549999999999983,0.0852244273748831,0.5070809795574245,0.136357338470561
3.958500000000001,0.0703088435873396,0.4868403962220463,0.1544686201185061
3.9620000000000033,0.0639174478665363,0.4729912086074713,0.166186760716396
3.965499999999992,0.0564614013020166,0.4559463231324946,0.1938833906162941
3.968999999999994,0.067113145726938,0.4357057397971164,0.2087989744038376
3.9724999999999966,0.0841580312019146,0.4133358547743051,0.2364956043037356
3.975999999999999,0.1054650107102613,0.3920288752659583,0.2460844432141925
3.9795000000000016,0.1342280367831279,0.3600701513326901,0.2663250265495707
3.983000000000004,0.1576643179789078,0.3355692192931938,0.2780431671474606
3.986499999999992,0.1800359483309711,0.2940216564494687,0.286565609884949
3.989999999999995,0.1938833906162941,0.258867234655799,0.2929570056057522
3.993499999999997,0.1981454846496642,0.2162550209683573,0.2918906094327836
3.997,0.1970790884766957,0.1768385051413174,0.2940216564494687
4.000500000000002,0.1842962970350892,0.1289012919060412,0.2940216564494687
4.004000000000005,0.1619246666830259,0.0926804739394028,0.2908259585890671
4.007499999999993,0.1289012919060412,0.0426122136874415,0.2854992137119804
4.010999999999996,0.0980072188164895,0.0106534897541733,0.2833681666952953
4.014499999999998,0.0564614013020165,-0.0362208179666383,0.2801724688348938
4.018000000000001,0.0245026773687483,-0.0628527970228197,0.2716500260974054
4.021500000000003,-0.0106534897541734,-0.0980072188164895,0.2652586303766022
4.024999999999992,-0.0394165158270399,-0.1225098961852379,0.2546051406224288
4.028499999999994,-0.0660484948832214,-0.1470108282247343,0.2439533961975074
4.0319999999999965,-0.0852244273748831,-0.1704471094205142,0.2301042085829324
4.035499999999999,-0.0958761717998045,-0.1864273440517743,0.2151903701246408
4.0390000000000015,-0.1022693128498597,-0.2045368803704674,0.1960144376329791
4.042500000000004,-0.1097253594143795,-0.219450718828759,0.1683160624038291
4.045999999999992,-0.1182478021518678,-0.2301042085829323,0.1470108282247343
4.049499999999995,-0.1310323389227263,-0.2460844432141924,0.1182478021518678
4.052999999999997,-0.1416840833476477,-0.2546051406224288,0.0990718696602061
4.0565,-0.164055713699711,-0.2599318854995155,0.0681795418999064
4.060000000000002,-0.1896230419121759,-0.2631275833599171,0.0521993072686464
4.063500000000005,-0.2183860679850425,-0.2684543282370038,0.0362208179666383
4.066999999999993,-0.2428870000245389,-0.2684543282370037,0.02769837522915
4.070499999999996,-0.2620629325162006,-0.2641939795328856,0.0202405833353782
4.073999999999998,-0.2620629325162006,-0.2599318854995154,0.0202405833353782
4.077500000000001,-0.2609982816724841,-0.2663250265495707,0.0191759324916617
4.081000000000003,-0.247149094057909,-0.2652586303766021,0.0181095363186931
4.084499999999991,-0.2162550209683574,-0.2801724688348938,0.0245026773687483
4.087999999999994,-0.191754088928861,-0.2844345628682639,0.0319587239332681
4.091499999999996,-0.150206526085136,-0.2929570056057522,0.0351544217936697
4.094999999999999,-0.1171831513081513,-0.2993484013265554,0.041545817514473
4.098500000000001,-0.0820287295144815,-0.314262239784847,0.0447432607041266
4.102000000000004,-0.0585907029894496,-0.3206536355056502,0.0458079115478431
4.105499999999992,-0.0330233747769847,-0.3408942188410284,0.0458079115478431
4.108999999999995,-0.0245026773687484,-0.3515477085952018,0.0490036094082447
4.112499999999997,-0.0181095363186932,-0.3707236410868635,0.0500682602519613
4.116,-0.0223716303520633,-0.3856374795451551,0.0532657034416149
4.119500000000002,-0.0266319790561815,-0.4016177141764152,0.0543303542853314
4.123000000000005,-0.0330233747769847,-0.4101401569139035,0.0585907029894496
4.126499999999993,-0.0490036094082448,-0.4197272504951083,0.0617864008498512
4.129999999999996,-0.0596570991624182,-0.4314453910929982,0.0617864008498512
4.133499999999998,-0.0639174478665363,-0.4378367868138015,0.0671131457269379
4.1370000000000005,-0.067113145726938,-0.4463592295512898,0.0671131457269379
4.140500000000003,-0.0681795418999065,-0.4495549274116914,0.0681795418999064
4.143999999999991,-0.0639174478665363,-0.452750625272093,0.0639174478665363
4.147499999999994,-0.0564614013020166,-0.4570127193054631,0.0628527970228197
4.150999999999996,-0.0447432607041266,-0.4538170214450616,0.0596570991624181
4.154499999999999,-0.0383501196540714,-0.4591437663221482,0.055395005129048
4.158000000000001,-0.0330233747769847,-0.4612730680095813,0.0468725623915597
4.161500000000004,-0.0404811666707565,-0.4570127193054631,0.0330233747769847
4.164999999999992,-0.0543303542853315,-0.4516859744283765,0.0255673282124649
4.1684999999999945,-0.0820287295144815,-0.4506213235846599,0.01598023463126
4.171999999999997,-0.1075943123976944,-0.4452945787075733,0.0085224427374883
4.1755,-0.1267702448893561,-0.43890318298677,0.002131047016685
4.179000000000002,-0.1576643179789078,-0.425053995372195,-0.0053267448770866
4.1825000000000045,-0.1768385051413175,-0.4154651564617382,-0.0074577918937717
4.185999999999993,-0.1970790884766957,-0.397355620143045,-0.0053267448770866
4.189499999999995,-0.2013411825100659,-0.3792460838243518,-0.0063913957208032
4.192999999999998,-0.1992101354933808,-0.3590055004889736,0.0
4.1965,-0.1928187397725775,-0.3398295679973119,0.0042603487041181
4.200000000000003,-0.1672514115601126,-0.3131975889411305,0.0074577918937717
4.203499999999991,-0.150206526085136,-0.2950880526224372,0.0127827914416064
4.206999999999994,-0.1182478021518678,-0.2695207244099723,0.01598023463126
4.210499999999996,-0.0948115209560879,-0.2503447919183106,0.0223716303520633
4.213999999999999,-0.0671131457269379,-0.2215817658454441,0.0330233747769847
4.217500000000001,-0.0490036094082448,-0.1970790884766957,0.0383501196540714
4.221000000000004,-0.0266319790561814,-0.1693824585767977,0.0490036094082447
4.224499999999992,-0.0181095363186931,-0.1395530363309626,0.0607217500061347
4.227999999999994,-0.0106534897541734,-0.1043986145372928,0.0703088435873395
4.231499999999997,-0.0085224427374883,-0.0724398906040246,0.0809623333415129
4.234999999999999,-0.0085224427374883,-0.041545817514473,0.0958761717998045
4.238500000000002,-0.01598023463126,-0.0191759324916616,0.110790010258096
4.242000000000004,-0.0287630260728665,0.0031956978604016,0.1235745470289545
4.245499999999993,-0.0383501196540714,0.0234362811957798,0.1331616406101593
4.248999999999995,-0.0564614013020165,0.0468725623915597,0.1427504795206162
4.252499999999998,-0.0617864008498512,0.0628527970228198,0.1470108282247343
4.256,-0.0788312863248278,0.0841580312019145,0.1576643179789077
4.259500000000003,-0.0852244273748831,0.0958761717998045,0.1629910628559944
4.262999999999991,-0.0926804739394028,0.1012029166768912,0.1725781564371993
4.2664999999999935,-0.0990718696602061,0.1033339636935763,0.177904901314286
4.269999999999996,-0.0958761717998044,0.1043986145372928,0.1811005991746876
4.273499999999999,-0.0958761717998044,0.1075943123976944,0.1832316461913727
4.277000000000001,-0.0905494269227178,0.1065296615539779,0.180035948330971
4.280500000000004,-0.0852244273748831,0.1054650107102613,0.1821652500184041
4.283999999999992,-0.0862890782185996,0.1001382658331746,0.1811005991746876
4.287499999999994,-0.0841580312019145,0.0905494269227178,0.1821652500184041
4.290999999999997,-0.0905494269227178,0.0756355884644262,0.1811005991746876
4.294499999999999,-0.0990718696602061,0.0681795418999065,0.1821652500184041
4.298000000000002,-0.1139874534477496,0.0521993072686464,0.1821652500184041
4.301500000000004,-0.138488385487246,0.041545817514473,0.1832316461913727
4.304999999999993,-0.1619246666830259,0.0213052341790948,0.1906876927558924
4.308499999999995,-0.1811005991746876,0.0042603487041181,0.1992101354933808
4.311999999999998,-0.1928187397725775,-0.0127827914416064,0.2109282760912707
4.3155,-0.2024058333537824,-0.0266319790561814,0.2237128128621291
4.319000000000003,-0.1928187397725775,-0.0426122136874415,0.2375620004767041
4.322499999999991,-0.1811005991746876,-0.0490036094082447,0.2428870000245388
4.325999999999993,-0.1395530363309626,-0.0617864008498512,0.258867234655799
4.329499999999996,-0.1001382658331746,-0.0660484948832214,0.2684543282370038
4.332999999999998,-0.0330233747769847,-0.0724398906040246,0.2780431671474606
4.336500000000001,0.0213052341790947,-0.0745709376207097,0.2801724688348938
4.340000000000003,0.1054650107102613,-0.0745709376207097,0.2854992137119804
4.343499999999992,0.1651203645434275,-0.0724398906040246,0.2908259585890671
4.346999999999994,0.2407576983371057,-0.0777666354811113,0.2876302607286655
4.350499999999997,0.2908259585890671,-0.0745709376207097,0.2823035158515788
4.353999999999999,0.3472873598910836,-0.0777666354811113,0.2695207244099723
4.357500000000002,0.3749839897909817,-0.0756355884644263,0.2631275833599171
4.361000000000004,0.4005513180034466,-0.0724398906040247,0.2418223491808223
4.3644999999999925,0.4069427137242498,-0.0681795418999065,0.2247774637058457
4.367999999999995,0.4048134120368167,-0.0660484948832214,0.2045368803704674
4.3714999999999975,0.3909642244222418,-0.0660484948832214,0.1853609478788057
4.375,0.3622011983493752,-0.0852244273748831,0.1555332709622227
4.3785000000000025,0.3291760782431385,-0.094811520956088,0.1342280367831279
4.382000000000005,0.2791078179911772,-0.1065296615539779,0.1012029166768912
4.385499999999993,0.2343645572870505,-0.1129210572747811,0.0767019846373948
4.388999999999996,0.180035948330971,-0.1214435000122694,0.0479389585645282
4.392499999999998,0.1342280367831278,-0.1299659427497577,0.0330233747769847
4.396000000000001,0.0852244273748831,-0.1438151303643327,0.0181095363186931
4.399500000000003,0.0479389585645282,-0.1597953649955928,0.0106534897541733
4.402999999999992,0.0106534897541733,-0.1789695521580025,0.0053267448770866
4.406499999999994,-0.0106534897541734,-0.1992101354933808,0.0074577918937717
4.409999999999997,-0.0319587239332681,-0.2247774637058457,0.0085224427374883
4.413499999999999,-0.041545817514473,-0.2418223491808223,0.0095870935812048
4.417000000000002,-0.0468725623915597,-0.2684543282370038,0.0095870935812048
4.420500000000004,-0.0468725623915597,-0.2876302607286655,0.0117181405978899
4.423999999999992,-0.0490036094082448,-0.3153286359578155,0.0063913957208032
4.427499999999995,-0.055395005129048,-0.3398295679973119,0.0042603487041181
4.430999999999997,-0.069244192743623,-0.3653968962097769,-0.002131047016685
4.4345,-0.0798976824977964,-0.3888331774055567,-0.002131047016685
4.438000000000002,-0.1033339636935763,-0.42292294835551,-0.0095870935812048
4.441500000000005,-0.1235745470289545,-0.4484902765679749,-0.0127827914416064
4.444999999999993,-0.1470108282247344,-0.4836446983616446,-0.0106534897541733
4.448499999999996,-0.1683160624038292,-0.5049499325407395,-0.0042603487041181
4.451999999999998,-0.1970790884766957,-0.5379750526469761,-0.0063913957208032
4.455500000000001,-0.2162550209683574,-0.5582156359823544,-0.0053267448770866
4.459000000000003,-0.2354309534600192,-0.5848476150385359,-0.013849187614575
4.462499999999992,-0.2471490940579091,-0.605088198373914,-0.0202405833353782
4.465999999999994,-0.2514094427620272,-0.6210684330051742,-0.0394165158270399
4.4694999999999965,-0.2546051406224288,-0.6349176206197492,-0.0564614013020165
4.472999999999999,-0.2503447919183107,-0.6455693650446706,-0.0777666354811113
4.4765000000000015,-0.2471490940579091,-0.6530271569384424,-0.096942567972773
4.480000000000004,-0.2343645572870506,-0.6540918077821589,-0.1289012919060412
4.483499999999992,-0.2215817658454442,-0.6477004120613556,-0.1491418752414194
4.486999999999995,-0.2109282760912708,-0.6370469223071823,-0.1747092034538843
4.490499999999997,-0.2045368803704675,-0.6242641308655758,-0.1970790884766957
4.494,-0.1917540889288611,-0.6061545945468827,-0.2269085107225308
4.497500000000002,-0.1811005991746877,-0.5880433128989375,-0.2418223491808223
4.501000000000005,-0.1683160624038292,-0.5709984274239609,-0.2620629325162006
4.504499999999993,-0.1565979218059393,-0.5486285424011496,-0.2716500260974054
4.507999999999996,-0.1342280367831279,-0.519865516328283,-0.2791078179911772
4.511499999999998,-0.1214435000122694,-0.4985585368199362,-0.2854992137119804
4.515000000000001,-0.1012029166768912,-0.4719265577637547,-0.2854992137119804
4.518500000000003,-0.0894847760790013,-0.4559463231324946,-0.2823035158515788
4.521999999999991,-0.0649838440395049,-0.4303807402492817,-0.2737810731140905
4.525499999999994,-0.0511346564249299,-0.41120480775762,-0.2684543282370038
4.528999999999996,-0.0330233747769847,-0.3877685265618402,-0.2514094427620272
4.532499999999999,-0.0117181405978899,-0.3685925940701784,-0.2428870000245388
4.536000000000001,-0.0021310470166851,-0.3451563128743986,-0.2205171150017275
4.539500000000004,0.0095870935812048,-0.3227846825223353,-0.2045368803704674
4.542999999999992,0.01598023463126,-0.2918906094327836,-0.1864273440517743
4.546499999999995,0.0202405833353782,-0.2695207244099723,-0.1683160624038291
4.549999999999997,0.0117181405978899,-0.2439533961975074,-0.1544686201185061
4.5535,-0.0010646508437165,-0.2290395577392158,-0.1416840833476476
4.557000000000002,-0.0319587239332681,-0.2077325782308691,-0.138488385487246
4.560500000000005,-0.0617864008498512,-0.1906876927558924,-0.1352926876268444
4.563999999999993,-0.1097253594143795,-0.1608600158393093,-0.1331616406101593
4.567499999999996,-0.1470108282247344,-0.1395530363309625,-0.1331616406101593
4.570999999999998,-0.1992101354933808,-0.1097253594143794,-0.1342280367831279
4.5745000000000005,-0.233299906443334,-0.096942567972773,-0.1331616406101593
4.578000000000003,-0.2705853752536888,-0.0767019846373947,-0.1235745470289545
4.581499999999991,-0.2876302607286655,-0.0671131457269379,-0.1257055940456395
4.584999999999994,-0.2940216564494687,-0.0543303542853314,-0.1203788491685528
4.588499999999996,-0.286565609884949,-0.0458079115478431,-0.110790010258096
4.591999999999999,-0.2620629325162006,-0.0447432607041266,-0.1054650107102613
4.595500000000001,-0.2311688594266489,-0.0490036094082447,-0.0948115209560879
4.599000000000004,-0.1853609478788057,-0.055395005129048,-0.083093380358198
4.602499999999992,-0.1416840833476476,-0.0607217500061346,-0.0724398906040246
4.6059999999999945,-0.0862890782185996,-0.0735062867769931,-0.0649838440395048
4.609499999999997,-0.0426122136874415,-0.0809623333415129,-0.0532657034416149
4.613,0.0138491876145749,-0.0937468701123714,-0.0362208179666383
4.616500000000002,0.0585907029894496,-0.1033339636935763,-0.0319587239332681
4.6200000000000045,0.1033339636935762,-0.1182478021518678,-0.0149138384582915
4.623499999999993,0.1406194325039311,-0.124639197872671,-0.0085224427374883
4.626999999999995,0.180035948330971,-0.1406194325039311,-0.0010646508437165
4.630499999999998,0.1992101354933807,-0.1491418752414194,0.0053267448770866
4.634,0.219450718828759,-0.1661867607163961,0.0106534897541733
4.637500000000003,0.2237128128621291,-0.1704471094205142,0.013849187614575
4.640999999999991,0.2205171150017275,-0.1747092034538844,0.0213052341790947
4.644499999999994,0.2119946722642392,-0.1789695521580026,0.0234362811957798
4.647999999999996,0.1928187397725775,-0.1768385051413175,0.0287630260728665
4.651499999999999,0.1693824585767976,-0.1768385051413175,0.029827676916583
4.655000000000001,0.1289012919060412,-0.1715135055934828,0.0383501196540714
4.658500000000004,0.0948115209560879,-0.1683160624038291,0.0383501196540714
4.661999999999992,0.043676864531158,-0.1608600158393093,0.0426122136874415
4.665499999999994,0.0074577918937717,-0.1587289688226243,0.0458079115478431
4.668999999999997,-0.0468725623915597,-0.1565979218059392,0.0458079115478431
4.672499999999999,-0.0905494269227178,-0.1491418752414194,0.0468725623915597
4.676000000000002,-0.1395530363309626,-0.1406194325039311,0.0500682602519613
4.679500000000004,-0.1651203645434275,-0.1352926876268444,0.0521993072686464
4.682999999999993,-0.1928187397725775,-0.1320969897664428,0.0639174478665363
4.686499999999995,-0.2034722295267509,-0.1257055940456395,0.0735062867769931
4.689999999999998,-0.2002765316663493,-0.1278348957330726,0.0894847760790012
4.6935,-0.1821652500184042,-0.1278348957330726,0.1001382658331746
4.697000000000003,-0.1470108282247344,-0.1289012919060412,0.1214435000122694
4.700499999999991,-0.1118564064310646,-0.1299659427497577,0.1342280367831279
4.7039999999999935,-0.0532657034416149,-0.1320969897664428,0.1555332709622227
4.707499999999996,-0.0053267448770867,-0.136357338470561,0.1715135055934827
4.710999999999999,0.0596570991624181,-0.1416840833476476,0.1811005991746876
4.714500000000001,0.1054650107102613,-0.1374237346435295,0.1928187397725775
4.718000000000004,0.1693824585767976,-0.1395530363309626,0.191754088928861
4.721499999999992,0.2034722295267509,-0.1384883854872461,0.1928187397725775
4.724999999999994,0.2343645572870505,-0.1331616406101594,0.1864273440517743
4.728499999999997,0.2450180470412239,-0.1278348957330727,0.1768385051413174
4.731999999999999,0.2439533961975073,-0.1289012919060412,0.1629910628559944
4.735500000000002,0.2247774637058457,-0.1289012919060412,0.1470108282247343
4.739000000000004,0.1725781564371993,-0.1267702448893561,0.1267702448893561
4.742499999999993,0.1257055940456395,-0.1235745470289545,0.1075943123976944
4.745999999999995,0.0351544217936697,-0.1139874534477496,0.0798976824977964
4.749499999999998,-0.0447432607041266,-0.1065296615539778,0.0671131457269379
4.753,-0.1512729222581045,-0.1086607085706629,0.0511346564249298
4.756500000000003,-0.2354309534600191,-0.1097253594143794,0.0479389585645282
4.759999999999991,-0.3355692192931938,-0.1171831513081512,0.0500682602519613
4.763499999999993,-0.3941599222826434,-0.1289012919060411,0.0543303542853314
4.766999999999996,-0.4463592295512898,-0.140619432503931,0.0617864008498512
4.770499999999998,-0.4676662090596366,-0.1555332709622226,0.0639174478665363
4.774000000000001,-0.464468765869983,-0.1704471094205141,0.069244192743623
4.777500000000003,-0.4431635316908882,-0.1874919948954908,0.0735062867769931
4.780999999999992,-0.3898978282492732,-0.2141239739516722,0.0713752397603081
4.784499999999994,-0.3345028231202253,-0.2343645572870505,0.0703088435873395
4.787999999999997,-0.2524758389349957,-0.2588672346557989,0.0639174478665363
4.791499999999999,-0.1853609478788058,-0.2716500260974054,0.0596570991624181
4.795000000000002,-0.1022693128498597,-0.2993484013265554,0.0521993072686464
4.798500000000004,-0.0404811666707565,-0.3131975889411305,0.041545817514473
4.8019999999999925,0.0234362811957798,-0.3270467765557054,0.0319587239332681
4.805499999999995,0.0564614013020165,-0.3355692192931938,0.0149138384582915
4.8089999999999975,0.0809623333415129,-0.3440916620306821,-0.0042603487041181
4.8125,0.083093380358198,-0.3462209637181151,-0.0191759324916617
4.8160000000000025,0.0681795418999064,-0.3483520107348002,-0.0404811666707564
4.819500000000005,0.043676864531158,-0.3462209637181151,-0.0596570991624181
4.822999999999993,-0.0031956978604016,-0.3387649171535954,-0.083093380358198
4.826499999999996,-0.0426122136874416,-0.3323735214327921,-0.0980072188164895
4.829999999999998,-0.1022693128498597,-0.3121311927681619,-0.1129210572747811
4.833500000000001,-0.1448797812080493,-0.2950880526224372,-0.1299659427497577
4.837000000000003,-0.2024058333537824,-0.2695207244099723,-0.138488385487246
4.840499999999992,-0.2386266513204207,-0.2428870000245388,-0.1438151303643327
4.843999999999994,-0.2705853752536888,-0.2056015312141839,-0.1438151303643327
4.847499999999997,-0.2908259585890671,-0.180035948330971,-0.1342280367831279
4.850999999999999,-0.2972173543098703,-0.1448797812080492,-0.1193124529955843
4.854500000000002,-0.2940216564494687,-0.1193124529955843,-0.1012029166768912
4.858000000000004,-0.2812388650078622,-0.096942567972773,-0.069244192743623
4.861499999999992,-0.2684543282370038,-0.0767019846373947,-0.0404811666707564
4.864999999999995,-0.2301042085829324,-0.0447432607041266,0.0042603487041181
4.868499999999997,-0.2024058333537824,-0.0330233747769846,0.0383501196540714
4.872,-0.1491418752414194,-0.0127827914416064,0.0990718696602061
4.875500000000002,-0.1075943123976944,-0.0042603487041181,0.1427504795206162
4.879000000000005,-0.0404811666707564,0.0106534897541733,0.2034722295267509
4.882499999999993,0.0106534897541733,0.0149138384582915,0.2450180470412239
4.885999999999996,0.0798976824977964,0.0255673282124649,0.2929570056057522
4.889499999999998,0.1352926876268444,0.0234362811957798,0.3227846825223353
4.893000000000001,0.2087989744038376,0.0255673282124649,0.355809802628572
4.896500000000003,0.260998281672484,0.0308940730895515,0.3739193389472651
4.899999999999992,0.3270467765557054,0.0287630260728665,0.3877685265618402
4.903499999999994,0.3664615470534934,0.0255673282124648,0.3909642244222418
4.9069999999999965,0.4122694586013365,0.0255673282124648,0.3867021303888716
4.910499999999999,0.4357057397971164,0.0245026773687483,0.3803107346680683
4.9140000000000015,0.4516859744283765,0.0276983752291499,0.3622011983493752
4.917500000000004,0.4484902765679749,0.0266319790561814,0.3504830577514853
4.920999999999992,0.4357057397971164,0.0319587239332681,0.3206536355056502
4.924499999999995,0.4080091098972184,0.0383501196540713,0.2950880526224372
4.927999999999997,0.3653968962097769,0.0447432607041265,0.260998281672484
4.9315,0.3281114273994219,0.0500682602519612,0.2386266513204207
4.935000000000002,0.2641939795328856,0.0607217500061346,0.2119946722642392
4.938500000000005,0.2130593231079557,0.0660484948832213,0.1896230419121759
4.941999999999993,0.1459461773810178,0.0798976824977964,0.1651203645434275
4.945499999999996,0.0894847760790013,0.0916158230956863,0.1576643179789077
4.948999999999998,0.0255673282124649,0.1043986145372928,0.152337573101821
4.952500000000001,-0.0149138384582915,0.1161167551351827,0.152337573101821
4.956000000000003,-0.0681795418999064,0.1257055940456395,0.1608600158393093
4.959499999999991,-0.1012029166768911,0.1310323389227262,0.1725781564371993
4.962999999999994,-0.1448797812080492,0.1395530363309626,0.1864273440517743
4.966499999999996,-0.1704471094205142,0.1491418752414194,0.1981454846496642
4.969999999999999,-0.1949497867892626,0.1523375731018211,0.2098636252475541
4.973500000000001,-0.2119946722642392,0.1576643179789078,0.2290395577392158
4.977000000000004,-0.2301042085829323,0.150206526085136,0.2482137449016255
4.980499999999992,-0.2418223491808223,0.1416840833476477,0.2673896773932873
4.983999999999995,-0.2567361876391139,0.1278348957330727,0.2940216564494687
4.987499999999997,-0.2673896773932873,0.1097253594143795,0.3100018910807288
4.991,-0.2854992137119804,0.0873537290623162,0.3313071252598236
4.994500000000002,-0.2929570056057522,0.067113145726938,0.355809802628572
4.998000000000005,-0.3057397970473587,0.0351544217936698,0.3792460838243518
5.001499999999993,-0.3121311927681619,0.0074577918937718,0.4005513180034466
5.004999999999996,-0.3089354949077603,-0.0287630260728665,0.4197272504951083
5.008499999999998,-0.302544099186957,-0.0617864008498512,0.4325100419367148
5.0120000000000005,-0.2844345628682639,-0.1001382658331746,0.4410324846742031
5.015500000000003,-0.2663250265495707,-0.1299659427497577,0.4431635316908882
5.018999999999991,-0.2290395577392159,-0.1747092034538843,0.4410324846742031
5.022499999999994,-0.2002765316663493,-0.1992101354933807,0.4431635316908882
5.025999999999996,-0.1480754790684509,-0.233299906443334,0.4431635316908882
5.029499999999999,-0.1097253594143795,-0.260998281672484,0.4357057397971164
5.033000000000001,-0.0521993072686464,-0.2929570056057522,0.4357057397971164
5.036500000000004,-0.0127827914416065,-0.314262239784847,0.4325100419367148
5.039999999999992,0.0351544217936697,-0.341960615013997,0.4239875991992265
5.0434999999999945,0.071375239760308,-0.3600701513326901,0.4154651564617382
5.046999999999997,0.1075943123976943,-0.3888331774055567,0.3984202709867616
5.0505,0.126770244889356,-0.4048134120368167,0.3856374795451551
5.054000000000002,0.1374237346435294,-0.4314453910929982,0.3685925940701784
5.0575000000000045,0.1363573384705609,-0.4442281825346047,0.3547434064556034
5.060999999999993,0.1235745470289544,-0.4602084171658648,0.3376985209806268
5.064499999999995,0.1022693128498596,-0.4655351620429515,0.3238510786953038
5.067999999999998,0.0596570991624181,-0.4772533026408414,0.2972173543098703
5.0715,0.0213052341790947,-0.4868403962220463,0.2833681666952953
5.075000000000003,-0.0447432607041266,-0.503885281697023,0.2524758389349957
5.078499999999991,-0.094811520956088,-0.5124077244345112,0.2364956043037356
5.081999999999994,-0.1693824585767977,-0.5347793547865746,0.2173214171413259
5.085499999999996,-0.2279731615662474,-0.5464974953844645,0.2087989744038376
5.088999999999999,-0.3036087500306736,-0.561411333842756,0.1896230419121759
5.092500000000001,-0.3483520107348002,-0.5741958706136145,0.1842962970350892
5.096000000000004,-0.4005513180034467,-0.5955011047927092,0.1768385051413174
5.099499999999992,-0.4261186462159116,-0.6093502924072843,0.1725781564371993
5.102999999999994,-0.4442281825346048,-0.6349176206197492,0.1736428072809158
5.106499999999997,-0.4420988808471717,-0.644504714200954,0.1725781564371993
5.109999999999999,-0.42292294835551,-0.6647452975363323,0.1747092034538843
5.113500000000002,-0.39522457312636,-0.6775280889779387,0.1768385051413174
5.117000000000004,-0.3462209637181153,-0.6945729744529154,0.1725781564371993
5.120499999999993,-0.2940216564494688,-0.7052264642070888,0.1725781564371993
5.123999999999995,-0.2290395577392159,-0.7084221620674903,0.1608600158393093
5.127499999999998,-0.175773854297601,-0.7116178599278921,0.1512729222581045
5.131,-0.108660708570663,-0.7041618133633722,0.1331616406101593
5.134500000000003,-0.0607217500061348,-0.6998997193300021,0.1203788491685528
5.137999999999991,-0.0085224427374883,-0.6828548338550254,0.1065296615539778
5.1414999999999935,0.018109536318693,-0.6658099483800488,0.0916158230956863
5.144999999999996,0.0404811666707564,-0.6349176206197492,0.0809623333415129
5.148499999999999,0.0415458175144729,-0.6136106411114024,0.0788312863248278
5.152000000000001,0.0404811666707564,-0.5763251723010476,0.0724398906040246
5.155500000000004,0.0266319790561814,-0.5528888911052677,0.0767019846373948
5.158999999999992,0.0085224427374882,-0.5145387714511963,0.0788312863248278
5.162499999999994,-0.0117181405978899,-0.4836446983616446,0.0798976824977964
5.165999999999997,-0.041545817514473,-0.4463592295512898,0.0767019846373948
5.169499999999999,-0.0607217500061347,-0.4165315526347067,0.0703088435873395
5.173000000000002,-0.0873537290623162,-0.3707236410868635,0.0575260521457331
5.176500000000004,-0.1054650107102613,-0.3387649171535954,0.0394165158270399
5.179999999999993,-0.1278348957330727,-0.2929570056057522,0.013849187614575
5.183499999999995,-0.1470108282247344,-0.258867234655799,-0.0053267448770866
5.186999999999998,-0.1555332709622227,-0.207732578230869,-0.0330233747769847
5.1905,-0.1683160624038291,-0.1725781564371993,-0.0607217500061347
5.194000000000003,-0.1725781564371993,-0.1278348957330726,-0.0905494269227178
5.197499999999991,-0.1715135055934827,-0.0926804739394028,-0.1129210572747811
5.200999999999993,-0.1629910628559944,-0.041545817514473,-0.1299659427497577
5.204499999999996,-0.1576643179789077,-0.0053267448770866,-0.1459461773810178
5.207999999999998,-0.1342280367831279,0.0394165158270399,-0.1587289688226243
5.211500000000001,-0.1182478021518678,0.0798976824977964,-0.1683160624038291
5.215000000000003,-0.0873537290623161,0.1203788491685529,-0.1768385051413174
5.218499999999992,-0.057526052145733,0.152337573101821,-0.1853609478788057
5.221999999999994,-0.0287630260728665,0.1981454846496642,-0.1906876927558924
5.225499999999997,2.8310020375939005e-17,0.2311688594266489,-0.1981454846496642
5.228999999999999,0.0383501196540714,0.2695207244099723,-0.2087989744038376
5.232500000000002,0.0585907029894496,0.300413052170272,-0.2119946722642392
5.236000000000004,0.0916158230956863,0.341960615013997,-0.2205171150017275
5.2394999999999925,0.1150521042914662,0.3728546881035486,-0.2258421145495622
5.242999999999995,0.1320969897664428,0.42292294835551,-0.2237128128621291
5.2464999999999975,0.1480754790684509,0.4548816722887781,-0.2226464166891606
5.25,0.1608600158393094,0.4964292351325031,-0.2215817658454441
5.2535000000000025,0.1629910628559945,0.5241258650324012,-0.2183860679850424
5.256999999999991,0.1693824585767977,0.561411333842756,-0.2162550209683574
5.260499999999993,0.1672514115601127,0.5891097090719061,-0.2087989744038376
5.263999999999996,0.161924666683026,0.6200020368322057,-0.1938833906162941
5.267499999999998,0.1534022239455377,0.6466357612176391,-0.1821652500184041
5.271000000000001,0.1406194325039312,0.6732677402738206,-0.1587289688226243
5.274500000000003,0.1384883854872461,0.6903126257487973,-0.1395530363309626
5.277999999999992,0.1342280367831279,0.7084221620674903,-0.1203788491685528
5.281499999999994,0.1342280367831279,0.7190756518216638,-0.0990718696602061
5.284999999999997,0.1395530363309627,0.725467047542467,-0.0841580312019145
5.288499999999999,0.1438151303643328,0.7212066988383489,-0.0767019846373948
5.292000000000002,0.1491418752414195,0.7190756518216638,-0.069244192743623
5.295500000000004,0.1629910628559945,0.7212066988383489,-0.069244192743623
5.298999999999992,0.1725781564371994,0.713748906944577,-0.0617864008498512
5.302499999999995,0.1789695521580026,0.7084221620674903,-0.0585907029894496
5.305999999999997,0.1885583910684594,0.6903126257487973,-0.0617864008498512
5.3095,0.1917540889288611,0.6817901830113089,-0.0639174478665363
5.313000000000002,0.1960144376329792,0.6594185526592456,-0.0607217500061347
5.316500000000005,0.1949497867892627,0.6455693650446706,-0.0681795418999064
5.319999999999993,0.1853609478788058,0.6231994800218592,-0.0671131457269379
5.323499999999996,0.1789695521580026,0.6082838962343158,-0.0724398906040246
5.326999999999998,0.1597953649955929,0.5816519171781342,-0.0735062867769931
5.330500000000001,0.1512729222581045,0.5635423808594411,-0.0713752397603081
5.334000000000003,0.1331616406101594,0.5347793547865746,-0.0617864008498512
5.337499999999992,0.1203788491685529,0.5187991201553145,-0.0575260521457331
5.340999999999994,0.1033339636935763,0.4985585368199362,-0.0500682602519613
5.3444999999999965,0.083093380358198,0.4836446983616446,-0.0394165158270399
5.347999999999999,0.0500682602519613,0.4570127193054631,-0.0308940730895516
5.3515000000000015,0.0255673282124649,0.43890318298677,-0.01598023463126
5.355000000000004,-0.0085224427374882,0.41120480775762,-0.0074577918937717
5.358499999999992,-0.0351544217936697,0.3952245731263599,0.0010646508437165
5.361999999999995,-0.0649838440395048,0.3653968962097769,0.0181095363186931
5.365499999999997,-0.0862890782185996,0.3398295679973119,0.02769837522915
5.369,-0.1118564064310645,0.3036087500306735,0.0447432607041266
5.372500000000002,-0.124639197872671,0.2791078179911772,0.0617864008498512
5.376000000000005,-0.1406194325039311,0.2428870000245389,0.0788312863248278
5.379499999999993,-0.1427504795206162,0.2173214171413259,0.0916158230956863
5.382999999999996,-0.1395530363309625,0.1789695521580026,0.1065296615539778
5.386499999999998,-0.1278348957330726,0.1438151303643328,0.1161167551351827
5.390000000000001,-0.1086607085706629,0.1001382658331746,0.1203788491685528
5.393500000000003,-0.0916158230956863,0.0649838440395048,0.1214435000122694
5.396999999999991,-0.0607217500061347,0.0202405833353782,0.1214435000122694
5.400499999999994,-0.0308940730895516,-0.0085224427374883,0.1171831513081512
5.403999999999996,-5.870829216050713e-18,-0.0479389585645282,0.1086607085706629
5.407499999999999,0.029827676916583,-0.0745709376207097,0.0980072188164895
5.411000000000001,0.0660484948832214,-0.1065296615539779,0.0873537290623162
5.414500000000004,0.0841580312019145,-0.1320969897664428,0.0735062867769931
5.417999999999992,0.1086607085706629,-0.1608600158393093,0.0500682602519613
5.421499999999995,0.1161167551351827,-0.177904901314286,0.0234362811957798
5.424999999999997,0.1097253594143794,-0.1981454846496642,-0.0010646508437165
5.4285,0.0980072188164895,-0.2066679273871525,-0.0245026773687483
5.432000000000002,0.071375239760308,-0.2119946722642392,-0.0543303542853314
5.435500000000005,0.0394165158270399,-0.2087989744038376,-0.0767019846373948
5.438999999999993,-0.0042603487041181,-0.2024058333537824,-0.1054650107102613
5.442499999999996,-0.041545817514473,-0.1938833906162941,-0.1289012919060412
5.445999999999998,-0.0841580312019146,-0.1768385051413174,-0.1395530363309626
5.4495000000000005,-0.1150521042914662,-0.1576643179789077,-0.150206526085136
5.453000000000003,-0.1438151303643328,-0.1320969897664428,-0.1512729222581045
5.456499999999991,-0.1544686201185061,-0.1086607085706629,-0.1448797812080492
5.459999999999994,-0.1587289688226243,-0.0756355884644262,-0.1299659427497577
5.463499999999996,-0.1416840833476476,-0.0521993072686463,-0.1214435000122694
5.466999999999999,-0.1129210572747811,-0.01598023463126,-0.1012029166768912
5.470500000000001,-0.0777666354811113,0.0149138384582915,-0.0937468701123714
5.474000000000004,-0.0223716303520633,0.0521993072686464,-0.0735062867769931
5.477499999999992,0.0234362811957798,0.083093380358198,-0.0660484948832214
5.4809999999999945,0.0926804739394029,0.1267702448893561,-0.0564614013020165
5.484499999999997,0.136357338470561,0.1565979218059392,-0.0521993072686464
5.488,0.1906876927558924,0.2002765316663493,-0.0511346564249298
5.491500000000002,0.2237128128621292,0.2279731615662473,-0.0564614013020165
5.4950000000000045,0.2567361876391139,0.2727164222703739,-0.0671131457269379
5.498499999999993,0.272716422270374,0.2993484013265554,-0.0809623333415129
5.501999999999995,0.2759121201307756,0.3334381722765086,-0.1043986145372928
5.505499999999998,0.2641939795328857,0.3622011983493752,-0.1203788491685528
5.509,0.2375620004767042,0.4016177141764151,-0.1534022239455376
5.512500000000003,0.2151903701246409,0.4261186462159115,-0.1757738542976009
5.515999999999991,0.1661867607163961,0.4570127193054631,-0.2109282760912707
5.519499999999994,0.1299659427497578,0.4836446983616446,-0.2375620004767041
5.522999999999996,0.0767019846373948,0.517734469311598,-0.2727164222703739
5.526499999999999,0.0372854688103549,0.5496931932448661,-0.2982837504828389
