time,Gyr_X,Gyr_Y,Gyr_Z
0.0,-0.0010646508437165,-0.0063913957208032,0.0053267448770866
0.0035000000000025,-0.0031956978604016,-0.0031956978604016,0.0063913957208032
0.0070000000000014,0.002131047016685,-0.0053267448770866,0.0085224427374883
0.0105000000000003,-0.0010646508437165,-0.0010646508437165,0.0074577918937717
0.0140000000000028,0.0,-0.0053267448770866,0.0074577918937717
0.0175000000000018,0.0,-0.002131047016685,0.0127827914416064
0.0210000000000007,-0.0010646508437165,0.0,0.0063913957208032
0.0245000000000032,-0.0010646508437165,0.0,0.0085224427374883
0.0280000000000022,-0.0053267448770866,-0.0031956978604016,0.0042603487041181
0.0315000000000011,0.0,0.0010646508437165,0.0106534897541733
0.0350000000000001,-0.002131047016685,-0.0031956978604016,0.0074577918937717
0.0385000000000026,-0.0042603487041181,-0.0010646508437165,0.0074577918937717
0.0420000000000015,-0.0085224427374883,0.0,0.0074577918937717
0.0455000000000005,-0.0085224427374883,0.0042603487041181,0.0085224427374883
0.049000000000003,-0.0042603487041181,-0.0031956978604016,0.0095870935812048
0.0525000000000019,-0.0042603487041181,-0.0053267448770866,0.0053267448770866
0.0560000000000009,-0.0063913957208032,0.0010646508437165,0.0074577918937717
0.0595000000000034,-0.002131047016685,-0.0010646508437165,0.0063913957208032
0.0630000000000023,-0.0031956978604016,-0.0042603487041181,0.0085224427374883
0.0665000000000013,-0.0010646508437165,0.0,0.0085224427374883
0.0700000000000002,0.0,-0.002131047016685,0.0085224427374883
0.0735000000000027,0.0,-0.0010646508437165,0.0095870935812048
0.0770000000000017,0.002131047016685,-0.0031956978604016,0.0074577918937717
0.0805000000000006,0.0010646508437165,-0.0053267448770866,0.0127827914416064
0.0840000000000031,0.0,0.0,0.0095870935812048
0.0875000000000021,-0.0031956978604016,-0.0053267448770866,0.0085224427374883
0.091000000000001,0.002131047016685,-0.0042603487041181,0.0042603487041181
0.0945,0.0,-0.0031956978604016,0.0085224427374883
0.0980000000000025,0.0,0.0,0.0063913957208032
0.1015000000000014,-0.0010646508437165,0.0,0.0074577918937717
0.1050000000000004,-0.0031956978604016,0.0,0.0074577918937717
0.1085000000000029,-0.0010646508437165,0.0010646508437165,0.0063913957208032
0.1120000000000018,-0.002131047016685,0.0,0.0095870935812048
0.1155000000000008,0.0031956978604016,0.0,0.0106534897541733
0.1190000000000033,0.002131047016685,-0.0010646508437165,0.0117181405978899
0.1225000000000022,0.0,-0.0010646508437165,0.0042603487041181
0.1260000000000012,-0.0042603487041181,0.0010646508437165,0.0106534897541733
0.1295000000000001,-0.0063913957208032,0.0031956978604016,0.0053267448770866
0.1330000000000026,-0.0042603487041181,0.002131047016685,0.0053267448770866
0.1365000000000016,-0.0074577918937717,0.0010646508437165,0.0063913957208032
0.1400000000000005,-0.0053267448770866,0.0,0.0053267448770866
0.143500000000003,-0.0042603487041181,0.0,0.0106534897541733
0.147000000000002,-0.0053267448770866,-0.002131047016685,0.0127827914416064
0.1505000000000009,-0.002131047016685,-0.002131047016685,0.0127827914416064
0.1540000000000034,-0.0010646508437165,-0.002131047016685,0.0095870935812048
0.1575000000000024,-0.0031956978604016,-0.002131047016685,0.0085224427374883
0.1610000000000013,0.0031956978604016,-0.0031956978604016,0.0074577918937717
0.1645000000000003,0.002131047016685,-0.0010646508437165,0.0085224427374883
0.1680000000000028,0.0,-0.002131047016685,0.0063913957208032
0.1715000000000017,0.0,-0.0042603487041181,0.0053267448770866
0.1750000000000007,0.0,-0.0085224427374883,0.0042603487041181
0.1785000000000032,0.0031956978604016,0.0,0.0063913957208032
0.1820000000000021,0.0010646508437165,-0.002131047016685,0.0106534897541733
0.1855000000000011,0.0,-0.0042603487041181,0.0074577918937717
0.189,-0.002131047016685,-0.0085224427374883,0.0074577918937717
0.1925000000000025,0.0,-0.0053267448770866,0.0085224427374883
0.1960000000000015,-0.0053267448770866,-0.0063913957208032,0.0085224427374883
0.1995000000000004,0.0010646508437165,-0.0053267448770866,0.0074577918937717
0.2030000000000029,-0.0053267448770866,-0.0053267448770866,0.0063913957208032
0.2065000000000019,-0.0053267448770866,0.0,0.0063913957208032
0.2100000000000008,-0.0063913957208032,-0.0031956978604016,0.0085224427374883
0.2135000000000033,-0.0031956978604016,-0.002131047016685,0.0063913957208032
0.2170000000000023,-0.0031956978604016,-0.0031956978604016,0.0106534897541733
0.2205000000000012,-0.0053267448770866,-0.0063913957208032,0.0085224427374883
0.2240000000000002,-0.0063913957208032,0.002131047016685,0.0031956978604016
0.2275000000000027,-0.0053267448770866,0.0031956978604016,0.0042603487041181
0.2310000000000016,-0.0010646508437165,0.0010646508437165,0.0063913957208032
0.2345000000000006,-0.002131047016685,0.0,0.0085224427374883
0.2380000000000031,0.0010646508437165,-0.0042603487041181,0.0085224427374883
0.241500000000002,0.0,0.0,0.0085224427374883
0.245000000000001,-0.002131047016685,-0.0031956978604016,0.0106534897541733
0.2484999999999999,-0.0042603487041181,-0.0031956978604016,0.0074577918937717
0.2520000000000024,-0.0010646508437165,-0.002131047016685,0.0085224427374883
0.2555000000000014,-0.0031956978604016,-0.0010646508437165,0.0085224427374883
0.2590000000000003,-0.002131047016685,0.0,0.0063913957208032
0.2625000000000028,-0.0053267448770866,-0.0053267448770866,0.0042603487041181
0.2660000000000018,-0.0010646508437165,-0.0053267448770866,0.0085224427374883
0.2695000000000007,0.0010646508437165,-0.0031956978604016,0.0117181405978899
0.2730000000000032,0.0,-0.002131047016685,0.0074577918937717
0.2765000000000022,0.002131047016685,0.0,0.0053267448770866
0.2800000000000011,0.0031956978604016,-0.0031956978604016,0.0074577918937717
0.2835000000000001,0.0,0.0010646508437165,0.0074577918937717
0.2870000000000026,0.0,0.0,0.0063913957208032
0.2905000000000015,-0.0031956978604016,-0.0074577918937717,0.0063913957208032
0.2940000000000005,0.0,-0.002131047016685,0.0053267448770866
0.297500000000003,-0.002131047016685,-0.002131047016685,0.0042603487041181
0.3010000000000019,-0.0074577918937717,0.0,0.0095870935812048
0.3045000000000009,-0.0063913957208032,0.0010646508437165,0.0074577918937717
0.3080000000000034,-0.0074577918937717,-0.0010646508437165,0.0074577918937717
0.3115000000000023,-0.0085224427374883,-0.002131047016685,0.0053267448770866
0.3150000000000013,-0.0042603487041181,-0.002131047016685,0.0085224427374883
0.3185000000000002,-0.002131047016685,-0.0063913957208032,0.0095870935812048
0.3220000000000027,-0.002131047016685,0.0,0.013849187614575
0.3255000000000017,-0.0031956978604016,0.0,0.0074577918937717
0.3290000000000006,-0.0010646508437165,0.0,0.0042603487041181
0.3325000000000031,-0.002131047016685,0.0,0.0074577918937717
0.3360000000000021,-0.0031956978604016,-0.0010646508437165,0.0106534897541733
0.339500000000001,0.0,-0.0010646508437165,0.0053267448770866
0.3429999999999999,-0.002131047016685,-0.0031956978604016,0.0074577918937717
0.3465000000000025,-0.0010646508437165,-0.0031956978604016,0.0074577918937717
0.3500000000000014,-0.0010646508437165,0.0,0.0095870935812048
0.3535000000000003,-0.0042603487041181,-0.002131047016685,0.0074577918937717
0.3570000000000028,0.0010646508437165,-0.0010646508437165,0.0074577918937717
0.3605000000000018,0.0,-0.002131047016685,0.0053267448770866
0.3640000000000007,-0.002131047016685,0.0,0.0085224427374883
0.3675000000000032,0.002131047016685,-0.002131047016685,0.0085224427374883
0.3710000000000022,-0.002131047016685,-0.0042603487041181,0.0063913957208032
0.3745000000000011,0.0,-0.0010646508437165,0.0074577918937717
0.3780000000000001,0.0,0.0010646508437165,0.0117181405978899
0.3815000000000026,0.0,0.0,0.0074577918937717
0.3850000000000015,-0.0042603487041181,-0.002131047016685,0.0149138384582915
0.3885000000000005,-0.002131047016685,-0.002131047016685,0.0085224427374883
0.392000000000003,-0.002131047016685,-0.002131047016685,0.0074577918937717
0.3955000000000019,-0.0053267448770866,0.0,0.0063913957208032
0.3990000000000009,-0.0031956978604016,0.0010646508437165,0.0095870935812048
0.4025000000000034,-0.0053267448770866,-0.0010646508437165,0.0117181405978899
0.4060000000000023,-0.002131047016685,-0.002131047016685,0.0063913957208032
0.4095000000000013,-0.0042603487041181,0.0,0.0053267448770866
0.4130000000000002,0.0,-0.0010646508437165,0.0074577918937717
0.4165000000000027,0.0,-0.0010646508437165,0.0053267448770866
0.4200000000000017,-0.0031956978604016,0.0,0.0106534897541733
0.4235000000000006,0.002131047016685,0.0,0.0085224427374883
0.4270000000000031,-0.0010646508437165,0.0010646508437165,0.0085224427374883
0.4305000000000021,0.0010646508437165,-0.0031956978604016,0.0085224427374883
0.434000000000001,0.0,-0.0042603487041181,0.0117181405978899
0.4375,0.0010646508437165,-0.002131047016685,0.0085224427374883
0.4410000000000025,0.0,0.0,0.0053267448770866
0.4445000000000014,-0.002131047016685,-0.0053267448770866,0.0031956978604016
0.4480000000000004,0.0,-0.0042603487041181,0.0085224427374883
0.4515000000000029,-0.0010646508437165,-0.0042603487041181,0.0074577918937717
0.4550000000000018,0.0,-0.0031956978604016,0.0053267448770866
0.4585000000000008,-0.0010646508437165,0.0,0.0063913957208032
0.4620000000000033,0.0,-0.0010646508437165,0.0074577918937717
0.4655000000000022,0.0,-0.0042603487041181,0.0085224427374883
0.4690000000000012,-0.0010646508437165,0.0,0.0095870935812048
0.4725000000000001,0.0,-0.002131047016685,0.0085224427374883
0.4760000000000026,-0.0063913957208032,-0.0031956978604016,0.0095870935812048
0.4795000000000016,0.0,0.0,0.0095870935812048
0.4830000000000005,-0.0053267448770866,-0.0010646508437165,0.0074577918937717
0.486500000000003,-0.002131047016685,0.0,0.0074577918937717
0.490000000000002,-0.0042603487041181,0.0,0.0063913957208032
0.4935000000000009,-0.0042603487041181,0.0,0.0074577918937717
0.4970000000000034,-0.0053267448770866,0.0,0.0085224427374883
0.5005000000000024,-0.0053267448770866,0.0,0.0085224427374883
0.5040000000000013,-0.0053267448770866,-0.002131047016685,0.0074577918937717
0.5075000000000003,-0.0010646508437165,-0.0010646508437165,0.0053267448770866
0.5110000000000028,-0.002131047016685,0.002131047016685,0.0106534897541733
0.5145000000000017,-0.0031956978604016,-0.0010646508437165,0.0042603487041181
0.5180000000000007,0.0,-0.0010646508437165,0.0085224427374883
0.5215000000000032,0.0,-0.002131047016685,0.0085224427374883
0.5250000000000021,0.0,-0.002131047016685,0.0095870935812048
0.5285000000000011,-0.002131047016685,0.0,0.0074577918937717
0.532,-0.0010646508437165,-0.0031956978604016,0.0063913957208032
0.5355000000000025,-0.0010646508437165,-0.0042603487041181,0.0074577918937717
0.5390000000000015,-0.002131047016685,-0.0010646508437165,0.0063913957208032
0.5425000000000004,0.0010646508437165,-0.0010646508437165,0.0063913957208032
0.5460000000000029,-0.0010646508437165,-0.0010646508437165,0.0095870935812048
0.5495000000000019,-0.002131047016685,-0.0010646508437165,0.0117181405978899
0.5530000000000008,0.0,-0.002131047016685,0.0127827914416064
0.5565000000000033,-0.002131047016685,0.0,0.0063913957208032
0.5600000000000023,-0.0031956978604016,-0.0031956978604016,0.0095870935812048
0.5635000000000012,0.0,0.0010646508437165,0.0085224427374883
0.5670000000000002,-0.002131047016685,0.0,0.0095870935812048
0.5705000000000027,-0.0053267448770866,-0.002131047016685,0.0095870935812048
0.5740000000000016,0.0,0.0,0.0117181405978899
0.5775000000000006,-0.0010646508437165,-0.002131047016685,0.0095870935812048
0.5810000000000031,-0.0031956978604016,0.002131047016685,0.0031956978604016
0.584500000000002,-0.0031956978604016,0.0117181405978899,-0.0031956978604016
0.588000000000001,0.0031956978604016,-0.0213052341790947,-0.0095870935812048
0.5914999999999999,-0.0181095363186931,-0.0596570991624181,-0.0117181405978899
0.5950000000000024,-0.0223716303520633,-0.083093380358198,-0.0010646508437165
0.5985000000000014,-0.0149138384582915,-0.0809623333415129,0.0095870935812048
0.6020000000000003,-0.0287630260728665,-0.0543303542853314,0.0170448854749766
0.6055000000000028,-0.0319587239332681,-0.0372854688103548,0.0095870935812048
0.6090000000000018,0.0,-0.0330233747769847,0.0
0.6125000000000007,-0.0117181405978899,-0.0255673282124649,-0.0010646508437165
0.6160000000000032,-0.013849187614575,-0.0202405833353782,-0.0042603487041181
0.6195000000000022,0.0106534897541733,-0.0095870935812048,0.0053267448770866
0.6230000000000011,0.0234362811957798,0.0149138384582915,0.0117181405978899
0.6265000000000001,0.0191759324916617,0.0436768645311581,0.0149138384582915
0.6300000000000026,0.0404811666707564,0.0585907029894496,0.0106534897541733
0.6335000000000015,0.0532657034416149,0.0713752397603081,0.0191759324916617
0.6370000000000005,0.0266319790561814,0.0809623333415129,0.0149138384582915
0.640500000000003,0.002131047016685,0.0756355884644262,0.0095870935812048
0.6440000000000019,-0.0010646508437165,0.0852244273748831,0.0074577918937717
0.6475000000000009,-0.01598023463126,0.0894847760790012,0.0
0.6510000000000034,-0.0149138384582915,0.0735062867769931,0.0
0.6545000000000023,-0.0117181405978899,0.0543303542853314,0.0085224427374883
0.6580000000000013,-0.029827676916583,0.0372854688103548,0.0170448854749766
0.6615000000000002,-0.0564614013020165,0.0362208179666383,0.0127827914416064
0.6650000000000027,-0.0649838440395048,0.0394165158270399,0.013849187614575
0.6685000000000016,-0.0479389585645282,0.0287630260728665,0.0181095363186931
0.6720000000000006,-0.041545817514473,0.0170448854749766,0.0223716303520633
0.6755000000000031,-0.0436768645311581,0.0202405833353782,0.0223716303520633
0.679000000000002,-0.0383501196540714,0.0223716303520633,0.01598023463126
0.682500000000001,-0.0308940730895516,0.0149138384582915,0.01598023463126
0.6859999999999999,-0.0181095363186931,0.0149138384582915,0.0181095363186931
0.6895000000000024,0.0202405833353782,0.01598023463126,0.0255673282124649
0.6930000000000014,0.0617864008498512,0.0010646508437165,0.041545817514473
0.6965000000000003,0.0841580312019145,-0.0117181405978899,0.0500682602519613
0.7000000000000028,0.0948115209560879,0.0010646508437165,0.0468725623915597
0.7035000000000018,0.1012029166768912,0.0191759324916617,0.0362208179666383
0.7070000000000007,0.0916158230956863,0.0532657034416149,0.0255673282124649
0.7105000000000032,0.069244192743623,0.0937468701123714,0.013849187614575
0.7140000000000022,0.0426122136874415,0.150206526085136,0.013849187614575
0.7175000000000011,0.0372854688103548,0.1906876927558924,0.0234362811957798
0.7210000000000001,0.0394165158270399,0.2162550209683574,0.0362208179666383
0.7245000000000026,0.0255673282124649,0.2386266513204207,0.0585907029894496
0.7280000000000015,0.0447432607041266,0.2578025838120824,0.0777666354811113
0.7315000000000005,0.0703088435873395,0.2737810731140905,0.0809623333415129
0.735000000000003,0.1150521042914662,0.2684543282370038,0.0500682602519613
0.7385000000000019,0.1118564064310645,0.2684543282370038,0.0266319790561814
0.7420000000000009,0.0894847760790012,0.2514094427620272,0.02769837522915
0.7455000000000034,0.01598023463126,0.2237128128621291,0.0255673282124649
0.7490000000000023,-0.0798976824977964,0.2151903701246408,0.029827676916583
0.7525000000000013,-0.1257055940456395,0.2130593231079557,0.0351544217936697
0.7560000000000002,-0.1842962970350892,0.191754088928861,0.0404811666707564
0.7595000000000027,-0.191754088928861,0.1565979218059392,0.0458079115478431
0.7630000000000017,-0.274847469287059,0.1257055940456395,0.02769837522915
0.7665000000000006,-0.4069427137242498,0.1129210572747811,0.0
0.7700000000000031,-0.5433017975240628,0.0809623333415129,-0.0330233747769847
0.7735000000000021,-0.4964292351325031,0.0628527970228197,-0.0287630260728665
0.777000000000001,-0.4080091098972184,0.0372854688103548,-0.0245026773687483
0.7805,-0.4186608543221398,0.0245026773687483,-0.0468725623915597
0.7840000000000025,-0.4879067923950148,-0.0117181405978899,-0.0894847760790012
0.7875000000000014,-0.5102766774178261,-0.0458079115478431,-0.0937468701123714
0.7910000000000004,-0.5145387714511963,-0.0521993072686464,-0.0735062867769931
0.7945000000000029,-0.6295908757426625,-0.0521993072686464,-0.0926804739394028
0.7980000000000018,-0.820278568498555,-0.1416840833476476,-0.1651203645434275
0.8015000000000008,-0.7787327509840819,-0.2620629325162006,-0.1885583910684593
0.8050000000000033,-0.7435765838611602,-0.300413052170272,-0.1683160624038291
0.8085000000000022,-0.7904508915819718,-0.3536787556118869,-0.1672514115601126
0.8120000000000012,-0.8213432193422715,-0.4410324846742031,-0.152337573101821
0.8155000000000001,-0.7915155424256883,-0.492167141099133,-0.1342280367831279
0.8190000000000026,-0.6935083236091989,-0.5699337765802444,-0.1033339636935762
0.8225000000000016,-0.6104149432510009,-0.6295908757426625,-0.0862890782185996
0.8260000000000005,-0.4932317919428495,-0.6988350684862855,-0.0628527970228197
0.829500000000003,-0.4016177141764152,-0.7499697249112154,-0.0607217500061347
0.833000000000002,-0.2684543282370038,-0.7979069381464917,-0.055395005129048
0.8365000000000009,-0.1565979218059392,-0.8213432193422715,-0.0628527970228197
0.8400000000000034,-0.0223716303520633,-0.863955433029713,-0.0756355884644262
0.8435000000000024,0.0596570991624181,-0.901240901840068,-0.0926804739394028
0.8470000000000013,0.1672514115601126,-0.9385263706504228,-0.1182478021518678
0.8505000000000003,0.2375620004767041,-0.952375558264998,-0.1416840833476476
0.8540000000000028,0.3217200316786187,-0.972616141600376,-0.1704471094205142
0.8575000000000017,0.369657244913895,-0.9917920740920376,-0.1885583910684593
0.8610000000000007,0.3994866671597301,-1.0035102146899275,-0.2258421145495622
0.8645000000000032,0.3845728287014385,-1.000314516829526,-0.2599318854995155
0.8680000000000021,0.3355692192931938,-1.0056395163773606,-0.2972173543098703
0.871500000000001,0.2876302607286655,-1.0173594023045027,-0.3100018910807288
0.875,0.2247774637058457,-1.0525138240981724,-0.3323735214327921
0.8785000000000025,0.1736428072809158,-1.0940596416126456,-0.341960615013997
0.8820000000000014,0.1065296615539778,-1.1462589488812918,-0.3568744534722885
0.8855000000000004,0.0500682602519613,-1.1878065117250167,-0.3707236410868635
0.8890000000000029,-0.01598023463126,-1.2442661676977815,-0.3888331774055567
0.8925000000000018,-0.0490036094082447,-1.284747334368538,-0.3930952714389268
0.8960000000000008,-0.0777666354811113,-1.340144084826838,-0.3984202709867616
0.8995000000000033,-0.0937468701123714,-1.3710364125871377,-0.3962909692993285
0.9030000000000022,-0.096942567972773,-1.395539089955886,-0.3824417816847534
0.9065000000000012,-0.0980072188164895,-1.3944744391121693,-0.3728546881035486
0.91,-0.0724398906040246,-1.377429553637193,-0.3472873598910836
0.9135000000000026,-0.0436768645311581,-1.3444044335309562,-0.3217200316786187
0.9170000000000016,0.0106534897541733,-1.289009428401908,-0.274847469287059
0.9205000000000004,0.0500682602519613,-1.2240255843624033,-0.2482137449016255
0.924000000000003,0.1118564064310645,-1.111104527087622,-0.2087989744038376
0.927500000000002,0.1597953649955928,-1.014161959114849,-0.1842962970350892
0.9310000000000008,0.2322352555996175,-0.8692821779067997,-0.1459461773810178
0.9345000000000034,0.2769767709744921,-0.7520990265986485,-0.1161167551351827
0.9380000000000024,0.3291760782431385,-0.5656734278761262,-0.096942567972773
0.9415000000000012,0.3536787556118869,-0.4154651564617382,-0.0980072188164895
0.9450000000000004,0.369657244913895,-0.2237128128621291,-0.0916158230956863
0.9485000000000028,0.3771150368076668,-0.0852244273748831,-0.0948115209560879
0.9520000000000016,0.3771150368076668,0.1225098961852379,-0.0926804739394028
0.9555000000000008,0.3856374795451551,0.2759121201307756,-0.0958761717998045
0.9590000000000032,0.3622011983493752,0.4559463231324946,-0.0990718696602061
0.962500000000002,0.3398295679973119,0.5688691257365278,-0.096942567972773
0.9660000000000012,0.2929570056057522,0.7084221620674903,-0.096942567972773
0.9695,0.2354309534600191,0.8043000791965469,-0.1118564064310645
0.9730000000000024,0.1203788491685528,0.9353306727900212,-0.1203788491685528
0.9765000000000016,0.0213052341790947,1.012032657427416,-0.124639197872671
0.9800000000000004,-0.0937468701123714,1.092994990768929,-0.1118564064310645
0.9835000000000028,-0.1704471094205142,1.134540808283402,-0.1012029166768912
0.987000000000002,-0.260998281672484,1.1835444176916468,-0.0585907029894496
0.9905000000000008,-0.3185243338182171,1.2165695377978836,-0.029827676916583
0.9940000000000032,-0.3526141047681703,1.231483376256175,0.0191759324916617
0.9975000000000024,-0.3462209637181151,1.2176341886416,0.0564614013020165
1.0010000000000012,-0.3270467765557054,1.219765235658285,0.1129210572747811
1.0045000000000002,-0.2961527034661538,1.1973936053062215,0.1342280367831279
1.008000000000003,-0.2215817658454441,1.145194298037575,0.1842962970350892
1.0115000000000016,-0.1470108282247343,1.1004510373334488,0.219450718828759
1.0150000000000006,-0.013849187614575,1.0248154488690224,0.2492801410745941
1.018500000000003,0.0841580312019145,0.958766953985801,0.2727164222703739
1.022000000000002,0.2311688594266489,0.8692821779067997,0.2897613077453506
1.025500000000001,0.3430252658577135,0.7957776364590586,0.2961527034661538
1.029,0.4729912086074713,0.6924436727654824,0.2961527034661538
1.0325000000000024,0.5720648235969293,0.6253287817092923,0.2918906094327836
1.0360000000000014,0.7020307663466872,0.519865516328283,0.2854992137119804
1.0395000000000003,0.7829930996882002,0.4346410889533998,0.2737810731140905
1.0430000000000028,0.8714132249234848,0.3270467765557054,0.2439533961975074
1.0465000000000018,0.921481485175446,0.2567361876391139,0.2098636252475541
1.0500000000000007,0.944917766371226,0.1832316461913727,0.1459461773810178
1.0535000000000032,0.9353306727900212,0.1470108282247343,0.0937468701123714
1.0570000000000022,0.9161547402983594,0.0990718696602061,0.0319587239332681
1.060500000000001,0.9065676467171546,0.0607217500061347,-0.0063913957208032
1.064,0.8916538082588631,0.0085224427374883,-0.0532657034416149
1.0675000000000026,0.8937848552755481,-0.041545817514473,-0.0862890782185996
1.0710000000000015,0.9065676467171546,-0.124639197872671,-0.138488385487246
1.0745000000000005,0.9161547402983594,-0.1938833906162941,-0.1811005991746876
1.078000000000003,0.9310703240859032,-0.2727164222703739,-0.2556715367953973
1.081500000000002,0.9374617198067065,-0.3185243338182171,-0.3100018910807288
1.0850000000000009,0.917221136471328,-0.3739193389472651,-0.3781796876513833
1.0885000000000034,0.8927184591025796,-0.4144005056180216,-0.4261186462159115
1.0920000000000023,0.8596950843255949,-0.4751222556241564,-0.4719265577637547
1.0955000000000013,0.8266699642193582,-0.5166698184678814,-0.4974938859762197
1.0990000000000002,0.7829930996882002,-0.5539552872782363,-0.5294526099094878
1.1025000000000027,0.7361205372966404,-0.5816519171781342,-0.5560845889656694
1.1060000000000016,0.6295908757426625,-0.605088198373914,-0.5805872663344177
1.1095000000000006,0.5401060996636612,-0.6178727351447726,-0.5955011047927092
1.113000000000003,0.4197272504951083,-0.642373667184269,-0.5955011047927092
1.116500000000002,0.3398295679973119,-0.6498314590780407,-0.5827165680218508
1.120000000000001,0.2322352555996175,-0.6402426201675839,-0.5571509851386378
1.1235,0.1672514115601126,-0.6295908757426625,-0.5326483077698895
1.1270000000000024,0.110790010258096,-0.6082838962343158,-0.4889714432387313
1.1305000000000014,0.0884201252352847,-0.6018925005135125,-0.4548816722887781
1.1340000000000003,0.0798976824977964,-0.6114795940947174,-0.4239875991992265
1.1375000000000028,0.0660484948832214,-0.6200020368322057,-0.4080091098972184
1.1410000000000018,0.0330233747769847,-0.6242641308655758,-0.4154651564617382
1.1445000000000007,0.01598023463126,-0.6274598287259775,-0.4271832970596281
1.1480000000000032,-0.0095870935812048,-0.6274598287259775,-0.452750625272093
1.1515000000000022,-0.0255673282124649,-0.6274598287259775,-0.4697955107470696
1.1550000000000011,-0.029827676916583,-0.6231994800218592,-0.4932317919428495
1.1585,-0.0127827914416064,-0.6359822714634658,-0.5049499325407395
1.1620000000000026,0.0266319790561814,-0.6690056462404504,-0.5187991201553145
1.1655000000000015,0.0468725623915597,-0.6913772765925138,-0.5369104018032596
1.1690000000000005,0.0681795418999064,-0.7286627454028686,-0.5571509851386378
1.172500000000003,0.0852244273748831,-0.7680792612299085,-0.5635423808594411
1.176000000000002,0.1139874534477496,-0.8266699642193582,-0.5678027295635593
1.1795000000000009,0.1331616406101593,-0.8692821779067997,-0.5699337765802444
1.1830000000000034,0.1619246666830259,-0.9353306727900212,-0.5699337765802444
1.1865000000000023,0.1789695521580025,-0.9715514907566596,-0.5635423808594411
1.1900000000000013,0.2045368803704674,-1.0088369595670144,-0.5486285424011496
1.1935000000000002,0.2247774637058457,-1.0365335894669123,-0.5315836569261729
1.1970000000000027,0.2450180470412239,-1.0695587095731491,-0.5124077244345112
1.2005000000000017,0.2514094427620272,-1.0823415010147557,-0.4932317919428495
1.2040000000000006,0.2535404897787122,-1.0642319646960623,-0.4665998128866681
1.2075000000000031,0.2663250265495707,-1.0429249851877156,-0.4463592295512898
1.211000000000002,0.2812388650078622,-1.0067059125503293,-0.4016177141764152
1.214500000000001,0.300413052170272,-0.9790075373211792,-0.3664615470534934
1.218,0.3355692192931938,-0.9204168343317296,-0.3174579376452486
1.2215000000000025,0.3568744534722885,-0.875673573627603,-0.2908259585890671
1.2250000000000014,0.4026823650201317,-0.8149518236214683,-0.2567361876391139
1.2285000000000004,0.4357057397971164,-0.7766017039673969,-0.2428870000245388
1.2320000000000029,0.4452945787075733,-0.7435765838611602,-0.2311688594266489
1.2355000000000018,0.4431635316908882,-0.7148135577882937,-0.2290395577392158
1.2390000000000008,0.4293143440763132,-0.6562228547988439,-0.219450718828759
1.2425000000000033,0.4293143440763132,-0.5997614534968274,-0.2162550209683574
1.2460000000000022,0.4175962034784233,-0.5124077244345112,-0.1949497867892626
1.2495000000000012,0.4197272504951083,-0.4484902765679749,-0.177904901314286
1.253,0.4335764381096833,-0.3643322453660603,-0.150206526085136
1.2565000000000026,0.4506213235846599,-0.3068061932203272,-0.1267702448893561
1.2600000000000016,0.4474238803950063,-0.2237128128621291,-0.1065296615539778
1.2635000000000003,0.4207919013388249,-0.1715135055934827,-0.096942567972773
1.267000000000003,0.3579391043160051,-0.0926804739394028,-0.0926804739394028
1.270500000000002,0.3089354949077603,-0.0404811666707564,-0.096942567972773
1.274000000000001,0.2173214171413259,0.0340897709499532,-0.0980072188164895
1.2775000000000034,0.1406194325039311,0.0788312863248278,-0.1043986145372928
1.2810000000000024,0.029827676916583,0.1097253594143795,-0.110790010258096
1.2845000000000013,-0.0447432607041266,0.1235745470289545,-0.1139874534477496
1.2880000000000005,-0.1257055940456395,0.1150521042914662,-0.1075943123976944
1.2915000000000028,-0.1693824585767977,0.1012029166768912,-0.1054650107102613
1.2950000000000017,-0.2737810731140905,0.0841580312019145,-0.124639197872671
1.2985000000000009,-0.397355620143045,0.0681795418999064,-0.1534022239455376
1.3020000000000032,-0.5816519171781342,-0.0074577918937717,-0.180035948330971
1.305500000000002,-0.7222713496820654,-0.0745709376207097,-0.1981454846496642
1.309000000000001,-0.917221136471328,-0.1757738542976009,-0.2226464166891606
1.3125,-1.067427662556464,-0.258867234655799,-0.2460844432141925
1.3160000000000025,-1.2762248916310497,-0.3962909692993285,-0.2578025838120824
1.3195000000000014,-1.4200400219953824,-0.4942981881158181,-0.2673896773932873
1.3230000000000004,-1.5904888767451486,-0.6231994800218592,-0.258867234655799
1.326500000000003,-1.6874296993886695,-0.7073575112237738,-0.2375620004767041
1.3300000000000018,-1.7620006370093797,-0.8011026360068932,-0.1981454846496642
1.3335000000000008,-1.8035481998531044,-0.8564993864651933,-0.1640557136997109
1.3370000000000033,-1.8237887831884827,-0.9065676467171546,-0.1075943123976944
1.3405000000000022,-1.8046128506968209,-0.9459841625441944,-0.0639174478665363
1.3440000000000012,-1.7034099340199298,-0.9907256779190692,0.0031956978604016
1.3475,-1.5979449233096683,-1.012032657427416,0.0532657034416149
1.3510000000000026,-1.4168443241349806,-1.0258800997127389,0.1075943123976944
1.3545000000000016,-1.259181751485325,-1.0461224283773694,0.1438151303643327
1.3580000000000003,-1.0205551001649042,-1.0897992929085274,0.1821652500184041
1.361500000000003,-0.8447812458673034,-1.1100398762439057,0.1981454846496642
1.365000000000002,-0.6040235475301975,-1.1143002249480238,0.2066679273871525
1.368500000000001,-0.4442281825346047,-1.1132355741043072,0.2002765316663493
1.3720000000000034,-0.2780431671474606,-1.1281494125625986,0.1874919948954908
1.3755000000000024,-0.180035948330971,-1.1430632510208902,0.1821652500184041
1.3790000000000011,-0.0916158230956863,-1.132411506595969,0.1608600158393093
1.3825000000000005,-0.0649838440395048,-1.1132355741043072,0.1352926876268444
1.3860000000000028,-0.1150521042914662,-1.0887328967355587,0.0884201252352847
1.3895000000000015,-0.2077325782308691,-1.0919285945959605,0.0490036094082447
1.393000000000001,-0.3717882919305801,-1.1153666211209925,0.0042603487041181
1.3965000000000032,-0.533712958613606,-1.1206916206688269,-0.0404811666707564
1.400000000000002,-0.7904508915819718,-1.1164312719647087,-0.1054650107102613
1.403500000000001,-1.009901610410731,-1.1079088292272203,-0.1534022239455376
1.407,-1.290074079245625,-1.1164312719647087,-0.1970790884766957
1.4105000000000023,-1.476501423297399,-1.1334761574396854,-0.2237128128621291
1.4140000000000017,-1.7108677259137015,-1.176088371127127,-0.2578025838120824
1.4175000000000004,-1.873857043440444,-1.2091117459041116,-0.2833681666952953
1.421000000000003,-2.058153340475533,-1.259181751485325,-0.3259803803827369
1.424500000000002,-2.1710743977503144,-1.2932697771060262,-0.3483520107348002
1.4280000000000008,-2.271212663583489,-1.328425944228948,-0.3717882919305801
1.431500000000003,-2.3095645285668125,-1.3444044335309562,-0.3930952714389268
1.4350000000000025,-2.3106291794105287,-1.3635803660226178,-0.3941599222826434
1.4385000000000012,-2.266952314879371,-1.374233855776791,-0.3930952714389268
1.4420000000000002,-2.158291606308708,-1.3784942044809092,-0.3760503859639502
1.445500000000003,-2.05176194475473,-1.3784942044809092,-0.3547434064556034
1.4490000000000016,-1.8834458823509008,-1.3816899023413112,-0.3323735214327921
1.4525000000000006,-1.7449557515344027,-1.3944744391121693,-0.3057397970473587
1.456000000000003,-1.5446809651973052,-1.4019304856766894,-0.2801724688348938
1.459500000000002,-1.3859519963746811,-1.409388277570461,-0.2663250265495707
1.463000000000001,-1.2027203501833084,-1.4157796732912642,-0.2578025838120824
1.4665,-1.095126037785614,-1.427497813889154,-0.2641939795328856
1.4700000000000024,-1.0013791676732426,-1.4456073502078477,-0.2641939795328856
1.4735000000000014,-0.952375558264998,-1.4477383972245323,-0.2673896773932873
1.4770000000000003,-0.8905874120858945,-1.4520004912579023,-0.2620629325162006
1.4805000000000028,-0.8522372924318231,-1.4541297929453356,-0.2620629325162006
1.4840000000000018,-0.80642938088398,-1.4637186318557929,-0.2567361876391139
1.4875000000000007,-0.7819284488444836,-1.474370376280714,-0.247149094057909
1.4910000000000032,-0.7584921676487036,-1.4690453767328793,-0.2450180470412239
1.4945000000000022,-0.7552947244590501,-1.4669143297161942,-0.2428870000245388
1.498000000000001,-0.7627525163528219,-1.480763517330769,-0.2428870000245388
1.5015,-0.7829930996882002,-1.5010041006661472,-0.2375620004767041
1.5050000000000026,-0.8160182197944368,-1.5308317775827305,-0.2418223491808223
1.5085000000000015,-0.8511726415881066,-1.555332709622227,-0.2386266513204207
1.5120000000000005,-0.905502995873438,-1.5702482934097703,-0.2311688594266489
1.515500000000003,-0.960898001002486,-1.5670525955493688,-0.2269085107225308
1.519000000000002,-1.0461224283773694,-1.5542680587785105,-0.1981454846496642
1.5225000000000009,-1.0993863864897322,-1.536158522459817,-0.1683160624038291
1.5260000000000034,-1.1505210429146622,-1.504199798526549,-0.1033339636935762
1.5295000000000023,-1.1931332566021038,-1.464783282699509,-0.0490036094082447
1.5330000000000013,-1.2506593087478366,-1.423237465185036,0.0234362811957798
1.5365000000000002,-1.3156414074580896,-1.4008658348329728,0.0767019846373948
1.5400000000000027,-1.4381513036433275,-1.356122574128846,0.1427504795206162
1.5435000000000016,-1.5393542203202186,-1.3177724544747746,0.177904901314286
1.5470000000000006,-1.693822840438725,-1.275160240787333,0.2034722295267509
1.550500000000003,-1.8131352934343088,-1.2517239595915532,0.219450718828759
1.554000000000002,-1.9761263562903035,-1.2112427929207967,0.2215817658454441
1.557500000000001,-2.0901120644088014,-1.1867401155520485,0.2109282760912707
1.561,-2.2744083614438906,-1.1494546467416935,0.1906876927558924
1.5645000000000024,-2.419289887981192,-1.1185623189813938,0.1789695521580025
1.5680000000000014,-2.6046508358599976,-1.0993863864897322,0.1725781564371993
1.5715000000000003,-2.7346167786097557,-1.0823415010147557,0.1736428072809158
1.5750000000000028,-2.916783773957412,-1.055709521958574,0.1693824585767977
1.5785000000000018,-3.068054950886264,-1.0344025424502272,0.1555332709622227
1.5820000000000007,-3.2864410188713067,-1.002443818516959,0.1406194325039311
1.5855000000000032,-3.4334518470960407,-0.996052422796156,0.1342280367831279
1.5890000000000022,-3.5900497689019804,-0.968355792896258,0.1267702448893561
1.5925000000000011,-3.6774052432935487,-0.9577023031420844,0.1257055940456395
1.596,-3.7541072279309433,-0.9342660219463046,0.1235745470289545
1.5995000000000026,-3.7924573475850143,-0.9204168343317296,0.1193124529955843
1.6030000000000015,-3.809502233059992,-0.912959042437958,0.1225098961852379
1.6065000000000005,-3.814828977937078,-0.8948495061192646,0.1139874534477496
1.610000000000003,-3.8233514206745673,-0.8703468287505163,0.1033339636935762
1.613500000000002,-3.837198862959889,-0.8650218292026817,0.0937468701123714
1.6170000000000009,-3.8776800296306457,-0.8533036886047917,0.0745709376207097
1.6205000000000034,-3.9149672437702527,-0.8511726415881066,0.0639174478665363
1.6240000000000023,-3.968231201882616,-0.8533036886047917,0.0436768645311581
1.6275000000000013,-4.0438667903470416,-0.8245406625319252,0.0223716303520633
1.6310000000000002,-4.205793202359319,-0.7702103082465936,-0.0127827914416064
1.6345000000000027,-4.352804030584054,-0.7307937924195538,-0.0362208179666383
1.6380000000000017,-4.591428936575223,-0.6913772765925138,-0.0724398906040246
1.6415000000000006,-4.804488259683179,-0.6785944851509074,-0.0884201252352847
1.6450000000000031,-5.148579921713861,-0.6594185526592456,-0.1182478021518678
1.648500000000002,-5.4426015781633295,-0.6668763445530174,-0.1299659427497577
1.652000000000001,-5.836761500445973,-0.6711366932571355,-0.1374237346435295
1.6555,-6.130783156895441,-0.6508961099217573,-0.1299659427497577
1.6590000000000025,-6.510029240719794,-0.6381133184801508,-0.1171831513081512
1.6625000000000014,-6.765700777515191,-0.6231994800218592,-0.0798976824977964
1.6660000000000004,-7.067180225858431,-0.6114795940947174,-0.0170448854749766
1.6695000000000029,-7.256803267770607,-0.616806338971804,0.0362208179666383
1.6730000000000018,-7.465600496845194,-0.6093502924072843,0.1086607085706629
1.6765000000000008,-7.608350976365809,-0.6061545945468827,0.1459461773810178
1.6800000000000033,-7.805430064842505,-0.6327865736030641,0.1672514115601126
1.6835000000000022,-7.964159033665129,-0.6626142505196473,0.1565979218059392
1.6870000000000012,-8.19106754438766,-0.7180110009779472,0.1278348957330726
1.6905,-8.349796513210284,-0.7755353077944284,0.1012029166768912
1.6940000000000026,-8.541550602139145,-0.8469105475547365,0.0596570991624181
1.6975000000000016,-8.656602706430611,-0.8905874120858945,0.0287630260728665
1.7010000000000003,-8.783372951319967,-0.9342660219463046,-0.0223716303520633
1.704500000000003,-8.863270633817763,-0.9577023031420844,-0.0756355884644262
1.708000000000002,-8.94636401417596,-0.9853989330419826,-0.1629910628559944
1.711500000000001,-8.992171925723804,-1.000314516829526,-0.2354309534600191
1.7150000000000034,-9.06461181632783,-1.1079088292272203,-0.3451563128743986
1.7185000000000024,-9.127462868021398,-1.1728926732667255,-0.4069427137242498
1.7220000000000013,-9.132791358227736,-1.1952625582895369,-0.4836446983616446
1.7255000000000005,-9.086983446679891,-1.2687688450665298,-0.533712958613606
1.7290000000000028,-9.021999602640388,-1.374233855776791,-0.5773915684740161
1.7325000000000017,-8.953821806069735,-1.4434780485204144,-0.6072192453905992
1.7360000000000009,-8.866466331678165,-1.5031334023535805,-0.644504714200954
1.7395000000000032,-8.818527373113637,-1.550007710074392,-0.6743323911175372
1.743000000000002,-8.755676321420069,-1.648014928890882,-0.6785944851509074
1.746500000000001,-8.678974336782675,-1.737499704969883,-0.6658099483800488
1.75,-8.568182581195327,-1.8461604135405456,-0.6295908757426625
1.7535000000000025,-8.472306409395522,-1.8983597208091925,-0.5912390107593392
1.7570000000000014,-8.309315346539528,-1.9281873977257755,-0.5486285424011496
1.7605000000000004,-8.216634872600125,-2.02406356952558,-0.5145387714511963
1.764000000000003,-8.246462549516709,-2.1987727729794644,-0.4207919013388249
1.7675000000000018,-8.167631263191879,-2.2115573097503227,-0.3217200316786187
1.7710000000000008,-7.951376242223523,-2.306367085377159,-0.1928187397725775
1.7745000000000033,-7.724467731500992,-2.352174996925002,-0.0862890782185996
1.7780000000000022,-7.490103174213941,-2.3777423251374668,0.01598023463126
1.7815000000000012,-7.280239548966387,-2.374546627277065,0.0873537290623162
1.785,-6.9361478869357045,-2.38413372085827,0.1981454846496642
1.7885000000000026,-6.625081345011259,-2.3926561635957584,0.2876302607286655
1.7920000000000016,-6.208551537705804,-2.3692198823999786,0.3771150368076668
1.7955000000000003,-5.902809995329194,-2.324478367025104,0.42292294835551
1.799000000000003,-5.524630307677811,-2.3372611584667102,0.4729912086074713
1.802500000000002,-5.270023421726131,-2.3255430178688203,0.5315836569261729
1.806000000000001,-4.872667801583084,-2.260560919158568,0.5773915684740161
1.8095,-4.631910103245979,-2.2978446426396704,0.5976321518093943
1.8130000000000024,-4.408199035713103,-2.295715340952237,0.6477004120613556
1.8165000000000011,-4.27610204594666,-2.279735106320977,0.7041618133633722
1.8200000000000005,-3.9671665510388983,-2.228600449896048,0.780862052671515
1.8235000000000028,-3.957577712128442,-2.221144403331528,0.8298656620797599
1.8270000000000015,-3.706168269366415,-2.081589621671313,0.944917766371226
1.830500000000001,-3.685927686031037,-2.070937877246392,0.9907256779190692
1.8340000000000032,-3.729604550562194,-2.0187385699777454,1.0823415010147557
1.837500000000002,-3.625205936024902,-1.8727923925967276,1.1867401155520485
1.841000000000001,-3.548503951387507,-1.818462038311396,1.2740955899436164
1.8445,-3.5144141804375537,-1.7918300592552143,1.356122574128846
1.8480000000000023,-3.4227983573418674,-1.6597330694887715,1.453065142101619
1.8515000000000013,-3.319464393648292,-1.6043380643597236,1.4956773557890606
1.8550000000000004,-3.251286597077637,-1.5393542203202186,1.5595948036555969
1.858500000000003,-3.2022829876693923,-1.4243021160287526,1.6139251579409286
1.8620000000000017,-3.036096226952996,-1.2645067510331598,1.6767779549637485
1.8655000000000008,-2.9498071487343966,-1.1611727873395834,1.725781564371993
1.8690000000000035,-2.867780164549167,-1.0205551001649042,1.816330991294711
1.8725000000000025,-2.7942738777721736,-0.901240901840068,1.885575184038334
1.8760000000000008,-2.7090494503972904,-0.820278568498555,1.9814531011673904
1.8795,-2.6675036328828177,-0.8032336830235783,2.05176194475473
1.883000000000003,-2.662176888005731,-0.723336000525782,2.1359199759566443
1.8865000000000016,-2.690939914078597,-0.6615495996759307,2.1806632366607714
1.8900000000000008,-2.778293643140914,-0.6370469223071823,2.2424496375106227
1.893500000000003,-2.8986724923094664,-0.6200020368322057,2.2861265020417805
1.897000000000002,-3.1223853051715955,-0.6136106411114024,2.3436525541875133
1.900500000000001,-3.3269221855420628,-0.6082838962343158,2.401178606333247
1.904,-3.6262705868686185,-0.6295908757426625,2.478945241814358
1.9075000000000024,-3.897922358295276,-0.6477004120613556,2.5375376901330595
1.9110000000000011,-4.3016693741591245,-0.7105532090841755,2.603586185016281
1.9145000000000003,-4.592495332748191,-0.7840577505319166,2.648327700391156
1.9180000000000028,-4.985590604187118,-0.9193504381587612,2.6770907264640225
1.9215000000000015,-5.3094399375531705,-1.037599985639881,2.6600458409890457
1.9250000000000007,-5.769648354719035,-1.1814151160042137,2.6057172320329665
1.9285000000000032,-6.111608969733032,-1.290074079245625,2.5449937366975792
1.9320000000000024,-6.581404480480102,-1.4381513036433275,2.450182215741492
1.935500000000001,-6.899928814298319,-1.5191136369848404,2.383069070014554
1.939,-7.216322101099851,-1.6000759703263534,2.3138248772709304
1.9425000000000023,-7.450686658386902,-1.7343040071094815,2.283997200354348
1.9460000000000013,-7.547629226359674,-1.9420365853403505,2.2882575490584656
1.9495000000000005,-7.531648991728415,-1.9431012361840672,2.264821267862686
1.953000000000003,-7.478385033616051,-2.026194616542265,2.1966417259627797
1.956500000000002,-7.352679439570411,-2.273343710600174,2.1732054447669995
1.9600000000000009,-7.049070689539739,-2.351110346081285,2.142311371677448
1.9635000000000036,-6.752917986073585,-2.3436525541875133,2.0901120644088014
1.9670000000000023,-6.223465376164096,-2.4597710546519487,2.0411084550005567
1.9705000000000013,-5.769648354719035,-2.655785492284928,2.045370549033927
1.974,-5.098511661461899,-2.6813528204973927,2.026194616542265
1.9775000000000027,-4.552014166077434,-2.7569884089618184,1.9931712417652805
1.9810000000000016,-3.742387342003801,-2.9540692427677664,1.9899755439048787
1.9845000000000008,-3.162866471842352,-3.1245163521882806,1.9867781007152248
1.988000000000003,-2.3990493046458137,-3.2427641543401484,1.9633418195194452
1.991500000000002,-1.901555418669594,-3.294963461608795,1.9281873977257755
1.995000000000001,-1.3060543138768848,-3.3578162586316145,1.904751116529996
1.9985,-0.9438531155275096,-3.371665446246189,1.894097626775822
2.0020000000000024,-0.5699337765802444,-3.3961663782856863,1.8823794861779324
2.0055000000000014,-0.3898978282492732,-3.4014931231627727,1.8685302985633567
2.0090000000000003,-0.2375620004767041,-3.4014931231627727,1.849356111400948
2.012500000000003,-0.1938833906162941,-3.439843242816844,1.820593085328081
2.016000000000002,-0.2173214171413259,-3.495239993275144,1.771589475919836
2.0195000000000007,-0.3579391043160051,-3.461150222325191,1.7268462152157096
2.0230000000000032,-0.5273215628928027,-3.558091044968712,1.6639934181928897
2.026500000000002,-0.7510343757549319,-3.586854071041578,1.6139251579409286
2.030000000000001,-1.203785001027025,-3.627336983041587,1.5052644493702656
2.0335,-1.6235122515221332,-3.6070946543769566,1.4306935117495558
2.0370000000000026,-2.185989981537858,-3.249155550060952,1.332686292933066
2.040500000000001,-2.793209226928457,-3.518676274470924,1.259181751485325
2.0440000000000005,-3.2928324145921097,-3.6166834932874137,1.2186988394853169
2.047500000000003,-4.036410743782522,-3.2544822949380383,1.0194887039919358
2.051000000000002,-4.528577884881655,-3.365272305196134,0.7265316983861836
2.054500000000001,-5.017547582791135,-3.510153831733436,0.5486285424011496
2.0580000000000034,-5.6460738076900805,-3.4622148731689077,0.2247774637058457
2.0615000000000023,-5.961402443647896,-3.4217337064981512,-0.0287630260728665
2.0650000000000013,-6.083910594503882,-3.3961663782856863,-0.2641939795328856
2.0685,-5.980576630810306,-3.301354857329598,-0.3803107346680683
2.0720000000000027,-5.534217401259016,-3.1532793782611472,-0.5070809795574245
2.0755000000000017,-5.075075380266119,-3.087230883377926,-0.5752605214573311
2.0790000000000006,-4.312322863913297,-3.041422971830083,-0.6295908757426625
2.082500000000003,-3.592180815918665,-3.073381695763351,-0.6402426201675839
2.086000000000002,-2.461900356339381,-3.2182614769714,-0.614677037284371
2.089500000000001,-1.5425499181806204,-3.3514248629108114,-0.5912390107593392
2.093,-0.2482137449016255,-3.5229366231750423,-0.5379750526469761
2.0965000000000025,0.7552947244590501,-3.6486422172206816,-0.4879067923950148
2.1000000000000014,2.0826560178442817,-3.7828685086745577,-0.4048134120368167
2.1035000000000004,3.065923903869579,-3.8478523527140633,-0.3270467765557054
2.107000000000003,4.352804030584054,-3.9309457330722606,-0.1970790884766957
2.110500000000002,5.230608651228343,-3.959708759145127,-0.1012029166768912
2.1140000000000008,6.254357703924396,-3.979949342480505,0.0010646508437165
2.1175000000000037,6.86797009036505,-3.95438201426804,0.0660484948832214
2.121000000000002,7.509277361376351,-3.902182706999394,0.1086607085706629
2.124500000000001,7.8267370443508515,-3.845721305697378,0.1203788491685528
2.128,8.019555784123428,-3.713626061260187,0.0937468701123714
2.1315000000000026,8.035534273425437,-3.65716465995817,0.0543303542853314
2.1350000000000016,7.9076993776923645,-3.661425008662288,-0.0149138384582915
2.1385000000000005,7.7095538930427,-3.6774052432935487,-0.0894847760790012
2.142000000000003,7.359070835291216,-3.732800248422597,-0.205601531214184
2.145500000000002,7.051199991227172,-3.8244160715182822,-0.288694911572382
2.149000000000001,6.5750130847592985,-3.9671665510388983,-0.3781796876513833
2.1525000000000034,6.153154787247505,-4.067303071542821,-0.4335764381096833
2.1560000000000024,5.515041468767355,-4.271841697242541,-0.4815136513449596
2.1595000000000013,5.030332119561993,-4.36558682202566,-0.5049499325407395
2.1630000000000003,4.386892056204755,-4.51472869726708,-0.5496931932448661
2.1665000000000028,3.883006774507732,-4.684111155843877,-0.5667380787198427
2.1700000000000017,3.150083680400746,-4.888648036214345,-0.5656734278761262
2.1735000000000007,2.665372585866132,-4.977066416120378,-0.5433017975240628
2.177000000000003,2.146573465710818,-5.132601432411852,-0.4836446983616446
2.180500000000002,1.7918300592552143,-5.2742855157595,-0.38350643252847
2.184000000000001,1.3454708297039246,-5.373357385419706,-0.2024058333537824
2.1875,1.0589052198189757,-5.445797276023732,-0.0532657034416149
2.1910000000000025,0.7851241467048852,-5.392533317911369,0.1842962970350892
2.194500000000001,0.630655526586379,-5.443667974336298,0.3472873598910836
2.1980000000000004,0.4452945787075733,-5.487344838867456,0.5709984274239609
2.201500000000003,0.3227846825223353,-5.470299953392479,0.7030954171904037
2.205000000000002,0.2823035158515788,-5.468168906375794,0.8309320582527283
2.208500000000001,0.3398295679973119,-5.469233557219511,0.9150900894546428
2.2120000000000037,0.5283879590657713,-5.451124020900817,0.9853989330419826
2.2155000000000022,0.7222713496820654,-5.429818786721723,1.009901610410731
2.219000000000001,1.0748854544502358,-5.397860062788455,1.0088369595670144
2.2225,1.3880812980621142,-5.373357385419706,0.984334282198266
2.226000000000002,1.8301801789092855,-5.307308890536485,0.9076322975608712
2.2295000000000016,2.154031257604589,-5.201845625155475,0.8277363603923268
2.2330000000000005,2.644067351687037,-5.007960489209929,0.6956393706258839
2.236500000000003,3.036096226952996,-4.88651698919766,0.600827849669796
2.240000000000002,3.5730066287562554,-4.759746744308304,0.4783179534845579
2.243500000000001,3.851048050574464,-4.604213473346082,0.3856374795451551
2.247,4.27610204594666,-4.656412780614728,0.2918906094327836
2.2505000000000024,4.614866963100255,-4.676653363950106,0.1811005991746876
2.2540000000000013,4.854558265264392,-4.701156041318854,-0.0543303542853314
2.2575000000000003,5.032463166578678,-4.64043429131272,-0.2098636252475541
2.261000000000003,5.230608651228343,-4.465725087858835,-0.3515477085952018
2.2645000000000017,5.668445438042144,-4.480638926317127,-0.4442281825346047
2.2680000000000007,5.588547755544347,-4.57331940025653,-0.7052264642070888
2.271500000000003,5.500127630309063,-4.661739525491814,-0.8820667146776582
2.275000000000002,5.403186807665541,-4.418850780138024,-0.9981834698128408
2.278500000000001,5.711057651729585,-4.501944160496222,-1.0599698706626923
2.282,5.519303562800724,-4.762942442168706,-1.2112427929207967
2.2855000000000025,5.303048541832367,-4.917411062287211,-1.3188371053184913
2.289000000000001,5.142188525993057,-4.92167141099133,-1.383820949357996
2.2925000000000004,5.072944333249434,-4.83538233277273,-1.3859519963746811
2.296000000000003,5.004764791349528,-5.100640963149332,-1.3369483869664365
2.299500000000002,4.659608478475129,-5.258305281128241,-1.286878381385223
2.303000000000001,4.289951233561234,-5.352052151240611,-1.1952625582895369
2.3065000000000038,4.092870399755286,-5.350987500396895,-1.0844725480314406
2.3100000000000023,3.772216764249636,-5.41170925040303,-0.956635906969116
2.313500000000001,3.4419742898335293,-5.4990629794653465,-0.8959141569629812
2.317,2.9498071487343966,-5.608788338879725,-0.8735442719401699
2.3205000000000027,2.581214554664218,-5.671641135902545,-0.8927184591025796
2.3240000000000016,2.1593562571524245,-5.777106146612807,-0.944917766371226
2.327500000000001,1.9143382101112003,-5.86978662055221,-0.9971170736398725
2.331000000000003,1.6725158609303783,-5.974185235089502,-1.0940596416126456
2.334500000000002,1.5372231733035338,-6.046625125693527,-1.1846108138646152
2.338000000000001,1.4413470015037293,-6.10415117783926,-1.332686292933066
2.3415,1.4253667668724692,-6.1158693184371495,-1.4594565378224222
2.3450000000000024,1.4669143297161942,-6.097759782118457,-1.6554709754554016
2.3485000000000014,1.5244403818619272,-6.051951870570614,-1.8248534340321991
2.3520000000000003,1.6597330694887715,-5.9550093025978414,-2.053892991771415
2.355500000000003,1.7960904079593327,-5.8612641778147205,-2.2168823092981573
2.3590000000000018,2.0166075229610603,-5.722775792327475,-2.4278123307186803
2.3625000000000007,2.2072952157169525,-5.619441828633899,-2.573756762770446
2.366000000000003,2.4885340807248157,-5.47456204742585,-2.7452702683639285
2.369500000000002,2.716507242291062,-5.378684130296794,-2.867780164549167
2.373000000000001,2.973243429930176,-5.315831333273973,-3.0169202944613343
2.3765,3.136234492786171,-5.273219119586532,-3.113862862434108
2.3800000000000026,3.34396707101704,-5.177342947786728,-3.2267839197088883
2.383500000000001,3.4920425500854906,-5.11022980205979,-3.294963461608795
2.3870000000000005,3.6486422172206816,-5.042050260159883,-3.3492938158941263
2.390500000000003,3.7445183890204863,-4.9994380464724415,-3.3599473056483
2.394000000000002,3.868092936049441,-4.955761181941283,-3.347162768877441
2.397500000000001,3.936272477949347,-4.930193853728818,-3.3077462530504014
2.401000000000004,3.9671665510388983,-4.901430827655951,-3.24169775816718
2.4045000000000023,3.943728524513867,-4.875863499443486,-3.172453565423557
2.4080000000000013,3.8414609569932594,-4.842840124666503,-3.058467857305059
2.4115,3.72001745698099,-4.802358957995746,-2.955133893611483
2.4150000000000027,3.497369294962577,-4.749093254554131,-2.788947132895087
2.4185000000000016,3.2960281124525115,-4.707547437039658,-2.662176888005731
2.4220000000000006,2.9892236645614365,-4.653217082754326,-2.4800116379873267
2.425500000000003,2.7175718931347785,-4.631910103245979,-2.3606974396624905
2.429000000000002,2.321282669164702,-4.599953124641964,-2.2307314969127323
2.432500000000001,2.010216127240257,-4.574385796429499,-2.164683002029511
2.436,1.5915535275888653,-4.558405561798238,-2.0997009033192584
2.4395000000000024,1.28048698566442,-4.547752072044065,-2.070937877246392
2.4430000000000014,0.9001762509963515,-4.531773582742057,-2.045370549033927
2.4465000000000003,0.6690056462404504,-4.536033931446175,-2.0293903144026664
2.450000000000003,0.4282496932325966,-4.54562102502738,-2.032586012263068
2.453500000000002,0.2673896773932873,-4.542425327166978,-2.046435199877643
2.4570000000000007,0.0798976824977964,-4.5253804416920005,-2.106092299040061
2.4605000000000032,-0.0308940730895516,-4.493421717758733,-2.162553700342078
2.464000000000002,-0.1438151303643327,-4.439093108802654,-2.257363475968914
2.467500000000001,-0.1949497867892626,-4.386892056204755,-2.3361965076229936
2.471,-0.1981454846496642,-4.291015884404951,-2.425681283701995
2.4745000000000026,-0.136357338470561,-4.185552619023942,-2.478945241814358
2.478000000000001,0.0095870935812048,-4.042802139503325,-2.535406643116375
2.4815000000000005,0.1342280367831279,-3.9245543373514575,-2.581214554664218
2.485000000000003,0.2929570056057522,-3.7306692014059113,-2.6493940965641243
2.488500000000002,0.397355620143045,-3.5591574411416804,-2.7058537525368886
2.492000000000001,0.5060163287137079,-3.3024212535025668,-2.782555737174284
2.4955000000000034,0.5720648235969293,-3.09681797695913,-2.8315593465825284
2.4990000000000023,0.6317219227593476,-2.8102541124034337,-2.8837586538511752
2.5025000000000013,0.6828548338550254,-2.602519788843313,-2.9199794718178134
2.506,0.7286627454028686,-2.359632788818774,-2.980701221823948
2.5095000000000027,0.7212066988383489,-2.2040995178565512,-3.036096226952996
2.5130000000000017,0.6743323911175372,-2.019803220821462,-3.117058560294509
2.5165000000000006,0.6349176206197492,-1.894097626775822,-3.1692578675631555
2.520000000000003,0.5795208701614492,-1.7598713353219464,-3.24169775816718
2.523500000000002,0.5102766774178261,-1.7087366788970164,-3.287505669715023
2.527000000000001,0.3781796876513833,-1.6927564442657563,-3.331184279575433
2.5305,0.2652586303766022,-1.7087366788970164,-3.3460981180337246
2.5340000000000025,0.1150521042914662,-1.7598713353219464,-3.337575675296237
2.5375000000000014,0.0042603487041181,-1.795025757115616,-3.3141393941004567
2.5410000000000004,-0.1416840833476476,-1.850420762244664,-3.2736582274297
2.544500000000003,-0.2641939795328856,-1.9484279810611536,-3.2406331073234638
2.548000000000002,-0.4538170214450616,-2.10289660117966,-3.195891591948589
2.5515000000000008,-0.6136106411114024,-2.2062305648732363,-3.161801820998636
2.5550000000000037,-0.8192139176548384,-2.36495953369586,-3.123449956015312
2.558500000000002,-0.9715514907566596,-2.5034479191831065,-3.0882955342216425
2.562000000000001,-1.192066860429135,-2.6579165393016124,-3.061663555165461
2.5655,-1.3369483869664365,-2.780424690157598,-3.042487622673799
2.5690000000000026,-1.5148515429514704,-2.9434157530135927,-3.047814367550886
2.5725000000000016,-1.6224476006784168,-3.056336810288374,-3.065923903869579
2.5760000000000005,-1.7321729600927964,-3.195891591948589,-3.1159939094507925
2.579500000000003,-1.7992861058197342,-3.288572065887992,-3.1671285658757222
2.583000000000002,-1.865334600702956,-3.34822916505041,-3.224654618021455
2.586500000000001,-1.8632035536862703,-3.3812525398273947,-3.260873690658842
2.59,-1.8248534340321991,-3.413211263760662,-3.2725918312567317
2.5935000000000024,-1.7577402883052613,-3.4164069616210644,-3.2683314825526133
2.5970000000000013,-1.6224476006784168,-3.405753471866891,-3.249155550060952
2.6005000000000003,-1.4850238660348871,-3.391906029581568,-3.228914966725573
2.6040000000000028,-1.2922051262623095,-3.380187888983678,-3.2118700812505967
2.6075000000000017,-1.1569124386354652,-3.3737947479336228,-3.2129347320943134
2.6110000000000007,-0.9672893967232892,-3.362076607335733,-3.2171968261276835
2.614500000000003,-0.8213432193422715,-3.354620560771213,-3.224654618021455
2.618000000000002,-0.6061545945468827,-3.364207654352418,-3.2129347320943134
2.621500000000001,-0.41120480775762,-3.370599050073221,-3.190564847071502
2.625,-0.1672514115601126,-3.364207654352418,-3.1596707739819503
2.6285000000000025,-0.0085224427374883,-3.362076607335733,-3.137299143629887
2.632000000000001,0.1747092034538843,-3.366338701369103,-3.0882955342216425
2.6355000000000004,0.3068061932203272,-3.365272305196134,-3.0605989043217443
2.639000000000003,0.4687308599033531,-3.324791138525378,-3.044618669690484
2.642500000000002,0.5422354013510943,-3.283245321010905,-3.049945414567571
2.646000000000001,0.5773915684740161,-3.228914966725573,-3.0605989043217443
2.6495000000000037,0.5464974953844645,-3.1703242637361235,-3.068054950886264
2.6530000000000022,0.4783179534845579,-3.086164487204957,-3.077643789796721
2.656500000000001,0.4271832970596281,-3.015855643617618,-3.0744463466070675
2.66,0.3494166615785167,-2.893347492761632,-3.082968789344556
2.663500000000002,0.2631275833599171,-2.793209226928457,-3.105340419696619
2.6670000000000016,0.1150521042914662,-2.672830377759904,-3.1319723987528008
2.6705000000000005,-0.0170448854749766,-2.576952460630848,-3.1596707739819503
2.674000000000003,-0.2119946722642392,-2.4320726794227983,-3.180976008161045
2.677500000000002,-0.3376985209806268,-2.306367085377159,-3.185238102194415
2.681000000000001,-0.4761869064678729,-2.1220707883420697,-3.1671285658757222
2.6845,-0.5933700577760241,-1.97719100713402,-3.1511483312444626
2.6880000000000024,-0.7979069381464917,-1.8035481998531044,-3.126645653875713
2.6915000000000013,-0.9811385843378644,-1.69169179342204,-3.110667164573706
2.6950000000000003,-1.2708998920832149,-1.5372231733035338,-3.086164487204957
2.698500000000003,-1.4711746784203124,-1.4338892096099574,-3.065923903869579
2.7020000000000017,-1.7364333087969146,-1.342273386514271,-3.0531411124279724
2.7055000000000007,-1.9622771686757288,-1.2943361732789946,-3.055272159444658
2.709000000000003,-2.2445806845273077,-1.215503141624915,-3.091491232082044
2.712500000000002,-2.44698651788109,-1.1995246523229068,-3.129843097065367
2.716000000000001,-2.7250296850285505,-1.2112427929207967,-3.191629497915218
2.7195,-2.935957961119821,-1.2165695377978836,-3.2406331073234638
2.7230000000000025,-3.135168096613202,-1.1973936053062215,-3.2907031129046764
2.726500000000001,-3.237437409463062,-1.1803487198312452,-3.3333135812628663
2.7300000000000004,-3.3269221855420628,-1.1611727873395834,-3.3972310291294026
2.733500000000003,-3.336509279123268,-1.134540808283402,-3.4462363838668995
2.737000000000002,-3.2129347320943134,-1.0855371988751572,-3.502696039839664
2.740500000000001,-3.0467497167071693,-1.0386646364835974,-3.548503951387507
2.7440000000000038,-2.759119455978504,-0.984334282198266,-3.613487795427012
2.7475000000000023,-2.505578966199792,-0.9481134642316276,-3.6592957069748553
2.751000000000001,-2.11461474177755,-0.8905874120858945,-3.710428618070533
2.7545,-1.8078085485572224,-0.8256053133756417,-3.7466494360371714
2.7580000000000027,-1.399799438660004,-0.7052264642070888,-3.795653045445416
2.7615000000000016,-1.1281494125625986,-0.6391779693238674,-3.8393299099765743
2.765000000000001,-0.8085604279006651,-0.5486285424011496,-3.863832587345323
2.768500000000003,-0.6114795940947174,-0.4942981881158181,-3.8776800296306457
2.772000000000002,-0.4133358547743051,-0.3653968962097769,-3.8776800296306457
2.775500000000001,-0.316393286801532,-0.2130593231079557,-3.8915292172452207
2.779,-0.2599318854995155,0.0063913957208032,-3.937337128793064
2.7825000000000024,-0.302544099186957,0.166186760716396,-3.98953643606171
2.7860000000000014,-0.4655351620429515,0.3813771308410369,-4.082218655330365
2.7895000000000003,-0.6200020368322057,0.5209301671719996,-4.151462848073988
2.793000000000003,-0.8671511308901148,0.6604849488322142,-4.233489832259218
2.7965000000000018,-1.0802104539980706,0.7499697249112154,-4.278233092963344
2.8000000000000007,-1.3827562985142796,0.889522761242178,-4.333628098092392
2.803500000000003,-1.6096630639075584,0.9779428864774626,-4.371978217746464
2.807000000000002,-1.9111425122507988,1.1057777822105357,-4.397545545958929
2.810500000000001,-2.157226955464991,1.2091117459041116,-4.407132639540134
2.814,-2.5332755960996893,1.3092500117372865,-4.385827405361039
2.8175000000000026,-2.7964049247888583,1.3870166472183978,-4.319778910477817
2.821000000000001,-3.0882955342216425,1.4562608399620207,-4.185552619023942
2.8245000000000005,-3.331184279575433,1.476501423297399,-4.076891910453278
2.828000000000003,-3.725344201858076,1.5137868921077535,-3.945859571530552
2.831500000000002,-4.058780628805333,1.563855152359715,-3.863832587345323
2.835000000000001,-4.505139858356623,1.6416217878408266,-3.7647589723558648
2.838500000000004,-4.866276405862282,1.677842605807465,-3.69231908175184
2.8420000000000023,-5.358443546961415,1.6767779549637485,-3.5793980244770585
2.8455000000000013,-5.699339511131695,1.66825551222626,-3.4760640607834827
2.849,-6.057278615447701,1.6661244652095748,-3.3141393941004567
2.8525000000000027,-6.2522284022369625,1.6767779549637485,-3.200151940652707
2.8560000000000016,-6.4780705167865245,1.6853003977012364,-3.0605989043217443
2.8595000000000006,-6.635734834765432,1.6884960955616382,-2.9625899401760027
2.863000000000003,-6.757178334777702,1.7044745848636462,-2.8379507423033314
2.866500000000002,-6.837076017275498,1.6927564442657563,-2.747401315380614
2.870000000000001,-6.983022194656516,1.695952142126158,-2.602519788843313
2.8735,-7.045874991679336,1.719388423321938,-2.46296675251235
2.8770000000000024,-7.044808595506368,1.728977262232395,-2.2243401011919293
2.8805000000000014,-7.049070689539739,1.7534781942718909,-2.032586012263068
2.8840000000000003,-7.029894757048076,1.7982214549760178,-1.7556092412885762
2.887500000000003,-6.978760100623147,1.792894710098931,-1.5297671267390138
2.891000000000002,-6.87968823096294,1.719388423321938,-1.2261566313790884
2.8945000000000007,-6.823226829660923,1.6746469079470632,-1.0045748655336442
2.8980000000000032,-6.771027522392277,1.6022070173430385,-0.709488558240459
2.901500000000002,-6.756113683933985,1.5297671267390138,-0.4879067923950148
2.905000000000001,-6.765700777515191,1.423237465185036,-0.1811005991746876
2.9085,-6.788072407867254,1.3316216420893496,0.0564614013020165
2.9120000000000026,-6.836011366431782,1.215503141624915,0.3824417816847534
2.915500000000001,-6.887144277527461,1.1473253450542604,0.6136106411114024
2.9190000000000005,-6.971302308729375,1.037599985639881,0.903371948856753
2.922500000000003,-7.055462085260541,0.9555712561253994,1.0993863864897322
2.926000000000002,-7.191819423731102,0.8735442719401699,1.3273595480559794
2.929500000000001,-7.32604746051423,0.8394545009902167,1.4594565378224222
2.9330000000000034,-7.524192945163894,0.7979069381464917,1.5947492254492668
2.9365000000000023,-7.690379705880291,0.7361205372966404,1.6629287673491733
2.9400000000000013,-7.940722752469349,0.6466357612176391,1.7204548194949063
2.9435,-8.134607888414896,0.5976321518093943,1.7406954028302846
2.9470000000000027,-8.34766721152285,0.5156034222949128,1.763067033182348
2.9505000000000017,-8.470175362378837,0.4612730680095813,1.7854369182051593
2.9540000000000006,-8.626775029514029,0.42292294835551,1.8035481998531044
2.957500000000003,-8.745022831665896,0.4144005056180216,1.811004246417624
2.961000000000002,-8.895229357751033,0.4399678338304866,1.8120706425905928
2.964500000000001,-9.0134771599029,0.4697955107470696,1.7960904079593327
2.968,-9.17753287360261,0.5145387714511963,1.7737187776072691
2.9715000000000025,-9.293649628737793,0.5582156359823544,1.739630751986568
2.9750000000000014,-9.402310337308457,0.6338512244467807,1.7044745848636462
2.9785000000000004,-9.447053598012584,0.6764634381342222,1.6757115587907798
2.982000000000003,-9.458771738610476,0.7286627454028686,1.6394924861533935
2.985500000000002,-9.437464759102127,0.7829930996882002,1.6224476006784168
2.9890000000000008,-9.362893821481416,0.8948495061192646,1.60114062117007
2.9925000000000037,-9.280866837296188,0.9992481206565574,1.596880272465952
2.996000000000002,-9.137051706931857,1.1494546467416935,1.6085984130638418
2.999500000000001,-9.02093495179667,1.2602464023290416,1.6330993451033382
3.003,-8.850487842376157,1.4168443241349806,1.6991478399865596
3.0065000000000026,-8.747153878682582,1.550007710074392,1.7662627310427494
3.0100000000000016,-8.667256196184784,1.735368657953198,1.866400996875924
3.0135000000000005,-8.620383633793224,1.874923439613413,1.9580150746423584
3.017000000000003,-8.603338748318249,1.9963669396256816,2.085851715704683
3.020500000000002,-8.638493170111918,2.0208678716651782,2.176401142627401
3.024000000000001,-8.724782248330518,2.0304567105756357,2.2818661533376625
3.0275,-8.789766092370023,2.0251299656985484,2.341523252500081
3.0310000000000024,-8.867530982521881,1.9984962413131149,2.3947872106124435
3.0345000000000013,-8.914405290242692,1.9739953092736189,2.4182234918082237
3.0380000000000003,-8.926123430840583,1.857878554138436,2.426745934545712
3.0415000000000028,-8.823854117990724,1.728977262232395,2.4523132627581767
3.0450000000000017,-8.542615252982861,1.5425499181806204,2.460835705495665
3.0485000000000007,-8.229419409370983,1.3710364125871377,2.4491175648977745
3.052000000000003,-7.724467731500992,1.1047131313668188,2.3937225597687277
3.055500000000002,-7.312198272899655,0.8778046206442881,2.317020575131332
3.059000000000001,-6.734806704425639,0.5976321518093943,2.1753364917836846
3.0625,-6.274600032589026,0.4591437663221482,2.05176194475473
3.0660000000000025,-5.626897875198418,0.3622011983493752,1.874923439613413
3.069500000000001,-5.146448874697176,0.3195889846619337,1.730041913076111
3.0730000000000004,-4.547752072044065,0.2578025838120824,1.5542680587785105
3.076500000000003,-4.133351566426043,0.1981454846496642,1.4381513036433275
3.080000000000002,-3.691254430908124,0.1289012919060412,1.300727568999798
3.083500000000001,-3.453692430431419,0.1257055940456395,1.196328954462505
3.0870000000000037,-3.2331753154296914,0.0841580312019145,1.0290775429023926
3.0905000000000022,-3.249155550060952,0.0767019846373948,0.9715514907566596
3.094000000000001,-3.4856511543646875,0.1470108282247343,0.8991098548233829
3.0975,-3.691254430908124,0.2311688594266489,0.9161547402983594
3.101000000000002,-3.911769800580599,0.2354309534600191,1.0280111467294242
3.1045000000000016,-4.086479004034484,0.1299659427497577,1.17821767281456
3.1080000000000005,-4.357064379288173,-0.0436768645311581,1.402996881849658
3.111500000000003,-4.583972890010703,-0.1768385051413174,1.5809000378346918
3.115000000000002,-4.91421536442681,-0.3952245731263599,1.7971568041323012
3.118500000000001,-5.210368067892964,-0.5411707505073777,1.929252048569492
3.122,-5.639682411969277,-0.6743323911175372,2.0666757832130216
3.1255000000000024,-5.937964417122864,-0.7403808860007585,2.134855325112928
3.1290000000000013,-6.308688058209728,-0.7915155424256883,2.194512424275346
3.1325000000000003,-6.55051040739055,-0.8138871727777518,2.2094262627336376
3.136000000000003,-6.814704386923435,-0.8245406625319252,2.208359866560669
3.1395000000000017,-6.9659773091815405,-0.8011026360068932,2.188119283225291
3.1430000000000007,-7.103399298495818,-0.7595568184924202,2.141246720833731
3.146500000000003,-7.139620116462456,-0.7222713496820654,2.0922431114254865
3.150000000000002,-7.144946861339542,-0.713748906944577,1.9931712417652805
3.153500000000001,-7.142815814322858,-0.7158799539612621,1.8930329759321056
3.157,-7.082094064316722,-0.6998997193300021,1.7470867985510878
3.1605000000000025,-6.978760100623147,-0.7073575112237738,1.629903647242937
3.164000000000001,-6.773158569408962,-0.7212066988383489,1.480763517330769
3.1675000000000004,-6.573948433915581,-0.7371851881403569,1.377429553637193
3.171000000000003,-6.25755514711405,-0.7680792612299085,1.2527886104352697
3.174500000000002,-5.992294771408195,-0.7872551937215703,1.1856754647083318
3.178000000000001,-5.640747062812993,-0.8245406625319252,1.134540808283402
3.1815000000000038,-5.406382505525943,-0.8767399698005716,1.1206916206688269
3.1850000000000023,-5.129403989222198,-0.9502445112483128,1.167565928389639
3.188500000000001,-4.906757572533039,-0.9981834698128408,1.2400058189936634
3.192,-4.570123702396128,-1.1025820843501335,1.3710364125871377
3.1955000000000027,-4.298473676298722,-1.2368101211332618,1.4850238660348871
3.1990000000000016,-3.940532826653466,-1.4434780485204144,1.652275277595
3.202500000000001,-3.6699474513997767,-1.583031084851377,1.7620006370093797
3.206000000000003,-3.331184279575433,-1.739630751986568,1.8919665797591367
3.209500000000002,-3.102144721836217,-1.8120706425905928,1.9622771686757288
3.213000000000001,-2.878431908974088,-1.8365715746300888,2.0091497310672883
3.2165,-2.777228992297197,-1.8195266891551125,2.011280778083973
3.2200000000000024,-2.6920045649223137,-1.7332376109365126,1.9782556579777368
3.2235000000000014,-2.6888088670619124,-1.6384260899804248,1.9249916998653736
3.2270000000000003,-2.7633798046826223,-1.4520004912579023,1.8131352934343088
3.230500000000003,-2.87417156026997,-1.3369483869664365,1.7098013297407328
3.2340000000000018,-3.0637946021821456,-1.1260183655459135,1.573443991270172
3.2375000000000007,-3.24595985220055,-0.9310703240859032,1.4615875848391076
3.241000000000003,-3.4856511543646875,-0.7148135577882937,1.3081853608935698
3.244500000000002,-3.706168269366415,-0.5965657556364258,1.18247976684793
3.248000000000001,-4.008712368553372,-0.4719265577637547,0.9981834698128408
3.2515,-4.218575993800926,-0.4122694586013365,0.8554329902922247
3.2550000000000026,-4.481703577160843,-0.3590055004889736,0.6711366932571355
3.258500000000001,-4.611669519910601,-0.2993484013265554,0.559280286826071
3.2620000000000005,-4.670261968229303,-0.2205171150017275,0.43890318298677
3.265500000000003,-4.653217082754326,-0.1928187397725775,0.3675279432264619
3.269000000000002,-4.582908239166986,-0.1715135055934827,0.3110665419244454
3.272500000000001,-4.452940551087977,-0.177904901314286,0.3046751462036421
3.276000000000004,-4.219640644644643,-0.2162550209683574,0.3249157295390203
3.2795000000000023,-4.015103764274175,-0.2684543282370038,0.3462209637181151
3.2830000000000013,-3.780739206987125,-0.355809802628572,0.38350643252847
3.2865,-3.6262705868686185,-0.4293143440763132,0.4144005056180216
3.2900000000000027,-3.4483656855543323,-0.5049499325407395,0.4687308599033531
3.2935000000000016,-3.3141393941004567,-0.559280286826071,0.5241258650324012
3.2970000000000006,-3.137299143629887,-0.6338512244467807,0.626395177882261
3.300500000000003,-2.997746107298924,-0.6860505317154271,0.7126842561008605
3.304000000000002,-2.8081230653867486,-0.753165422771617,0.84584589671102
3.307500000000001,-2.698397705972369,-0.8170828706381533,0.947048813387911
3.311,-2.603586185016281,-0.9001762509963515,1.0855371988751572
3.3145000000000024,-2.558842924312154,-0.928939277069218,1.2048513971999937
3.3180000000000014,-2.4885340807248157,-0.9928567249357544,1.3646450168663344
3.3215000000000003,-2.433139075595767,-1.0866035950481256,1.4956773557890606
3.325000000000003,-2.38413372085827,-1.2325480270998914,1.6639934181928897
3.328500000000002,-2.387331164047924,-1.3486665275643264,1.765196334869781
3.3320000000000007,-2.43953047131657,-1.5350921262868489,1.873857043440444
3.3355000000000032,-2.530079898239288,-1.677842605807465,1.944167632357036
3.339000000000002,-2.7047891016931724,-1.8387026216467743,2.0016936845027686
3.342500000000001,-2.866713768376198,-1.9431012361840672,2.0368481062964383
3.346,-3.1223853051715955,-2.0783939238109115,2.048566246894328
3.3495000000000026,-3.352489513754528,-2.2115573097503227,2.0208678716651782
3.353000000000001,-3.733866644595565,-2.390526861908325,1.9548193767819568
3.3565000000000005,-4.02895295188875,-2.517297106797681,1.8845105331946173
3.360000000000003,-4.402872290836015,-2.723965034184834,1.772654126763553
3.363500000000002,-4.653217082754326,-2.8986724923094664,1.6789072566511811
3.367000000000001,-4.957892228957968,-3.1575397269652656,1.5137868921077535
3.3705000000000034,-5.176278296943011,-3.3674033522128197,1.3550579232851294
3.3740000000000023,-5.451124020900817,-3.6347930296061066,1.1196269698251105
3.3775000000000013,-5.593874500421434,-3.809502233059992,0.9363953236337376
3.381,-5.660987646148373,-3.981013993324222,0.6913772765925138
3.3845000000000027,-5.636486714108876,-4.0438667903470416,0.5134723752782278
3.3880000000000017,-5.494800885431975,-4.089674701894885,0.286565609884949
3.3915000000000006,-5.307308890536485,-4.105654936526145,0.1395530363309626
3.395000000000003,-4.956825832784999,-4.066238420699105,-0.013849187614575
3.398500000000002,-4.6361721972793495,-3.999125274972167,-0.0990718696602061
3.402000000000001,-4.146136103196901,-3.9245543373514575,-0.1757738542976009
3.4055,-3.748780483053857,-3.861701540328637,-0.2002765316663493
3.4090000000000025,-3.2161321752839678,-3.779672810814157,-0.1938833906162941
3.4125000000000014,-2.784686784190969,-3.723213154841392,-0.1651203645434275
3.4160000000000004,-2.172140793923283,-3.6560982637852018,-0.1022693128498597
3.419500000000003,-1.7012788870032447,-3.615617097114445,-0.0500682602519613
3.423000000000002,-1.0983217356460158,-3.6070946543769566,0.0362208179666383
3.4265000000000008,-0.6583539018155291,-3.585789420197862,0.1193124529955843
3.4300000000000037,-0.0777666354811113,-3.5591574411416804,0.2364956043037356
3.433500000000002,0.3281114273994219,-3.5985722116394685,0.3376985209806268
3.437000000000001,0.8000379851631767,-3.693383732595556,0.4729912086074713
3.4405,1.106844178383504,-3.767954670216266,0.5720648235969293
3.4440000000000026,1.4456073502078477,-3.8851378215244177,0.6679409953967339
3.4475000000000016,1.6373614391367084,-4.0172348112908605,0.7126842561008605
3.4510000000000005,1.7960904079593327,-4.203662155342634,0.7574257714757352
3.454500000000003,1.8759880904571289,-4.3261703061986205,0.7766017039673969
3.458000000000002,1.952690075094524,-4.493421717758733,0.7861887975486017
3.461500000000001,1.984648799027792,-4.631910103245979,0.7893844954090034
3.465,1.9963669396256816,-4.804488259683179,0.7851241467048852
3.4685000000000024,2.019803220821462,-4.929129202885101,0.7755353077944284
3.4720000000000013,2.0783939238109115,-5.042050260159883,0.7574257714757352
3.4755000000000003,2.1614873041691096,-5.0942495674285295,0.7382515843133254
3.4790000000000028,2.324478367025104,-5.142188525993057,0.7030954171904037
3.4825000000000017,2.471489195249838,-5.176278296943011,0.6690056462404504
3.4860000000000007,2.668568283726534,-5.249782838390751,0.6157416881280875
3.489500000000003,2.782555737174284,-5.330745171732264,0.5646070317031576
3.493000000000002,2.8816276068344897,-5.389337620050966,0.4964292351325031
3.496500000000001,2.977505523963546,-5.339267614469754,0.4676662090596366
3.5,3.123449956015312,-5.206105973859593,0.4218582975117934
3.5035000000000025,3.177780310300644,-5.11022980205979,0.3920288752659583
3.507000000000001,3.156475076121549,-4.960023275974653,0.3653968962097769
3.5105000000000004,3.137299143629887,-4.818337447297754,0.3451563128743986
3.514000000000003,3.0957533261154144,-4.639367895139751,0.3131975889411305
3.517500000000002,3.048879018394602,-4.505139858356623,0.2897613077453506
3.521000000000001,2.9327622632594195,-4.348541936550684,0.2514094427620272
3.5245000000000037,2.8454085341971034,-4.222836342505045,0.2258421145495622
3.5280000000000022,2.728225382888952,-4.032148649749152,0.2119946722642392
3.531500000000001,2.631282814916179,-3.916031894613969,0.2141239739516723
3.535,2.522623851674768,-3.8297428163953695,0.2791078179911772
3.538500000000002,2.4842719866914447,-3.8041754881829046,0.3547434064556034
3.5420000000000016,2.4725538460935548,-3.828678165551653,0.4783179534845579
3.5455000000000005,2.4949254764456184,-3.8862024723681343,0.586978662055221
3.549000000000003,2.578018856803816,-3.973557946759702,0.7361205372966404
3.552500000000002,2.680286424324424,-4.0332150459221205,0.8511726415881066
3.556000000000001,2.8017316696659456,-4.128024821548957,0.984334282198266
3.5595,2.861387023499112,-4.199400061309264,1.0621009176793774
3.5630000000000024,2.8944121436053485,-4.306996119036211,1.1473253450542604
3.5665000000000013,2.8986724923094664,-4.413525780590189,1.1856754647083318
3.5700000000000003,2.82303690384504,-4.547752072044065,1.2069806988874263
3.573500000000003,2.695202008111968,-4.658543827631412,1.1878065117250167
3.5770000000000017,2.524753153362201,-4.7693338378895085,1.1430632510208902
3.5805000000000007,2.4203545388249084,-4.799163260135344,1.092994990768929
3.584000000000003,2.330869762745907,-4.818337447297754,1.0056395163773606
3.587500000000002,2.271212663583489,-4.833253031085297,0.9257435792088164
3.591000000000001,2.1849235853648894,-4.83538233277273,0.7893844954090034
3.5945,2.1316596272525263,-4.833253031085297,0.6732677402738206
3.5980000000000025,2.0997009033192584,-4.800227910979061,0.5134723752782278
3.601500000000001,2.105025902867093,-4.748028603710414,0.3771150368076668
3.605,2.1455088148671013,-4.646825687033522,0.1885583910684593
3.608500000000003,2.190250330241976,-4.556274514781553,0.0383501196540714
3.612000000000002,2.270148012739772,-4.442288806663056,-0.1534022239455376
3.615500000000001,2.350045695237569,-4.348541936550684,-0.2918906094327836
3.6190000000000033,2.481076288831044,-4.254796811767565,-0.4506213235846599
3.6225000000000014,2.5939973461058243,-4.223902738678013,-0.5550199381219528
3.626000000000001,2.759119455978504,-4.214313899767556,-0.6892479749050807
3.6295,2.8731051640970016,-4.230294134398815,-0.7702103082465936
3.6330000000000022,3.031834132919626,-4.198335410465548,-0.875673573627603
3.6365000000000016,3.1330387949257688,-4.145069707023933,-0.960898001002486
3.640000000000001,3.2267839197088883,-4.089674701894885,-1.083406151858472
3.643500000000003,3.2587426436421567,-4.036410743782522,-1.1803487198312452
3.647000000000002,3.265135784692212,-3.962904457005529,-1.3177724544747746
3.650500000000001,3.263004737675527,-3.9426638736701514,-1.412583975430863
3.654,3.28111427399422,-3.929881082228544,-1.5425499181806204
3.6575000000000015,3.316268695787889,-3.9234879411784886,-1.6224476006784168
3.661000000000002,3.371665446246189,-3.965035504022214,-1.725781564371993
3.6645,3.443040686006498,-3.9746225976034175,-1.7833076165177262
3.668000000000003,3.502696039839664,-3.9469259677035207,-1.8514854130883809
3.6715000000000018,3.5506349984041923,-3.95438201426804,-1.8632035536862703
3.6750000000000007,3.591116165074949,-3.971426899743017,-1.822722387015514
3.678500000000003,3.581529071493744,-3.987407134374277,-1.7556092412885762
3.682000000000002,3.542112555666704,-3.990602832234679,-1.6213812045054483
3.685500000000001,3.5048270868563494,-3.9724915505867338,-1.4850238660348871
3.689,3.4281251022189543,-3.963969107849245,-1.2698334959102464
3.6925000000000026,3.371665446246189,-3.95438201426804,-1.095126037785614
3.6960000000000015,3.283245321010905,-3.958644108301411,-0.8767399698005716
3.699500000000001,3.2012165914964235,-3.9746225976034175,-0.7222713496820654
3.703000000000003,3.066990300042548,-3.958644108301411,-0.5443664483677794
3.706500000000002,2.973243429930176,-3.922423290334773,-0.4325100419367148
3.710000000000001,2.8773672581303718,-3.8808774728202993,-0.3089354949077603
3.7135000000000034,2.8059920183700635,-3.860636889484921,-0.2269085107225308
3.7170000000000014,2.735683174782724,-3.809502233059992,-0.1576643179789077
3.720500000000001,2.695202008111968,-3.757302925791345,-0.1470108282247343
3.724,2.6600458409890457,-3.7040372223497298,-0.1629910628559944
3.7275000000000023,2.655785492284928,-3.64118442532691,-0.1938833906162941
3.7310000000000016,2.6824174713411093,-3.558091044968712,-0.2727164222703739
3.7345000000000006,2.722898638011866,-3.5144141804375537,-0.3462209637181151
3.738000000000003,2.803860971353379,-3.465410571029309,-0.4452945787075733
3.741500000000002,2.880562955990773,-3.4387785919731275,-0.5347793547865746
3.745000000000001,3.004137503019728,-3.4622148731689077,-0.6540918077821589
3.7485,3.113862862434108,-3.486717550537656,-0.7318584432632703
3.7520000000000016,3.291767763748393,-3.5112184825771524,-0.8415838026776498
3.7555000000000014,3.4100155659002613,-3.5271987172084125,-0.928939277069218
3.759,3.5229366231750423,-3.5548953471083102,-1.039729287327314
3.762500000000003,3.5719402325832874,-3.5708755817395708,-1.1121691779313387
3.766000000000002,3.5847247693541453,-3.601769654829122,-1.20591604804371
3.7695000000000007,3.5793980244770585,-3.623074889008217,-1.254919657451955
3.7730000000000032,3.5431772065104203,-3.666751753539375,-1.3017922198435146
3.776500000000002,3.4835201073480024,-3.7391916441434,-1.3220328031788928
3.780000000000001,3.3844482376877965,-3.834003165099488,-1.3305552459163812
3.7835,3.30881264922337,-3.869157586893157,-1.326294897212263
3.7870000000000026,3.185238102194415,-3.932010383915977,-1.328425944228948
3.7905000000000015,3.054205763271689,-3.9820803894971903,-1.328425944228948
3.794000000000001,2.852864580761623,-4.019365858307546,-1.3529268762684443
3.797500000000003,2.695202008111968,-4.054520280101215,-1.3752985066205077
3.801000000000002,2.48214093967476,-4.109915285230263,-1.4168443241349806
3.804500000000001,2.328738715729222,-4.157854243794791,-1.453065142101619
3.808,2.147638116554534,-4.257992509627966,-1.5148515429514704
3.8115000000000014,2.0411084550005567,-4.329366004059022,-1.5563991057951954
3.815000000000001,1.9505590280778389,-4.387958452377724,-1.6043380643597236
3.8185,1.9271227468820589,-4.42843961904848,-1.650144230578315
3.8220000000000023,1.887706231055019,-4.489161369054615,-1.7311083092490798
3.8255000000000017,1.8706613455800425,-4.532838233585773,-1.7833076165177262
3.8290000000000006,1.899424371652909,-4.610604869066885,-1.8461604135405456
3.832500000000003,1.940970189167382,-4.676653363950106,-1.894097626775822
3.836000000000002,2.0219342678381467,-4.734179416095839,-1.946296934044469
3.839500000000001,2.0975698563025733,-4.770400234062477,-1.984648799027792
3.843,2.1774675388003697,-4.789574421224887,-2.03578171012347
3.8465000000000025,2.188119283225291,-4.785314072520769,-2.077329272967195
3.8500000000000014,2.1455088148671013,-4.7554846502749335,-2.0997009033192584
3.8535,2.1018302050066917,-4.705416390022973,-2.0901120644088014
3.857000000000003,2.048566246894328,-4.616998010116939,-2.059219736648502
3.860500000000002,1.9633418195194452,-4.547752072044065,-2.0293903144026664
3.8640000000000008,1.7971568041323012,-4.445484504523457,-1.9963669396256816
3.8675000000000033,1.6629287673491733,-4.350672983567369,-1.972930658429902
3.871000000000002,1.492481657928659,-4.215380295940525,-1.9580150746423584
3.874500000000001,1.361449319005933,-4.122699822001121,-1.9654728665361303
3.878,1.1686305792333551,-4.015103764274175,-2.0070186840506032
3.8815000000000026,1.021619751008621,-3.940532826653466,-2.044304152860958
3.8850000000000016,0.8831313655213747,-3.845721305697378,-2.0997009033192584
3.888500000000001,0.7169446048049787,-3.7381269932996832,-2.194512424275346
3.892000000000003,0.547562146228181,-3.6188145403040983,-2.3042377836897256
3.895500000000002,0.4314453910929982,-3.5367858107896173,-2.3883958148916404
3.899000000000001,0.3110665419244454,-3.4366475449564424,-2.505578966199792
3.9025,0.2311688594266489,-3.356751607787898,-2.584410252524619
3.9060000000000015,0.1693824585767977,-3.2779185761338185,-2.684548518357794
3.909500000000001,0.166186760716396,-3.2086743833901954,-2.7324874769223224
3.913,0.1928187397725775,-3.1479526333840604,-2.7836203880180004
3.9165000000000023,0.1992101354933808,-3.1223853051715955,-2.8070584145430324
3.9200000000000017,0.2098636252475541,-3.0957533261154144,-2.8102541124034337
3.9235000000000007,0.2130593231079557,-3.055272159444658,-2.7942738777721736
3.927000000000003,0.2002765316663493,-2.9860279667010348,-2.7633798046826223
3.930500000000002,0.1789695521580025,-2.928501914555301,-2.737812476470157
3.934000000000001,0.138488385487246,-2.888020747884545,-2.7058537525368886
3.9375,0.0841580312019145,-2.87417156026997,-2.671763981586936
3.9410000000000025,0.0447432607041266,-2.8816276068344897,-2.647263049547439
3.9445000000000014,0.013849187614575,-2.9071949350469546,-2.624891419195376
3.948,0.01598023463126,-2.935957961119821,-2.608912929893368
3.951500000000003,0.0181095363186931,-2.9583295914718843,-2.6014551379995963
3.955000000000002,0.0042603487041181,-2.990288315405153,-2.602519788843313
3.958500000000001,-0.0117181405978899,-3.0147909927739014,-2.5993240909829107
3.9620000000000033,-0.041545817514473,-3.0243780863551057,-2.5993240909829107
3.965500000000002,-0.0735062867769931,-3.0254427371988224,-2.603586185016281
3.969000000000001,-0.110790010258096,-3.022247039338421,-2.6153043256141717
3.9725,-0.1704471094205142,-3.0009418051593264,-2.648327700391156
3.976000000000002,-0.2364956043037356,-2.984961570528066,-2.689875263234881
3.9795000000000016,-0.341960615013997,-2.9679166850530896,-2.765510851699307
3.983000000000001,-0.4218582975117934,-2.94874249789068,-2.840081789320017
3.986500000000003,-0.5209301671719996,-2.9221087735052462,-2.9423493568406247
3.990000000000002,-0.6178727351447726,-2.856060278622025,-3.043554018846768
3.993500000000001,-0.6690056462404504,-2.8017316696659456,-3.107471466713304
3.997,-0.713748906944577,-2.753792711101417,-3.156475076121549
4.000500000000002,-0.7819284488444836,-2.6813528204973927,-3.2022829876693923
4.004000000000005,-0.8575640373089098,-2.5982594401391945,-3.224654618021455
4.0075,-0.933199625773336,-2.550320481574666,-3.22997961756929
4.011000000000003,-1.0130973082711323,-2.518361757641398,-3.2150657791109984
4.014499999999998,-1.1100398762439057,-2.466162450372752,-3.17138891457984
4.018000000000001,-1.1835444176916468,-2.437399424299885,-3.130907747909084
4.021500000000003,-1.2911404754185931,-2.422485585841593,-3.056336810288374
4.024999999999999,-1.377429553637193,-2.422485585841593,-2.9860279667010348
4.028500000000001,-1.4818281681744856,-2.440595122160287,-2.8986724923094664
4.032000000000004,-1.5510723609181087,-2.4800116379873267,-2.8315593465825284
4.035499999999999,-1.6394924861533935,-2.552451528591351,-2.746334919207645
4.0390000000000015,-1.6906253972490712,-2.617435372630856,-2.7005270076598022
4.042500000000004,-1.771589475919836,-2.742074570503527,-2.665372585866132
4.045999999999999,-1.820593085328081,-2.842212836336702,-2.6579165393016124
4.049500000000002,-1.8759880904571289,-2.968983081226058,-2.690939914078597
4.053000000000004,-1.9079468143903973,-3.0627282060091776,-2.7442056175202123
4.0565,-1.9239270490216571,-3.1522129820881784,-2.832623997426245
4.060000000000002,-1.921796002004972,-3.200151940652707,-2.9114570290803248
4.063500000000005,-1.8568121579654675,-3.2480908992172357,-3.006268550036413
4.067,-1.763067033182348,-3.2864410188713067,-3.058467857305059
4.070500000000003,-1.5915535275888653,-3.30455055519,-3.1191896073111938
4.073999999999998,-1.4445426993641308,-3.294963461608795,-3.1703242637361235
4.077500000000001,-1.2517239595915532,-3.26939613339633,-3.235306362446377
4.081000000000003,-1.1174959228084254,-3.2470245030442664,-3.2736582274297
4.084499999999999,-0.9395927668233912,-3.2150657791109984,-3.313072997927488
4.088000000000001,-0.7979069381464917,-3.174584612440242,-3.3215954406649764
4.091500000000004,-0.605088198373914,-3.126645653875713,-3.301354857329598
4.094999999999999,-0.4868403962220463,-3.110667164573706,-3.275787529117133
4.098500000000001,-0.3568744534722885,-3.069121347059233,-3.2203925239880853
4.102000000000004,-0.2908259585890671,-3.023313435511389,-3.172453565423557
4.105499999999999,-0.2546051406224288,-2.9466114508739945,-3.091491232082044
4.109000000000002,-0.274847469287059,-2.88588970086786,-3.01905134147802
4.112500000000004,-0.3387649171535954,-2.7996006226492605,-2.9114570290803248
4.116,-0.4186608543221398,-2.7410081743305588,-2.824101554688757
4.119500000000002,-0.5763251723010476,-2.6675036328828177,-2.719702940151464
4.123000000000005,-0.7435765838611602,-2.616368976457888,-2.6493940965641243
4.1265,-1.0194887039919358,-2.5684300178933595,-2.5790835076475327
4.130000000000003,-1.24533256387075,-2.5311462944122565,-2.555647226451753
4.133500000000005,-1.5936845746055504,-2.4927944294289333,-2.5758878097871314
4.1370000000000005,-1.8866415802113023,-2.4842719866914447,-2.6302181640724625
4.140500000000003,-2.306367085377159,-2.4853383828644136,-2.723965034184834
4.143999999999998,-2.5428644350101464,-2.403309653349932,-2.8102541124034337
4.147500000000001,-2.7814910863305675,-2.3436525541875133,-2.957264940628168
4.151000000000003,-2.902934586342836,-2.330869762745907,-3.080839487657123
4.154499999999999,-2.9934840132655545,-2.295715340952237,-3.2587426436421567
4.158000000000001,-2.957264940628168,-2.2584298721418827,-3.415342310777348
4.161500000000004,-2.779360039313882,-2.2072952157169525,-3.639055123639477
4.164999999999999,-2.584410252524619,-2.192381377258661,-3.816958279624511
4.168500000000002,-2.248842778560677,-2.176401142627401,-4.04493318652001
4.172000000000004,-1.933514142602862,-2.14976916357122,-4.201531108325949
4.1755,-1.4157796732912642,-2.106092299040061,-4.37730496262355
4.179000000000002,-0.9885963762316362,-2.070937877246392,-4.481703577160843
4.1825000000000045,-0.3888331774055567,-2.0219342678381467,-4.590364285731507
4.186,0.0628527970228197,-1.9889091477319103,-4.655348129771012
4.189500000000002,0.6274598287259775,-1.956950423798642,-4.711807785743776
4.193000000000005,0.9981834698128408,-1.9260563507090904,-4.724592322514635
4.1965,1.4413470015037293,-1.865334600702956,-4.693698249425083
4.200000000000003,1.7460221477073712,-1.8323112259259708,-4.625518707525176
4.203499999999998,2.074133575106793,-1.7769144754676711,-4.489161369054615
4.207000000000001,2.263756617018969,-1.721519470338623,-4.374109264763149
4.210500000000003,2.422485585841593,-1.642688184013795,-4.216444946784241
4.213999999999999,2.4523132627581767,-1.5915535275888653,-4.105654936526145
4.217500000000001,2.3681552315562624,-1.527636079722329,-3.979949342480505
4.221000000000004,2.239253939650221,-1.4818281681744856,-3.881942123664016
4.224499999999999,1.966537517379847,-1.4424116523474455,-3.7519761809142578
4.2280000000000015,1.7204548194949063,-1.3987347878162877,-3.6529025659248
4.231500000000004,1.3486665275643264,-1.3199035014914595,-3.525067670191727
4.234999999999999,1.0365335894669123,-1.2389411681499467,-3.439843242816844
4.238500000000002,0.5891097090719061,-1.1473253450542604,-3.3460981180337246
4.242000000000004,0.2450180470412239,-1.0983217356460158,-3.2843099718546216
4.2455,-0.2162550209683574,-1.037599985639881,-3.195891591948589
4.249000000000002,-0.5688691257365278,-0.996052422796156,-3.114927513277824
4.252500000000005,-1.030142193746109,-0.9097633445775564,-2.975374476946861
4.256,-1.3358819907934678,-0.7968422873027752,-2.8432774871804187
4.259500000000003,-1.64055713699711,-0.600827849669796,-2.6675036328828177
4.262999999999998,-1.8983597208091925,-0.4293143440763132,-2.5876059503850213
4.266500000000001,-2.4597710546519487,-0.1874919948954908,-2.6238267683516594
4.270000000000003,-2.9540692427677664,-0.0990718696602061,-2.7058537525368886
4.273499999999999,-3.5090874355604678,-0.1342280367831279,-2.8102541124034337
4.277000000000001,-3.888333519384819,-0.2045368803704674,-2.8944121436053485
4.280500000000004,-4.379436009640235,-0.2833681666952953,-3.023313435511389
4.283999999999999,-4.696893947285484,-0.3206536355056502,-3.1000136748195324
4.287500000000001,-4.990915603734953,-0.3643322453660603,-3.144756935523658
4.291000000000004,-5.098511661461899,-0.4367721359700849,-3.1511483312444626
4.294499999999999,-5.066552937528631,-0.517734469311598,-3.128776700892399
4.298000000000002,-4.942978390499676,-0.5805872663344177,-3.1255810030319973
4.301500000000004,-4.653217082754326,-0.6796591359946239,-3.126645653875713
4.305,-4.370913566902747,-0.7467722817215618,-3.1202542581549104
4.308500000000002,-3.902182706999394,-0.8149518236214683,-3.087230883377926
4.312000000000005,-3.468606268889711,-0.8469105475547365,-3.0275737842155075
4.3155,-2.8251679508617253,-0.847976943727705,-2.9008035393261515
4.319000000000003,-2.3255430178688203,-0.7904508915819718,-2.7942738777721736
4.322500000000005,-1.6735822571033467,-0.7105532090841755,-2.661112237162014
4.3260000000000005,-1.2229609335186866,-0.6349176206197492,-2.576952460630848
4.329500000000003,-0.697768672313317,-0.5283879590657713,-2.5002522213227047
4.332999999999998,-0.3845728287014385,-0.4634041150262664,-2.464031403356066
4.336500000000001,-0.0735062867769931,-0.3036087500306735,-2.433139075595767
4.340000000000003,0.0905494269227178,-0.1576643179789077,-2.409701049070735
4.343499999999999,0.205601531214184,-0.0117181405978899,-2.358568137975057
4.347000000000001,0.2024058333537824,0.1001382658331746,-2.3116938302542454
4.350500000000004,0.0756355884644262,0.3131975889411305,-2.260560919158568
4.353999999999999,-0.0852244273748831,0.4889714432387313,-2.249907429404394
4.357500000000002,-0.425053995372195,0.727598094559152,-2.2744083614438906
4.361000000000004,-0.7616878655091054,0.8905874120858945,-2.326609414041789
4.3645,-1.310314662581003,1.1047131313668188,-2.4384640751436013
4.368000000000002,-1.772654126763553,1.2687688450665298,-2.522623851674768
4.371500000000005,-2.3809380229978685,1.4669143297161942,-2.6110422315808006
4.375,-2.828363648722127,1.575575038286857,-2.647263049547439
4.3785000000000025,-3.413211263760662,1.721519470338623,-2.6323492110891475
4.382000000000005,-3.8414609569932594,1.8408336686634592,-2.5982594401391945
4.3855,-4.390089499394409,2.02406356952558,-2.529015247395572
4.389000000000003,-4.794901166101973,2.152964861431621,-2.48214093967476
4.392499999999998,-5.283872609340706,2.3159559242876155,-2.4001139554895303
4.396000000000001,-5.586416708527662,2.428876981562397,-2.331934413589624
4.399500000000003,-5.906005693189596,2.535406643116375,-2.2445806845273077
4.402999999999999,-6.0913683863976535,2.571627461083013,-2.1700097469065978
4.406500000000001,-6.242639563326506,2.5694964140663283,-2.0091497310672883
4.410000000000004,-6.238379214622388,2.546060132870548,-1.865334600702956
4.413499999999999,-6.124391761174638,2.48214093967476,-1.642688184013795
4.417000000000002,-6.001883610318653,2.4363347734561684,-1.4733057254369972
4.420500000000004,-5.811194172233508,2.36495953369586,-1.253855006608238
4.424,-5.648204854706765,2.2935842939355524,-1.0908639437522438
4.427500000000002,-5.375488432436391,2.2094262627336376,-0.8596950843255949
4.4310000000000045,-5.169885155892955,2.139115673817046,-0.6956393706258839
4.4345,-4.932324900745504,2.0070186840506032,-0.4815136513449596
4.438000000000002,-4.777856280626997,1.9090114652341137,-0.3057397970473587
4.441500000000005,-4.604213473346082,1.8056775015405373,-0.0798976824977964
4.445,-4.54562102502738,1.7098013297407328,0.0756355884644262
4.448500000000003,-4.598886728468995,1.571312944253487,0.2503447919183106
4.451999999999998,-4.734179416095839,1.525505032705644,0.3664615470534934
4.455500000000001,-5.048441655880685,1.518048986141124,0.4634041150262664
4.459000000000003,-5.361639244821816,1.525505032705644,0.4932317919428495
4.462499999999999,-5.875113365429296,1.550007710074392,0.508147375730393
4.466000000000001,-6.300165615472239,1.5723775950972034,0.4857757453783297
4.469500000000004,-6.904189163002436,1.626707949382535,0.4420988808471717
4.472999999999999,-7.368659674201672,1.677842605807465,0.3984202709867616
4.4765000000000015,-8.014229039246343,1.792894710098931,0.3568744534722885
4.480000000000004,-8.506396180345476,1.9249916998653736,0.3366338701369103
4.483499999999999,-9.153031941563116,2.152964861431621,0.3217200316786187
4.487000000000002,-9.590868728376917,2.326609414041789,0.3249157295390203
4.490500000000004,-10.087296218180168,2.5428644350101464,0.3685925940701784
4.494,-10.354685895573455,2.6675036328828177,0.4165315526347067
4.497500000000002,-10.546439984502314,2.751661664084732,0.5006895838366213
4.501000000000005,-10.591181499877193,2.7548573619451338,0.5688691257365278
4.5045,-10.545373588329348,2.686679565374479,0.644504714200954
4.508000000000003,-10.429256833194165,2.5631050183455244,0.7052264642070888
4.511499999999998,-10.175716343415452,2.331934413589624,0.7861887975486017
4.515000000000001,-9.923240504480455,2.140182069990015,0.84584589671102
4.518500000000003,-9.497121858264544,1.8919665797591367,0.9268082300525328
4.521999999999999,-9.135987056088137,1.6970185382991263,0.9790075373211792
4.525500000000001,-8.631035378218147,1.4253667668724692,1.032273240762794
4.529000000000004,-8.282683367483346,1.2400058189936634,1.063165568523094
4.532499999999999,-7.864022513161207,1.0184240531482192,1.081276850171039
4.536000000000001,-7.598762137455353,0.8522372924318231,1.108973480070937
4.539500000000004,-7.355875137430814,0.6807255321675924,1.1270847617188822
4.542999999999999,-7.267455012195528,0.5997614534968274,1.145194298037575
4.546500000000002,-7.233365241245576,0.4964292351325031,1.17821767281456
4.550000000000004,-7.303675830162168,0.4335764381096833,1.21017814207708
4.5535,-7.499690267795146,0.4016177141764152,1.2602464023290416
4.557000000000002,-7.699966799461495,0.4101401569139035,1.3071189647206012
4.560500000000005,-8.044056716162926,0.4463592295512898,1.3731674596038226
4.564,-8.354058607243655,0.480449000501243,1.432824558766241
4.567500000000003,-8.791895394057455,0.5102766774178261,1.5350921262868489
4.571000000000005,-9.129595660367334,0.508147375730393,1.6203165536617317
4.5745000000000005,-9.595129077081037,0.4676662090596366,1.739630751986568
4.578000000000003,-9.939220739111716,0.4474238803950063,1.841898319507176
4.581499999999998,-10.34403240581928,0.4207919013388249,1.9697332152402485
4.585000000000001,-10.603966036648048,0.341960615013997,2.06348008535262
4.588500000000003,-10.897987693097516,0.219450718828759,2.1827925383482043
4.591999999999999,-11.001321656791092,0.1544686201185061,2.264821267862686
4.595500000000001,-10.995994911914009,0.0852244273748831,2.342587903343797
4.599000000000004,-10.931011067874502,-0.0202405833353782,2.362828486679175
4.602499999999999,-10.801045125124745,-0.2375620004767041,2.370286278572947
4.606000000000002,-10.648707552022923,-0.3845728287014385,2.3553724401146554
4.609500000000004,-10.322727171640189,-0.4942981881158181,2.3191516221480173
4.613,-9.991420046380362,-0.5273215628928027,2.2658859187064024
4.616500000000002,-9.488599415527055,-0.5859140112115044,2.188119283225291
4.6200000000000045,-9.074198909909036,-0.6295908757426625,2.130593231079558
4.6235,-8.462719315814317,-0.6764634381342222,2.069871481073423
4.627000000000002,-7.971616825558901,-0.7030954171904037,2.0411084550005567
4.630500000000005,-7.350548392553726,-0.7180110009779472,2.01234542892769
4.634,-6.924429746337815,-0.6988350684862855,2.0070186840506032
4.637500000000003,-6.375801203936666,-0.6338512244467807,2.0208678716651782
4.640999999999998,-5.975249885933219,-0.6061545945468827,2.05176194475473
4.644500000000001,-5.43514553159881,-0.6562228547988439,2.116745788794235
4.648000000000003,-5.053768400757773,-0.7489033287382468,2.1753364917836846
4.651499999999999,-4.593559983591907,-0.9161547402983594,2.249907429404394
4.655000000000001,-4.327236702371589,-1.063165568523094,2.3010420858293243
4.658500000000004,-4.095001446771971,-1.2400058189936634,2.373481976433349
4.661999999999999,-3.998058878799199,-1.3390776886538696,2.433139075595767
4.6655000000000015,-4.023626207011663,-1.4189753711516655,2.5077082678872245
4.669000000000004,-4.134417962599012,-1.4338892096099574,2.559909320485123
4.672499999999999,-4.3538686814277705,-1.4583918869787058,2.6302181640724625
4.676000000000002,-4.570123702396128,-1.480763517330769,2.680286424324424
4.679500000000004,-4.86308070800188,-1.5393542203202186,2.737812476470157
4.683,-5.099576312305615,-1.6043380643597236,2.774033294436796
4.686500000000002,-5.424492041844636,-1.649079579734598,2.7996006226492605
4.690000000000005,-5.659922995304655,-1.629903647242937,2.804927367526347
4.6935,-5.951813604737439,-1.57770433997429,2.7878824820513706
4.697000000000003,-6.147828042370418,-1.5244403818619272,2.7569884089618184
4.700499999999998,-6.37899864712632,-1.4370849074703589,2.6813528204973927
4.704000000000001,-6.521747381317684,-1.3710364125871377,2.602519788843313
4.707500000000003,-6.695391933927851,-1.286878381385223,2.448052914054059
4.710999999999999,-6.799790548465144,-1.2208298865020015,2.314889528114647
4.714500000000001,-6.886079626683744,-1.1164312719647087,2.123137184515038
4.718000000000004,-6.895666720264948,-1.0716880112605822,1.984648799027792
4.721499999999999,-6.836011366431782,-1.0184240531482192,1.7992861058197342
4.725000000000001,-6.733742053581922,-0.9768764903044942,1.6735822571033467
4.728500000000004,-6.517487032613565,-0.9278728808962494,1.5169825899681555
4.731999999999999,-6.290578521891034,-0.9097633445775564,1.4157796732912642
4.735500000000002,-5.968858490212416,-0.8905874120858945,1.3135103604414045
4.739000000000004,-5.676967880779632,-0.8799356676609732,1.24533256387075
4.7425,-5.173082599082609,-0.9225478813484148,1.1931332566021038
4.746000000000002,-4.742701858833327,-1.0109662612544474,1.1590434856521503
4.749500000000005,-4.1642456395155945,-1.164370230529237,1.1483899958979769
4.753,-3.717886409964305,-1.2634421001894431,1.160108136495867
4.756500000000003,-3.0712506487466653,-1.3550579232851294,1.2048513971999937
4.760000000000005,-2.5567118772954696,-1.4978066574764937,1.2623774493457267
4.7635000000000005,-1.905815767373712,-1.7098013297407328,1.369971761743421
4.767000000000003,-1.486088516878604,-1.825918084875916,1.4498694442412174
4.770499999999998,-1.035468938623196,-1.9356451896195472,1.5585301528118805
4.774000000000001,-0.753165422771617,-2.0006272883298,1.649079579734598
4.777500000000003,-0.4474238803950063,-2.0560222934588483,1.7609359861656628
4.780999999999999,-0.2876302607286655,-2.0666757832130216,1.8248534340321991
4.784500000000001,-0.2205171150017275,-2.045370549033927,1.8759880904571289
4.788000000000004,-0.260998281672484,-2.003822986190201,1.901555418669594
4.791499999999999,-0.4165315526347067,-1.900489022496625,1.9100778614070824
4.795000000000002,-0.6178727351447726,-1.7918300592552143,1.9026200695133104
4.798500000000004,-0.970485094583691,-1.6213812045054483,1.8674656477196407
4.802,-1.2527886104352697,-1.4679789805599106,1.829115528065569
4.805500000000002,-1.7204548194949063,-1.2719645429269315,1.7609359861656628
4.809000000000005,-2.0528265955984466,-1.1430632510208902,1.7023452831762131
4.8125,-2.5492558307309494,-0.9747471886170612,1.606467366047157
4.8160000000000025,-2.896543190622033,-0.8533036886047917,1.5169825899681555
4.819500000000005,-3.32053078982126,-0.7180110009779472,1.3944744391121693
4.823,-3.569809185566602,-0.6082838962343158,1.3071189647206012
4.826500000000003,-3.800979790322503,-0.4932317919428495,1.1867401155520485
4.829999999999998,-3.913900847597284,-0.4484902765679749,1.0940596416126456
4.833500000000001,-4.021495159994979,-0.4538170214450616,0.9790075373211792
4.837000000000003,-4.050258186067845,-0.4783179534845579,0.9076322975608712
4.840499999999999,-4.008712368553372,-0.561411333842756,0.836258803129815
4.844000000000001,-3.955446665111757,-0.6817901830113089,0.7947112402860901
4.847500000000004,-3.8851378215244177,-0.8959141569629812,0.767014610386192
4.850999999999999,-3.8201557228141647,-1.0823415010147557,0.7606214693361367
4.854500000000002,-3.691254430908124,-1.3923433920954844,0.7574257714757352
4.858000000000004,-3.620943841991532,-1.6767779549637485,0.7595568184924202
4.8615,-3.558091044968712,-2.059219736648502,0.7712749590903102
4.865000000000002,-3.5176098782979555,-2.306367085377159,0.7947112402860901
4.8685000000000045,-3.4291914983919227,-2.548189434557981,0.8469105475547365
4.872,-3.34396707101704,-2.6632415388494475,0.9097633445775564
4.875500000000002,-3.1831070551777305,-2.797469575632575,1.021619751008621
4.879000000000005,-3.030769482075909,-2.9199794718178134,1.1153666211209925
4.8825,-2.820905856828355,-3.0467497167071693,1.2410704698373798
4.886000000000003,-2.6696346798995023,-3.0957533261154144,1.3124457095976878
4.889499999999998,-2.476815940126925,-3.126645653875713,1.3891476942350829
4.893000000000001,-2.341523252500081,-3.136234492786171,1.427497813889154
4.896500000000003,-2.1678786998899127,-3.113862862434108,1.460522933995391
4.899999999999999,-2.01234542892769,-3.0574014611320908,1.4754367724536823
4.903500000000001,-1.790763663082246,-2.9519381957510813,1.476501423297399
4.907000000000004,-1.6235122515221332,-2.8709758624095683,1.4615875848391076
4.910499999999999,-1.421106418168351,-2.7410081743305588,1.4200400219953824
4.9140000000000015,-1.2602464023290416,-2.641936304670353,1.3870166472183978
4.917500000000004,-1.037599985639881,-2.534341992272658,1.3390776886538696
4.920999999999999,-0.847976943727705,-2.45124861191446,1.2996629181560817
4.924500000000002,-0.6072192453905992,-2.402245002506215,1.2442661676977815
4.928000000000004,-0.4570127193054631,-2.4597710546519487,1.196328954462505
4.9315,-0.3600701513326901,-2.6579165393016124,1.124953714702197
4.935000000000002,-0.3685925940701784,-2.876302607286655,1.0727544074335509
4.938500000000005,-0.4602084171658648,-3.2203925239880853,1.0088369595670144
4.942,-0.5411707505073777,-3.473933013766797,0.9715514907566596
4.945500000000003,-0.6785944851509074,-3.810566883903708,0.9193504381587612
4.948999999999998,-0.8213432193422715,-4.066238420699105,0.875673573627603
4.952500000000001,-1.065296615539779,-4.369848916059031,0.8074957770569485
4.956000000000003,-1.235743724960293,-4.547752072044065,0.7499697249112154
4.959499999999999,-1.4061925797100594,-4.722461275497949,0.6913772765925138
4.963000000000001,-1.4999377044931788,-4.843904775510219,0.6498314590780407
4.966500000000004,-1.5393542203202186,-5.020745025980788,0.6125459902676859
4.969999999999999,-1.525505032705644,-5.148579921713861,0.600827849669796
4.973500000000001,-1.4253667668724692,-5.259371677301209,0.5986968026531109
4.977000000000004,-1.290074079245625,-5.298786447798997,0.5965657556364258
4.980499999999999,-1.0418603343439992,-5.276414817446933,0.6295908757426625
4.984000000000002,-0.7957776364590586,-5.198649927295074,0.6658099483800488
4.987500000000004,-0.3930952714389268,-5.059095145634859,0.7244023966987505
4.991,-0.0607217500061347,-4.951500833237165,0.7776663548111135
4.994500000000002,0.4144005056180216,-4.785314072520769,0.8298656620797599
4.998000000000005,0.7851241467048852,-4.661739525491814,0.863955433029713
5.0015,1.2794223348207032,-4.482769973333812,0.8660864800463982
5.005000000000003,1.6352303921200233,-4.325105655354904,0.8543683394485082
5.008500000000005,2.1007655541629746,-4.108850634386547,0.8277363603923268
5.0120000000000005,2.434203726439484,-3.9756889937763873,0.7979069381464917
5.015500000000003,2.8475378358845367,-3.865961889032756,0.7446429800341288
5.018999999999998,3.1191896073111938,-3.830807467239086,0.7020307663466872
5.022500000000001,3.40681986803986,-3.836134212116173,0.6274598287259775
5.026000000000003,3.591116165074949,-3.876615378786929,0.5795208701614492
5.029499999999999,3.8478523527140633,-3.929881082228544,0.5390397034906926
5.033000000000001,4.048128884380412,-3.9671665510388983,0.5294526099094878
5.036500000000004,4.297407280125754,-4.012974462586742,0.5560845889656694
5.039999999999999,4.4625293899984335,-4.016170160447143,0.5912390107593392
5.043500000000002,4.622323009664775,-4.025757254028348,0.6530271569384424
5.047000000000004,4.630845452402263,-4.084347957017798,0.7084221620674903
5.0505,4.498748462635819,-4.215380295940525,0.7893844954090034
5.054000000000002,4.305929722863242,-4.279297743807061,0.8714132249234848
5.0575000000000045,3.9490552693909535,-4.211118201907155,0.9513109074212812
5.061,3.6081610505499255,-4.090741098067854,1.0088369595670144
5.064500000000002,3.0712506487466653,-3.925618988195174,1.0780811523106375
5.068000000000005,2.602519788843313,-3.7903263005683296,1.1281494125625986
5.0715,1.897293324636224,-3.622010238164501,1.1537167407750637
5.075000000000003,1.3710364125871377,-3.5229366231750423,1.1686305792333551
5.078499999999998,0.7265316983861836,-3.4046888210231745,1.1803487198312452
5.082000000000001,0.3057397970473587,-3.2960281124525115,1.1846108138646152
5.085500000000003,-0.0905494269227178,-3.107471466713304,1.1899375587417018
5.088999999999999,-0.260998281672484,-2.94874249789068,1.1846108138646152
5.092500000000001,-0.369657244913895,-2.759119455978504,1.160108136495867
5.096000000000004,-0.3813771308410369,-2.631282814916179,1.1217580168417955
5.099499999999999,-0.3014794483432405,-2.4778805909706416,1.0482517300648024
5.1030000000000015,-0.1608600158393093,-2.38413372085827,0.9758118394607777
5.106500000000004,0.124639197872671,-2.282930804181379,0.8703468287505163
5.109999999999999,0.4090737607409349,-2.253103127264796,0.7819284488444836
5.113500000000002,0.8596950843255949,-2.257363475968914,0.6562228547988439
5.117000000000004,1.2442661676977815,-2.2744083614438906,0.5518242402615512
5.1205,1.7705230797468676,-2.331934413589624,0.4016177141764152
5.124000000000002,2.166814049046196,-2.3969182576291286,0.286565609884949
5.127500000000005,2.658981190145329,-2.5045125700268227,0.1374237346435295
5.131,2.980701221823948,-2.591868044418391,0.0255673282124649
5.134500000000003,3.3386403261399527,-2.7186382893077474,-0.1139874534477496
5.137999999999998,3.560222091985397,-2.820905856828355,-0.2013411825100658
5.141500000000001,3.769021066389235,-2.96046063848857,-0.274847469287059
5.145000000000003,3.869157586893157,-3.0382272739696807,-0.3121311927681619
5.148499999999999,3.913900847597284,-3.111731815417422,-0.3238510786953038
5.152000000000001,3.895791311278591,-3.172453565423557,-0.2972173543098703
5.155500000000004,3.895791311278591,-3.172453565423557,-0.2972173543098703
5.158999999999999,3.895791311278591,-3.172453565423557,-0.2972173543098703
5.162500000000001,3.895791311278591,-3.172453565423557,-0.2972173543098703
5.166000000000004,3.4696726650626792,-3.5538306962645936,0.0585907029894496
5.169499999999999,3.28537636802759,-3.6401197744831935,0.1672514115601126
5.173000000000002,3.150083680400746,-3.685927686031037,0.2343645572870505
5.176500000000004,2.973243429930176,-3.7274735035455095,0.3057397970473587
5.18,2.8432774871804187,-3.7541072279309433,0.3451563128743986
5.183500000000002,2.687744216218196,-3.784999555691243,0.3653968962097769
5.187000000000005,2.573756762770446,-3.810566883903708,0.3664615470534934
5.1905,2.4299416324061136,-3.865961889032756,0.3451563128743986
5.194000000000003,2.3468499973771677,-3.912836196753567,0.2993484013265554
5.197499999999998,2.262690220846,-3.952250967251356,0.2205171150017275
5.2010000000000005,2.201968470839866,-3.9671665510388983,0.1342280367831279
5.204500000000003,2.134855325112928,-3.9426638736701514,0.0106534897541733
5.207999999999998,2.109287996900463,-3.907509451876481,-0.0894847760790012
5.211500000000001,2.133788928939959,-3.864897238189039,-0.2226464166891606
5.215000000000003,2.1806632366607714,-3.848917003557779,-0.3270467765557054
5.218499999999999,2.2903885960751507,-3.837198862959889,-0.4559463231324946
5.222000000000001,2.4043760495229005,-3.838265259132858,-0.5560845889656694
5.225500000000004,2.584410252524619,-3.8414609569932594,-0.6817901830113089
5.228999999999999,2.731421080749353,-3.8233514206745673,-0.7584921676487036
5.232500000000002,2.9434157530135927,-3.757302925791345,-0.8437148496943347
5.236000000000004,3.111731815417422,-3.7019061753330447,-0.8852624125380599
5.2395,3.316268695787889,-3.635859425779076,-0.8991098548233829
5.243000000000002,3.465410571029309,-3.592180815918665,-0.8884581103984615
5.246500000000005,3.672078498416462,-3.5825937223374607,-0.8351924069568466
5.25,3.828678165551653,-3.6145524462707286,-0.7723396099340267
5.2535000000000025,4.002320972832569,-3.688058733047722,-0.6753987872905056
5.257000000000005,4.097132493788656,-3.7519761809142578,-0.5976321518093943
5.2605,4.179159477973887,-3.806306535199589,-0.503885281697023
5.264000000000003,4.219640644644643,-3.828678165551653,-0.4303807402492817
5.267499999999998,4.205793202359319,-3.876615378786929,-0.3494166615785167
5.271000000000001,4.151462848073988,-3.9181629416306554,-0.3089354949077603
5.274500000000003,4.0438667903470416,-3.994863180938797,-0.2599318854995155
5.277999999999999,3.938403524966032,-4.061976326665735,-0.2439533961975074
5.281500000000001,3.809502233059992,-4.1642456395155945,-0.2343645572870505
5.285000000000004,3.6955147796122416,-4.23668553011962,-0.2439533961975074
5.288499999999999,3.519740925314641,-4.2878201865445495,-0.2737810731140905
5.292000000000002,3.398297425302371,-4.3155185617737,-0.2972173543098703
5.295500000000004,3.288572065887992,-4.346410889533999,-0.3366338701369103
5.299,3.204412289356825,-4.380500660483952,-0.38350643252847
5.302500000000002,3.102144721836217,-4.455071598104662,-0.4484902765679749
5.3060000000000045,3.066990300042548,-4.5307089318983405,-0.503885281697023
5.3095,3.0371608777967127,-4.637238593452318,-0.5880433128989375
5.313000000000002,3.010528898740531,-4.693698249425083,-0.6604849488322142
5.316500000000005,2.935957961119821,-4.739506160972925,-0.7552947244590501
5.32,2.8837586538511752,-4.728852671218752,-0.8181475214818699
5.323500000000003,2.814514461107552,-4.693698249425083,-0.8873917142254929
5.326999999999998,2.736747825626441,-4.675588713106389,-0.940657417667108
5.330500000000001,2.619564674318289,-4.6883715045479954,-0.9896610270753528
5.334000000000003,2.546060132870548,-4.695829296441768,-1.0067059125503293
5.337499999999999,2.4778805909706416,-4.704351739179256,-1.0269464958857075
5.341000000000001,2.433139075595767,-4.707547437039658,-1.0471870792210858
5.344500000000004,2.3468499973771677,-4.708612087883374,-1.095126037785614
5.347999999999999,2.273343710600174,-4.677718014793823,-1.1334761574396854
5.3515000000000015,2.2030348670128346,-4.639367895139751,-1.201655699339592
5.355000000000004,2.1806632366607714,-4.634041150262664,-1.25705070446864
5.358499999999999,2.185989981537858,-4.634041150262664,-1.342273386514271
5.362000000000002,2.2104909135773543,-4.647890337877239,-1.4243021160287526
5.365500000000004,2.2179487054711258,-4.71393883276046,-1.5542680587785105
5.369,2.2424496375106227,-4.7501596507271,-1.6554709754554016
5.372500000000002,2.324478367025104,-4.758682093464588,-1.7801119186573249
5.376000000000005,2.395853606785412,-4.773595931922879,-1.8685302985633567
5.3795,2.4800116379873267,-4.756551046447902,-1.9622771686757288
5.383000000000003,2.5332755960996893,-4.716069879777145,-2.017672173804777
5.386499999999998,2.613173278597486,-4.679849061810508,-2.0666757832130216
5.390000000000001,2.6824174713411093,-4.665999874195933,-2.0688068302297067
5.393500000000003,2.775097945280512,-4.6361721972793495,-2.0645447361963365
5.396999999999999,2.803860971353379,-4.623389405837743,-2.0560222934588483
5.400500000000001,2.8432774871804187,-4.606344520362766,-2.04004380415684
5.404000000000004,2.879498305147057,-4.580777192150301,-2.0166075229610603
5.407499999999999,2.915717377784443,-4.565863353692009,-1.9931712417652805
5.411000000000001,2.902934586342836,-4.5573409109545215,-1.9867781007152248
5.414500000000004,2.8699094662366,-4.533904629758742,-1.975059960117335
5.417999999999999,2.83475504444293,-4.51472869726708,-1.9601461216590437
5.421500000000002,2.7708375965763934,-4.476376832283757,-1.9377744913069803
5.425000000000004,2.690939914078597,-4.450811249400544,-1.9079468143903973
5.4285,2.5748231589434147,-4.442288806663056,-1.8536164601050655
5.432000000000002,2.483207335847728,-4.42843961904848,-1.800352501992703
5.435500000000005,2.3553724401146554,-4.4060679886964165,-1.7311083092490798
5.439,2.237122892633536,-4.397545545958929,-1.6874296993886695
5.442500000000003,2.0304567105756357,-4.366651472869377,-1.6362967882929915
5.446000000000005,1.850420762244664,-4.324041004511187,-1.61712085580133
5.4495000000000005,1.596880272465952,-4.278233092963344,-1.6075337622201251
5.453000000000003,1.3966037407996024,-4.23668553011962,-1.614989808784645
5.456499999999998,1.145194298037575,-4.181290524990572,-1.6362967882929915
5.460000000000001,0.9885963762316362,-4.133351566426043,-1.6661244652095748
5.463500000000003,0.8085604279006651,-4.066238420699105,-1.7247151681990245
5.466999999999999,0.6807255321675924,-4.018299462134577,-1.769458428903151
5.470500000000001,0.5241258650324012,-3.913900847597284,-1.8408336686634592
5.474000000000004,0.4218582975117934,-3.795653045445416,-1.8909019289154203
5.477499999999999,0.3089354949077603,-3.64544651936028,-1.952690075094524
5.481000000000002,0.2290395577392158,-3.5538306962645936,-1.9995626374860835
5.484500000000004,0.1139874534477496,-3.431320800079356,-2.06348008535262
5.488,0.041545817514473,-3.339706722312921,-2.11461474177755
5.491500000000002,-0.0234362811957798,-3.2406331073234638,-2.1827925383482043
5.4950000000000045,-0.0532657034416149,-3.1586061231382336,-2.243516033683591
5.4985,-0.0980072188164895,-3.047814367550886,-2.347914648220884
5.502000000000002,-0.110790010258096,-2.9892236645614365,-2.415027793947822
5.505500000000005,-0.0852244273748831,-2.939153658980223,-2.490663382412248
5.509,-0.0543303542853314,-2.9071949350469546,-2.5449937366975792
5.512500000000003,-0.0255673282124649,-2.8816276068344897,-2.608912929893368
5.515999999999998,0.0,-2.86245341967208,-2.648327700391156
5.519500000000001,0.0213052341790947,-2.828363648722127,-2.680286424324424
5.523000000000003,0.0202405833353782,-2.785751435034685,-2.698397705972369
5.526499999999999,0.0042603487041181,-2.7410081743305588,-2.7111804974139755
5.530000000000001,-0.02769837522915,-2.715442591447346,-2.721833987168149
5.533500000000004,-0.1065296615539778,-2.687744216218196,-2.7452702683639285
5.536999999999999,-0.1789695521580025,-2.6600458409890457,-2.765510851699307
5.5405000000000015,-0.2833681666952953,-2.6398052576536672,-2.8102541124034337
5.544000000000004,-0.3632658491930918,-2.648327700391156,-2.8432774871804187
5.547499999999999,-0.4687308599033531,-2.6770907264640225,-2.8869543517115765
5.551000000000002,-0.5315836569261729,-2.7047891016931724,-2.9146527269407265
5.554500000000004,-0.5752605214573311,-2.761248757665937,-2.953002846594798
5.558,-0.5763251723010476,-2.8251679508617253,-2.973243429930176
5.561500000000002,-0.5699337765802444,-2.939153658980223,-3.008397851723846
5.565000000000005,-0.5891097090719061,-3.023313435511389,-3.0392919248133974
5.5685,-0.6082838962343158,-3.110667164573706,-3.0765773936237526
5.572000000000003,-0.6210684330051742,-3.1575397269652656,-3.0882955342216425
5.575499999999998,-0.6402426201675839,-3.2129347320943134,-3.092557628255012
5.579000000000001,-0.6413090163405525,-3.2406331073234638,-3.0744463466070675
5.582500000000003,-0.6519625060947258,-3.274722878273417,-3.049945414567571
5.585999999999999,-0.6775280889779387,-3.291767763748393,-3.0275737842155075
5.589500000000001,-0.7297291415758372,-3.2864410188713067,-2.999875408986357
5.593000000000004,-0.7936465894423735,-3.275787529117133,-2.979634825650979
5.596499999999999,-0.9236125321921312,-3.2225235710047704,-2.9583295914718843
5.600000000000001,-1.0546431257856057,-3.144756935523658,-2.9625899401760027
5.603500000000004,-1.2432015168540649,-3.0211823884947044,-2.975374476946861
5.606999999999999,-1.3848856002017127,-2.934893310276105,-2.988157268388468
5.610500000000002,-1.57770433997429,-2.8177101589679534,-3.020115992321736
5.614000000000004,-1.69169179342204,-2.7410081743305588,-3.048879018394602
5.6175,-1.767327381886466,-2.6632415388494475,-3.092557628255012
5.621000000000002,-1.7801119186573249,-2.6504587474078405,-3.1277120500486824
5.624500000000005,-1.743891100690686,-2.658981190145329,-3.175651008613211
5.628,-1.6671891160532917,-2.6760260756203054,-3.2150657791109984
5.631500000000003,-1.5105911942473522,-2.698397705972369,-3.263004737675527
5.634999999999998,-1.369971761743421,-2.7111804974139755,-3.2843099718546216
5.6385000000000005,-1.157977089479182,-2.723965034184834,-3.2896367167317084
5.642000000000003,-0.996052422796156,-2.731421080749353,-3.278983226977535
5.645499999999998,-0.7467722817215618,-2.749530617068047,-3.2310460137422585
5.649000000000001,-0.5656734278761262,-2.7644462008555903,-3.186302753038132
5.652500000000003,-0.3515477085952018,-2.803860971353379,-3.1213206543278798
5.655999999999999,-0.2237128128621291,-2.826232601705441,-3.068054950886264
5.659500000000001,-0.1118564064310645,-2.8432774871804187,-3.0137245966009325
5.663000000000004,-0.0905494269227178,-2.8379507423033314,-2.991354711578121
