time,Gyr_X,Gyr_Y,Gyr_Z
0.0,-0.0042603487041181,-0.0063913957208032,0.0074577918937717
0.0035000000000025,-0.0010646508437165,0.0,0.0053267448770866
0.0069999999999907,-0.002131047016685,0.0,0.0053267448770866
0.0104999999999932,-0.0053267448770866,-0.0085224427374883,0.0042603487041181
0.0139999999999957,-0.0234362811957798,-0.002131047016685,0.0106534897541733
0.0174999999999982,-0.029827676916583,0.002131047016685,0.0031956978604016
0.0210000000000007,-0.0191759324916617,-0.002131047016685,0.0031956978604016
0.024499999999989,-0.0042603487041181,-0.0031956978604016,0.0031956978604016
0.0279999999999915,0.0117181405978899,0.0010646508437165,0.0127827914416064
0.031499999999994,0.0149138384582915,-0.002131047016685,0.0095870935812048
0.0349999999999965,0.013849187614575,-0.0031956978604016,0.0053267448770866
0.038499999999999,0.0042603487041181,-0.0085224427374883,0.0042603487041181
0.0420000000000015,0.0074577918937717,0.0031956978604016,0.0127827914416064
0.0454999999999898,0.01598023463126,0.0063913957208032,0.0085224427374883
0.0489999999999923,0.0085224427374883,0.002131047016685,0.0031956978604016
0.0524999999999948,-0.0085224427374883,-0.002131047016685,0.0085224427374883
0.0559999999999973,-0.0213052341790947,-0.002131047016685,0.0085224427374883
0.0594999999999998,-0.0223716303520633,-0.0010646508437165,0.0074577918937717
0.0630000000000023,-0.0191759324916617,-0.0074577918937717,0.0053267448770866
0.0664999999999906,-0.0170448854749766,0.0,0.0053267448770866
0.0699999999999931,-0.0117181405978899,0.0042603487041181,0.0031956978604016
0.0734999999999956,0.0,0.0,0.0095870935812048
0.0769999999999981,0.0042603487041181,0.0010646508437165,0.0095870935812048
0.0805000000000006,0.002131047016685,0.0010646508437165,0.0117181405978899
0.0839999999999889,0.0127827914416064,0.0010646508437165,0.002131047016685
0.0874999999999914,0.0170448854749766,0.0,0.0053267448770866
0.0909999999999939,0.0042603487041181,-0.0085224427374883,0.0074577918937717
0.0944999999999964,0.0031956978604016,0.0,0.0117181405978899
0.0979999999999989,-0.002131047016685,0.0010646508437165,0.0117181405978899
0.1015000000000014,-0.0031956978604016,0.0117181405978899,0.0063913957208032
0.1049999999999897,-0.0117181405978899,0.0031956978604016,0.0
0.1084999999999922,-0.0181095363186931,0.0010646508437165,0.0095870935812048
0.1119999999999947,-0.0149138384582915,-0.0010646508437165,0.0085224427374883
0.1154999999999972,-0.0149138384582915,-0.013849187614575,0.0053267448770866
0.1189999999999997,-0.0010646508437165,0.0042603487041181,0.0063913957208032
0.1225000000000022,0.002131047016685,0.0042603487041181,0.0042603487041181
0.1259999999999905,0.0053267448770866,0.0,0.0085224427374883
0.129499999999993,0.0127827914416064,0.0010646508437165,0.0117181405978899
0.1329999999999955,0.0053267448770866,0.0,0.0095870935812048
0.136499999999998,0.0074577918937717,0.0095870935812048,0.0074577918937717
0.1400000000000005,0.0053267448770866,-0.0010646508437165,0.0042603487041181
0.1434999999999888,-0.0031956978604016,0.0,0.0063913957208032
0.1469999999999913,-0.013849187614575,0.0,0.0106534897541733
0.1504999999999938,-0.0106534897541733,-0.0031956978604016,0.0149138384582915
0.1539999999999963,-0.0149138384582915,-0.0042603487041181,0.0053267448770866
0.1574999999999988,-0.0223716303520633,-0.002131047016685,0.0031956978604016
0.1610000000000013,-0.0127827914416064,0.0031956978604016,0.0095870935812048
0.1644999999999896,-0.0085224427374883,0.0,0.0117181405978899
0.1679999999999921,0.0,-0.0042603487041181,0.0117181405978899
0.1714999999999946,0.0031956978604016,-0.0117181405978899,0.0063913957208032
0.1749999999999971,0.0063913957208032,-0.0117181405978899,0.0074577918937717
0.1784999999999996,0.0053267448770866,-0.0074577918937717,0.0074577918937717
0.1820000000000021,0.0170448854749766,-0.0031956978604016,0.013849187614575
0.1854999999999904,0.0095870935812048,0.002131047016685,0.0074577918937717
0.1889999999999929,-0.0010646508437165,-0.0085224427374883,0.0053267448770866
0.1924999999999954,0.0,-0.0042603487041181,0.0042603487041181
0.1959999999999979,-0.0010646508437165,-0.0031956978604016,0.0053267448770866
0.1995000000000004,-0.013849187614575,-0.0245026773687483,0.0117181405978899
0.2029999999999887,0.0010646508437165,0.0085224427374883,0.01598023463126
0.2064999999999912,-0.0085224427374883,-0.0074577918937717,0.0053267448770866
0.2099999999999937,-0.0074577918937717,-0.0042603487041181,-0.0010646508437165
0.2134999999999962,0.0,-0.002131047016685,0.0031956978604016
0.2169999999999987,-0.0031956978604016,0.0053267448770866,0.01598023463126
0.2205000000000012,0.0074577918937717,0.0053267448770866,0.0117181405978899
0.2239999999999895,0.0074577918937717,-0.0127827914416064,0.0042603487041181
0.227499999999992,0.0031956978604016,0.0,0.0095870935812048
0.2309999999999945,0.002131047016685,0.0042603487041181,0.0053267448770866
0.234499999999997,0.0031956978604016,-0.0042603487041181,0.0095870935812048
0.2379999999999995,0.0,0.0,0.0117181405978899
0.241500000000002,-0.0117181405978899,0.002131047016685,0.0042603487041181
0.2449999999999903,-0.01598023463126,0.0095870935812048,0.0074577918937717
0.2484999999999928,0.0010646508437165,-0.0063913957208032,-0.0010646508437165
0.2519999999999953,-0.0095870935812048,-0.0777666354811113,0.0
0.2554999999999978,-0.0106534897541733,-0.0788312863248278,0.0106534897541733
0.2590000000000003,-0.0213052341790947,-0.0703088435873395,0.0031956978604016
0.2624999999999886,-0.0500682602519613,-0.0426122136874415,-0.002131047016685
0.2659999999999911,-0.0436768645311581,0.0127827914416064,0.002131047016685
0.2694999999999936,-0.01598023463126,0.0095870935812048,0.0085224427374883
0.2729999999999961,0.01598023463126,-0.0330233747769847,0.0127827914416064
0.2764999999999986,0.0191759324916617,-0.0767019846373948,0.0085224427374883
0.2800000000000011,0.0245026773687483,-0.0958761717998045,0.002131047016685
0.2834999999999894,0.0404811666707564,-0.0809623333415129,0.0031956978604016
0.2869999999999919,0.0543303542853314,-0.0500682602519613,0.0117181405978899
0.2904999999999944,0.0490036094082447,-0.0095870935812048,0.0149138384582915
0.2939999999999969,0.0532657034416149,0.0149138384582915,0.0106534897541733
0.2974999999999994,0.0383501196540714,0.0042603487041181,0.013849187614575
0.3010000000000019,0.0181095363186931,0.0074577918937717,0.01598023463126
0.3044999999999902,-0.0010646508437165,-0.0127827914416064,0.0149138384582915
0.3079999999999927,-0.0372854688103548,-0.0245026773687483,0.0095870935812048
0.3114999999999952,-0.0085224427374883,-0.0074577918937717,0.01598023463126
0.3149999999999977,0.0170448854749766,0.0085224427374883,0.0213052341790947
0.3185000000000002,0.0127827914416064,0.0181095363186931,0.0223716303520633
0.3219999999999885,-0.0074577918937717,0.0266319790561814,0.0223716303520633
0.325499999999991,-0.01598023463126,0.0266319790561814,0.0266319790561814
0.3289999999999935,-0.0191759324916617,0.0394165158270399,0.0255673282124649
0.332499999999996,-0.0074577918937717,0.0468725623915597,0.01598023463126
0.3359999999999985,0.0149138384582915,0.0340897709499532,0.0106534897541733
0.339500000000001,0.0223716303520633,0.02769837522915,0.0170448854749766
0.3429999999999893,-0.0095870935812048,0.0149138384582915,0.0170448854749766
0.3464999999999918,-0.02769837522915,0.0042603487041181,0.01598023463126
0.3499999999999943,-0.0468725623915597,0.0106534897541733,0.0031956978604016
0.3534999999999968,-0.0468725623915597,0.0181095363186931,0.0031956978604016
0.3569999999999993,-0.0181095363186931,0.0266319790561814,0.0053267448770866
0.3605000000000018,-0.0127827914416064,0.0394165158270399,0.0063913957208032
0.3639999999999901,-0.02769837522915,0.0543303542853314,0.002131047016685
0.3674999999999926,-0.0095870935812048,0.0628527970228197,0.0031956978604016
0.3709999999999951,0.0202405833353782,0.0585907029894496,0.0042603487041181
0.3744999999999976,0.0351544217936697,0.0585907029894496,0.0031956978604016
0.3780000000000001,0.0649838440395048,0.0532657034416149,0.0010646508437165
0.3815000000000026,0.0862890782185996,0.0458079115478431,-0.0031956978604016
0.3849999999999909,0.0905494269227178,0.0394165158270399,0.0031956978604016
0.3884999999999934,0.083093380358198,0.02769837522915,-0.0010646508437165
0.3919999999999959,0.0671131457269379,0.0319587239332681,-0.0053267448770866
0.3954999999999984,0.0426122136874415,0.029827676916583,-0.0085224427374883
0.3990000000000009,0.0095870935812048,0.01598023463126,-0.0117181405978899
0.4024999999999892,-0.0106534897541733,-0.0170448854749766,-0.0106534897541733
0.4059999999999917,-0.0255673282124649,-0.0394165158270399,0.0
0.4094999999999942,-0.0372854688103548,-0.0404811666707564,-0.0042603487041181
0.4129999999999967,-0.0543303542853314,-0.0394165158270399,-0.0053267448770866
0.4164999999999992,-0.0458079115478431,-0.0213052341790947,-0.0063913957208032
0.4200000000000017,-0.0053267448770866,-0.0181095363186931,-0.002131047016685
0.42349999999999,0.0,-0.0585907029894496,0.0031956978604016
0.4269999999999925,0.0085224427374883,-0.0873537290623162,0.0095870935812048
0.430499999999995,0.01598023463126,-0.0958761717998045,0.0095870935812048
0.4339999999999975,0.0234362811957798,-0.0767019846373948,0.0042603487041181
0.4375,0.0447432607041266,-0.0447432607041266,0.0010646508437165
0.4410000000000025,0.0532657034416149,-0.0372854688103548,0.0042603487041181
0.4444999999999908,0.0458079115478431,-0.0266319790561814,0.0042603487041181
0.4479999999999933,0.0362208179666383,-0.0117181405978899,0.0042603487041181
0.4514999999999958,0.029827676916583,0.002131047016685,0.0053267448770866
0.4549999999999983,0.0042603487041181,0.0340897709499532,0.0
0.4585000000000008,-0.0095870935812048,0.0617864008498512,-0.0053267448770866
0.4619999999999891,0.013849187614575,0.0585907029894496,0.0
0.4654999999999916,0.02769837522915,0.0426122136874415,0.0074577918937717
0.4689999999999941,0.0191759324916617,0.0234362811957798,0.002131047016685
0.4724999999999966,0.0181095363186931,0.0234362811957798,0.0010646508437165
0.4759999999999991,0.029827676916583,0.0532657034416149,-0.002131047016685
0.4795000000000016,0.0308940730895516,0.0649838440395048,-0.0095870935812048
0.4829999999999899,0.013849187614575,0.0767019846373948,-0.0042603487041181
0.4864999999999924,-0.0095870935812048,0.0703088435873395,-0.0031956978604016
0.4899999999999949,-0.0521993072686464,0.0628527970228197,-0.0031956978604016
0.4934999999999974,-0.0639174478665363,0.0798976824977964,-0.0031956978604016
0.4969999999999999,-0.0713752397603081,0.0958761717998045,-0.0063913957208032
0.5005000000000024,-0.0724398906040246,0.0990718696602061,-0.0085224427374883
0.5039999999999907,-0.0660484948832214,0.1054650107102613,-0.01598023463126
0.5074999999999932,-0.0479389585645282,0.1065296615539778,-0.0127827914416064
0.5109999999999957,-0.0202405833353782,0.0873537290623162,-0.0106534897541733
0.5144999999999982,-0.0063913957208032,0.055395005129048,0.0
0.5180000000000007,0.0063913957208032,0.0170448854749766,0.0085224427374883
0.521499999999989,0.01598023463126,0.0149138384582915,0.0031956978604016
0.5249999999999915,0.0490036094082447,0.0372854688103548,-0.0063913957208032
0.528499999999994,0.0511346564249298,0.0447432607041266,-0.0181095363186931
0.5319999999999965,0.0319587239332681,0.0447432607041266,-0.01598023463126
0.535499999999999,0.0191759324916617,0.0426122136874415,-0.013849187614575
0.5390000000000015,0.0042603487041181,0.0458079115478431,-0.0117181405978899
0.5424999999999898,-0.0031956978604016,0.0532657034416149,-0.0127827914416064
0.5459999999999923,0.0085224427374883,0.0628527970228197,-0.0085224427374883
0.5494999999999948,0.0223716303520633,0.0617864008498512,-0.002131047016685
0.5529999999999973,0.0372854688103548,0.0596570991624181,0.0063913957208032
0.5564999999999998,0.0330233747769847,0.0660484948832214,0.0074577918937717
0.5600000000000023,0.0287630260728665,0.0564614013020165,0.0074577918937717
0.5634999999999906,0.0308940730895516,0.0287630260728665,0.0031956978604016
0.5669999999999931,0.0362208179666383,0.002131047016685,0.0234362811957798
0.5704999999999956,0.0521993072686464,0.029827676916583,0.0202405833353782
0.5739999999999981,0.0521993072686464,0.041545817514473,0.0191759324916617
0.5775000000000006,0.0532657034416149,0.0447432607041266,0.0223716303520633
0.5809999999999889,0.0330233747769847,0.0521993072686464,0.0287630260728665
0.5844999999999914,0.013849187614575,0.0585907029894496,0.029827676916583
0.5879999999999939,-0.0181095363186931,0.0490036094082447,0.0308940730895516
0.5914999999999964,-0.0213052341790947,0.0575260521457331,0.02769837522915
0.5949999999999989,0.0202405833353782,0.0394165158270399,0.0362208179666383
0.5985000000000014,0.013849187614575,0.0479389585645282,0.0362208179666383
0.6019999999999897,-0.0149138384582915,0.0575260521457331,0.02769837522915
0.6054999999999922,-0.0245026773687483,0.0585907029894496,0.0202405833353782
0.6089999999999947,-0.0149138384582915,0.0585907029894496,0.0245026773687483
0.6124999999999972,-0.0085224427374883,0.0500682602519613,0.0255673282124649
0.6159999999999997,-0.0074577918937717,0.0521993072686464,0.0340897709499532
0.6195000000000022,-0.0085224427374883,0.0543303542853314,0.029827676916583
0.6229999999999905,0.0,0.0330233747769847,0.0319587239332681
0.626499999999993,0.0010646508437165,0.0394165158270399,0.0351544217936697
0.6299999999999955,-0.0010646508437165,0.0468725623915597,0.0330233747769847
0.633499999999998,0.0053267448770866,0.0372854688103548,0.0340897709499532
0.6370000000000005,0.0117181405978899,0.0127827914416064,0.0340897709499532
0.6404999999999887,-0.0170448854749766,0.0117181405978899,0.0266319790561814
0.6439999999999912,-0.0447432607041266,0.0319587239332681,0.0074577918937717
0.6474999999999937,-0.0245026773687483,0.0447432607041266,0.0
0.6509999999999962,0.0095870935812048,0.0521993072686464,0.0085224427374883
0.6544999999999987,-0.002131047016685,0.0639174478665363,0.0053267448770866
0.6580000000000013,-0.0245026773687483,0.0756355884644262,0.0
0.6614999999999895,-0.0213052341790947,0.0575260521457331,0.0010646508437165
0.664999999999992,0.0,0.055395005129048,0.0117181405978899
0.6684999999999945,0.0223716303520633,0.0649838440395048,0.0106534897541733
0.671999999999997,0.0234362811957798,0.0447432607041266,-0.0010646508437165
0.6754999999999995,0.0191759324916617,0.0447432607041266,0.0010646508437165
0.679000000000002,-0.0117181405978899,0.0564614013020165,-0.002131047016685
0.6824999999999903,-0.0223716303520633,0.0639174478665363,-0.0191759324916617
0.6859999999999928,-0.0085224427374883,0.0585907029894496,-0.0149138384582915
0.6894999999999953,-0.002131047016685,0.0767019846373948,-0.0106534897541733
0.6929999999999978,-0.0234362811957798,0.0809623333415129,-0.0117181405978899
0.6965000000000003,-0.0234362811957798,0.0735062867769931,-0.0085224427374883
0.6999999999999886,-0.013849187614575,0.0873537290623162,0.0053267448770866
0.7034999999999911,-0.0031956978604016,0.0820287295144815,0.0074577918937717
0.7069999999999936,0.0010646508437165,0.0703088435873395,0.01598023463126
0.7104999999999961,0.0053267448770866,0.0724398906040246,0.0127827914416064
0.7139999999999986,0.0149138384582915,0.0660484948832214,0.0127827914416064
0.7175000000000011,0.0181095363186931,0.0596570991624181,0.0106534897541733
0.7209999999999894,0.0202405833353782,0.0649838440395048,0.0149138384582915
0.7244999999999919,0.0266319790561814,0.0756355884644262,0.0170448854749766
0.7279999999999944,0.0372854688103548,0.0862890782185996,0.02769837522915
0.7314999999999969,0.0394165158270399,0.0916158230956863,0.0287630260728665
0.7349999999999994,0.0426122136874415,0.0820287295144815,0.0330233747769847
0.7385000000000019,0.0458079115478431,0.0713752397603081,0.0340897709499532
0.7419999999999902,0.0287630260728665,0.0777666354811113,0.029827676916583
0.7454999999999927,0.0117181405978899,0.1043986145372928,0.0181095363186931
0.7489999999999952,-0.0191759324916617,0.138488385487246,0.002131047016685
0.7524999999999977,-0.0383501196540714,0.1427504795206162,-0.0031956978604016
0.7560000000000002,-0.0490036094082447,0.1320969897664428,-0.0042603487041181
0.7594999999999885,-0.041545817514473,0.1182478021518678,-0.0117181405978899
0.762999999999991,-0.0458079115478431,0.1182478021518678,-0.0181095363186931
0.7664999999999935,-0.0404811666707564,0.1118564064310645,-0.029827676916583
0.769999999999996,-0.0063913957208032,0.0948115209560879,-0.02769837522915
0.7734999999999985,-0.0053267448770866,0.1022693128498597,-0.0245026773687483
0.777000000000001,-0.013849187614575,0.0990718696602061,-0.0308940730895516
0.7804999999999893,0.0095870935812048,0.0713752397603081,-0.0340897709499532
0.7839999999999918,0.0617864008498512,0.0479389585645282,-0.01598023463126
0.7874999999999943,0.0756355884644262,0.0713752397603081,-0.0106534897541733
0.7909999999999968,0.0607217500061347,0.0735062867769931,-0.0181095363186931
0.7944999999999993,0.0724398906040246,0.0500682602519613,-0.013849187614575
0.7980000000000018,0.0980072188164895,0.041545817514473,0.0042603487041181
0.8014999999999901,0.1225098961852379,0.0436768645311581,0.0181095363186931
0.8049999999999926,0.1587289688226243,0.0383501196540714,0.02769837522915
0.8084999999999951,0.1640557136997109,0.0181095363186931,0.0372854688103548
0.8119999999999976,0.1992101354933808,-0.0010646508437165,0.055395005129048
0.8155000000000001,0.2066679273871525,-0.0170448854749766,0.0649838440395048
0.8190000000000026,0.1938833906162941,-0.0245026773687483,0.0788312863248278
0.8224999999999909,0.1981454846496642,-0.0063913957208032,0.0809623333415129
0.8259999999999934,0.2066679273871525,0.0053267448770866,0.0841580312019145
0.8294999999999959,0.2024058333537824,-0.0063913957208032,0.0905494269227178
0.8329999999999984,0.1789695521580025,-0.0170448854749766,0.1033339636935762
0.8365000000000009,0.1331616406101593,-0.0127827914416064,0.1043986145372928
0.8399999999999892,0.0383501196540714,-0.0095870935812048,0.0884201252352847
0.8434999999999917,-0.0447432607041266,-0.0436768645311581,0.083093380358198
0.8469999999999942,-0.3046751462036421,-0.1054650107102613,0.0532657034416149
0.8504999999999967,-0.4452945787075733,-0.2141239739516723,0.0
0.8539999999999992,-0.5294526099094878,-0.3195889846619337,-0.0532657034416149
0.8575000000000017,-0.5859140112115044,-0.3909642244222418,-0.0990718696602061
0.86099999999999,-0.6136106411114024,-0.4847093492053612,-0.1544686201185061
0.8644999999999925,-0.6125459902676859,-0.5635423808594411,-0.1938833906162941
0.867999999999995,-0.6018925005135125,-0.6594185526592456,-0.2460844432141925
0.8714999999999975,-0.5699337765802444,-0.7467722817215618,-0.2812388650078622
0.875,-0.533712958613606,-0.8596950843255949,-0.3089354949077603
0.8785000000000025,-0.5017542346803379,-0.9236125321921312,-0.3206536355056502
0.8819999999999908,-0.4634041150262664,-1.000314516829526,-0.3376985209806268
0.8854999999999933,-0.4399678338304866,-1.0493181262377709,-0.3408942188410284
0.8889999999999958,-0.4058780628805333,-1.1121691779313387,-0.3345028231202252
0.8924999999999983,-0.3856374795451551,-1.1473253450542604,-0.3291760782431385
0.8960000000000008,-0.3611348021764067,-1.1856754647083318,-0.3185243338182171
0.8994999999999891,-0.3440916620306821,-1.1973936053062215,-0.302544099186957
0.9029999999999916,-0.3217200316786187,-1.1995246523229068,-0.286565609884949
0.906499999999994,-0.3100018910807288,-1.18247976684793,-0.2759121201307756
0.9099999999999966,-0.2812388650078622,-1.160108136495867,-0.258867234655799
0.9134999999999992,-0.2695207244099723,-1.131345110423,-0.2514094427620272
0.9170000000000016,-0.2503447919183106,-1.083406151858472,-0.2460844432141925
0.92049999999999,-0.2514094427620272,-1.0248154488690224,-0.2450180470412239
0.9239999999999924,-0.2354309534600191,-0.952375558264998,-0.2450180470412239
0.9274999999999948,-0.2258421145495622,-0.8980452039796664,-0.2439533961975074
0.9309999999999974,-0.2119946722642392,-0.8437148496943347,-0.2492801410745941
0.9345,-0.2119946722642392,-0.8149518236214683,-0.2503447919183106
0.9380000000000024,-0.1906876927558924,-0.7606214693361367,-0.2546051406224288
0.9414999999999908,-0.1789695521580025,-0.7265316983861836,-0.2578025838120824
0.9449999999999932,-0.1544686201185061,-0.6690056462404504,-0.258867234655799
0.9484999999999956,-0.124639197872671,-0.6370469223071823,-0.2567361876391139
0.9519999999999982,-0.0724398906040246,-0.5923054069323076,-0.2439533961975074
0.9555000000000008,-0.029827676916583,-0.5550199381219528,-0.2290395577392158
0.958999999999989,0.0383501196540714,-0.4974938859762197,-0.2119946722642392
0.9624999999999916,0.0905494269227178,-0.4474238803950063,-0.191754088928861
0.965999999999994,0.1629910628559944,-0.3824417816847534,-0.1725781564371993
0.9694999999999964,0.2098636252475541,-0.3217200316786187,-0.1512729222581045
0.972999999999999,0.2695207244099723,-0.2396913021641372,-0.1299659427497577
0.9765000000000016,0.3046751462036421,-0.1757738542976009,-0.1097253594143795
0.9799999999999898,0.3483520107348002,-0.0862890782185996,-0.0852244273748831
0.9834999999999924,0.3643322453660603,-0.0085224427374883,-0.0660484948832214
0.9869999999999948,0.3803107346680683,0.0873537290623162,-0.0436768645311581
0.9904999999999972,0.3984202709867616,0.1395530363309626,-0.0234362811957798
0.9939999999999998,0.4016177141764152,0.2205171150017275,-0.0085224427374883
0.9975000000000024,0.3760503859639502,0.2801724688348938,-0.0042603487041181
1.0009999999999906,0.3131975889411305,0.3611348021764067,-0.0181095363186931
1.004499999999993,0.2524758389349957,0.41120480775762,-0.0255673282124649
1.0079999999999956,0.1757738542976009,0.492167141099133,-0.0223716303520633
1.011499999999998,0.1278348957330726,0.5262569120490862,-0.0117181405978899
1.0150000000000006,0.0671131457269379,0.5667380787198427,-0.0095870935812048
1.0184999999999889,0.02769837522915,0.586978662055221,-0.0031956978604016
1.0219999999999914,-0.0170448854749766,0.6061545945468827,0.0042603487041181
1.025499999999994,-0.0426122136874415,0.6136106411114024,0.0085224427374883
1.0289999999999964,-0.0735062867769931,0.6200020368322057,0.013849187614575
1.0324999999999989,-0.0873537290623162,0.616806338971804,0.0202405833353782
1.0360000000000014,-0.0958761717998045,0.5976321518093943,0.02769837522915
1.0394999999999897,-0.0926804739394028,0.5837829641948193,0.0362208179666383
1.0429999999999922,-0.0884201252352847,0.5528888911052677,0.0394165158270399
1.0464999999999949,-0.0767019846373948,0.5283879590657713,0.0490036094082447
1.0499999999999972,-0.055395005129048,0.5028206308533064,0.0617864008498512
1.0534999999999997,-0.0351544217936697,0.492167141099133,0.0649838440395048
1.0570000000000022,0.002131047016685,0.4687308599033531,0.0788312863248278
1.0604999999999905,0.0330233747769847,0.4367721359700849,0.0894847760790012
1.063999999999993,0.0713752397603081,0.3962909692993285,0.0948115209560879
1.0674999999999957,0.0873537290623162,0.3771150368076668,0.0873537290623162
1.070999999999998,0.1054650107102613,0.3526141047681703,0.0862890782185996
1.0745000000000005,0.1171831513081512,0.3281114273994219,0.0745709376207097
1.0779999999999887,0.1395530363309626,0.2993484013265554,0.0745709376207097
1.0814999999999912,0.1651203645434275,0.2737810731140905,0.0724398906040246
1.0849999999999935,0.1885583910684593,0.2269085107225308,0.0724398906040246
1.0884999999999962,0.2002765316663493,0.1938833906162941,0.0703088435873395
1.0919999999999987,0.2109282760912707,0.1555332709622227,0.0649838440395048
1.0955000000000013,0.2173214171413259,0.138488385487246,0.0607217500061347
1.0989999999999895,0.2205171150017275,0.1022693128498597,0.0585907029894496
1.102499999999992,0.2269085107225308,0.0820287295144815,0.0564614013020165
1.1059999999999943,0.2396913021641372,0.0511346564249298,0.0596570991624181
1.109499999999997,0.2567361876391139,0.0287630260728665,0.0490036094082447
1.1129999999999995,0.274847469287059,-0.002131047016685,0.0458079115478431
1.116500000000002,0.2854992137119804,-0.0351544217936697,0.0383501196540714
1.1199999999999903,0.3057397970473587,-0.0767019846373948,0.029827676916583
1.1234999999999928,0.3078708440640437,-0.0873537290623162,0.0106534897541733
1.1269999999999951,0.2961527034661538,-0.1065296615539778,-0.0170448854749766
1.1304999999999978,0.2854992137119804,-0.1203788491685528,-0.029827676916583
1.1340000000000003,0.2514094427620272,-0.152337573101821,-0.0458079115478431
1.1374999999999886,0.2183860679850424,-0.1821652500184041,-0.0649838440395048
1.1409999999999911,0.1693824585767977,-0.219450718828759,-0.0681795418999064
1.1444999999999936,0.1267702448893561,-0.2396913021641372,-0.0777666354811113
1.147999999999996,0.0735062867769931,-0.2673896773932873,-0.0767019846373948
1.1514999999999986,0.0351544217936697,-0.2823035158515788,-0.0767019846373948
1.1550000000000011,-0.0085224427374883,-0.3057397970473587,-0.069244192743623
1.1584999999999894,-0.0319587239332681,-0.3185243338182171,-0.0639174478665363
1.161999999999992,-0.0585907029894496,-0.3472873598910836,-0.0521993072686464
1.1654999999999944,-0.0649838440395048,-0.3771150368076668,-0.0468725623915597
1.168999999999997,-0.0767019846373948,-0.4197272504951083,-0.0372854688103548
1.1724999999999994,-0.0852244273748831,-0.4357057397971164,-0.0351544217936697
1.176000000000002,-0.0862890782185996,-0.4463592295512898,-0.0362208179666383
1.1794999999999902,-0.0841580312019145,-0.4602084171658648,-0.0383501196540714
1.1829999999999927,-0.0905494269227178,-0.4783179534845579,-0.041545817514473
1.1864999999999952,-0.0948115209560879,-0.4974938859762197,-0.0426122136874415
1.1899999999999975,-0.1022693128498597,-0.5124077244345112,-0.0372854688103548
1.1935000000000002,-0.1214435000122694,-0.5145387714511963,-0.0404811666707564
1.1969999999999883,-0.150206526085136,-0.519865516328283,-0.0340897709499532
1.200499999999991,-0.1768385051413174,-0.5230612141886847,-0.0340897709499532
1.2039999999999935,-0.2098636252475541,-0.5187991201553145,-0.0202405833353782
1.207499999999996,-0.2311688594266489,-0.503885281697023,-0.0085224427374883
1.2109999999999983,-0.2407576983371057,-0.4868403962220463,0.0127827914416064
1.214500000000001,-0.2482137449016255,-0.4783179534845579,0.0266319790561814
1.217999999999989,-0.2364956043037356,-0.4719265577637547,0.0564614013020165
1.2214999999999918,-0.2173214171413259,-0.4847093492053612,0.0735062867769931
1.2249999999999943,-0.1885583910684593,-0.4740576047804398,0.0948115209560879
1.2284999999999968,-0.166186760716396,-0.4538170214450616,0.1033339636935762
1.231999999999999,-0.1310323389227262,-0.43890318298677,0.1139874534477496
1.2355000000000018,-0.110790010258096,-0.4314453910929982,0.1225098961852379
1.23899999999999,-0.0841580312019145,-0.4271832970596281,0.1235745470289545
1.2424999999999926,-0.0671131457269379,-0.4293143440763132,0.1310323389227262
1.2459999999999951,-0.0617864008498512,-0.4218582975117934,0.1299659427497577
1.2494999999999976,-0.055395005129048,-0.4197272504951083,0.136357338470561
1.253,-0.0671131457269379,-0.41120480775762,0.1416840833476476
1.2565000000000026,-0.0820287295144815,-0.4058780628805333,0.1480754790684509
1.259999999999991,-0.1033339636935762,-0.3962909692993285,0.152337573101821
1.2634999999999934,-0.124639197872671,-0.3771150368076668,0.1629910628559944
1.266999999999996,-0.152337573101821,-0.3526141047681703,0.1704471094205142
1.2704999999999984,-0.1821652500184041,-0.3291760782431385,0.1683160624038291
1.274000000000001,-0.2386266513204207,-0.3014794483432405,0.1715135055934827
1.2774999999999892,-0.2727164222703739,-0.274847469287059,0.1704471094205142
1.2809999999999917,-0.3227846825223353,-0.2343645572870505,0.1715135055934827
1.2844999999999942,-0.3675279432264619,-0.2130593231079557,0.1651203645434275
1.2879999999999967,-0.42292294835551,-0.1672514115601126,0.1608600158393093
1.2914999999999992,-0.4591437663221482,-0.1342280367831279,0.1555332709622227
1.2950000000000017,-0.5102766774178261,-0.0905494269227178,0.1448797812080492
1.29849999999999,-0.5454328445407479,-0.0617864008498512,0.136357338470561
1.3019999999999925,-0.6040235475301975,-0.0181095363186931,0.1352926876268444
1.305499999999995,-0.6455693650446706,0.0234362811957798,0.1299659427497577
1.3089999999999975,-0.7020307663466872,0.0681795418999064,0.1352926876268444
1.3125,-0.7350541411236718,0.0990718696602061,0.1395530363309626
1.3160000000000025,-0.7851241467048852,0.1374237346435295,0.138488385487246
1.3194999999999908,-0.8234742663589566,0.1491418752414194,0.1374237346435295
1.3229999999999933,-0.8799356676609732,0.1459461773810178,0.1267702448893561
1.3264999999999958,-0.9097633445775564,0.1438151303643327,0.1171831513081512
1.3299999999999983,-0.940657417667108,0.1310323389227262,0.1054650107102613
1.3335000000000008,-0.9513109074212812,0.1161167551351827,0.096942567972773
1.336999999999989,-0.9374617198067065,0.0916158230956863,0.083093380358198
1.3404999999999916,-0.9204168343317296,0.0596570991624181,0.069244192743623
1.343999999999994,-0.8927184591025796,0.0191759324916617,0.069244192743623
1.3474999999999966,-0.8660864800463982,-0.013849187614575,0.0575260521457331
1.350999999999999,-0.8330613599401614,-0.0479389585645282,0.0436768645311581
1.3545000000000016,-0.8170828706381533,-0.0735062867769931,0.0383501196540714
1.35799999999999,-0.8000379851631767,-0.1054650107102613,0.0447432607041266
1.3614999999999924,-0.7883198445652868,-0.1171831513081512,0.0521993072686464
1.3649999999999949,-0.7712749590903102,-0.1310323389227262,0.055395005129048
1.3684999999999974,-0.7659482142132235,-0.1352926876268444,0.0532657034416149
1.372,-0.7797974018277984,-0.1480754790684509,0.055395005129048
1.3755000000000024,-0.7872551937215703,-0.1544686201185061,0.0564614013020165
1.378999999999991,-0.7915155424256883,-0.1640557136997109,0.0660484948832214
1.3824999999999932,-0.7968422873027752,-0.1629910628559944,0.0585907029894496
1.3859999999999957,-0.8138871727777518,-0.1555332709622227,0.0596570991624181
1.3894999999999982,-0.8330613599401614,-0.1683160624038291,0.0585907029894496
1.393000000000001,-0.8533036886047917,-0.1992101354933808,0.0564614013020165
1.396499999999989,-0.8554329902922247,-0.233299906443334,0.0585907029894496
1.3999999999999917,-0.8831313655213747,-0.2791078179911772,0.0564614013020165
1.403499999999994,-0.9140254386109264,-0.3110665419244454,0.0426122136874415
1.4069999999999965,-0.9545066052816829,-0.355809802628572,0.0330233747769847
1.410499999999999,-0.9981834698128408,-0.3898978282492732,0.0170448854749766
1.4140000000000017,-1.0610362668356608,-0.4154651564617382,0.0053267448770866
1.4174999999999898,-1.1132355741043072,-0.4293143440763132,-0.0031956978604016
1.4209999999999925,-1.1654348813729536,-0.4378367868138015,-0.002131047016685
1.4244999999999948,-1.1995246523229068,-0.4314453910929982,0.0010646508437165
1.4279999999999973,-1.235743724960293,-0.4165315526347067,0.002131047016685
1.4314999999999998,-1.254919657451955,-0.4080091098972184,-0.0010646508437165
1.4350000000000025,-1.2708998920832149,-0.3867021303888716,-0.002131047016685
1.4384999999999906,-1.286878381385223,-0.3675279432264619,-0.0170448854749766
1.441999999999993,-1.3113810587539714,-0.3632658491930918,-0.0436768645311581
1.4454999999999956,-1.3230991993518617,-0.3653968962097769,-0.0543303542853314
1.448999999999998,-1.3412087356705549,-0.3653968962097769,-0.0777666354811113
1.4525000000000006,-1.351862225424728,-0.3675279432264619,-0.0958761717998045
1.4559999999999889,-1.379558855324626,-0.3632658491930918,-0.1171831513081512
1.4594999999999914,-1.4061925797100594,-0.3579391043160051,-0.1299659427497577
1.462999999999994,-1.450934095084934,-0.3408942188410284,-0.1406194325039311
1.4664999999999964,-1.4871549130515724,-0.3227846825223353,-0.1438151303643327
1.4699999999999989,-1.525505032705644,-0.2982837504828389,-0.1406194325039311
1.4735000000000014,-1.5468120122139906,-0.2844345628682639,-0.1267702448893561
1.4769999999999897,-1.573443991270172,-0.2876302607286655,-0.1225098961852379
1.4804999999999922,-1.599011319482637,-0.2982837504828389,-0.1139874534477496
1.4839999999999949,-1.624578647695102,-0.3131975889411305,-0.1097253594143795
1.4874999999999972,-1.6288389963992198,-0.3259803803827369,-0.1065296615539778
1.4909999999999997,-1.6362967882929915,-0.3536787556118869,-0.1150521042914662
1.4945000000000022,-1.654406324611685,-0.3781796876513833,-0.1257055940456395
1.4979999999999905,-1.7044745848636462,-0.4218582975117934,-0.1459461773810178
1.501499999999993,-1.7428264498469697,-0.4442281825346047,-0.1683160624038291
1.5049999999999957,-1.8248534340321991,-0.4772533026408414,-0.1928187397725775
1.508499999999998,-1.8983597208091925,-0.5060163287137079,-0.2205171150017275
1.5120000000000005,-1.9963669396256816,-0.5369104018032596,-0.2439533961975074
1.5154999999999887,-2.074133575106793,-0.5369104018032596,-0.2546051406224288
1.5189999999999912,-2.152964861431621,-0.5145387714511963,-0.274847469287059
1.5224999999999935,-2.2062305648732363,-0.4985585368199362,-0.2918906094327836
1.5259999999999962,-2.269083361896056,-0.4761869064678729,-0.3206536355056502
1.5294999999999987,-2.328738715729222,-0.4570127193054631,-0.3515477085952018
1.5330000000000013,-2.4043760495229005,-0.4452945787075733,-0.3930952714389268
1.5364999999999895,-2.44698651788109,-0.4186608543221398,-0.4282496932325966
1.539999999999992,-2.50238326833939,-0.3888331774055567,-0.4847093492053612
1.5434999999999943,-2.535406643116375,-0.3675279432264619,-0.5273215628928027
1.546999999999997,-2.5748231589434147,-0.3643322453660603,-0.5709984274239609
1.5504999999999995,-2.5886723465579893,-0.3664615470534934,-0.6061545945468827
1.554000000000002,-2.5694964140663283,-0.3717882919305801,-0.6402426201675839
1.5574999999999903,-2.5375376901330595,-0.3707236410868635,-0.6583539018155291
1.5609999999999928,-2.4874676845518464,-0.3739193389472651,-0.6871169278883955
1.5644999999999951,-2.441661518333255,-0.3941599222826434,-0.6998997193300021
1.5679999999999978,-2.362828486679175,-0.4506213235846599,-0.7158799539612621
1.5715000000000003,-2.314889528114647,-0.4974938859762197,-0.7371851881403569
1.5749999999999886,-2.2552341742814805,-0.5507578440885826,-0.7563611206320187
1.5784999999999911,-2.2147530076107245,-0.5933700577760241,-0.7691439120736251
1.5819999999999936,-2.166814049046196,-0.6381133184801508,-0.7755353077944284
1.585499999999996,-2.143377767850416,-0.6636806466926157,-0.7723396099340267
1.5889999999999986,-2.1082233460567465,-0.6807255321675924,-0.7552947244590501
1.5925000000000011,-2.077329272967195,-0.6956393706258839,-0.7361205372966404
1.5959999999999894,-2.03578171012347,-0.7052264642070888,-0.697768672313317
1.599499999999992,-2.0006272883298,-0.709488558240459,-0.6615495996759307
1.6029999999999944,-1.9793220541507053,-0.727598094559152,-0.6295908757426625
1.606499999999997,-1.984648799027792,-0.7361205372966404,-0.6061545945468827
1.6099999999999994,-2.015541126788092,-0.7350541411236718,-0.5848476150385359
1.613500000000002,-2.049630897738045,-0.7382515843133254,-0.5699337765802444
1.6169999999999902,-2.095438809285888,-0.7446429800341288,-0.5539552872782363
1.6204999999999927,-2.134855325112928,-0.7393162351570419,-0.5464974953844645
1.6239999999999952,-2.201968470839866,-0.7457076308778453,-0.5433017975240628
1.6274999999999975,-2.2584298721418827,-0.7542300736153336,-0.5454328445407479
1.6310000000000002,-2.3575017418020887,-0.7520990265986485,-0.5454328445407479
1.6344999999999883,-2.4352683772832,-0.7563611206320187,-0.5486285424011496
1.637999999999991,-2.510905711076878,-0.7648835633695069,-0.5518242402615512
1.6414999999999935,-2.608912929893368,-0.7776663548111135,-0.5656734278761262
1.644999999999996,-2.774033294436796,-0.7883198445652868,-0.5848476150385359
1.6484999999999983,-2.8986724923094664,-0.7851241467048852,-0.6018925005135125
1.652000000000001,-3.091491232082044,-0.7595568184924202,-0.6082838962343158
1.655499999999989,-3.24169775816718,-0.7297291415758372,-0.6082838962343158
1.6589999999999918,-3.4419742898335293,-0.6796591359946239,-0.5901743599156226
1.6624999999999943,-3.585789420197862,-0.630655526586379,-0.5667380787198427
1.6659999999999968,-3.7604986236517455,-0.5720648235969293,-0.5422354013510943
1.669499999999999,-3.8915292172452207,-0.5241258650324012,-0.533712958613606
1.6730000000000018,-4.04493318652001,-0.4591437663221482,-0.5070809795574245
1.67649999999999,-4.133351566426043,-0.4101401569139035,-0.4911024902554164
1.6799999999999926,-4.220707040817612,-0.3376985209806268,-0.4655351620429515
1.6834999999999951,-4.246274369030076,-0.286565609884949,-0.4410324846742031
1.6869999999999976,-4.24094762415299,-0.2279731615662473,-0.4058780628805333
1.6905,-4.2068578532030365,-0.2034722295267509,-0.3611348021764067
1.6940000000000026,-4.108850634386547,-0.1853609478788057,-0.300413052170272
1.697499999999991,-4.007647717709656,-0.1715135055934827,-0.2514094427620272
1.7009999999999934,-3.8478523527140633,-0.1704471094205142,-0.191754088928861
1.704499999999996,-3.726408852701793,-0.1768385051413174,-0.1534022239455376
1.7079999999999984,-3.545308253527106,-0.1896230419121759,-0.1001382658331746
1.711500000000001,-3.3972310291294026,-0.2173214171413259,-0.0671131457269379
1.7149999999999892,-3.195891591948589,-0.2599318854995155,-0.0234362811957798
1.7184999999999917,-3.042487622673799,-0.2982837504828389,0.0
1.7219999999999942,-2.868844815392884,-0.3590055004889736,0.0053267448770866
1.7254999999999967,-2.737812476470157,-0.4037470158638482,0.013849187614575
1.7289999999999992,-2.5684300178933595,-0.4665998128866681,0.0170448854749766
1.7325000000000017,-2.4555089606185785,-0.5070809795574245,0.0223716303520633
1.73599999999999,-2.3138248772709304,-0.5528888911052677,0.0245026773687483
1.7394999999999925,-2.2115573097503227,-0.5784562193177326,0.0319587239332681
1.742999999999995,-2.0975698563025733,-0.6072192453905992,0.0511346564249298
1.7464999999999975,-2.0187385699777454,-0.6210684330051742,0.0671131457269379
1.75,-1.9324494917591453,-0.6210684330051742,0.0926804739394028
1.7535000000000025,-1.885575184038334,-0.616806338971804,0.1118564064310645
1.7569999999999908,-1.8568121579654675,-0.6040235475301975,0.1225098961852379
1.7604999999999933,-1.8674656477196407,-0.6018925005135125,0.124639197872671
1.7639999999999958,-1.9164692571278852,-0.5944364539489927,0.1193124529955843
1.7674999999999983,-1.9718642622569336,-0.5955011047927092,0.1139874534477496
1.7710000000000008,-2.053892991771415,-0.6104149432510009,0.1257055940456395
1.774499999999989,-2.1156793926212663,-0.6178727351447726,0.1406194325039311
1.7779999999999916,-2.160422653325393,-0.6018925005135125,0.166186760716396
1.781499999999994,-2.1913149810856924,-0.5923054069323076,0.1821652500184041
1.7849999999999966,-2.2541677781085125,-0.5997614534968274,0.1960144376329791
1.788499999999999,-2.3159559242876155,-0.6253287817092923,0.2024058333537824
1.7920000000000016,-2.408636398227019,-0.6508961099217573,0.2034722295267509
1.79549999999999,-2.478945241814358,-0.6604849488322142,0.1928187397725775
1.7989999999999924,-2.585474903368336,-0.6711366932571355,0.1725781564371993
1.8024999999999949,-2.6675036328828177,-0.6679409953967339,0.1565979218059392
1.8059999999999972,-2.7814910863305675,-0.6508961099217573,0.1331616406101593
1.8095,-2.85819132563871,-0.6274598287259775,0.1054650107102613
1.8130000000000024,-2.971112382913492,-0.5859140112115044,0.0713752397603081
1.816499999999991,-3.065923903869579,-0.5422354013510943,0.0394165158270399
1.8199999999999927,-3.1841734513506985,-0.4889714432387313,-0.002131047016685
1.823499999999996,-3.235306362446377,-0.452750625272093,-0.02769837522915
1.8269999999999984,-3.2928324145921097,-0.4133358547743051,-0.0617864008498512
1.830500000000001,-3.324791138525378,-0.3824417816847534,-0.0948115209560879
1.833999999999989,-3.3460981180337246,-0.3355692192931938,-0.1299659427497577
1.8374999999999917,-3.3418360240003544,-0.3131975889411305,-0.1534022239455376
1.840999999999994,-3.3141393941004567,-0.286565609884949,-0.1747092034538843
1.8444999999999965,-3.263004737675527,-0.2801724688348938,-0.1821652500184041
1.847999999999999,-3.1671285658757222,-0.2631275833599171,-0.177904901314286
1.8515000000000013,-3.084035185517524,-0.2450180470412239,-0.1715135055934827
1.8549999999999895,-2.978570174807263,-0.2002765316663493,-0.1640557136997109
1.8584999999999925,-2.901868190169868,-0.1725781564371993,-0.1587289688226243
1.8619999999999948,-2.8059920183700635,-0.180035948330971,-0.1459461773810178
1.8654999999999973,-2.7548573619451338,-0.191754088928861,-0.1406194325039311
1.869,-2.715442591447346,-0.1992101354933808,-0.1352926876268444
1.8725000000000025,-2.6856131692015106,-0.2024058333537824,-0.1267702448893561
1.8759999999999903,-2.643000955514069,-0.2151903701246408,-0.096942567972773
1.879499999999993,-2.608912929893368,-0.2237128128621291,-0.0649838440395048
1.882999999999996,-2.553516179435068,-0.2311688594266489,-0.0031956978604016
1.886499999999998,-2.5077082678872245,-0.2311688594266489,0.0340897709499532
1.8900000000000008,-2.46296675251235,-0.2279731615662473,0.0841580312019145
1.8934999999999889,-2.4565753567915465,-0.233299906443334,0.1065296615539778
1.8969999999999916,-2.47042279907687,-0.2301042085829324,0.1289012919060412
1.9004999999999936,-2.4938608256019017,-0.2258421145495622,0.1278348957330726
1.9039999999999964,-2.5332755960996893,-0.2205171150017275,0.1203788491685528
1.9074999999999989,-2.5790835076475327,-0.2087989744038376,0.1033339636935762
1.9110000000000011,-2.646198398703723,-0.1938833906162941,0.0745709376207097
1.9144999999999897,-2.6920045649223137,-0.1853609478788057,0.0490036094082447
1.917999999999992,-2.7442056175202123,-0.1555332709622227,0.0245026773687483
1.9214999999999949,-2.758053059805535,-0.1278348957330726,0.0095870935812048
1.9249999999999967,-2.8091877162304653,-0.0841580312019145,-0.0202405833353782
1.9285,-2.9008035393261515,-0.0564614013020165,-0.0564614013020165
1.9320000000000024,-3.079773091484154,-0.0436768645311581,-0.096942567972773
1.9354999999999905,-3.2406331073234638,-0.0351544217936697,-0.1193124529955843
1.938999999999993,-3.453692430431419,-0.0458079115478431,-0.1438151303643327
1.9424999999999957,-3.613487795427012,-0.0063913957208032,-0.1640557136997109
1.945999999999998,-3.838265259132858,0.0404811666707564,-0.1992101354933808
1.9495000000000005,-3.994863180938797,0.0500682602519613,-0.2151903701246408
1.9529999999999887,-4.161049941655193,0.0639174478665363,-0.2215817658454441
1.9564999999999912,-4.237751926292588,0.0756355884644262,-0.2258421145495622
1.9599999999999935,-4.291015884404951,0.0756355884644262,-0.2205171150017275
1.963499999999996,-4.297407280125754,0.0756355884644262,-0.2077325782308691
1.9669999999999987,-4.24840367071751,0.0777666354811113,-0.191754088928861
1.9705000000000013,-4.177030176286453,0.0703088435873395,-0.1736428072809158
1.973999999999989,-4.039606441642924,0.0458079115478431,-0.1459461773810178
1.977499999999992,-3.922423290334773,0.0191759324916617,-0.1235745470289545
1.9809999999999943,-3.7647589723558648,0.0010646508437165,-0.1022693128498597
1.984499999999997,-3.635859425779076,-0.0095870935812048,-0.0809623333415129
1.9879999999999995,-3.4462363838668995,-0.0085224427374883,-0.0426122136874415
1.991500000000002,-3.2907031129046764,-0.0117181405978899,-0.0053267448770866
1.9949999999999903,-3.073381695763351,-0.0191759324916617,0.0500682602519613
1.9984999999999928,-2.9082613312199235,-0.0319587239332681,0.0958761717998045
2.001999999999996,-2.7015934038327707,-0.0660484948832214,0.1565979218059392
2.005499999999998,-2.5545825756080367,-0.0916158230956863,0.1970790884766957
2.0090000000000003,-2.3777423251374668,-0.1278348957330726,0.2418223491808223
2.0124999999999886,-2.277604059304292,-0.1651203645434275,0.260998281672484
2.015999999999991,-2.2072952157169525,-0.2024058333537824,0.2652586303766022
2.0194999999999936,-2.192381377258661,-0.2173214171413259,0.2567361876391139
2.022999999999996,-2.208359866560669,-0.2311688594266489,0.2343645572870505
2.026499999999998,-2.2381892888065043,-0.2546051406224288,0.2215817658454441
2.030000000000001,-2.2978446426396704,-0.2854992137119804,0.205601531214184
2.033499999999989,-2.3468499973771677,-0.3068061932203272,0.1906876927558924
2.036999999999992,-2.4065053512103334,-0.3323735214327921,0.1789695521580025
2.0404999999999944,-2.453379658931145,-0.3334381722765087,0.1619246666830259
2.043999999999997,-2.5215574555018,-0.3462209637181151,0.136357338470561
2.0474999999999994,-2.570561064910044,-0.369657244913895,0.1129210572747811
2.051000000000002,-2.645132002530754,-0.4005513180034466,0.0841580312019145
2.0544999999999902,-2.7015934038327707,-0.4122694586013365,0.0596570991624181
2.0579999999999927,-2.7697712004034254,-0.3813771308410369,0.0245026773687483
2.0614999999999952,-2.820905856828355,-0.3632658491930918,-0.002131047016685
2.0649999999999977,-2.8890853987282616,-0.3387649171535954,-0.02769837522915
2.0685,-2.953002846594798,-0.300413052170272,-0.0426122136874415
2.0719999999999885,-3.030769482075909,-0.2567361876391139,-0.055395005129048
2.075499999999991,-3.0765773936237526,-0.2226464166891606,-0.0500682602519613
2.078999999999993,-3.110667164573706,-0.1832316461913727,-0.0287630260728665
2.082499999999996,-3.1479526333840604,-0.1491418752414194,-0.0181095363186931
2.0859999999999985,-3.2427641543401484,-0.0862890782185996,-0.0085224427374883
2.089500000000001,-3.312008347083772,-0.0532657034416149,0.002131047016685
2.0929999999999893,-3.3812525398273947,-0.0255673282124649,0.0234362811957798
2.096499999999992,-3.43025614923564,-0.0010646508437165,0.0362208179666383
2.0999999999999943,-3.477128711627199,0.0511346564249298,0.0490036094082447
2.103499999999997,-3.4963046441188608,0.0948115209560879,0.0543303542853314
2.1069999999999998,-3.487782201381372,0.1459461773810178,0.0735062867769931
2.110500000000002,-3.461150222325191,0.177904901314286,0.0894847760790012
2.11399999999999,-3.388710331721166,0.2013411825100658,0.1182478021518678
2.1174999999999926,-3.301354857329598,0.2087989744038376,0.1459461773810178
2.120999999999995,-3.154344029104864,0.2428870000245388,0.1757738542976009
2.1244999999999976,-3.0147909927739014,0.260998281672484,0.1970790884766957
2.128,-2.8198412059846385,0.2663250265495707,0.2077325782308691
2.1315000000000026,-2.670699330743219,0.2620629325162006,0.2237128128621291
2.134999999999991,-2.4565753567915465,0.2673896773932873,0.233299906443334
2.1384999999999934,-2.275474757616859,0.2705853752536888,0.2503447919183106
2.141999999999996,-2.0411084550005567,0.2673896773932873,0.2663250265495707
2.1454999999999984,-1.8962286737925071,0.2492801410745941,0.2759121201307756
2.149000000000001,-1.7183237724782212,0.2087989744038376,0.3046751462036421
2.152499999999989,-1.5510723609181087,0.1789695521580025,0.3398295679973119
2.155999999999992,-1.3689071108997044,0.1608600158393093,0.3739193389472651
2.159499999999994,-1.2836826835248214,0.1299659427497577,0.3941599222826434
2.1629999999999967,-1.2378747719769785,0.1310323389227262,0.41120480775762
2.166499999999999,-1.2495929125748682,0.1235745470289545,0.4207919013388249
2.1700000000000017,-1.3252302463685464,0.1161167551351827,0.4346410889533998
2.17349999999999,-1.409388277570461,0.1182478021518678,0.4474238803950063
2.1769999999999925,-1.5574637566389118,0.138488385487246,0.4484902765679749
2.180499999999995,-1.7034099340199298,0.1672514115601126,0.4474238803950063
2.183999999999997,-1.9494926319048704,0.2013411825100658,0.4580773701491797
2.1875,-2.152964861431621,0.2258421145495622,0.4612730680095813
2.1910000000000025,-2.4278123307186803,0.2641939795328856,0.4793843496575265
2.194499999999991,-2.616368976457888,0.2791078179911772,0.4900360940824479
2.1979999999999933,-2.8517999299179064,0.3078708440640437,0.4964292351325031
2.201499999999996,-3.029704831232193,0.3036087500306735,0.4911024902554164
2.2049999999999983,-3.2470245030442664,0.2993484013265554,0.4719265577637547
2.208500000000001,-3.374861144106591,0.302544099186957,0.4559463231324946
2.211999999999989,-3.470737315906396,0.3206536355056502,0.425053995372195
2.215499999999992,-3.486717550537656,0.3355692192931938,0.3984202709867616
2.218999999999994,-3.451561383414734,0.3632658491930918,0.3781796876513833
2.2224999999999966,-3.3972310291294026,0.3867021303888716,0.3526141047681703
2.225999999999999,-3.280049623150503,0.4122694586013365,0.3430252658577135
2.2295000000000016,-3.1660621697027533,0.4186608543221398,0.3355692192931938
2.23299999999999,-3.003072852176011,0.4261186462159115,0.3408942188410284
2.2364999999999924,-2.868844815392884,0.4207919013388249,0.3494166615785167
2.239999999999995,-2.6834838675140773,0.3792460838243518,0.3622011983493752
2.2434999999999974,-2.56097397132884,0.3515477085952018,0.3760503859639502
2.247,-2.4182234918082237,0.3345028231202252,0.3771150368076668
2.2505000000000024,-2.317020575131332,0.3238510786953038,0.3856374795451551
2.2539999999999907,-2.194512424275346,0.3046751462036421,0.3845728287014385
2.257499999999993,-2.1220707883420697,0.2801724688348938,0.3930952714389268
2.260999999999996,-2.0251299656985484,0.2620629325162006,0.4101401569139035
2.264499999999998,-1.956950423798642,0.247149094057909,0.4293143440763132
2.2680000000000007,-1.8727923925967276,0.2151903701246408,0.4719265577637547
2.271499999999989,-1.8035481998531044,0.1864273440517743,0.503885281697023
2.2749999999999915,-1.719388423321938,0.1342280367831279,0.5539552872782363
2.278499999999994,-1.6714512100866616,0.0948115209560879,0.5827165680218508
2.2819999999999965,-1.6117941109242435,0.0458079115478431,0.628524479569694
2.285499999999999,-1.5862267827117784,0.0149138384582915,0.6540918077821589
2.289000000000001,-1.571312944253487,-0.0234362811957798,0.6722030894301041
2.2924999999999898,-1.596880272465952,-0.0181095363186931,0.6860505317154271
2.2959999999999923,-1.6714512100866616,-0.0255673282124649,0.7009661155029706
2.2994999999999948,-1.719388423321938,-0.0319587239332681,0.7329248394362388
2.3029999999999973,-1.7598713353219464,-0.02769837522915,0.7872551937215703
2.3065,-1.7918300592552143,-0.029827676916583,0.8192139176548384
2.3100000000000023,-1.8365715746300888,-0.0511346564249298,0.8596950843255949
2.3134999999999906,-1.8791837883175309,-0.0617864008498512,0.8767399698005716
2.316999999999993,-1.931383095586177,-0.0756355884644262,0.8767399698005716
2.320499999999996,-1.9697332152402485,-0.0735062867769931,0.8735442719401699
2.323999999999998,-2.0134118251006585,-0.0596570991624181,0.8554329902922247
2.327500000000001,-2.02406356952558,-0.0383501196540714,0.8394545009902167
2.330999999999989,-2.014476475944375,0.0085224427374883,0.8128207766047831
2.334499999999992,-2.008085080223572,0.0351544217936697,0.7893844954090034
2.337999999999994,-1.9953005434527131,0.0862890782185996,0.7574257714757352
2.3414999999999964,-1.9803867049944217,0.1193124529955843,0.7329248394362388
2.344999999999999,-1.9601461216590437,0.1576643179789077,0.7062911150508053
2.3485000000000014,-1.9590814708153272,0.177904901314286,0.6796591359946239
2.3519999999999897,-1.9878444968881936,0.191754088928861,0.644504714200954
2.355499999999992,-2.014476475944375,0.1789695521580025,0.6189373859884891
2.3589999999999947,-2.049630897738045,0.1544686201185061,0.5805872663344177
2.362499999999997,-2.0730671789338246,0.1225098961852379,0.5496931932448661
2.366,-2.109287996900463,0.0596570991624181,0.5070809795574245
2.369500000000002,-2.143377767850416,-0.0106534897541733,0.4783179534845579
2.3729999999999905,-2.190250330241976,-0.0980072188164895,0.4335764381096833
2.376499999999993,-2.2424496375106227,-0.152337573101821,0.4037470158638482
2.3799999999999955,-2.3180869713043006,-0.2226464166891606,0.3824417816847534
2.383499999999998,-2.3809380229978685,-0.2823035158515788,0.3898978282492732
2.3870000000000005,-2.426745934545712,-0.3483520107348002,0.4346410889533998
2.3904999999999887,-2.4352683772832,-0.4144005056180216,0.4783179534845579
2.3939999999999912,-2.441661518333255,-0.5028206308533064,0.5411707505073777
2.3974999999999937,-2.448052914054059,-0.5667380787198427,0.5763251723010476
2.400999999999996,-2.43953047131657,-0.6498314590780407,0.6200020368322057
2.4044999999999987,-2.4278123307186803,-0.6690056462404504,0.6498314590780407
2.4080000000000013,-2.4065053512103334,-0.6668763445530174,0.6785944851509074
2.411499999999989,-2.3777423251374668,-0.6626142505196473,0.6998997193300021
2.414999999999992,-2.3468499973771677,-0.670072042413419,0.725467047542467
2.4184999999999945,-2.3223473200084186,-0.6668763445530174,0.7446429800341288
2.421999999999997,-2.271212663583489,-0.6636806466926157,0.7819284488444836
2.4254999999999995,-2.2158176584544407,-0.6487650629050722,0.8032336830235783
2.429000000000002,-2.1359199759566443,-0.6253287817092923,0.8288010112360433
2.4324999999999903,-2.080524970827597,-0.6072192453905992,0.8415838026776498
2.435999999999993,-2.034717059279753,-0.5944364539489927,0.8469105475547365
2.439499999999996,-2.0070186840506032,-0.5848476150385359,0.8447812458673034
2.442999999999998,-1.966537517379847,-0.5848476150385359,0.8405191518339332
2.4465000000000003,-1.929252048569492,-0.6061545945468827,0.8319967090964449
2.4499999999999886,-1.8919665797591367,-0.6583539018155291,0.8117561257610666
2.453499999999991,-1.885575184038334,-0.7030954171904037,0.7851241467048852
2.4569999999999936,-1.8930329759321056,-0.7851241467048852,0.7510343757549319
2.460499999999996,-1.8930329759321056,-0.8511726415881066,0.7265316983861836
2.463999999999998,-1.8919665797591367,-0.9310703240859032,0.7052264642070888
2.467500000000001,-1.8930329759321056,-1.0035102146899275,0.6871169278883955
2.470999999999989,-1.8759880904571289,-1.0993863864897322,0.6732677402738206
2.474499999999992,-1.848289715227979,-1.1537167407750637,0.6732677402738206
2.4779999999999944,-1.7875679652218444,-1.1984582561499384,0.6647452975363323
2.481499999999997,-1.7119323767574182,-1.2165695377978836,0.6636806466926157
2.4849999999999994,-1.6107294600805269,-1.2325480270998914,0.6562228547988439
2.488500000000002,-1.5404188711639353,-1.2389411681499467,0.6530271569384424
2.4919999999999902,-1.4296288609058392,-1.2506593087478366,0.6604849488322142
2.4954999999999927,-1.3316216420893496,-1.253855006608238,0.6711366932571355
2.4989999999999952,-1.167565928389639,-1.2783559386477348,0.7052264642070888
2.5024999999999977,-1.030142193746109,-1.2911404754185931,0.7307937924195538
2.506,-0.8703468287505163,-1.3135103604414045,0.7510343757549319
2.5094999999999885,-0.767014610386192,-1.3124457095976878,0.7638171671965385
2.512999999999991,-0.6338512244467807,-1.2954008241227113,0.7947112402860901
2.516499999999993,-0.5326483077698895,-1.2708998920832149,0.820278568498555
2.519999999999996,-0.4133358547743051,-1.25705070446864,0.8660864800463982
2.5234999999999985,-0.3270467765557054,-1.2517239595915532,0.9044365997004696
2.527000000000001,-0.2141239739516723,-1.2442661676977815,0.960898001002486
2.5304999999999893,-0.1427504795206162,-1.2346790741165767,0.9907256779190692
2.533999999999992,-0.0777666354811113,-1.21017814207708,1.0248154488690224
2.5374999999999943,-0.0500682602519613,-1.1856754647083318,1.0365335894669123
2.540999999999997,-0.0330233747769847,-1.1292140634063152,1.0493181262377709
2.5444999999999998,-0.0404811666707564,-1.1025820843501335,1.051447427925204
2.548000000000002,-0.0745709376207097,-1.0759501052939522,1.0471870792210858
2.55149999999999,-0.1022693128498597,-1.0503827770814873,1.039729287327314
2.5549999999999926,-0.1257055940456395,-1.0258800997127389,1.0418603343439992
2.558499999999995,-0.1214435000122694,-1.0237507980253058,1.0333378916065108
2.5619999999999976,-0.1267702448893561,-1.016293006131534,1.0290775429023926
2.5655,-0.1203788491685528,-1.002443818516959,1.0194887039919358
2.5690000000000026,-0.0958761717998045,-0.9662247458795729,1.007770563394046
2.572499999999991,-0.0671131457269379,-0.9310703240859032,1.002443818516959
2.5759999999999934,-0.0649838440395048,-0.9161547402983594,1.009901610410731
2.579499999999996,-0.069244192743623,-0.9374617198067065,1.0237507980253058
2.5829999999999984,-0.0681795418999064,-0.9630290480191712,1.0716880112605822
2.586500000000001,-0.0543303542853314,-0.9736807924440926,1.108973480070937
2.589999999999989,-0.0532657034416149,-0.9811385843378644,1.1537167407750637
2.593499999999992,-0.0862890782185996,-0.9822032351815808,1.1792840689875286
2.596999999999994,-0.1651203645434275,-0.984334282198266,1.1952625582895369
2.6004999999999967,-0.2418223491808223,-0.9768764903044942,1.21017814207708
2.603999999999999,-0.3483520107348002,-0.9385263706504228,1.2123074437645132
2.6075000000000017,-0.4335764381096833,-0.905502995873438,1.2133738399374818
2.61099999999999,-0.5539552872782363,-0.861824386013028,1.22935232923949
2.6144999999999925,-0.6338512244467807,-0.820278568498555,1.2463972147144666
2.617999999999995,-0.6913772765925138,-0.8000379851631767,1.273029193770648
2.621499999999997,-0.7041618133633722,-0.8053647300402634,1.2954008241227113
2.625,-0.7201403026653803,-0.8319967090964449,1.3135103604414045
2.6285000000000025,-0.7148135577882937,-0.8522372924318231,1.3124457095976878
2.631999999999991,-0.6722030894301041,-0.8586286881526264,1.3135103604414045
2.6354999999999933,-0.5986968026531109,-0.8660864800463982,1.3092500117372865
2.638999999999996,-0.4729912086074713,-0.8703468287505163,1.290074079245625
2.6424999999999983,-0.3760503859639502,-0.8564993864651933,1.2772912878040183
2.646000000000001,-0.2311688594266489,-0.8383881048172481,1.2517239595915532
2.649499999999989,-0.1075943123976944,-0.8469105475547365,1.253855006608238
2.652999999999992,0.0788312863248278,-0.8778046206442881,1.2559843082956712
2.656499999999994,0.2226464166891606,-0.9001762509963515,1.2666377980498449
2.6599999999999966,0.4207919013388249,-0.9417220685108244,1.2783559386477348
2.663499999999999,0.5603466829990394,-0.968355792896258,1.28048698566442
2.6670000000000016,0.7009661155029706,-1.0109662612544474,1.2783559386477348
2.67049999999999,0.80642938088398,-1.0290775429023926,1.2858137305415065
2.6739999999999924,0.933199625773336,-1.0770147561376688,1.2911404754185931
2.677499999999995,1.002443818516959,-1.122822667685512,1.3028586160164832
2.6809999999999974,1.0780811523106375,-1.1835444176916468,1.3369483869664365
2.6845,1.131345110423,-1.2421368660103485,1.3752985066205077
2.6880000000000024,1.2091117459041116,-1.3252302463685464,1.4221710690120672
2.6914999999999907,1.2517239595915532,-1.399799438660004,1.4583918869787058
2.694999999999993,1.2655731472061282,-1.492481657928659,1.483959215191171
2.698499999999996,1.253855006608238,-1.5563991057951954,1.4914152617556906
2.701999999999998,1.2240255843624033,-1.60540271520344,1.490350610911974
2.7055000000000007,1.1984582561499384,-1.6437528348575114,1.4882195638952889
2.708999999999989,1.1462589488812918,-1.7076702827240478,1.4882195638952889
2.7124999999999915,1.1185623189813938,-1.7513488925844578,1.482892819018202
2.715999999999994,1.1015174335064173,-1.8408336686634592,1.4701100275765957
2.7194999999999965,1.079145803154354,-1.9100778614070824,1.4583918869787058
2.722999999999999,1.067427662556464,-1.9516236789215555,1.4253667668724692
2.726500000000001,1.0759501052939522,-1.972930658429902,1.3944744391121693
2.7299999999999898,1.0855371988751572,-1.9953005434527131,1.3369483869664365
2.7334999999999923,1.0855371988751572,-1.9857134498715088,1.286878381385223
2.7369999999999948,1.092994990768929,-1.9612107725027603,1.215503141624915
2.7404999999999973,1.1057777822105357,-1.946296934044469,1.167565928389639
2.744,1.122822667685512,-1.881314835334216,1.1015174335064173
2.7475000000000023,1.1462589488812918,-1.7960904079593327,1.065296615539779
2.7509999999999906,1.1995246523229068,-1.700214236159528,1.002443818516959
2.754499999999993,1.2378747719769785,-1.6235122515221332,0.970485094583691
2.757999999999996,1.275160240787333,-1.5159179391244388,0.9108279954212728
2.761499999999998,1.2922051262623095,-1.4381513036433275,0.8714132249234848
2.765000000000001,1.3209681523351764,-1.3273595480559794,0.8224096155152401
2.768499999999989,1.3667760638830195,-1.24533256387075,0.8011026360068932
2.771999999999992,1.4200400219953824,-1.1622391835125518,0.7787327509840819
2.775499999999994,1.4615875848391076,-1.1164312719647087,0.7744706569507118
2.7789999999999964,1.5393542203202186,-1.065296615539779,0.7861887975486017
2.782499999999999,1.61712085580133,-1.0621009176793774,0.8096250787443816
2.7860000000000014,1.7311083092490798,-1.1025820843501335,0.8522372924318231
2.7894999999999897,1.8248534340321991,-1.1622391835125518,0.8873917142254929
2.792999999999992,1.929252048569492,-1.2762248916310497,0.9182857873150446
2.7964999999999947,1.9793220541507053,-1.353991527112161,0.9321349749296196
2.799999999999997,2.0304567105756357,-1.4445426993641308,0.9417220685108244
2.8035,2.06348008535262,-1.512722241264037,0.9459841625441944
2.807000000000002,2.0847853195317145,-1.606467366047157,0.9481134642316276
2.8104999999999905,2.065611132369305,-1.6789072566511811,0.9545066052816829
2.813999999999993,2.0166075229610603,-1.7332376109365126,0.956635906969116
2.8174999999999955,1.9590814708153272,-1.781176569501041,0.9481134642316276
2.820999999999998,1.8280491318926009,-1.8461604135405456,0.9459841625441944
2.8245000000000005,1.7076702827240478,-1.8834458823509008,0.9491798604045962
2.8279999999999887,1.5574637566389118,-1.915404606284169,0.956635906969116
2.8314999999999912,1.4477383972245323,-1.936709840463264,0.9640936988628878
2.8349999999999937,1.261311053172758,-1.9494926319048704,0.9555712561253994
2.838499999999996,1.122822667685512,-1.9399055383236647,0.9502445112483128
2.8419999999999987,0.9555712561253994,-1.929252048569492,0.9459841625441944
2.8455000000000013,0.847976943727705,-1.922860652848689,0.940657417667108
2.848999999999989,0.7297291415758372,-1.9239270490216571,0.9417220685108244
2.852499999999992,0.6562228547988439,-1.9324494917591453,0.9342660219463046
2.8559999999999945,0.5901743599156226,-1.9345787934465783,0.928939277069218
2.859499999999997,0.5624759846864725,-1.9260563507090904,0.9236125321921312
2.8629999999999995,0.5699337765802444,-1.936709840463264,0.9076322975608712
2.866500000000002,0.5784562193177326,-1.945232283200752,0.8959141569629812
2.8699999999999903,0.6104149432510009,-1.9548193767819568,0.8873917142254929
2.873499999999993,0.6519625060947258,-1.9782556579777368,0.8703468287505163
2.876999999999996,0.7446429800341288,-2.0293903144026664,0.8533036886047917
2.880499999999998,0.8149518236214683,-2.059219736648502,0.8341277561131301
2.8840000000000003,0.9140254386109264,-2.085851715704683,0.7957776364590586
2.8874999999999886,1.000314516829526,-2.096503460129605,0.7702103082465936
2.890999999999991,1.1079088292272203,-2.121006137498353,0.7393162351570419
2.8944999999999936,1.1771530219708437,-2.139115673817046,0.7212066988383489
2.897999999999996,1.259181751485325,-2.141246720833731,0.6945729744529154
2.901499999999998,1.3209681523351764,-2.139115673817046,0.6828548338550254
2.905000000000001,1.3944744391121693,-2.157226955464991,0.6636806466926157
2.908499999999989,1.4221710690120672,-2.1913149810856924,0.6370469223071823
2.911999999999992,1.407257230553776,-2.2040995178565512,0.5933700577760241
2.9154999999999944,1.390212345078799,-2.1593562571524245,0.5528888911052677
2.918999999999997,1.390212345078799,-2.0730671789338246,0.4996249329929048
2.9224999999999994,1.3763631574642243,-2.0251299656985484,0.4570127193054631
2.926000000000002,1.3444044335309562,-1.9505590280778389,0.4080091098972184
2.9294999999999902,1.2932697771060262,-1.894097626775822,0.369657244913895
2.9329999999999927,1.2272212822228048,-1.808874944730191,0.3302424744161071
2.9364999999999952,1.1771530219708437,-1.7311083092490798,0.3238510786953038
2.9399999999999977,1.1196269698251105,-1.6341657412763066,0.3217200316786187
2.9435,1.079145803154354,-1.5787707361472587,0.3345028231202252
2.9469999999999885,1.0269464958857075,-1.5095265434036358,0.3632658491930918
2.950499999999991,0.9896610270753528,-1.482892819018202,0.3930952714389268
2.953999999999993,0.9204168343317296,-1.4669143297161942,0.4367721359700849
2.957499999999996,0.8714132249234848,-1.4626522356828238,0.4740576047804398
2.9609999999999985,0.8245406625319252,-1.4658479335432255,0.5486285424011496
2.964500000000001,0.8192139176548384,-1.4850238660348871,0.605088198373914
2.9679999999999893,0.8234742663589566,-1.5244403818619272,0.6881815787321122
2.971499999999992,0.8405191518339332,-1.569181897236802,0.7457076308778453
2.9749999999999943,0.8564993864651933,-1.6181855066450466,0.8085604279006651
2.978499999999997,0.8682175270630832,-1.6639934181928897,0.8394545009902167
2.9819999999999998,0.8841960163650913,-1.737499704969883,0.8543683394485082
2.985500000000002,0.8841960163650913,-1.781176569501041,0.8607597351693115
2.98899999999999,0.8948495061192646,-1.811004246417624,0.8522372924318231
2.9924999999999926,0.9150900894546428,-1.8195266891551125,0.8490415945714216
2.995999999999995,0.9246771830358478,-1.811004246417624,0.8330613599401614
2.9994999999999976,0.9246771830358478,-1.795025757115616,0.8266699642193582
3.003,0.9236125321921312,-1.7609359861656628,0.80642938088398
3.0065000000000026,0.917221136471328,-1.7470867985510878,0.7979069381464917
3.009999999999991,0.8831313655213747,-1.7172591216345048,0.7723396099340267
3.0134999999999934,0.84584589671102,-1.6874296993886695,0.753165422771617
3.016999999999996,0.780862052671515,-1.65653737162837,0.7265316983861836
3.0204999999999984,0.7318584432632703,-1.6213812045054483,0.7148135577882937
3.024000000000001,0.6764634381342222,-1.5563991057951954,0.7009661155029706
3.027499999999989,0.6572875056425604,-1.504199798526549,0.6988350684862855
3.030999999999992,0.642373667184269,-1.4370849074703589,0.7052264642070888
3.034499999999994,0.6381133184801508,-1.390212345078799,0.709488558240459
3.0379999999999967,0.628524479569694,-1.3252302463685464,0.7116178599278921
3.041499999999999,0.6274598287259775,-1.2634421001894431,0.7180110009779472
3.0450000000000017,0.6466357612176391,-1.1686305792333551,0.7307937924195538
3.04849999999999,0.6562228547988439,-1.108973480070937,0.7457076308778453
3.0519999999999925,0.6753987872905056,-1.0407956835002825,0.7702103082465936
3.055499999999995,0.6892479749050807,-1.0130973082711323,0.7989733343194602
3.058999999999997,0.7222713496820654,-0.9875299800586675,0.8426501988506182
3.0625,0.7307937924195538,-0.958766953985801,0.8692821779067997
3.0660000000000025,0.7382515843133254,-0.9321349749296196,0.8927184591025796
3.069499999999991,0.7574257714757352,-0.9513109074212812,0.9097633445775564
3.0729999999999933,0.7702103082465936,-0.9896610270753528,0.9161547402983594
3.076499999999996,0.7744706569507118,-1.0173594023045027,0.921481485175446
3.0799999999999983,0.8117561257610666,-1.063165568523094,0.9193504381587612
3.083500000000001,0.8628907821859965,-1.0908639437522438,0.9161547402983594
3.086999999999989,0.9140254386109264,-1.138802902316772,0.9044365997004696
3.090499999999992,0.952375558264998,-1.1792840689875286,0.889522761242178
3.093999999999994,0.9981834698128408,-1.2378747719769785,0.8607597351693115
3.0974999999999966,1.0194887039919358,-1.2858137305415065,0.8319967090964449
3.100999999999999,1.035468938623196,-1.351862225424728,0.7840577505319166
3.1045000000000016,1.0503827770814873,-1.3827562985142796,0.7425119330174437
3.10799999999999,1.0610362668356608,-1.4285624647328707,0.6796591359946239
3.1114999999999924,1.0525138240981724,-1.4733057254369972,0.6242641308655758
3.114999999999995,1.0184240531482192,-1.5073954963869507,0.5443664483677794
3.1184999999999974,1.009901610410731,-1.518048986141124,0.4825800475179281
3.122,1.0109662612544474,-1.52656968354936,0.4058780628805333
3.1255000000000024,1.0056395163773606,-1.522309334845242,0.3472873598910836
3.1289999999999907,0.968355792896258,-1.5116558450910689,0.2673896773932873
3.132499999999993,0.942788464683793,-1.4956773557890606,0.2162550209683574
3.135999999999996,0.9150900894546428,-1.4722410745932808,0.1544686201185061
3.139499999999998,0.8863270633817765,-1.4658479335432255,0.1214435000122694
3.1430000000000007,0.8351924069568466,-1.464783282699509,0.0852244273748831
3.146499999999989,0.8000379851631767,-1.448803048068249,0.0628527970228197
3.1499999999999915,0.7648835633695069,-1.4296288609058392,0.0468725623915597
3.153499999999994,0.7403808860007585,-1.4253667668724692,0.041545817514473
3.1569999999999965,0.7020307663466872,-1.427497813889154,0.0394165158270399
3.160499999999999,0.6817901830113089,-1.4402806053307606,0.0458079115478431
3.164000000000001,0.670072042413419,-1.4434780485204144,0.0820287295144815
3.1674999999999898,0.6775280889779387,-1.4381513036433275,0.1043986145372928
3.1709999999999923,0.7073575112237738,-1.4402806053307606,0.136357338470561
3.1744999999999948,0.727598094559152,-1.4701100275765957,0.1587289688226243
3.1779999999999973,0.7489033287382468,-1.525505032705644,0.2002765316663493
3.1815,0.7766017039673969,-1.5574637566389118,0.2301042085829324
3.1850000000000023,0.8501062454151381,-1.5809000378346918,0.2780431671474606
3.1884999999999906,0.9236125321921312,-1.6288389963992198,0.3078708440640437
3.191999999999993,1.0056395163773606,-1.7044745848636462,0.3504830577514853
3.195499999999996,1.0567741728022906,-1.735368657953198,0.3707236410868635
3.198999999999998,1.1686305792333551,-1.7470867985510878,0.397355620143045
3.202500000000001,1.24533256387075,-1.7705230797468676,0.4016177141764152
3.205999999999989,1.2911404754185931,-1.8173973874676796,0.4122694586013365
3.209499999999992,1.3060543138768848,-1.841898319507176,0.4101401569139035
3.212999999999994,1.3390776886538696,-1.844029366523861,0.4165315526347067
3.2164999999999964,1.356122574128846,-1.8472250643842625,0.4144005056180216
3.219999999999999,1.3412087356705549,-1.8695966947363256,0.4165315526347067
3.2235000000000014,1.3220328031788928,-1.8887708818987357,0.4186608543221398
3.2269999999999897,1.289009428401908,-1.915404606284169,0.4080091098972184
3.230499999999992,1.2432015168540649,-1.9377744913069803,0.4101401569139035
3.2339999999999947,1.1910022095854185,-1.9590814708153272,0.4058780628805333
3.237499999999997,1.1686305792333551,-1.9580150746423584,0.4058780628805333
3.241,1.1281494125625986,-1.9494926319048704,0.4037470158638482
3.244500000000002,1.0866035950481256,-1.9431012361840672,0.3856374795451551
3.2479999999999905,1.0461224283773694,-1.933514142602862,0.3771150368076668
3.251499999999993,1.0130973082711323,-1.9239270490216571,0.369657244913895
3.2549999999999955,0.9672893967232892,-1.922860652848689,0.3547434064556034
3.258499999999998,0.9300039279129344,-1.913273559267484,0.3366338701369103
3.2620000000000005,0.8820667146776582,-1.8919665797591367,0.316393286801532
3.2654999999999887,0.8607597351693115,-1.8706613455800425,0.2940216564494687
3.2689999999999912,0.8575640373089098,-1.8355069237863724,0.2535404897787122
3.2724999999999937,0.863955433029713,-1.7982214549760178,0.2226464166891606
3.275999999999996,0.8778046206442881,-1.7406954028302846,0.1757738542976009
3.2794999999999987,0.8959141569629812,-1.6853003977012364,0.1299659427497577
3.2830000000000013,0.9225478813484148,-1.61712085580133,0.0809623333415129
3.286499999999989,0.9321349749296196,-1.5745086421138883,0.0426122136874415
3.289999999999992,0.947048813387911,-1.522309334845242,0.0
3.2934999999999945,0.9598333501587696,-1.4871549130515724,-0.0202405833353782
3.296999999999997,0.9822032351815808,-1.460522933995391,-0.0426122136874415
3.3004999999999995,0.9790075373211792,-1.4615875848391076,-0.0596570991624181
3.304000000000002,0.9651583497066044,-1.4573254908057371,-0.0809623333415129
3.3074999999999903,0.956635906969116,-1.453065142101619,-0.0916158230956863
3.310999999999993,0.9481134642316276,-1.4626522356828238,-0.1043986145372928
3.314499999999996,0.9363953236337376,-1.4711746784203124,-0.1161167551351827
3.317999999999998,0.917221136471328,-1.4882195638952889,-0.1225098961852379
3.3215000000000003,0.8991098548233829,-1.4914152617556906,-0.124639197872671
3.3249999999999886,0.8746089227838865,-1.4999377044931788,-0.1129210572747811
3.328499999999991,0.863955433029713,-1.504199798526549,-0.0894847760790012
3.3319999999999936,0.8405191518339332,-1.5148515429514704,-0.0575260521457331
3.335499999999996,0.8277363603923268,-1.5148515429514704,-0.0245026773687483
3.338999999999998,0.8096250787443816,-1.5244403818619272,0.0106534897541733
3.342500000000001,0.7957776364590586,-1.5372231733035338,0.0319587239332681
3.345999999999989,0.7638171671965385,-1.5563991057951954,0.0575260521457331
3.349499999999992,0.7361205372966404,-1.571312944253487,0.0735062867769931
3.3529999999999944,0.7425119330174437,-1.5819664340076602,0.0926804739394028
3.356499999999997,0.767014610386192,-1.5947492254492668,0.1171831513081512
3.3599999999999994,0.8341277561131301,-1.6309700434159051,0.1193124529955843
3.363500000000002,0.8873917142254929,-1.6735822571033467,0.1171831513081512
3.3669999999999902,0.972616141600376,-1.719388423321938,0.1065296615539778
3.3704999999999927,1.0546431257856057,-1.7449557515344027,0.0905494269227178
3.3739999999999952,1.1728926732667255,-1.771589475919836,0.0671131457269379
3.3774999999999977,1.2389411681499467,-1.7886343613948128,0.0447432607041266
3.381,1.3049879177039163,-1.802481803680136,0.0053267448770866
3.3844999999999885,1.3358819907934678,-1.8078085485572224,-0.0181095363186931
3.387999999999991,1.3433397826872395,-1.811004246417624,-0.0511346564249298
3.391499999999993,1.3220328031788928,-1.825918084875916,-0.0777666354811113
3.394999999999996,1.2506593087478366,-1.852551809261349,-0.1150521042914662
3.3984999999999985,1.167565928389639,-1.8632035536862703,-0.136357338470561
3.402000000000001,1.0503827770814873,-1.857878554138436,-0.1715135055934827
3.4054999999999893,0.9619626518462028,-1.8450940173675772,-0.1885583910684593
3.408999999999992,0.8437148496943347,-1.8376379708030577,-0.205601531214184
3.4124999999999943,0.753165422771617,-1.8312448297530024,-0.2173214171413259
3.415999999999997,0.6381133184801508,-1.818462038311396,-0.2322352555996175
3.4194999999999998,0.5571509851386378,-1.8014171528364191,-0.2364956043037356
3.423000000000002,0.4655351620429515,-1.769458428903151,-0.2492801410745941
3.42649999999999,0.3984202709867616,-1.7428264498469697,-0.2439533961975074
3.4299999999999926,0.3302424744161071,-1.7076702827240478,-0.247149094057909
3.433499999999995,0.3014794483432405,-1.6789072566511811,-0.2322352555996175
3.4369999999999976,0.2801724688348938,-1.64055713699711,-0.2173214171413259
3.4405,0.2759121201307756,-1.6288389963992198,-0.2119946722642392
3.4440000000000026,0.2854992137119804,-1.6075337622201251,-0.2034722295267509
3.447499999999991,0.3110665419244454,-1.5915535275888653,-0.1981454846496642
3.4509999999999934,0.3611348021764067,-1.5745086421138883,-0.2109282760912707
3.454499999999996,0.3984202709867616,-1.5681172463930857,-0.2173214171413259
3.4579999999999984,0.4665998128866681,-1.563855152359715,-0.233299906443334
3.461500000000001,0.5219948180157161,-1.5606594544993135,-0.2450180470412239
3.464999999999989,0.5955011047927092,-1.5595948036555969,-0.2546051406224288
3.468499999999992,0.6487650629050722,-1.5478766630577072,-0.2695207244099723
3.471999999999994,0.713748906944577,-1.5446809651973052,-0.2812388650078622
3.4754999999999967,0.7478386778945303,-1.5436145690243368,-0.2972173543098703
3.478999999999999,0.7861887975486017,-1.5287007305660454,-0.3217200316786187
3.4825000000000017,0.8053647300402634,-1.5329628245994156,-0.3440916620306821
3.48599999999999,0.8000379851631767,-1.5329628245994156,-0.3781796876513833
3.4894999999999925,0.7925801932694049,-1.525505032705644,-0.4016177141764152
3.492999999999995,0.7734060061069953,-1.520178287828557,-0.4282496932325966
3.496499999999997,0.7435765838611602,-1.5233739856889583,-0.4442281825346047
3.5,0.6892479749050807,-1.5169825899681555,-0.452750625272093
3.5035000000000025,0.6604849488322142,-1.5105911942473522,-0.4612730680095813
3.506999999999991,0.6125459902676859,-1.5084601472306671,-0.4570127193054631
3.5104999999999933,0.5848476150385359,-1.525505032705644,-0.4634041150262664
3.513999999999996,0.5262569120490862,-1.5745086421138883,-0.4836446983616446
3.5174999999999983,0.4793843496575265,-1.6107294600805269,-0.4942981881158181
3.521000000000001,0.4420988808471717,-1.652275277595,-0.5124077244345112
3.524499999999989,0.4378367868138015,-1.6746469079470632,-0.5241258650324012
3.527999999999992,0.4516859744283765,-1.7140634237741033,-0.5305172607532044
3.531499999999994,0.4623394641825499,-1.7417600536740012,-0.5401060996636612
3.5349999999999966,0.4783179534845579,-1.772654126763553,-0.5486285424011496
3.538499999999999,0.4825800475179281,-1.7854369182051593,-0.5539552872782363
3.5420000000000016,0.4900360940824479,-1.811004246417624,-0.5539552872782363
3.54549999999999,0.4868403962220463,-1.8312448297530024,-0.5550199381219528
3.5489999999999924,0.4900360940824479,-1.8642699498592392,-0.5560845889656694
3.552499999999995,0.4825800475179281,-1.894097626775822,-0.5752605214573311
3.5559999999999974,0.4676662090596366,-1.913273559267484,-0.5944364539489927
3.5595,0.464468765869983,-1.9186003041445707,-0.6200020368322057
3.5630000000000024,0.4974938859762197,-1.9303184447424608,-0.6551582039551274
3.5664999999999907,0.5326483077698895,-1.945232283200752,-0.6828548338550254
3.569999999999993,0.5880433128989375,-1.9516236789215555,-0.7158799539612621
3.573499999999996,0.6327865736030641,-1.9484279810611536,-0.7403808860007585
3.576999999999998,0.6998997193300021,-1.945232283200752,-0.767014610386192
3.5805000000000007,0.7361205372966404,-1.9494926319048704,-0.7797974018277984
3.583999999999989,0.7563611206320187,-1.9580150746423584,-0.7936465894423735
3.5874999999999915,0.7552947244590501,-1.966537517379847,-0.7925801932694049
3.590999999999994,0.7361205372966404,-1.9803867049944217,-0.7936465894423735
3.5944999999999965,0.7073575112237738,-1.992104845592312,-0.7936465894423735
3.597999999999999,0.6349176206197492,-2.014476475944375,-0.7915155424256883
3.601500000000001,0.5720648235969293,-2.0134118251006585,-0.7829930996882002
3.6049999999999898,0.4932317919428495,-2.0059540332068866,-0.7648835633695069
3.608499999999992,0.4410324846742031,-1.9963669396256816,-0.7563611206320187
3.6119999999999943,0.3877685265618402,-1.9782556579777368,-0.7339894902799553
3.615499999999997,0.3611348021764067,-1.9676039135528156,-0.7148135577882937
3.619,0.3355692192931938,-1.9878444968881936,-0.7041618133633722
3.6225000000000014,0.3121311927681619,-1.9974315904693984,-0.7009661155029706
3.625999999999991,0.3057397970473587,-1.9782556579777368,-0.7062911150508053
3.629499999999993,0.316393286801532,-1.9676039135528156,-0.7126842561008605
3.632999999999996,0.3270467765557054,-1.944167632357036,-0.7286627454028686
3.636499999999998,0.3440916620306821,-1.9239270490216571,-0.7446429800341288
3.640000000000001,0.3877685265618402,-1.905815767373712,-0.7627525163528219
3.643499999999989,0.4069427137242498,-1.8930329759321056,-0.7755353077944284
3.646999999999992,0.4335764381096833,-1.8781191374738144,-0.7925801932694049
3.650499999999994,0.4580773701491797,-1.8695966947363256,-0.8011026360068932
3.653999999999997,0.5006895838366213,-1.873857043440444,-0.8021690321798618
3.657499999999999,0.517734469311598,-1.885575184038334,-0.81069147491735
3.661000000000002,0.5347793547865746,-1.8951640229487907,-0.8160182197944368
3.6644999999999897,0.5486285424011496,-1.897293324636224,-0.8117561257610666
3.667999999999992,0.5656734278761262,-1.900489022496625,-0.8085604279006651
3.671499999999994,0.5646070317031576,-1.9143382101112003,-0.7989733343194602
3.674999999999997,0.5678027295635593,-1.921796002004972,-0.7829930996882002
3.6785,0.5646070317031576,-1.913273559267484,-0.767014610386192
3.682000000000002,0.561411333842756,-1.920729605832004,-0.7446429800341288
3.6854999999999913,0.5433017975240628,-1.921796002004972,-0.7158799539612621
3.688999999999993,0.5156034222949128,-1.915404606284169,-0.6871169278883955
3.692499999999996,0.4985585368199362,-1.903686465686279,-0.6647452975363323
3.695999999999998,0.4708619069200382,-1.8887708818987357,-0.6391779693238674
3.699500000000001,0.4474238803950063,-1.8781191374738144,-0.6200020368322057
3.7029999999999887,0.4271832970596281,-1.866400996875924,-0.6125459902676859
3.7064999999999912,0.4154651564617382,-1.8706613455800425,-0.6136106411114024
3.7099999999999937,0.3856374795451551,-1.8866415802113023,-0.6157416881280875
3.713499999999996,0.3739193389472651,-1.8642699498592392,-0.628524479569694
3.716999999999999,0.41120480775762,-1.811004246417624,-0.6466357612176391
3.720500000000001,0.4570127193054631,-1.7822412203447575,-0.6668763445530174
3.7239999999999895,0.4974938859762197,-1.7609359861656628,-0.6892479749050807
3.727499999999992,0.5326483077698895,-1.743891100690686,-0.7073575112237738
3.7309999999999945,0.5891097090719061,-1.705540981036615,-0.7265316983861836
3.734499999999997,0.6381133184801508,-1.6821046998408349,-0.7339894902799553
3.738,0.6828548338550254,-1.6703848139136932,-0.7446429800341288
3.741500000000002,0.6945729744529154,-1.66825551222626,-0.7457076308778453
3.7449999999999903,0.6924436727654824,-1.652275277595,-0.7574257714757352
3.748499999999993,0.6849858808717105,-1.652275277595,-0.7638171671965385
3.7519999999999953,0.6508961099217573,-1.6607977203324882,-0.7659482142132235
3.755499999999998,0.6221330838488908,-1.6639934181928897,-0.7648835633695069
3.759,0.5795208701614492,-1.6735822571033467,-0.7638171671965385
3.7624999999999886,0.5422354013510943,-1.6831693506845515,-0.7574257714757352
3.765999999999991,0.4964292351325031,-1.6874296993886695,-0.7499697249112154
3.7694999999999936,0.4591437663221482,-1.6821046998408349,-0.7393162351570419
3.772999999999996,0.4144005056180216,-1.6799736528241498,-0.7307937924195538
3.776499999999999,0.3685925940701784,-1.6618641165054566,-0.7212066988383489
3.780000000000001,0.3036087500306735,-1.642688184013795,-0.7084221620674903
3.783499999999989,0.2716500260974054,-1.624578647695102,-0.6913772765925138
3.786999999999992,0.2418223491808223,-1.587293178884747,-0.6732677402738206
3.7904999999999935,0.2109282760912707,-1.5563991057951954,-0.6647452975363323
3.793999999999997,0.1874919948954908,-1.518048986141124,-0.6711366932571355
3.7975,0.1768385051413174,-1.4935463087723757,-0.6807255321675924
3.801000000000002,0.1555332709622227,-1.4498694442412174,-0.7062911150508053
3.8044999999999902,0.1629910628559944,-1.395539089955886,-0.725467047542467
3.8079999999999927,0.2109282760912707,-1.3156414074580896,-0.7414472821737271
3.8114999999999952,0.2599318854995155,-1.28048698566442,-0.7584921676487036
3.8149999999999977,0.3100018910807288,-1.2432015168540649,-0.7797974018277984
3.8185,0.3515477085952018,-1.208047095060395,-0.7893844954090034
3.821999999999989,0.4165315526347067,-1.1654348813729536,-0.8074957770569485
3.825499999999991,0.4463592295512898,-1.1377365061438036,-0.8319967090964449
3.8289999999999935,0.4516859744283765,-1.122822667685512,-0.8596950843255949
3.832499999999996,0.4325100419367148,-1.1153666211209925,-0.8820667146776582
3.8359999999999994,0.4080091098972184,-1.1036484805231024,-0.9023072980130364
3.839500000000001,0.3845728287014385,-1.0993863864897322,-0.9161547402983594
3.842999999999989,0.3568744534722885,-1.1025820843501335,-0.9278728808962494
3.846499999999992,0.3334381722765087,-1.1238890638584804,-0.9321349749296196
3.8499999999999934,0.3195889846619337,-1.157977089479182,-0.933199625773336
3.853499999999997,0.3174579376452486,-1.1814151160042137,-0.9268082300525328
3.8569999999999993,0.3206536355056502,-1.2165695377978836,-0.9193504381587612
3.860500000000002,0.3259803803827369,-1.2517239595915532,-0.9118943915942412
3.86399999999999,0.3398295679973119,-1.3156414074580896,-0.901240901840068
3.8674999999999926,0.3472873598910836,-1.3689071108997044,-0.8948495061192646
3.870999999999995,0.3632658491930918,-1.4445426993641308,-0.8778046206442881
3.8744999999999976,0.3845728287014385,-1.4892859600682575,-0.8650218292026817
3.878,0.4165315526347067,-1.534027475443132,-0.8607597351693115
3.881499999999989,0.4442281825346047,-1.57770433997429,-0.8543683394485082
3.884999999999991,0.464468765869983,-1.6235122515221332,-0.861824386013028
3.8884999999999934,0.4783179534845579,-1.64055713699711,-0.8628907821859965
3.891999999999996,0.5102766774178261,-1.648014928890882,-0.8724778757672014
3.8954999999999984,0.5347793547865746,-1.6512106267512834,-0.8863270633817765
3.899000000000001,0.533712958613606,-1.65653737162837,-0.9108279954212728
3.902499999999989,0.5294526099094878,-1.6554709754554016,-0.933199625773336
3.905999999999992,0.5358440056302911,-1.6597330694887715,-0.952375558264998
3.909499999999994,0.5390397034906926,-1.6639934181928897,-0.9811385843378644
3.9129999999999967,0.519865516328283,-1.6714512100866616,-1.0173594023045027
3.916499999999999,0.5187991201553145,-1.6639934181928897,-1.0280111467294242
3.9200000000000017,0.5273215628928027,-1.6576020224720869,-1.0461224283773694
3.92349999999999,0.5283879590657713,-1.6671891160532917,-1.051447427925204
3.926999999999993,0.5124077244345112,-1.686365048544953,-1.0567741728022906
3.930499999999995,0.508147375730393,-1.6853003977012364,-1.0471870792210858
3.9339999999999975,0.508147375730393,-1.7012788870032447,-1.0280111467294242
3.9375,0.503885281697023,-1.7225858665115914,-1.0035102146899275
3.9410000000000025,0.4868403962220463,-1.7481531947240565,-0.9758118394607777
3.944499999999991,0.464468765869983,-1.765196334869781,-0.958766953985801
3.947999999999993,0.4378367868138015,-1.7865033143781277,-0.933199625773336
3.951499999999996,0.41120480775762,-1.802481803680136,-0.9086986937338396
3.9549999999999983,0.3877685265618402,-1.818462038311396,-0.8767399698005716
3.958500000000001,0.3867021303888716,-1.8365715746300888,-0.8554329902922247
3.961999999999989,0.3824417816847534,-1.8472250643842625,-0.836258803129815
3.965499999999992,0.3856374795451551,-1.873857043440444,-0.8437148496943347
3.968999999999994,0.3813771308410369,-1.8909019289154203,-0.8575640373089098
3.9724999999999966,0.3888331774055567,-1.8770527413008455,-0.8746089227838865
3.975999999999999,0.4133358547743051,-1.826984481048884,-0.9140254386109264
3.9795000000000016,0.4452945787075733,-1.7875679652218444,-0.942788464683793
3.98299999999999,0.4783179534845579,-1.737499704969883,-0.972616141600376
3.986499999999992,0.5017542346803379,-1.684234001528268,-1.000314516829526
3.989999999999995,0.5294526099094878,-1.6320346942596218,-1.021619751008621
3.993499999999997,0.5507578440885826,-1.5478766630577072,-1.0429249851877156
3.997,0.5773915684740161,-1.4658479335432255,-1.0503827770814873
4.000500000000002,0.5859140112115044,-1.407257230553776,-1.053578474941889
4.003999999999991,0.5816519171781342,-1.3273595480559794,-1.0503827770814873
4.007499999999993,0.5582156359823544,-1.2740955899436164,-1.0461224283773694
4.010999999999996,0.5187991201553145,-1.21017814207708,-1.0205551001649042
4.014499999999998,0.4825800475179281,-1.1686305792333551,-0.9907256779190692
4.018000000000001,0.425053995372195,-1.145194298037575,-0.9459841625441944
4.021499999999989,0.3952245731263599,-1.1473253450542604,-0.9097633445775564
4.024999999999992,0.3707236410868635,-1.1590434856521503,-0.8746089227838865
4.028499999999994,0.3515477085952018,-1.1856754647083318,-0.8288010112360433
4.0319999999999965,0.3622011983493752,-1.2165695377978836,-0.8011026360068932
4.035499999999999,0.3920288752659583,-1.2879447775581916,-0.7595568184924202
4.0390000000000015,0.4218582975117934,-1.3369483869664365,-0.7286627454028686
4.04249999999999,0.4932317919428495,-1.4179107203079493,-0.6807255321675924
4.045999999999992,0.5805872663344177,-1.5031334023535805,-0.6349176206197492
4.049499999999995,0.6338512244467807,-1.563855152359715,-0.6018925005135125
4.052999999999997,0.7105532090841755,-1.652275277595,-0.5795208701614492
4.0565,0.7552947244590501,-1.725781564371993,-0.5688691257365278
4.060000000000002,0.7893844954090034,-1.7960904079593327,-0.5720648235969293
4.063499999999991,0.8149518236214683,-1.8759880904571289,-0.5859140112115044
4.066999999999993,0.8266699642193582,-1.913273559267484,-0.6125459902676859
4.070499999999996,0.8351924069568466,-1.9537547259382404,-0.6572875056425604
4.073999999999998,0.8405191518339332,-1.9612107725027603,-0.6913772765925138
4.077500000000001,0.8533036886047917,-1.97719100713402,-0.7403808860007585
4.080999999999989,0.8511726415881066,-1.9835824028548237,-0.7797974018277984
4.084499999999991,0.8415838026776498,-1.9718642622569336,-0.8277363603923268
4.087999999999994,0.8319967090964449,-1.9271227468820589,-0.861824386013028
4.091499999999996,0.8213432193422715,-1.865334600702956,-0.8884581103984615
4.094999999999999,0.7925801932694049,-1.808874944730191,-0.9108279954212728
4.098500000000001,0.7435765838611602,-1.7545445904448598,-0.917221136471328
4.10199999999999,0.709488558240459,-1.7012788870032447,-0.9140254386109264
4.105499999999992,0.642373667184269,-1.6181855066450466,-0.889522761242178
4.108999999999995,0.602958896686481,-1.5627905015159986,-0.8650218292026817
4.112499999999997,0.5507578440885826,-1.5052644493702656,-0.8149518236214683
4.116,0.5156034222949128,-1.4615875848391076,-0.7904508915819718
4.119500000000002,0.4676662090596366,-1.421106418168351,-0.7435765838611602
4.122999999999991,0.4367721359700849,-1.395539089955886,-0.7148135577882937
4.126499999999993,0.4080091098972184,-1.3657114130393029,-0.6572875056425604
4.129999999999996,0.4037470158638482,-1.351862225424728,-0.6178727351447726
4.133499999999998,0.4122694586013365,-1.3550579232851294,-0.559280286826071
4.1370000000000005,0.425053995372195,-1.367840714726736,-0.5241258650324012
4.140499999999989,0.4303807402492817,-1.3923433920954844,-0.4783179534845579
4.143999999999991,0.4410324846742031,-1.411517579257894,-0.4548816722887781
4.147499999999994,0.4793843496575265,-1.4349556057829258,-0.4346410889533998
4.150999999999996,0.5156034222949128,-1.4701100275765957,-0.4367721359700849
4.154499999999999,0.5283879590657713,-1.5287007305660454,-0.4719265577637547
4.158000000000001,0.5294526099094878,-1.550007710074392,-0.5092120265741096
4.1614999999999895,0.5678027295635593,-1.5468120122139906,-0.5752605214573311
4.164999999999992,0.6327865736030641,-1.5574637566389118,-0.6455693650446706
4.1684999999999945,0.6658099483800488,-1.5766396891305736,-0.7126842561008605
4.171999999999997,0.6945729744529154,-1.5936845746055504,-0.7957776364590586
4.1755,0.7212066988383489,-1.5883578297284635,-0.8415838026776498
4.179000000000002,0.7648835633695069,-1.584095735695093,-0.8820667146776582
4.18249999999999,0.8160182197944368,-1.583031084851377,-0.9278728808962494
4.185999999999993,0.8341277561131301,-1.614989808784645,-0.9736807924440926
4.189499999999995,0.8224096155152401,-1.6373614391367084,-0.9949877719524394
4.192999999999998,0.8170828706381533,-1.6384260899804248,-1.009901610410731
4.1965,0.7915155424256883,-1.64481923103048,-1.0056395163773606
4.199999999999989,0.7627525163528219,-1.665059814365858,-0.9917920740920376
4.203499999999991,0.7350541411236718,-1.6895607464053546,-0.9736807924440926
4.206999999999994,0.6871169278883955,-1.723650517355308,-0.947048813387911
4.210499999999996,0.6455693650446706,-1.7481531947240565,-0.9300039279129344
4.213999999999999,0.5997614534968274,-1.765196334869781,-0.8991098548233829
4.217500000000001,0.5560845889656694,-1.7683920327301823,-0.8714132249234848
4.220999999999989,0.4974938859762197,-1.7822412203447575,-0.8330613599401614
4.224499999999992,0.4442281825346047,-1.7854369182051593,-0.80642938088398
4.227999999999994,0.3952245731263599,-1.7854369182051593,-0.7712749590903102
4.231499999999997,0.3227846825223353,-1.774785173780238,-0.7520990265986485
4.234999999999999,0.2556715367953973,-1.7875679652218444,-0.7435765838611602
4.238500000000002,0.2087989744038376,-1.7992861058197342,-0.7520990265986485
4.24199999999999,0.1949497867892626,-1.7758498246239545,-0.7819284488444836
4.245499999999993,0.2205171150017275,-1.765196334869781,-0.8245406625319252
4.248999999999995,0.2492801410745941,-1.769458428903151,-0.8884581103984615
4.252499999999998,0.2982837504828389,-1.737499704969883,-0.9971170736398725
4.256,0.3867021303888716,-1.695952142126158,-1.0727544074335509
4.2594999999999885,0.5390397034906926,-1.6554709754554016,-1.1750219749541586
4.262999999999991,0.6626142505196473,-1.6277743455555036,-1.2368101211332618
4.2664999999999935,0.8234742663589566,-1.6022070173430385,-1.310314662581003
4.269999999999996,0.9204168343317296,-1.5947492254492668,-1.351862225424728
4.273499999999999,1.0130973082711323,-1.5851621318680618,-1.383820949357996
4.277000000000001,1.0589052198189757,-1.5819664340076602,-1.390212345078799
4.280499999999989,1.0706233604168656,-1.5798353869909751,-1.3944744391121693
4.283999999999992,1.0280111467294242,-1.5809000378346918,-1.3816899023413112
4.287499999999994,0.960898001002486,-1.5787707361472587,-1.3476001313913577
4.290999999999997,0.8916538082588631,-1.587293178884747,-1.3135103604414045
4.294499999999999,0.7584921676487036,-1.5979449233096683,-1.2495929125748682
4.298000000000002,0.6583539018155291,-1.6085984130638418,-1.2005893031666235
4.30149999999999,0.5262569120490862,-1.6160562049576137,-1.1292140634063152
4.304999999999993,0.4090737607409349,-1.6341657412763066,-1.079145803154354
4.308499999999995,0.2567361876391139,-1.665059814365858,-1.0045748655336442
4.311999999999998,0.1555332709622227,-1.693822840438725,-0.9438531155275096
4.3155,0.02769837522915,-1.723650517355308,-0.8746089227838865
4.318999999999988,-0.0458079115478431,-1.7460221477073712,-0.8245406625319252
4.322499999999991,-0.1022693128498597,-1.7854369182051593,-0.7712749590903102
4.325999999999993,-0.1438151303643327,-1.8195266891551125,-0.753165422771617
4.329499999999996,-0.1896230419121759,-1.857878554138436,-0.7552947244590501
4.332999999999998,-0.2151903701246408,-1.8951640229487907,-0.7744706569507118
4.336500000000001,-0.2247774637058457,-1.929252048569492,-0.8160182197944368
4.339999999999989,-0.1949497867892626,-1.931383095586177,-0.8586286881526264
4.343499999999992,-0.1097253594143795,-1.921796002004972,-0.933199625773336
4.346999999999994,-0.0213052341790947,-1.920729605832004,-0.9992481206565574
4.350499999999997,0.1139874534477496,-1.913273559267484,-1.1015174335064173
4.353999999999999,0.2247774637058457,-1.8866415802113023,-1.1707616262500404
4.357500000000002,0.3962909692993285,-1.8323112259259708,-1.2719645429269315
4.36099999999999,0.5219948180157161,-1.8120706425905928,-1.3412087356705549
4.3644999999999925,0.6530271569384424,-1.7865033143781277,-1.409388277570461
4.367999999999995,0.7435765838611602,-1.7769144754676711,-1.455196189118304
4.3714999999999975,0.8373234539735316,-1.7470867985510878,-1.498873053649462
4.375,0.8852624125380599,-1.7268462152157096,-1.518048986141124
4.3785000000000025,0.901240901840068,-1.7119323767574182,-1.5329628245994156
4.381999999999991,0.8937848552755481,-1.7023452831762131,-1.52656968354936
4.385499999999993,0.8426501988506182,-1.693822840438725,-1.5137868921077535
4.388999999999996,0.780862052671515,-1.6895607464053546,-1.4935463087723757
4.392499999999998,0.6658099483800488,-1.6874296993886695,-1.4658479335432255
4.396000000000001,0.559280286826071,-1.6895607464053546,-1.4370849074703589
4.399499999999989,0.4026823650201317,-1.6821046998408349,-1.3944744391121693
4.402999999999992,0.2791078179911772,-1.6799736528241498,-1.3550579232851294
4.406499999999994,0.1203788491685528,-1.6618641165054566,-1.3220328031788928
4.409999999999997,-0.0010646508437165,-1.654406324611685,-1.2911404754185931
4.413499999999999,-0.1725781564371993,-1.6341657412763066,-1.2655731472061282
4.417000000000002,-0.2972173543098703,-1.629903647242937,-1.2581153553123563
4.42049999999999,-0.4410324846742031,-1.614989808784645,-1.2517239595915532
4.423999999999992,-0.5273215628928027,-1.6022070173430385,-1.2495929125748682
4.427499999999995,-0.6018925005135125,-1.561725850672282,-1.2623774493457267
4.430999999999997,-0.6413090163405525,-1.5414852673369035,-1.2975318711393966
4.4345,-0.6860505317154271,-1.5084601472306671,-1.3390776886538696
4.438000000000002,-0.6924436727654824,-1.4573254908057371,-1.3784942044809092
4.441499999999991,-0.6455693650446706,-1.3987347878162877,-1.432824558766241
4.444999999999993,-0.5859140112115044,-1.3476001313913577,-1.4818281681744856
4.448499999999996,-0.4825800475179281,-1.290074079245625,-1.550007710074392
4.451999999999998,-0.3930952714389268,-1.2389411681499467,-1.599011319482637
4.455500000000001,-0.2439533961975074,-1.1718262770937566,-1.658666673315803
4.458999999999989,-0.096942567972773,-1.1185623189813938,-1.686365048544953
4.462499999999992,0.1150521042914662,-1.0695587095731491,-1.7172591216345048
4.465999999999994,0.2673896773932873,-1.043991381360684,-1.737499704969883
4.4694999999999965,0.4559463231324946,-1.021619751008621,-1.7364333087969146
4.472999999999999,0.5816519171781342,-1.007770563394046,-1.7247151681990245
4.4765000000000015,0.7371851881403569,-0.9971170736398725,-1.7023452831762131
4.47999999999999,0.8160182197944368,-0.9939213757794708,-1.6831693506845515
4.483499999999992,0.8682175270630832,-0.9896610270753528,-1.6384260899804248
4.486999999999995,0.8820667146776582,-0.984334282198266,-1.606467366047157
4.490499999999997,0.8575640373089098,-0.996052422796156,-1.5532034079347938
4.494,0.8160182197944368,-1.014161959114849,-1.5105911942473522
4.497500000000002,0.7158799539612621,-1.030142193746109,-1.4541297929453356
4.500999999999991,0.6210684330051742,-1.0461224283773694,-1.4147150224475475
4.504499999999993,0.4783179534845579,-1.0621009176793774,-1.361449319005933
4.507999999999996,0.3632658491930918,-1.0770147561376688,-1.3252302463685464
4.511499999999998,0.1928187397725775,-1.1153666211209925,-1.29646722029568
4.515000000000001,0.0735062867769931,-1.1377365061438036,-1.2815516365081363
4.518499999999989,-0.0649838440395048,-1.1878065117250167,-1.282618032681105
4.521999999999991,-0.1789695521580025,-1.2442661676977815,-1.3049879177039163
4.525499999999994,-0.3217200316786187,-1.286878381385223,-1.3369483869664365
4.528999999999996,-0.397355620143045,-1.2911404754185931,-1.3731674596038226
4.532499999999999,-0.4484902765679749,-1.3039232668601997,-1.421106418168351
4.536000000000001,-0.4665998128866681,-1.324163850195578,-1.4562608399620207
4.53949999999999,-0.4719265577637547,-1.3507958292517597,-1.5148515429514704
4.542999999999992,-0.4612730680095813,-1.361449319005933,-1.5585301528118805
4.546499999999995,-0.452750625272093,-1.3603846681622165,-1.6224476006784168
4.549999999999997,-0.4154651564617382,-1.358253621145531,-1.6576020224720869
4.5535,-0.3792460838243518,-1.3635803660226178,-1.7183237724782212
4.557000000000002,-0.3717882919305801,-1.3635803660226178,-1.7609359861656628
4.560499999999991,-0.3856374795451551,-1.379558855324626,-1.8131352934343088
4.563999999999993,-0.4154651564617382,-1.3870166472183978,-1.8472250643842625
4.567499999999996,-0.4559463231324946,-1.379558855324626,-1.873857043440444
4.570999999999998,-0.492167141099133,-1.374233855776791,-1.8834458823509008
4.5745000000000005,-0.5560845889656694,-1.3667760638830195,-1.8909019289154203
4.577999999999989,-0.605088198373914,-1.356122574128846,-1.8834458823509008
4.581499999999991,-0.6967040214696004,-1.3454708297039246,-1.874923439613413
4.584999999999994,-0.7702103082465936,-1.3369483869664365,-1.865334600702956
4.588499999999996,-0.8788692714880046,-1.3273595480559794,-1.8387026216467743
4.591999999999999,-0.9598333501587696,-1.3156414074580896,-1.8195266891551125
4.595500000000001,-1.065296615539779,-1.284747334368538,-1.7865033143781277
4.5989999999999895,-1.1419986001771738,-1.2698334959102464,-1.7577402883052613
4.602499999999992,-1.2400058189936634,-1.2623774493457267,-1.7268462152157096
4.6059999999999945,-1.3049879177039163,-1.2442661676977815,-1.6991478399865596
4.609499999999997,-1.3625139698496491,-1.2048513971999937,-1.66825551222626
4.613,-1.3870166472183978,-1.16649953221667,-1.64481923103048
4.616500000000002,-1.3784942044809092,-1.144129647193859,-1.6203165536617317
4.61999999999999,-1.3603846681622165,-1.1398675531604887,-1.603271668186755
4.623499999999993,-1.3177724544747746,-1.1143002249480238,-1.5947492254492668
4.626999999999995,-1.273029193770648,-1.0855371988751572,-1.5904888767451486
4.630499999999998,-1.1728926732667255,-1.0290775429023926,-1.584095735695093
4.634,-1.0844725480314406,-0.984334282198266,-1.5702482934097703
4.637499999999989,-0.944917766371226,-0.9225478813484148,-1.5393542203202186
4.640999999999991,-0.8160182197944368,-0.8863270633817765,-1.5137868921077535
4.644499999999994,-0.6327865736030641,-0.8554329902922247,-1.4754367724536823
4.647999999999996,-0.503885281697023,-0.8266699642193582,-1.448803048068249
4.651499999999999,-0.3579391043160051,-0.7968422873027752,-1.432824558766241
4.655000000000001,-0.2737810731140905,-0.8043000791965469,-1.4200400219953824
4.658499999999989,-0.1928187397725775,-0.8032336830235783,-1.402996881849658
4.661999999999992,-0.150206526085136,-0.8053647300402634,-1.3934080429392008
4.665499999999994,-0.1150521042914662,-0.8234742663589566,-1.374233855776791
4.668999999999997,-0.1043986145372928,-0.8256053133756417,-1.3635803660226178
4.672499999999999,-0.1342280367831279,-0.8394545009902167,-1.342273386514271
4.676000000000002,-0.1821652500184041,-0.8533036886047917,-1.3230991993518617
4.67949999999999,-0.2652586303766022,-0.8650218292026817,-1.3060543138768848
4.682999999999993,-0.3494166615785167,-0.8799356676609732,-1.29646722029568
4.686499999999995,-0.4942981881158181,-0.8884581103984615,-1.2943361732789946
4.689999999999998,-0.6253287817092923,-0.912959042437958,-1.2922051262623095
4.6935,-0.8309320582527283,-0.9374617198067065,-1.289009428401908
4.6969999999999885,-0.996052422796156,-0.9577023031420844,-1.284747334368538
4.700499999999991,-1.2144384907811985,-0.9619626518462028,-1.2815516365081363
4.7039999999999935,-1.3710364125871377,-0.956635906969116,-1.2815516365081363
4.707499999999996,-1.5883578297284635,-0.9438531155275096,-1.2836826835248214
4.710999999999999,-1.752413543428175,-0.917221136471328,-1.2772912878040183
4.714500000000001,-1.946296934044469,-0.8660864800463982,-1.2645067510331598
4.717999999999989,-2.085851715704683,-0.8096250787443816,-1.2645067510331598
4.721499999999992,-2.256298825125197,-0.7574257714757352,-1.254919657451955
4.724999999999994,-2.3926561635957584,-0.7222713496820654,-1.24533256387075
4.728499999999997,-2.529015247395572,-0.6753987872905056,-1.2400058189936634
4.731999999999999,-2.595063742278793,-0.6349176206197492,-1.2346790741165767
4.735500000000002,-2.647263049547439,-0.5827165680218508,-1.2218962826749702
4.73899999999999,-2.658981190145329,-0.5496931932448661,-1.2186988394853169
4.742499999999993,-2.6142396747704546,-0.5049499325407395,-1.2027203501833084
4.745999999999995,-2.538602340976776,-0.4761869064678729,-1.176088371127127
4.749499999999998,-2.403309653349932,-0.4282496932325966,-1.138802902316772
4.753,-2.270148012739772,-0.3952245731263599,-1.1079088292272203
4.756499999999988,-2.06774217938599,-0.3376985209806268,-1.055709521958574
4.759999999999991,-1.9100778614070824,-0.2918906094327836,-1.014161959114849
4.763499999999993,-1.705540981036615,-0.2396913021641372,-0.9619626518462028
4.766999999999996,-1.555332709622227,-0.1960144376329791,-0.921481485175446
4.770499999999998,-1.367840714726736,-0.1459461773810178,-0.8746089227838865
4.774000000000001,-1.261311053172758,-0.1203788491685528,-0.8426501988506182
4.777499999999989,-1.1494546467416935,-0.1129210572747811,-0.8074957770569485
4.780999999999992,-1.0940596416126456,-0.1001382658331746,-0.7925801932694049
4.784499999999994,-1.0663630117127476,-0.0660484948832214,-0.7797974018277984
4.787999999999997,-1.0621009176793774,-0.0383501196540714,-0.7744706569507118
4.791499999999999,-1.0748854544502358,-0.0149138384582915,-0.7702103082465936
4.795000000000002,-1.1143002249480238,-0.0106534897541733,-0.7787327509840819
4.79849999999999,-1.2176341886416,-0.0010646508437165,-0.8011026360068932
4.8019999999999925,-1.3071189647206012,0.0223716303520633,-0.8288010112360433
4.805499999999995,-1.4157796732912642,0.124639197872671,-0.863955433029713
4.8089999999999975,-1.4978066574764937,0.1928187397725775,-0.8905874120858945
4.8125,-1.614989808784645,0.2535404897787122,-0.912959042437958
4.8160000000000025,-1.695952142126158,0.2876302607286655,-0.9193504381587612
4.819499999999991,-1.806743897713506,0.3259803803827369,-0.9268082300525328
4.822999999999993,-1.874923439613413,0.3515477085952018,-0.9310703240859032
4.826499999999996,-1.940970189167382,0.3739193389472651,-0.9342660219463046
4.829999999999998,-1.982517752011107,0.3941599222826434,-0.9300039279129344
4.833500000000001,-2.02406356952558,0.4197272504951083,-0.9257435792088164
4.836999999999989,-2.0389791533131234,0.4154651564617382,-0.921481485175446
4.840499999999992,-2.049630897738045,0.3962909692993285,-0.8980452039796664
4.843999999999994,-2.053892991771415,0.3824417816847534,-0.8852624125380599
4.847499999999997,-2.053892991771415,0.3685925940701784,-0.8607597351693115
4.850999999999999,-2.045370549033927,0.3600701513326901,-0.8511726415881066
4.854500000000002,-2.02832566355895,0.3440916620306821,-0.8330613599401614
4.85799999999999,-2.011280778083973,0.3281114273994219,-0.8224096155152401
4.861499999999992,-1.9984962413131149,0.288694911572382,-0.8138871727777518
4.864999999999995,-1.9910401947485952,0.260998281672484,-0.8074957770569485
4.868499999999997,-2.0091497310672883,0.2407576983371057,-0.8096250787443816
4.872,-2.044304152860958,0.2386266513204207,-0.8096250787443816
4.875500000000002,-2.11461474177755,0.2354309534600191,-0.7925801932694049
4.878999999999991,-2.166814049046196,0.2364956043037356,-0.7723396099340267
4.882499999999993,-2.2520384764210792,0.2482137449016255,-0.7361205372966404
4.885999999999996,-2.3330008097625923,0.2673896773932873,-0.7339894902799553
4.889499999999998,-2.4927944294289333,0.2854992137119804,-0.7318584432632703
4.893000000000001,-2.6493940965641243,0.3014794483432405,-0.7510343757549319
4.896499999999989,-2.868844815392884,0.3078708440640437,-0.7755353077944284
4.899999999999992,-3.030769482075909,0.3078708440640437,-0.8011026360068932
4.903499999999994,-3.2385020603067787,0.3387649171535954,-0.8319967090964449
4.9069999999999965,-3.371665446246189,0.3643322453660603,-0.8596950843255949
4.910499999999999,-3.497369294962577,0.4026823650201317,-0.8799356676609732
4.9140000000000015,-3.5666134877062,0.4207919013388249,-0.8937848552755481
4.91749999999999,-3.6113567484103273,0.4410324846742031,-0.9023072980130364
4.920999999999992,-3.5985722116394685,0.4761869064678729,-0.8916538082588631
4.924499999999995,-3.5271987172084125,0.5187991201553145,-0.875673573627603
4.927999999999997,-3.4441053368502144,0.5496931932448661,-0.8522372924318231
4.9315,-3.312008347083772,0.5709984274239609,-0.8170828706381533
4.935000000000002,-3.195891591948589,0.5656734278761262,-0.7883198445652868
4.938499999999991,-3.0115952949135,0.5390397034906926,-0.7414472821737271
4.941999999999993,-2.856060278622025,0.519865516328283,-0.7052264642070888
4.945499999999996,-2.6504587474078405,0.4985585368199362,-0.670072042413419
4.948999999999998,-2.5130350127643117,0.4793843496575265,-0.6519625060947258
4.952500000000001,-2.3330008097625923,0.4282496932325966,-0.6114795940947174
4.955999999999989,-2.2030348670128346,0.3898978282492732,-0.5773915684740161
4.959499999999991,-2.037912757140155,0.3313071252598236,-0.547562146228181
4.962999999999994,-1.940970189167382,0.2897613077453506,-0.5283879590657713
4.966499999999996,-1.8632035536862703,0.2322352555996175,-0.519865516328283
4.969999999999999,-1.8376379708030577,0.1896230419121759,-0.5156034222949128
4.973500000000001,-1.8568121579654675,0.1651203645434275,-0.5209301671719996
4.97699999999999,-1.901555418669594,0.1470108282247343,-0.519865516328283
4.980499999999992,-2.0091497310672883,0.124639197872671,-0.5241258650324012
4.983999999999995,-2.132724278096243,0.1150521042914662,-0.5187991201553145
4.987499999999997,-2.340456856327112,0.1257055940456395,-0.5166698184678814
4.991,-2.516230710624713,0.136357338470561,-0.5124077244345112
4.994500000000002,-2.753792711101417,0.1619246666830259,-0.4953628389595346
4.997999999999991,-2.941284705996908,0.180035948330971,-0.4719265577637547
5.001499999999993,-3.1948251957756204,0.2013411825100658,-0.4399678338304866
5.004999999999996,-3.391906029581568,0.2045368803704674,-0.4090737607409349
5.008499999999998,-3.639055123639477,0.2087989744038376,-0.3568744534722885
5.0120000000000005,-3.827611769378685,0.2109282760912707,-0.314262239784847
5.015499999999989,-4.097132493788656,0.2024058333537824,-0.260998281672484
5.018999999999991,-4.302734025002841,0.1683160624038291,-0.2173214171413259
5.022499999999994,-4.566928004535726,0.1512729222581045,-0.1534022239455376
5.025999999999996,-4.766138140029108,0.1320969897664428,-0.1086607085706629
5.029499999999999,-5.01967862980782,0.0916158230956863,-0.0543303542853314
5.033000000000001,-5.207170624703311,0.0745709376207097,-0.0149138384582915
5.0364999999999895,-5.399989364475887,0.0703088435873395,0.0394165158270399
5.039999999999992,-5.4979983286216285,0.0639174478665363,0.0820287295144815
5.0434999999999945,-5.58002531280686,0.0404811666707564,0.1416840833476476
5.046999999999997,-5.605592641019324,0.0372854688103548,0.1832316461913727
5.0505,-5.588547755544347,0.0575260521457331,0.2375620004767041
5.054000000000002,-5.508650073046551,0.0671131457269379,0.2876302607286655
5.05749999999999,-5.32542017218443,0.0703088435873395,0.3462209637181151
5.060999999999993,-5.143253176836773,0.0777666354811113,0.3845728287014385
5.064499999999995,-4.85136256740399,0.0820287295144815,0.4186608543221398
5.067999999999998,-4.586103937027389,0.0735062867769931,0.4357057397971164
5.0715,-4.18981296772806,0.0639174478665363,0.43890318298677
5.074999999999989,-3.867028285205724,0.0639174478665363,0.43890318298677
5.078499999999991,-3.4196026594814657,0.0820287295144815,0.425053995372195
5.081999999999994,-3.0744463466070675,0.0948115209560879,0.4197272504951083
5.085499999999996,-2.634478512776581,0.1022693128498597,0.4197272504951083
5.088999999999999,-2.3191516221480173,0.1075943123976944,0.4282496932325966
5.092500000000001,-1.936709840463264,0.1416840833476476,0.4357057397971164
5.095999999999989,-1.7129970276011346,0.1736428072809158,0.4261186462159115
5.099499999999992,-1.4892859600682575,0.2162550209683574,0.4207919013388249
5.102999999999994,-1.395539089955886,0.2641939795328856,0.4101401569139035
5.106499999999997,-1.3710364125871377,0.3366338701369103,0.3877685265618402
5.109999999999999,-1.4370849074703589,0.3962909692993285,0.3728546881035486
5.113500000000002,-1.5862267827117784,0.4847093492053612,0.3643322453660603
5.11699999999999,-1.7470867985510878,0.5678027295635593,0.3515477085952018
5.120499999999993,-2.0229989186818638,0.6807255321675924,0.341960615013997
5.123999999999995,-2.2616255700022845,0.7659482142132235,0.3345028231202252
5.127499999999998,-2.5865412995413046,0.8682175270630832,0.3323735214327921
5.131,-2.856060278622025,0.9417220685108244,0.3227846825223353
5.1344999999999885,-3.2225235710047704,1.0290775429023926,0.3131975889411305
5.137999999999991,-3.467541618045994,1.1174959228084254,0.3057397970473587
5.1414999999999935,-3.773281415093353,1.2218962826749702,0.3057397970473587
5.144999999999996,-3.943728524513867,1.267704194222813,0.316393286801532
5.148499999999999,-4.070498769403224,1.361449319005933,0.3281114273994219
5.152000000000001,-4.110981681403231,1.4147150224475475,0.3302424744161071
5.155499999999989,-4.1120463322469485,1.4402806053307606,0.3100018910807288
5.158999999999992,-4.050258186067845,1.4445426993641308,0.2961527034661538
5.162499999999994,-3.896855962122308,1.439215954487044,0.2673896773932873
5.165999999999997,-3.7285398997184784,1.432824558766241,0.2386266513204207
5.169499999999999,-3.4579545244647893,1.4157796732912642,0.1896230419121759
5.173000000000002,-3.2193278731443686,1.4083218813974925,0.1459461773810178
5.17649999999999,-2.8517999299179064,1.3827562985142796,0.0777666354811113
5.179999999999993,-2.592932695262108,1.3348173399497512,0.0255673282124649
5.183499999999995,-2.292519643091836,1.24533256387075,-0.0511346564249298
5.186999999999998,-2.109287996900463,1.1952625582895369,-0.1022693128498597
5.1905,-1.9186003041445707,1.1696952300770718,-0.1672514115601126
5.193999999999988,-1.8248534340321991,1.1686305792333551,-0.2173214171413259
5.197499999999991,-1.800352501992703,1.1505210429146622,-0.2673896773932873
5.200999999999993,-1.8450940173675772,1.1292140634063152,-0.2982837504828389
5.204499999999996,-1.945232283200752,1.0599698706626923,-0.3131975889411305
5.207999999999998,-2.034717059279753,1.021619751008621,-0.302544099186957
5.211500000000001,-2.1795968404878026,0.9758118394607777,-0.274847469287059
5.214999999999989,-2.264821267862686,0.9108279954212728,-0.2354309534600191
5.218499999999992,-2.3361965076229936,0.8490415945714216,-0.1544686201185061
5.221999999999994,-2.3681552315562624,0.8256053133756417,-0.1033339636935762
5.225499999999997,-2.3915915127520417,0.780862052671515,-0.0447432607041266
5.228999999999999,-2.3809380229978685,0.7222713496820654,0.0
5.232500000000002,-2.3074334815501274,0.6572875056425604,0.0458079115478431
5.23599999999999,-2.220078007158559,0.5976321518093943,0.0660484948832214
5.2394999999999925,-2.094374158442172,0.4964292351325031,0.0671131457269379
5.242999999999995,-2.0059540332068866,0.4325100419367148,0.0564614013020165
5.2464999999999975,-1.8802484391612475,0.355809802628572,0.0213052341790947
5.25,-1.7939593609426474,0.3057397970473587,-0.0106534897541733
5.2535000000000025,-1.7119323767574182,0.2599318854995155,-0.0500682602519613
5.256999999999991,-1.684234001528268,0.233299906443334,-0.0916158230956863
5.260499999999993,-1.693822840438725,0.2141239739516723,-0.1416840833476476
5.263999999999996,-1.727910866059426,0.2002765316663493,-0.1747092034538843
5.267499999999998,-1.8376379708030577,0.1960144376329791,-0.2226464166891606
5.271000000000001,-1.9654728665361303,0.1832316461913727,-0.258867234655799
5.274499999999989,-2.1753364917836846,0.1576643179789077,-0.3014794483432405
5.277999999999992,-2.359632788818774,0.1331616406101593,-0.3345028231202252
5.281499999999994,-2.638740606809951,0.1043986145372928,-0.3653968962097769
5.284999999999997,-2.8443421380241345,0.0937468701123714,-0.3803107346680683
5.288499999999999,-3.0765773936237526,0.0841580312019145,-0.3792460838243518
5.292000000000002,-3.2203925239880853,0.0671131457269379,-0.369657244913895
5.29549999999999,-3.379121492810709,0.013849187614575,-0.3376985209806268
5.298999999999992,-3.460083826152222,-0.0181095363186931,-0.3036087500306735
5.302499999999995,-3.5154805766105226,-0.0788312863248278,-0.2375620004767041
5.305999999999997,-3.505891737700066,-0.1310323389227262,-0.1736428072809158
5.3095,-3.4206690556544346,-0.2141239739516723,-0.0735062867769931
5.313000000000002,-3.2960281124525115,-0.2780431671474606,-0.0117181405978899
5.316499999999991,-3.107471466713304,-0.3653968962097769,0.0745709376207097
5.319999999999993,-2.9423493568406247,-0.4282496932325966,0.1225098961852379
5.323499999999996,-2.6930709610952825,-0.5187991201553145,0.1821652500184041
5.326999999999998,-2.505578966199792,-0.5763251723010476,0.2183860679850424
5.330500000000001,-2.271212663583489,-0.6338512244467807,0.2396913021641372
5.333999999999989,-2.1263328823754395,-0.6594185526592456,0.2482137449016255
5.337499999999992,-1.9878444968881936,-0.6690056462404504,0.2396913021641372
5.340999999999994,-1.9164692571278852,-0.6434400633572375,0.233299906443334
5.3444999999999965,-1.857878554138436,-0.5955011047927092,0.2141239739516723
5.347999999999999,-1.866400996875924,-0.5635423808594411,0.2034722295267509
5.3515000000000015,-1.9100778614070824,-0.5273215628928027,0.2002765316663493
5.35499999999999,-1.9399055383236647,-0.4974938859762197,0.2002765316663493
5.358499999999992,-2.01234542892769,-0.4410324846742031,0.1864273440517743
5.361999999999995,-2.109287996900463,-0.3930952714389268,0.1757738542976009
5.365499999999997,-2.250972080248111,-0.3259803803827369,0.1736428072809158
5.369,-2.3393922054833958,-0.2780431671474606,0.1949497867892626
5.372500000000002,-2.426745934545712,-0.2162550209683574,0.2354309534600191
5.375999999999991,-2.4725538460935548,-0.166186760716396,0.2727164222703739
5.379499999999993,-2.524753153362201,-0.1001382658331746,0.3313071252598236
5.382999999999996,-2.559909320485123,-0.0500682602519613,0.38350643252847
5.386499999999998,-2.5694964140663283,0.0085224427374883,0.4655351620429515
5.390000000000001,-2.5449937366975792,0.0404811666707564,0.5305172607532044
5.393499999999989,-2.5013168721664214,0.0735062867769931,0.614677037284371
5.396999999999991,-2.465097799529035,0.1022693128498597,0.6626142505196473
5.400499999999994,-2.410767445243704,0.1459461773810178,0.7116178599278921
5.403999999999996,-2.3809380229978685,0.1768385051413174,0.7339894902799553
5.407499999999999,-2.354306043941687,0.2237128128621291,0.7467722817215618
5.411000000000001,-2.328738715729222,0.2535404897787122,0.7478386778945303
5.41449999999999,-2.292519643091836,0.302544099186957,0.7467722817215618
5.417999999999992,-2.2658859187064024,0.3345028231202252,0.7382515843133254
5.421499999999995,-2.240320335823189,0.3653968962097769,0.7190756518216638
5.424999999999997,-2.219013356314843,0.3877685265618402,0.709488558240459
5.4285,-2.157226955464991,0.4090737607409349,0.6967040214696004
5.432000000000002,-2.111419043917148,0.4133358547743051,0.6764634381342222
5.435499999999991,-2.0666757832130216,0.4154651564617382,0.6615495996759307
5.438999999999993,-2.044304152860958,0.4293143440763132,0.642373667184269
5.442499999999996,-2.017672173804777,0.4452945787075733,0.6189373859884891
5.445999999999998,-2.010216127240257,0.4516859744283765,0.6104149432510009
5.4495000000000005,-2.0229989186818638,0.4548816722887781,0.586978662055221
5.452999999999989,-2.0506972939110133,0.4634041150262664,0.5859140112115044
5.456499999999991,-2.147638116554534,0.4687308599033531,0.586978662055221
5.459999999999994,-2.2243401011919293,0.4612730680095813,0.614677037284371
5.463499999999996,-2.270148012739772,0.4282496932325966,0.6743323911175372
5.466999999999999,-2.306367085377159,0.4101401569139035,0.7297291415758372
5.470500000000001,-2.387331164047924,0.3792460838243518,0.7957776364590586
5.4739999999999895,-2.4523132627581767,0.3430252658577135,0.847976943727705
5.477499999999992,-2.538602340976776,0.3131975889411305,0.9150900894546428
5.4809999999999945,-2.6014551379995963,0.2823035158515788,0.9481134642316276
5.484499999999997,-2.6888088670619124,0.2460844432141925,0.9779428864774626
5.488,-2.746334919207645,0.2343645572870505,0.9939213757794708
5.491500000000002,-2.791078179911772,0.2205171150017275,1.016293006131534
5.49499999999999,-2.8059920183700635,0.2151903701246408,1.035468938623196
5.498499999999993,-2.7964049247888583,0.2013411825100658,1.073819058277267
5.501999999999995,-2.728225382888952,0.1768385051413174,1.1217580168417955
5.505499999999998,-2.5939973461058243,0.1352926876268444,1.1878065117250167
5.509,-2.4842719866914447,0.0990718696602061,1.2208298865020015
5.512499999999989,-2.340456856327112,0.0575260521457331,1.2495929125748682
5.515999999999991,-2.222209054175244,0.029827676916583,1.267704194222813
5.519499999999994,-2.065611132369305,-0.0053267448770866,1.2772912878040183
5.522999999999996,-1.9558857729549253,-0.0074577918937717,1.2719645429269315
5.526499999999999,-1.8120706425905928,0.0,1.2581153553123563
5.530000000000001,-1.7140634237741033,-0.0074577918937717,1.2432015168540649
5.533499999999989,-1.6117941109242435,-0.0106534897541733,1.22935232923949
5.536999999999992,-1.525505032705644,-0.002131047016685,1.2261566313790884
5.540499999999994,-1.407257230553776,0.0245026773687483,1.20591604804371
5.543999999999997,-1.356122574128846,0.055395005129048,1.1728926732667255
5.547499999999999,-1.3784942044809092,0.0862890782185996,1.1036484805231024
