time,Gyr_X,Gyr_Y,Gyr_Z
0.0,0.002131047016685,-2.6097799078158957e-19,-0.0010646508437165
0.0035000000000025,0.0042603487041181,0.0010646508437165,-0.0042603487041181
0.0069999999999978,0.002131047016685,0.0053267448770866,-0.0042603487041181
0.0105000000000003,0.0042603487041181,0.002131047016685,-0.0042603487041181
0.0140000000000028,0.0042603487041181,-5.217422403749877e-19,-0.002131047016685
0.0174999999999982,2.6097799078158957e-19,0.002131047016685,-0.0031956978604016
0.0210000000000007,0.0085224427374883,-1.0436982219381666e-18,-0.0042603487041181
0.0245000000000032,5.217422403749877e-19,0.0042603487041181,-0.0053267448770866
0.0279999999999986,0.0042603487041181,0.002131047016685,-0.0063913957208032
0.0315000000000011,0.0010646508437165,-1.3038212479669908e-19,-0.0042603487041181
0.0349999999999965,0.002131047016685,0.002131047016685,-0.0053267448770866
0.038499999999999,0.0031956978604016,0.0010646508437165,-0.002131047016685
0.0420000000000015,1.3038212479669908e-19,0.0010646508437165,-0.002131047016685
0.0454999999999969,0.0042603487041181,0.0010646508437165,-0.0053267448770866
0.0489999999999994,0.002131047016685,-2.6097799078158957e-19,-0.0053267448770866
0.0525000000000019,0.002131047016685,0.0010646508437165,-0.0031956978604016
0.0559999999999973,0.0010646508437165,0.0031956978604016,-0.0063913957208032
0.0594999999999998,0.0031956978604016,0.002131047016685,-0.0031956978604016
0.0630000000000023,0.0031956978604016,0.0010646508437165,-0.0053267448770866
0.0664999999999977,0.0031956978604016,-3.913601155782886e-19,-0.0053267448770866
0.0700000000000002,0.0031956978604016,0.0010646508437165,-0.0031956978604016
0.0735000000000027,0.0053267448770866,-6.523381063598781e-19,-0.0063913957208032
0.0769999999999981,0.0031956978604016,0.0010646508437165,-0.0042603487041181
0.0805000000000006,0.0010646508437165,0.002131047016685,-0.0063913957208032
0.0840000000000031,0.002131047016685,0.0031956978604016,-0.002131047016685
0.0874999999999985,0.0031956978604016,-3.913601155782886e-19,-0.0031956978604016
0.091000000000001,0.0042603487041181,0.002131047016685,-0.0042603487041181
0.0944999999999964,0.002131047016685,-2.6097799078158957e-19,-0.0010646508437165
0.0979999999999989,0.002131047016685,0.0031956978604016,-0.0010646508437165
0.1015000000000014,0.0042603487041181,0.0031956978604016,-0.0053267448770866
0.1049999999999968,0.0031956978604016,0.0010646508437165,-0.0042603487041181
0.1084999999999993,0.0042603487041181,-5.217422403749877e-19,-0.0031956978604016
0.1120000000000018,0.0031956978604016,0.0031956978604016,-0.0031956978604016
0.1154999999999972,0.0074577918937717,0.002131047016685,-0.0042603487041181
0.1189999999999997,0.0053267448770866,0.0031956978604016,-0.0010646508437165
0.1225000000000022,0.0031956978604016,0.0031956978604016,-0.0042603487041181
0.1259999999999976,0.0042603487041181,0.0042603487041181,0.0010646508437165
0.1295000000000001,0.0042603487041181,0.002131047016685,-0.002131047016685
0.1330000000000026,0.0042603487041181,0.002131047016685,-0.0053267448770866
0.136499999999998,0.002131047016685,0.002131047016685,-0.0042603487041181
0.1400000000000005,0.002131047016685,0.0010646508437165,-0.0031956978604016
0.143500000000003,0.002131047016685,0.0042603487041181,-0.0063913957208032
0.1469999999999984,0.0010646508437165,0.0053267448770866,-0.0053267448770866
0.1505000000000009,0.0063913957208032,0.0031956978604016,-0.0063913957208032
0.1539999999999963,0.002131047016685,0.0010646508437165,-0.0074577918937717
0.1574999999999988,0.0031956978604016,-0.0010646508437165,-0.0063913957208032
0.1610000000000013,0.0031956978604016,0.0042603487041181,-0.0042603487041181
0.1644999999999967,0.0042603487041181,0.0042603487041181,-0.0053267448770866
0.1679999999999992,0.0031956978604016,0.0042603487041181,-0.0063913957208032
0.1715000000000017,0.0031956978604016,0.002131047016685,-0.0031956978604016
0.1749999999999971,0.0042603487041181,0.002131047016685,-0.0042603487041181
0.1784999999999996,0.0031956978604016,0.0053267448770866,-0.002131047016685
0.1820000000000021,0.0042603487041181,0.002131047016685,-0.0042603487041181
0.1854999999999975,0.0042603487041181,0.0010646508437165,-0.0042603487041181
0.189,0.0031956978604016,0.002131047016685,-0.0063913957208032
0.1925000000000025,0.0010646508437165,0.002131047016685,-0.0031956978604016
0.1959999999999979,0.0042603487041181,0.002131047016685,-0.0074577918937717
0.1995000000000004,0.0053267448770866,0.0010646508437165,-0.0042603487041181
0.2030000000000029,0.0042603487041181,-5.217422403749877e-19,-0.0031956978604016
0.2064999999999983,0.0031956978604016,0.0042603487041181,-0.0042603487041181
0.2100000000000008,0.0053267448770866,0.0063913957208032,-0.0053267448770866
0.2134999999999962,0.002131047016685,0.0031956978604016,-0.0042603487041181
0.2169999999999987,0.0063913957208032,0.0042603487041181,-0.0053267448770866
0.2205000000000012,0.0053267448770866,0.0010646508437165,-0.002131047016685
0.2239999999999966,0.0063913957208032,0.002131047016685,-0.0031956978604016
0.2274999999999991,0.0042603487041181,0.0010646508437165,-0.0053267448770866
0.2310000000000016,0.0063913957208032,0.0031956978604016,-0.0042603487041181
0.234499999999997,0.0010646508437165,-0.0042603487041181,-0.0053267448770866
0.2379999999999995,0.0053267448770866,-0.0085224427374883,-0.0042603487041181
0.241500000000002,0.0063913957208032,-0.0127827914416064,-0.002131047016685
0.2449999999999974,0.0053267448770866,-0.0202405833353782,-0.0010646508437165
0.2484999999999999,0.0085224427374883,-0.0223716303520633,-0.002131047016685
0.2520000000000024,0.0063913957208032,-0.0234362811957798,0.0
0.2554999999999978,0.0085224427374883,-0.0170448854749766,-0.0010646508437165
0.2590000000000003,0.0095870935812048,-0.0063913957208032,-0.0063913957208032
0.2625000000000028,0.01598023463126,-0.002131047016685,-0.0042603487041181
0.2659999999999982,0.013849187614575,-0.002131047016685,-0.0063913957208032
0.2695000000000007,0.0149138384582915,-0.0042603487041181,-0.002131047016685
0.2730000000000032,0.0170448854749766,-0.0085224427374883,0.0
0.2764999999999986,0.0106534897541733,-0.0117181405978899,0.0
0.2800000000000011,0.013849187614575,-0.0095870935812048,-0.0042603487041181
0.2834999999999965,0.0117181405978899,-0.0106534897541733,-0.0010646508437165
0.286999999999999,0.0074577918937717,-0.0010646508437165,-0.0031956978604016
0.2905000000000015,0.0085224427374883,0.0063913957208032,-0.0063913957208032
0.2939999999999969,0.0106534897541733,0.013849187614575,-0.0063913957208032
0.2974999999999994,0.0085224427374883,0.0149138384582915,-0.002131047016685
0.3010000000000019,0.0074577918937717,0.0149138384582915,-0.0031956978604016
0.3044999999999973,0.0042603487041181,0.0106534897541733,-0.002131047016685
0.3079999999999998,-0.0031956978604016,0.0031956978604016,-0.0042603487041181
0.3115000000000023,-0.0042603487041181,0.002131047016685,-0.0063913957208032
0.3149999999999977,-0.0010646508437165,1.3038212479669908e-19,-0.0063913957208032
0.3185000000000002,-0.0010646508437165,0.0010646508437165,-0.002131047016685
0.3220000000000027,0.0031956978604016,0.0010646508437165,-0.0042603487041181
0.3254999999999981,0.0053267448770866,-6.523381063598781e-19,-0.0053267448770866
0.3290000000000006,0.0063913957208032,0.0042603487041181,-0.0063913957208032
0.3325000000000031,0.002131047016685,0.0042603487041181,-0.0063913957208032
0.3359999999999985,0.0042603487041181,0.0063913957208032,-0.0095870935812048
0.339500000000001,0.0042603487041181,0.0053267448770866,-0.0085224427374883
0.3429999999999964,6.523381063598781e-19,0.0053267448770866,-0.0074577918937717
0.3464999999999989,6.523381063598781e-19,0.0053267448770866,-0.0063913957208032
0.3500000000000014,-0.0031956978604016,0.0031956978604016,-0.0063913957208032
0.3534999999999968,-0.0053267448770866,-0.0031956978604016,-0.0031956978604016
0.3569999999999993,-0.0010646508437165,-0.0042603487041181,-0.0074577918937717
0.3605000000000018,-0.002131047016685,-0.0063913957208032,-0.0042603487041181
0.3639999999999972,-7.827202311565772e-19,-0.0063913957208032,-0.0053267448770866
0.3674999999999997,0.0074577918937717,-0.0053267448770866,-0.0042603487041181
0.3710000000000022,0.0106534897541733,-0.0053267448770866,-0.0031956978604016
0.3744999999999976,0.013849187614575,-0.0031956978604016,-0.0053267448770866
0.3780000000000001,0.01598023463126,-0.0074577918937717,-0.0042603487041181
0.3815000000000026,0.0181095363186931,-0.0106534897541733,-0.0042603487041181
0.384999999999998,0.013849187614575,-0.0149138384582915,-0.0031956978604016
0.3885000000000005,0.0127827914416064,-0.0170448854749766,-0.0010646508437165
0.392000000000003,0.002131047016685,-0.0149138384582915,-0.0031956978604016
0.3954999999999984,0.0031956978604016,-0.0106534897541733,-0.0042603487041181
0.3990000000000009,0.0031956978604016,-0.0053267448770866,-0.002131047016685
0.4024999999999963,0.0042603487041181,-0.0042603487041181,-0.002131047016685
0.4059999999999988,0.0031956978604016,-3.913601155782886e-19,-0.002131047016685
0.4095000000000013,0.002131047016685,-2.6097799078158957e-19,-0.0042603487041181
0.4129999999999967,0.002131047016685,-2.6097799078158957e-19,-0.002131047016685
0.4164999999999992,0.0031956978604016,0.002131047016685,-0.0031956978604016
0.4200000000000017,0.002131047016685,0.002131047016685,-0.0010646508437165
0.4234999999999971,0.002131047016685,0.0053267448770866,-0.0042603487041181
0.4269999999999996,0.002131047016685,0.0085224427374883,-0.0031956978604016
0.4305000000000021,0.0085224427374883,0.0095870935812048,-0.0031956978604016
0.4339999999999975,0.0031956978604016,0.0127827914416064,-0.002131047016685
0.4375,0.0053267448770866,0.0117181405978899,-0.0031956978604016
0.4410000000000025,0.002131047016685,0.0053267448770866,-0.0063913957208032
0.4444999999999979,0.0010646508437165,-0.002131047016685,-0.002131047016685
0.4480000000000004,-1.0436982219381666e-18,-0.0085224427374883,-0.0053267448770866
0.4515000000000029,0.0031956978604016,-0.0117181405978899,-0.0010646508437165
0.4549999999999983,0.0074577918937717,-0.0191759324916617,-0.0042603487041181
0.4585000000000008,0.0085224427374883,-0.0223716303520633,-0.0053267448770866
0.4620000000000033,0.0181095363186931,-0.0266319790561814,-0.0031956978604016
0.4654999999999987,0.0287630260728665,-0.0362208179666383,-0.0010646508437165
0.4690000000000012,0.0394165158270399,-0.0447432607041266,-0.0031956978604016
0.4724999999999966,0.0447432607041266,-0.0585907029894496,0.0
0.4759999999999991,0.0500682602519613,-0.0649838440395048,-0.002131047016685
0.4795000000000016,0.0490036094082447,-0.0703088435873395,0.0
0.482999999999997,0.0490036094082447,-0.0713752397603081,-0.0031956978604016
0.4864999999999995,0.0511346564249298,-0.0671131457269379,-0.002131047016685
0.490000000000002,0.0532657034416149,-0.0585907029894496,-0.002131047016685
0.4934999999999974,0.0607217500061347,-0.0607217500061347,0.0
0.4969999999999999,0.0756355884644262,-0.0639174478665363,0.0042603487041181
0.5005000000000024,0.0841580312019145,-0.0628527970228198,0.0085224427374883
0.5039999999999978,0.1033339636935762,-0.0639174478665363,0.0149138384582915
0.5075000000000003,0.1150521042914661,-0.0607217500061347,0.0191759324916617
0.5110000000000028,0.1129210572747811,-0.0500682602519613,0.0181095363186931
0.5144999999999982,0.1001382658331746,-0.0372854688103548,0.013849187614575
0.5180000000000007,0.0713752397603081,-0.0181095363186931,0.002131047016685
0.5215000000000032,0.0447432607041266,-0.002131047016685,-0.0010646508437165
0.5249999999999986,0.0170448854749766,0.0095870935812048,-0.0053267448770866
0.5285000000000011,0.0042603487041181,0.0191759324916617,-0.002131047016685
0.5319999999999965,3.6528369061894885e-18,0.029827676916583,0.0
0.535499999999999,0.002131047016685,0.0287630260728665,0.0031956978604016
0.5390000000000015,0.0191759324916617,0.0308940730895516,-0.0031956978604016
0.5424999999999969,0.029827676916583,0.0330233747769847,-0.0063913957208032
0.5459999999999994,0.0287630260728665,0.0266319790561814,-0.002131047016685
0.5495000000000019,0.0223716303520633,0.029827676916583,0.0010646508437165
0.5529999999999973,0.0127827914416064,0.0223716303520633,0.0
0.5564999999999998,0.0085224427374883,0.0202405833353782,-0.0042603487041181
0.5600000000000023,0.0063913957208032,0.0223716303520633,-0.0095870935812048
0.5634999999999977,0.01598023463126,0.0255673282124649,-0.0053267448770866
0.5670000000000002,0.0266319790561814,0.0181095363186931,-0.0042603487041181
0.5705000000000027,0.02769837522915,0.01598023463126,-0.0063913957208032
0.5739999999999981,0.0223716303520633,0.0085224427374883,-0.0074577918937717
0.5775000000000006,0.0117181405978899,0.0053267448770866,-0.0106534897541733
0.5810000000000031,0.0085224427374883,0.0031956978604016,-0.0106534897541733
0.5844999999999985,0.0031956978604016,0.0031956978604016,-0.0095870935812048
0.588000000000001,0.0085224427374883,0.0074577918937717,-0.0063913957208032
0.5914999999999964,0.0042603487041181,0.0095870935812048,-0.0106534897541733
0.5949999999999989,0.0106534897541733,0.0149138384582915,-0.0063913957208032
0.5985000000000014,0.0053267448770866,0.0149138384582915,-0.0095870935812048
0.6019999999999968,-0.0010646508437165,0.0106534897541733,-0.0053267448770866
0.6054999999999993,-0.0042603487041181,0.0063913957208032,-0.0031956978604016
0.6090000000000018,-0.0053267448770866,6.523381063598781e-19,-0.0074577918937717
0.6124999999999972,-0.0053267448770866,-0.0053267448770866,-0.0074577918937717
0.6159999999999997,0.002131047016685,-0.0010646508437165,-0.0085224427374883
0.6195000000000022,0.0053267448770866,0.0042603487041181,-0.0074577918937717
0.6229999999999976,0.0095870935812048,0.013849187614575,-0.0074577918937717
0.6265000000000001,0.0170448854749766,0.0213052341790947,-0.0063913957208032
0.6300000000000026,0.01598023463126,0.0266319790561814,-0.0031956978604016
0.633499999999998,0.01598023463126,0.0234362811957798,-0.0010646508437165
0.6370000000000005,0.0170448854749766,0.0127827914416064,0.0
0.640500000000003,0.0234362811957798,-2.8701166750329105e-18,0.0031956978604016
0.6439999999999984,0.0255673282124649,-0.0223716303520633,0.002131047016685
0.6475000000000009,0.0287630260728665,-0.0351544217936697,0.0031956978604016
0.6509999999999962,0.0447432607041266,-0.041545817514473,-0.002131047016685
0.6544999999999987,0.055395005129048,-0.0458079115478431,0.0
0.6580000000000013,0.0724398906040246,-0.0468725623915597,-0.0010646508437165
0.6614999999999966,0.0862890782185996,-0.0426122136874415,-0.0010646508437165
0.6649999999999991,0.1054650107102613,-0.0383501196540714,-0.002131047016685
0.6685000000000016,0.1193124529955843,-0.0404811666707564,-0.0010646508437165
0.671999999999997,0.1299659427497577,-0.0543303542853314,0.0010646508437165
0.6754999999999995,0.1438151303643327,-0.0703088435873395,0.0042603487041181
0.679000000000002,0.1672514115601126,-0.0905494269227178,0.0042603487041181
0.6824999999999974,0.1842962970350892,-0.1054650107102613,0.0106534897541733
0.6859999999999999,0.2141239739516723,-0.1331616406101594,0.0085224427374883
0.6895000000000024,0.247149094057909,-0.1427504795206162,0.0053267448770866
0.6929999999999978,0.2950880526224372,-0.1555332709622227,0.0042603487041181
0.6965000000000003,0.3398295679973119,-0.1683160624038291,0.0010646508437165
0.7000000000000028,0.3803107346680683,-0.1821652500184042,-0.0010646508437165
0.7034999999999982,0.4026823650201317,-0.1906876927558925,-0.0010646508437165
0.7070000000000007,0.4165315526347067,-0.2045368803704675,-0.0031956978604016
0.7105000000000032,0.4165315526347067,-0.2119946722642393,-0.0053267448770866
0.7139999999999986,0.4037470158638482,-0.2205171150017276,-0.0085224427374883
0.7175000000000011,0.3962909692993285,-0.2141239739516723,0.0
0.7209999999999965,0.3781796876513833,-0.1992101354933808,-0.0031956978604016
0.724499999999999,0.3568744534722885,-0.1789695521580026,-0.0074577918937717
0.7280000000000015,0.3323735214327921,-0.1587289688226243,-0.0085224427374883
0.7314999999999969,0.302544099186957,-0.1459461773810178,-0.0042603487041181
0.7349999999999994,0.258867234655799,-0.1352926876268444,0.002131047016685
0.7385000000000019,0.2226464166891606,-0.122509896185238,0.0
0.7419999999999973,0.180035948330971,-0.110790010258096,0.002131047016685
0.7454999999999998,0.1427504795206162,-0.1022693128498597,0.002131047016685
0.7490000000000023,0.1257055940456395,-0.0990718696602061,0.0053267448770866
0.7524999999999977,0.1161167551351827,-0.0841580312019145,0.0074577918937717
0.7560000000000002,0.1278348957330726,-0.0745709376207097,0.0053267448770866
0.7595000000000027,0.1715135055934827,-0.0735062867769932,0.0074577918937717
0.7629999999999981,0.2237128128621291,-0.0617864008498512,0.0053267448770866
0.7665000000000006,0.2546051406224288,-0.0724398906040246,0.0127827914416064
0.7700000000000031,0.2940216564494687,-0.0958761717998045,0.0170448854749766
0.7734999999999985,0.300413052170272,-0.1107900102580961,0.0181095363186931
0.777000000000001,0.314262239784847,-0.1587289688226243,0.01598023463126
0.7804999999999964,0.3206536355056502,-0.1896230419121759,0.0149138384582915
0.7839999999999989,0.3217200316786187,-0.2141239739516723,0.0063913957208032
0.7875000000000014,0.3430252658577135,-0.2364956043037357,0.0053267448770866
0.7909999999999968,0.3643322453660603,-0.2535404897787123,0.0042603487041181
0.7944999999999993,0.397355620143045,-0.2460844432141925,0.0042603487041181
0.7980000000000018,0.4431635316908882,-0.2322352555996175,0.0010646508437165
0.8014999999999972,0.4793843496575265,-0.2141239739516723,0.0
0.8049999999999997,0.5070809795574245,-0.1853609478788058,0.0
0.8085000000000022,0.5006895838366213,-0.1544686201185062,0.0
0.8119999999999976,0.4729912086074713,-0.1214435000122694,-0.0063913957208032
0.8155000000000001,0.4175962034784233,-0.0990718696602061,-0.013849187614575
0.8190000000000026,0.3195889846619337,-0.0681795418999065,-0.01598023463126
0.822499999999998,0.2343645572870505,-0.0511346564249299,-0.0202405833353782
0.8260000000000005,0.136357338470561,-0.02769837522915,-0.013849187614575
0.829500000000003,0.0703088435873395,-0.002131047016685,-0.0127827914416064
0.8329999999999984,0.0191759324916617,0.0287630260728665,-0.0085224427374883
0.8365000000000009,-0.0031956978604016,0.0575260521457331,-0.0053267448770866
0.8399999999999963,-0.0010646508437165,0.0852244273748831,0.0127827914416064
0.8434999999999988,0.0042603487041181,0.0958761717998045,0.01598023463126
0.8470000000000013,0.0063913957208032,0.0958761717998045,0.0191759324916617
0.8504999999999967,1.0828342334959957e-17,0.0884201252352847,0.0202405833353782
0.8539999999999992,-0.01598023463126,0.0649838440395048,0.0191759324916617
0.8575000000000017,-0.013849187614575,0.0490036094082447,0.0095870935812048
0.8609999999999971,4.1747928877526666e-18,0.0340897709499532,0.0010646508437165
0.8644999999999996,0.0319587239332681,0.0287630260728665,-0.0053267448770866
0.8680000000000021,0.1033339636935762,0.0372854688103548,-0.0149138384582915
0.8714999999999975,0.1597953649955928,0.0394165158270399,-0.0170448854749766
0.875,0.219450718828759,0.0426122136874415,-0.0191759324916617
0.8785000000000025,0.2386266513204207,0.0394165158270399,-0.0170448854749766
0.8819999999999979,0.2322352555996175,0.0340897709499532,-0.01598023463126
0.8855000000000004,0.2130593231079557,0.0245026773687483,-0.0181095363186931
0.8890000000000029,0.1715135055934827,0.0213052341790947,-0.01598023463126
0.8924999999999983,0.1406194325039311,0.0213052341790947,-0.0191759324916617
0.8960000000000008,0.1150521042914662,0.0404811666707564,-0.0234362811957798
0.8994999999999962,0.1054650107102613,0.0585907029894496,-0.0191759324916617
0.9029999999999988,0.1001382658331746,0.083093380358198,-0.0202405833353782
0.9065000000000012,0.0841580312019145,0.1012029166768911,-0.0181095363186931
0.9099999999999966,0.0521993072686464,0.1171831513081512,-0.0074577918937717
0.9134999999999992,0.0202405833353782,0.1267702448893561,-0.0063913957208032
0.9170000000000016,-0.0372854688103548,0.1416840833476476,-0.0074577918937717
0.920499999999997,-0.0809623333415129,0.1534022239455376,-0.0085224427374883
0.9239999999999996,-0.1214435000122694,0.1821652500184042,-0.0010646508437165
0.927500000000002,-0.1427504795206162,0.2066679273871526,-0.0042603487041181
0.9309999999999974,-0.1619246666830258,0.233299906443334,-0.002131047016685
0.9345,-0.1725781564371993,0.2460844432141925,0.002131047016685
0.9380000000000024,-0.1832316461913726,0.2546051406224288,0.0095870935812048
0.9414999999999978,-0.1853609478788057,0.258867234655799,0.0117181405978899
0.9450000000000004,-0.1704471094205142,0.2567361876391139,0.0063913957208032
0.9485000000000028,-0.1395530363309625,0.2514094427620272,0.0063913957208032
0.9519999999999982,-0.1225098961852379,0.2599318854995155,0.0095870935812048
0.9555000000000008,-0.1139874534477496,0.2567361876391139,0.0053267448770866
0.9590000000000032,-0.1075943123976944,0.2663250265495707,0.0127827914416064
0.9624999999999986,-0.0916158230956863,0.2780431671474606,0.0106534897541733
0.9660000000000012,-0.0745709376207096,0.2950880526224372,0.0085224427374883
0.9694999999999964,-0.0553950051290479,0.3089354949077603,0.0074577918937717
0.972999999999999,-0.0287630260728665,0.3408942188410284,0.0031956978604016
0.9765000000000016,-0.0063913957208031,0.3590055004889736,0.0031956978604016
0.9799999999999968,0.0159802346312601,0.3728546881035486,0.0031956978604016
0.9834999999999994,0.0351544217936698,0.3707236410868635,0.0095870935812048
0.987000000000002,0.0681795418999065,0.3590055004889736,0.0031956978604016
0.9904999999999972,0.096942567972773,0.3462209637181151,0.0053267448770866
0.9939999999999998,0.1118564064310646,0.3217200316786187,0.0117181405978899
0.9975000000000024,0.1427504795206162,0.2961527034661538,0.0053267448770866
1.0009999999999977,0.1757738542976009,0.274847469287059,0.0010646508437165
1.0045000000000002,0.1416840833476477,0.2695207244099723,0.01598023463126
1.008000000000003,0.0820287295144815,0.2354309534600191,0.0308940730895516
1.011499999999998,0.0575260521457331,0.2311688594266489,0.0245026773687483
1.0150000000000006,0.0234362811957798,0.2141239739516723,0.0234362811957798
1.018500000000003,2.20480447854982e-17,0.180035948330971,0.0234362811957798
1.0219999999999985,-0.0340897709499532,0.136357338470561,0.0191759324916617
1.025500000000001,-0.0798976824977964,0.0798976824977964,0.0117181405978899
1.0289999999999964,-0.1853609478788057,-0.0181095363186931,-0.0042603487041181
1.0324999999999989,-0.2737810731140905,-0.0894847760790012,-0.0191759324916617
1.0360000000000014,-0.3845728287014385,-0.1981454846496642,-0.0436768645311581
1.0394999999999968,-0.4495549274116915,-0.2673896773932872,-0.0564614013020165
1.0429999999999993,-0.5230612141886847,-0.3547434064556033,-0.0745709376207097
1.0465000000000018,-0.559280286826071,-0.413335854774305,-0.0894847760790012
1.0499999999999972,-0.5933700577760243,-0.4900360940824478,-0.1043986145372928
1.0534999999999997,-0.6050881983739141,-0.5337129586136059,-0.1203788491685528
1.0570000000000022,-0.612545990267686,-0.5880433128989374,-0.1459461773810178
1.0604999999999976,-0.6093502924072844,-0.6125459902676857,-0.1597953649955928
1.064,-0.5933700577760243,-0.6381133184801507,-0.177904901314286
1.0675000000000026,-0.5805872663344178,-0.6413090163405524,-0.1949497867892626
1.070999999999998,-0.5550199381219529,-0.6391779693238673,-0.2119946722642392
1.0745000000000005,-0.5369104018032597,-0.6274598287259774,-0.2301042085829324
1.078000000000003,-0.5102766774178262,-0.5997614534968273,-0.2418223491808223
1.0814999999999984,-0.4911024902554165,-0.5837829641948192,-0.247149094057909
1.0850000000000009,-0.4729912086074713,-0.5528888911052676,-0.258867234655799
1.0884999999999962,-0.4602084171658648,-0.5273215628928026,-0.2673896773932873
1.0919999999999987,-0.4389031829867701,-0.4953628389595345,-0.2737810731140905
1.0955000000000013,-0.4325100419367148,-0.4719265577637547,-0.2716500260974054
1.0989999999999966,-0.409073760740935,-0.4378367868138014,-0.2737810731140905
1.1024999999999991,-0.3994866671597301,-0.4090737607409349,-0.2716500260974054
1.1060000000000016,-0.3739193389472652,-0.3696572449138949,-0.2652586303766022
1.109499999999997,-0.3536787556118869,-0.3398295679973119,-0.2599318854995155
1.1129999999999995,-0.3227846825223353,-0.2929570056057521,-0.2428870000245388
1.116500000000002,-0.2950880526224373,-0.2535404897787122,-0.2343645572870505
1.1199999999999974,-0.2599318854995155,-0.1928187397725775,-0.2162550209683574
1.1235,-0.2311688594266489,-0.1480754790684509,-0.2034722295267509
1.1270000000000024,-0.1885583910684593,-0.0873537290623161,-0.1821652500184041
1.1304999999999978,-0.1576643179789077,-0.041545817514473,-0.1576643179789077
1.1340000000000003,-0.1161167551351827,0.0106534897541734,-0.1331616406101593
1.1375000000000028,-0.0809623333415129,0.0575260521457331,-0.1075943123976944
1.1409999999999982,-0.0383501196540713,0.1150521042914662,-0.0809623333415129
1.1445000000000007,-0.002131047016685,0.1597953649955928,-0.0628527970228197
1.1480000000000032,0.0340897709499532,0.2290395577392158,-0.0383501196540714
1.1514999999999986,0.0564614013020165,0.274847469287059,-0.0149138384582915
1.1550000000000011,0.0905494269227178,0.3302424744161071,0.013849187614575
1.1584999999999963,0.1043986145372928,0.369657244913895,0.0319587239332681
1.161999999999999,0.1129210572747811,0.4037470158638482,0.0511346564249298
1.1655000000000015,0.1150521042914662,0.4293143440763132,0.0628527970228197
1.168999999999997,0.1022693128498598,0.4570127193054631,0.0788312863248278
1.1724999999999994,0.0894847760790013,0.4655351620429515,0.0905494269227178
1.176000000000002,0.0660484948832214,0.4783179534845579,0.1075943123976944
1.179499999999997,0.0490036094082448,0.4825800475179281,0.1182478021518678
1.1829999999999998,0.0202405833353782,0.4783179534845579,0.136357338470561
1.1865000000000023,-0.0010646508437164,0.4687308599033531,0.1459461773810178
1.1899999999999975,-0.0245026773687483,0.4538170214450616,0.1491418752414194
1.1935000000000002,-0.0415458175144729,0.4378367868138015,0.1544686201185061
1.1970000000000027,-0.0564614013020165,0.4090737607409349,0.1576643179789077
1.200499999999998,-0.0639174478665362,0.3824417816847534,0.1576643179789077
1.2040000000000006,-0.0692441927436229,0.3515477085952018,0.152337573101821
1.2075000000000031,-0.0681795418999064,0.3291760782431385,0.152337573101821
1.2109999999999983,-0.071375239760308,0.302544099186957,0.1438151303643327
1.214500000000001,-0.0660484948832213,0.2801724688348938,0.1331616406101593
1.2179999999999964,-0.057526052145733,0.2546051406224288,0.124639197872671
1.221499999999999,-0.0479389585645282,0.233299906443334,0.1161167551351827
1.2250000000000014,-0.0362208179666382,0.2024058333537824,0.1118564064310645
1.2284999999999968,-0.0234362811957798,0.1736428072809158,0.1043986145372928
1.231999999999999,-0.0117181405978899,0.1512729222581045,0.0948115209560879
1.2355000000000018,0.0010646508437165,0.1289012919060412,0.0841580312019145
1.2389999999999972,0.013849187614575,0.1022693128498597,0.0767019846373948
1.2424999999999995,0.0234362811957798,0.0788312863248278,0.0713752397603081
1.2460000000000022,0.0287630260728665,0.0319587239332681,0.069244192743623
1.2494999999999976,0.0223716303520633,-0.0042603487041181,0.0628527970228197
1.253,0.0053267448770866,-0.0681795418999064,0.0458079115478431
1.2565000000000026,-0.0127827914416064,-0.1203788491685528,0.0351544217936697
1.259999999999998,-0.0511346564249299,-0.1992101354933808,0.0181095363186931
1.2635000000000003,-0.0916158230956863,-0.2524758389349957,0.0085224427374883
1.267000000000003,-0.1491418752414194,-0.3238510786953038,-0.0074577918937717
1.2704999999999984,-0.1960144376329792,-0.3675279432264619,-0.0149138384582915
1.274000000000001,-0.2620629325162006,-0.4165315526347067,-0.0255673282124649
1.2774999999999963,-0.3110665419244454,-0.4452945787075732,-0.0372854688103548
1.2809999999999988,-0.3579391043160052,-0.4729912086074712,-0.0436768645311581
1.2845000000000013,-0.3898978282492733,-0.4921671410991329,-0.0500682602519613
1.2879999999999967,-0.4122694586013366,-0.5049499325407395,-0.0596570991624181
1.2914999999999992,-0.4261186462159116,-0.508147375730393,-0.0649838440395048
1.2950000000000017,-0.4271832970596281,-0.5070809795574245,-0.0756355884644262
1.298499999999997,-0.425053995372195,-0.4964292351325031,-0.0809623333415129
1.3019999999999996,-0.4112048077576201,-0.4985585368199361,-0.0852244273748831
1.305500000000002,-0.3941599222826434,-0.494298188115818,-0.0937468701123714
1.3089999999999975,-0.3664615470534934,-0.4911024902554164,-0.0980072188164895
1.3125,-0.3440916620306821,-0.4868403962220462,-0.1033339636935762
1.3160000000000025,-0.3110665419244454,-0.482580047517928,-0.1097253594143795
1.319499999999998,-0.2812388650078623,-0.4676662090596366,-0.1129210572747811
1.3230000000000004,-0.2482137449016256,-0.4559463231324946,-0.1161167551351827
1.326500000000003,-0.2183860679850425,-0.4431635316908882,-0.1161167551351827
1.3299999999999983,-0.1832316461913727,-0.4282496932325966,-0.1193124529955843
1.3335000000000008,-0.164055713699711,-0.41120480775762,-0.1171831513081512
1.3369999999999962,-0.1299659427497578,-0.3994866671597301,-0.1150521042914662
1.3404999999999987,-0.1043986145372928,-0.4026823650201317,-0.1043986145372928
1.3440000000000012,-0.0703088435873396,-0.4069427137242498,-0.1022693128498597
1.3474999999999966,-0.0479389585645283,-0.4069427137242498,-0.0980072188164895
1.350999999999999,-0.0255673282124649,-0.4133358547743051,-0.0916158230956863
1.3545000000000016,-0.0095870935812049,-0.4207919013388249,-0.0937468701123714
1.357999999999997,0.002131047016685,-0.4325100419367148,-0.0916158230956863
1.3614999999999997,0.0031956978604015,-0.4378367868138015,-0.0884201252352847
1.365000000000002,0.0031956978604015,-0.4495549274116914,-0.0852244273748831
1.3684999999999974,-5.596791638670632e-17,-0.4570127193054631,-0.0820287295144815
1.372,-5.727259259942609e-17,-0.4676662090596366,-0.0798976824977964
1.3755000000000024,-5.68810187426596e-17,-0.464468765869983,-0.0777666354811113
1.3789999999999978,-0.0042603487041182,-0.4708619069200382,-0.0809623333415129
1.3825000000000005,-0.0042603487041182,-0.4687308599033531,-0.083093380358198
1.3860000000000028,-0.0031956978604016,-0.4580773701491797,-0.0841580312019145
1.3894999999999982,-0.0053267448770867,-0.4495549274116914,-0.0873537290623162
1.393000000000001,-0.0085224427374883,-0.4303807402492817,-0.0948115209560879
1.3965000000000032,-0.0085224427374883,-0.4090737607409349,-0.1033339636935762
1.3999999999999986,-0.0085224427374883,-0.3675279432264619,-0.1139874534477496
1.403500000000001,-0.013849187614575,-0.3249157295390203,-0.1225098961852379
1.4069999999999965,-0.013849187614575,-0.2460844432141925,-0.1331616406101593
1.410499999999999,-0.0053267448770867,-0.1789695521580025,-0.1416840833476476
1.4140000000000017,0.0053267448770866,-0.0873537290623162,-0.1459461773810178
1.4174999999999969,0.0255673282124649,-0.01598023463126,-0.150206526085136
1.4209999999999994,0.0596570991624181,0.0703088435873395,-0.1608600158393093
1.424500000000002,0.096942567972773,0.1299659427497577,-0.166186760716396
1.4279999999999973,0.1438151303643328,0.2034722295267509,-0.1757738542976009
1.4314999999999998,0.1811005991746876,0.2460844432141924,-0.1853609478788057
1.4350000000000025,0.2343645572870506,0.2972173543098703,-0.1981454846496642
1.4384999999999977,0.2801724688348938,0.3313071252598236,-0.2024058333537824
1.4420000000000002,0.3249157295390204,0.3696572449138949,-0.2130593231079557
1.445500000000003,0.3643322453660604,0.3835064325284699,-0.2183860679850424
1.448999999999998,0.4112048077576201,0.4048134120368167,-0.2215817658454441
1.4525000000000006,0.4474238803950064,0.41120480775762,-0.2205171150017275
1.456000000000003,0.4964292351325032,0.413335854774305,-0.2269085107225308
1.4594999999999985,0.5305172607532044,0.4101401569139034,-0.2237128128621291
1.463000000000001,0.5699337765802444,0.3930952714389268,-0.2269085107225308
1.4664999999999964,0.5933700577760241,0.37178829193058,-0.2258421145495622
1.4699999999999989,0.6242641308655758,0.3291760782431384,-0.2290395577392158
1.4735000000000014,0.6359822714634658,0.2972173543098703,-0.2290395577392158
1.4769999999999968,0.644504714200954,0.2556715367953973,-0.233299906443334
1.4804999999999993,0.6487650629050722,0.2205171150017275,-0.2343645572870505
1.4840000000000018,0.644504714200954,0.180035948330971,-0.2386266513204207
1.4874999999999972,0.6338512244467807,0.152337573101821,-0.2375620004767041
1.4909999999999997,0.6157416881280875,0.1246391978726709,-0.2396913021641372
1.4945000000000022,0.600827849669796,0.1043986145372927,-0.2343645572870505
1.4979999999999976,0.5763251723010476,0.0788312863248278,-0.2258421145495622
1.5015,0.559280286826071,0.0671131457269378,-0.2215817658454441
1.5050000000000026,0.5347793547865746,0.0468725623915596,-0.2173214171413259
1.508499999999998,0.508147375730393,0.0351544217936697,-0.2130593231079557
1.5120000000000005,0.4634041150262664,0.01598023463126,-0.2098636252475541
1.515500000000003,0.425053995372195,0.002131047016685,-0.2119946722642392
1.5189999999999984,0.3653968962097769,-0.013849187614575,-0.2098636252475541
1.5225000000000009,0.3153286359578155,-0.0255673282124649,-0.2066679273871525
1.5259999999999962,0.2482137449016255,-0.0394165158270399,-0.1970790884766957
1.5294999999999987,0.1928187397725775,-0.0436768645311581,-0.1992101354933808
1.5330000000000013,0.1193124529955843,-0.0490036094082448,-0.1960144376329791
1.5364999999999966,0.0713752397603081,-0.0543303542853314,-0.1949497867892626
1.5399999999999991,0.0074577918937717,-0.0564614013020165,-0.1864273440517743
1.5435000000000016,-0.0308940730895516,-0.0585907029894496,-0.1874919948954908
1.546999999999997,-0.0862890782185996,-0.055395005129048,-0.1811005991746876
1.5504999999999995,-0.1193124529955843,-0.0564614013020165,-0.180035948330971
1.554000000000002,-0.152337573101821,-0.0490036094082447,-0.1704471094205142
1.5574999999999974,-0.1693824585767977,-0.0426122136874415,-0.1640557136997109
1.561,-0.1896230419121759,-0.0202405833353782,-0.1544686201185061
1.5645000000000024,-0.1949497867892626,-0.002131047016685,-0.150206526085136
1.5679999999999978,-0.1928187397725775,0.0266319790561815,-0.1395530363309626
1.5715000000000003,-0.1885583910684593,0.0543303542853315,-0.124639197872671
1.5750000000000028,-0.1640557136997109,0.0820287295144815,-0.1075943123976944
1.5784999999999982,-0.1565979218059392,0.1043986145372928,-0.0990718696602061
1.5820000000000007,-0.1267702448893561,0.1214435000122694,-0.0852244273748831
1.5855000000000032,-0.1054650107102613,0.1310323389227262,-0.0724398906040246
1.5889999999999986,-0.0756355884644262,0.1310323389227262,-0.0585907029894496
1.5925000000000011,-0.0585907029894496,0.1257055940456395,-0.0479389585645282
1.5959999999999963,-0.0351544217936697,0.1225098961852379,-0.0351544217936697
1.599499999999999,-0.0202405833353782,0.1171831513081512,-0.0213052341790947
1.6030000000000015,-0.0085224427374882,0.110790010258096,-0.0042603487041181
1.606499999999997,0.0031956978604016,0.096942567972773,0.0042603487041181
1.6099999999999994,0.013849187614575,0.0777666354811113,0.0213052341790947
1.613500000000002,0.0223716303520633,0.0596570991624181,0.0330233747769847
1.616999999999997,0.0394165158270399,0.0362208179666383,0.0479389585645282
1.6204999999999998,0.0500682602519613,0.01598023463126,0.055395005129048
1.6240000000000023,0.0617864008498512,-0.0106534897541733,0.0724398906040246
1.6274999999999975,0.0777666354811113,-0.0340897709499532,0.0809623333415129
1.6310000000000002,0.0916158230956863,-0.0628527970228198,0.0937468701123714
1.6345000000000027,0.1065296615539778,-0.0820287295144815,0.1022693128498597
1.637999999999998,0.1182478021518678,-0.1022693128498597,0.1139874534477496
1.6415000000000006,0.1331616406101593,-0.1161167551351827,0.1225098961852379
1.6450000000000031,0.1491418752414194,-0.1278348957330727,0.1416840833476476
1.6484999999999983,0.1672514115601125,-0.136357338470561,0.1512729222581045
1.652000000000001,0.193883390616294,-0.1480754790684509,0.1704471094205142
1.6554999999999964,0.2151903701246408,-0.1491418752414194,0.180035948330971
1.658999999999999,0.2439533961975073,-0.1597953649955928,0.1928187397725775
1.6625000000000014,0.2695207244099723,-0.1683160624038291,0.2024058333537824
1.6659999999999968,0.286565609884949,-0.1821652500184042,0.2141239739516723
1.669499999999999,0.3046751462036421,-0.1853609478788058,0.2247774637058457
1.6730000000000018,0.3227846825223353,-0.1938833906162941,0.2354309534600191
1.6764999999999972,0.341960615013997,-0.1992101354933808,0.2450180470412239
1.6799999999999995,0.3611348021764067,-0.2151903701246409,0.2673896773932873
1.6835000000000022,0.3781796876513832,-0.2290395577392159,0.2769767709744921
1.6869999999999976,0.4058780628805332,-0.2492801410745941,0.2940216564494687
1.6905,0.4282496932325966,-0.2663250265495708,0.3057397970473587
1.6940000000000026,0.4623394641825498,-0.2897613077453506,0.3153286359578155
1.697499999999998,0.4847093492053611,-0.3057397970473587,0.316393286801532
1.7010000000000003,0.5070809795574245,-0.3238510786953039,0.3153286359578155
1.704500000000003,0.5305172607532044,-0.3526141047681704,0.3131975889411305
1.7079999999999984,0.5454328445407479,-0.3685925940701785,0.2961527034661538
1.711500000000001,0.5528888911052677,-0.3803107346680684,0.2812388650078622
1.7149999999999963,0.5507578440885826,-0.3856374795451551,0.2673896773932873
1.7184999999999988,0.5507578440885826,-0.3909642244222419,0.2492801410745941
1.7220000000000013,0.5443664483677794,-0.39522457312636,0.2301042085829324
1.7254999999999967,0.5369104018032596,-0.3888331774055568,0.2034722295267509
1.7289999999999992,0.5219948180157161,-0.38350643252847,0.1853609478788057
1.7325000000000017,0.503885281697023,-0.3717882919305801,0.152337573101821
1.735999999999997,0.4836446983616446,-0.367527943226462,0.1342280367831279
1.7394999999999996,0.4495549274116914,-0.3536787556118869,0.1086607085706629
1.743000000000002,0.4239875991992264,-0.3483520107348002,0.0894847760790012
1.7464999999999975,0.3728546881035485,-0.3440916620306821,0.0660484948832214
1.75,0.3355692192931937,-0.3430252658577136,0.0500682602519613
1.7535000000000025,0.2759121201307755,-0.3376985209806269,0.0319587239332681
1.756999999999998,0.2301042085829323,-0.3313071252598237,0.0170448854749766
1.7605000000000004,0.1672514115601125,-0.3270467765557054,0.002131047016685
1.764000000000003,0.1150521042914661,-0.3217200316786187,0.0
1.7674999999999983,0.0447432607041266,-0.3110665419244454,-0.0010646508437165
1.7710000000000008,-3.731194425780423e-17,-0.3046751462036421,-0.0063913957208032
1.7744999999999962,-0.067113145726938,-0.288694911572382,-0.0063913957208032
1.7779999999999987,-0.1182478021518678,-0.2801724688348938,-0.013849187614575
1.7815000000000012,-0.1725781564371993,-0.2620629325162006,-0.0149138384582915
1.7849999999999966,-0.2183860679850425,-0.2514094427620272,-0.0202405833353782
1.788499999999999,-0.2578025838120825,-0.2428870000245388,-0.0245026773687483
1.7920000000000016,-0.2854992137119805,-0.2439533961975073,-0.0223716303520633
1.795499999999997,-0.3046751462036422,-0.2428870000245388,-0.029827676916583
1.7989999999999997,-0.3153286359578156,-0.2418223491808223,-0.041545817514473
1.802500000000002,-0.3153286359578156,-0.2439533961975073,-0.0575260521457331
1.8059999999999972,-0.3163932868015321,-0.2514094427620271,-0.0798976824977964
1.8095,-0.3036087500306736,-0.2556715367953973,-0.1086607085706629
1.8130000000000024,-0.2886949115723821,-0.2663250265495707,-0.1331616406101593
1.8164999999999976,-0.2556715367953974,-0.2737810731140904,-0.1725781564371993
1.8200000000000005,-0.2269085107225308,-0.2801724688348937,-0.1970790884766957
1.8235000000000028,-0.1800359483309711,-0.2929570056057522,-0.2354309534600191
1.8269999999999984,-0.1342280367831279,-0.3036087500306735,-0.2578025838120824
1.830500000000001,-0.0767019846373948,-0.314262239784847,-0.2833681666952953
1.8340000000000032,-0.0234362811957798,-0.3195889846619337,-0.3036087500306735
1.8374999999999984,0.0490036094082447,-0.3291760782431385,-0.3259803803827369
1.841000000000001,0.1054650107102613,-0.3323735214327921,-0.3398295679973119
1.8444999999999965,0.1789695521580025,-0.3366338701369103,-0.3622011983493752
1.847999999999999,0.2247774637058457,-0.3398295679973119,-0.3771150368076668
1.8515000000000013,0.2865656098849489,-0.3366338701369104,-0.3941599222826434
1.8549999999999969,0.3217200316786187,-0.3323735214327922,-0.41120480775762
1.8584999999999996,0.3653968962097768,-0.3206536355056503,-0.425053995372195
1.8620000000000017,0.3909642244222417,-0.312131192768162,-0.4346410889533998
1.8654999999999973,0.4165315526347067,-0.2929570056057523,-0.4420988808471717
1.869,0.4293143440763131,-0.2748474692870591,-0.4452945787075733
1.8725000000000025,0.4367721359700849,-0.2439533961975074,-0.4538170214450616
1.8759999999999977,0.4357057397971164,-0.2130593231079558,-0.4548816722887781
1.8795,0.4325100419367148,-0.1704471094205142,-0.4538170214450616
1.883000000000003,0.4165315526347067,-0.1320969897664428,-0.4538170214450616
1.886499999999998,0.3952245731263599,-0.0926804739394029,-0.4420988808471717
1.8900000000000008,0.3707236410868635,-0.0628527970228198,-0.4335764381096833
1.893500000000003,0.3313071252598236,-0.0245026773687484,-0.4165315526347067
1.8969999999999985,0.2961527034661538,0.0319587239332681,-0.4282496932325966
1.900500000000001,0.2396913021641372,0.1033339636935762,-0.4058780628805333
1.9039999999999964,0.1981454846496642,0.1651203645434275,-0.3920288752659583
1.9074999999999989,0.1310323389227263,0.2514094427620272,-0.3803107346680683
1.9110000000000011,0.0798976824977964,0.2929570056057522,-0.3845728287014385
1.9144999999999968,0.0170448854749766,0.3462209637181151,-0.3994866671597301
1.9179999999999997,-0.0276983752291499,0.4016177141764152,-0.425053995372195
1.9215000000000015,-0.0884201252352846,0.4495549274116914,-0.4708619069200382
1.9249999999999967,-0.1289012919060411,0.4847093492053612,-0.5060163287137079
1.9285,-0.1789695521580025,0.519865516328283,-0.561411333842756
1.9320000000000024,-0.2066679273871525,0.5401060996636612,-0.6018925005135125
1.9354999999999976,-0.2279731615662472,0.5560845889656694,-0.6434400633572375
1.939,-0.2343645572870505,0.5731294744406459,-0.6615495996759307
1.9425000000000023,-0.2322352555996174,0.6125459902676859,-0.670072042413419
1.945999999999998,-0.2162550209683573,0.642373667184269,-0.6658099483800488
1.9495000000000005,-0.1853609478788057,0.6722030894301041,-0.6562228547988439
1.953000000000003,-0.1480754790684508,0.6935083236091989,-0.6466357612176391
1.9564999999999984,-0.0937468701123713,0.7244023966987505,-0.6455693650446706
1.9600000000000009,-0.0447432607041265,0.7425119330174437,-0.6402426201675839
1.963499999999996,0.025567328212465,0.7616878655091054,-0.6274598287259775
1.9669999999999987,0.0713752397603082,0.7819284488444836,-0.614677037284371
1.9705000000000013,0.1448797812080494,0.7947112402860901,-0.5944364539489927
1.9739999999999969,0.1970790884766958,0.8021690321798618,-0.5720648235969293
1.9774999999999991,0.2652586303766023,0.8053647300402634,-0.5411707505073777
1.9810000000000016,0.3068061932203273,0.7925801932694049,-0.5145387714511963
1.984499999999997,0.3632658491930919,0.7616878655091054,-0.4772533026408414
1.9879999999999995,0.3994866671597302,0.7371851881403569,-0.4484902765679749
1.991500000000002,0.4357057397971165,0.6967040214696004,-0.4069427137242498
1.9949999999999972,0.45062132358466,0.6658099483800488,-0.3685925940701784
1.9985,0.4527506252720931,0.6253287817092923,-0.3355692192931938
2.0020000000000024,0.4431635316908883,0.6104149432510009,-0.3046751462036421
2.005499999999998,0.4197272504951084,0.5976321518093943,-0.2450180470412239
2.0090000000000003,0.3941599222826434,0.5827165680218508,-0.2077325782308691
2.012500000000003,0.341960615013997,0.5539552872782363,-0.1747092034538843
2.0159999999999982,0.302544099186957,0.5379750526469761,-0.1534022239455376
2.0195000000000007,0.2396913021641373,0.5262569120490862,-0.1267702448893561
2.0230000000000032,0.1842962970350893,0.5124077244345112,-0.1150521042914662
2.026499999999998,0.1139874534477497,0.4932317919428495,-0.0980072188164895
2.030000000000001,0.0575260521457331,0.4815136513449596,-0.096942567972773
2.0334999999999965,-0.0063913957208031,0.4634041150262664,-0.0894847760790012
2.036999999999999,-0.057526052145733,0.4570127193054631,-0.0894847760790012
2.040500000000001,-0.1203788491685528,0.4495549274116914,-0.0905494269227178
2.043999999999997,-0.1619246666830258,0.4442281825346047,-0.0905494269227178
2.0474999999999994,-0.2066679273871525,0.425053995372195,-0.0905494269227178
2.051000000000002,-0.2332999064433339,0.4080091098972184,-0.0948115209560879
2.0544999999999973,-0.2578025838120824,0.3728546881035486,-0.0948115209560879
2.058,-0.2684543282370037,0.3440916620306821,-0.0990718696602061
2.0615000000000023,-0.2727164222703739,0.2993484013265555,-0.1054650107102613
2.0649999999999977,-0.2652586303766021,0.2652586303766022,-0.1118564064310645
2.0685,-0.2578025838120824,0.2237128128621292,-0.110790010258096
2.0720000000000027,-0.2535404897787122,0.1874919948954908,-0.1086607085706629
2.075499999999998,-0.2450180470412239,0.1352926876268444,-0.0990718696602061
2.0790000000000006,-0.2396913021641372,0.1043986145372928,-0.0980072188164895
2.082500000000003,-0.2396913021641372,0.0521993072686464,-0.0841580312019145
2.0859999999999985,-0.2482137449016255,0.0106534897541734,-0.0724398906040246
2.089500000000001,-0.2631275833599171,-0.0362208179666382,-0.0564614013020165
2.0929999999999964,-0.2876302607286655,-0.0745709376207096,-0.0394165158270399
2.096499999999999,-0.316393286801532,-0.1214435000122693,-0.0053267448770866
2.1000000000000014,-0.3536787556118869,-0.1502065260851359,0.0170448854749766
2.103499999999997,-0.4080091098972184,-0.1821652500184041,0.0532657034416149
2.1069999999999998,-0.4516859744283765,-0.2056015312141839,0.0809623333415129
2.110500000000002,-0.5156034222949128,-0.2258421145495622,0.124639197872671
2.113999999999997,-0.5656734278761262,-0.2439533961975073,0.1576643179789077
2.1175,-0.6327865736030641,-0.2546051406224287,0.2066679273871525
2.121000000000002,-0.6785944851509074,-0.2641939795328856,0.2396913021641372
2.1244999999999976,-0.7307937924195538,-0.2716500260974053,0.286565609884949
2.128,-0.7606214693361367,-0.2737810731140904,0.3100018910807288
2.1315000000000026,-0.7947112402860901,-0.276976770974492,0.3451563128743986
2.134999999999998,-0.8117561257610666,-0.2748474692870589,0.3611348021764067
2.1385000000000005,-0.8245406625319252,-0.2663250265495706,0.3749839897909817
2.142000000000003,-0.8256053133756417,-0.2599318854995154,0.3739193389472651
2.1454999999999984,-0.8149518236214683,-0.2546051406224286,0.3675279432264619
2.149000000000001,-0.8000379851631767,-0.249280141074594,0.3622011983493752
2.1524999999999963,-0.7638171671965385,-0.2428870000245387,0.3494166615785167
2.155999999999999,-0.7265316983861836,-0.2418223491808222,0.3387649171535954
2.1595000000000013,-0.6658099483800488,-0.2343645572870505,0.3174579376452486
2.1629999999999967,-0.6104149432510009,-0.2290395577392157,0.2982837504828389
2.166499999999999,-0.5219948180157161,-0.2279731615662472,0.2684543282370038
2.1700000000000017,-0.4474238803950063,-0.2247774637058456,0.2482137449016255
2.173499999999997,-0.3462209637181151,-0.2237128128621291,0.2151903701246408
2.177,-0.260998281672484,-0.2226464166891606,0.1811005991746876
2.180500000000002,-0.1523375731018211,-0.2162550209683573,0.1406194325039311
2.183999999999997,-0.069244192743623,-0.219450718828759,0.1065296615539778
2.1875,0.0383501196540713,-0.2109282760912707,0.0617864008498512
2.1910000000000025,0.1139874534477496,-0.205601531214184,0.029827676916583
2.194499999999998,0.2087989744038376,-0.1960144376329791,-0.0117181405978899
2.1980000000000004,0.2716500260974054,-0.1874919948954908,-0.0447432607041266
2.201500000000003,0.3440916620306821,-0.1736428072809159,-0.0788312863248278
2.2049999999999983,0.3941599222826434,-0.1619246666830259,-0.1097253594143795
2.208500000000001,0.4399678338304866,-0.1438151303643328,-0.1448797812080492
2.211999999999996,0.4761869064678729,-0.1310323389227263,-0.1619246666830259
2.2154999999999987,0.4974938859762197,-0.1043986145372928,-0.1821652500184041
2.219000000000001,0.5070809795574245,-0.0862890782185997,-0.191754088928861
2.2224999999999966,0.5134723752782278,-0.0617864008498513,-0.2024058333537824
2.225999999999999,0.5124077244345112,-0.0436768645311581,-0.2087989744038376
2.2295000000000016,0.4974938859762197,-0.0159802346312601,-0.2002765316663493
2.232999999999997,0.4825800475179281,0.0031956978604015,-0.1874919948954908
2.2364999999999995,0.4548816722887781,0.0308940730895515,-0.1651203645434275
2.240000000000002,0.4357057397971164,0.0532657034416148,-0.1438151303643327
2.2434999999999974,0.4069427137242498,0.0841580312019145,-0.1054650107102613
2.247,0.3877685265618402,0.1022693128498597,-0.0767019846373948
2.2505000000000024,0.355809802628572,0.1310323389227262,-0.0362208179666383
2.253999999999998,0.3345028231202252,0.1448797812080492,-0.0095870935812048
2.2575000000000003,0.3068061932203272,0.166186760716396,0.0245026773687483
2.261000000000003,0.2918906094327836,0.180035948330971,0.0458079115478431
2.264499999999998,0.2652586303766022,0.1992101354933807,0.069244192743623
2.2680000000000007,0.2482137449016256,0.2087989744038376,0.0798976824977964
2.271500000000003,0.2226464166891606,0.2226464166891606,0.0894847760790012
2.2749999999999986,0.2034722295267509,0.2311688594266489,0.0926804739394028
2.278500000000001,0.1725781564371993,0.2428870000245388,0.0948115209560879
2.2819999999999965,0.1555332709622227,0.2482137449016255,0.0916158230956863
2.285499999999999,0.1235745470289545,0.258867234655799,0.0820287295144815
2.289000000000001,0.0937468701123714,0.258867234655799,0.0735062867769931
2.292499999999997,0.0564614013020165,0.2556715367953973,0.0543303542853314
2.296,0.0330233747769847,0.2396913021641372,0.0426122136874415
2.299500000000002,-0.0117181405978899,0.2162550209683574,0.0255673282124649
2.3029999999999973,-0.0468725623915596,0.2002765316663493,0.0117181405978899
2.3065,-0.0777666354811113,0.1747092034538843,-0.0074577918937717
2.3100000000000023,-0.1043986145372928,0.1544686201185061,-0.0245026773687483
2.3134999999999977,-0.1363573384705609,0.1235745470289545,-0.0490036094082447
2.317,-0.1619246666830259,0.1054650107102613,-0.0628527970228197
2.3205000000000027,-0.1992101354933808,0.0777666354811113,-0.0884201252352847
2.323999999999998,-0.2226464166891606,0.0607217500061347,-0.1043986145372928
2.327500000000001,-0.2514094427620272,0.0351544217936698,-0.1225098961852379
2.331000000000003,-0.2673896773932873,0.0234362811957798,-0.136357338470561
2.3344999999999985,-0.2929570056057522,0.0159802346312601,-0.1555332709622227
2.338000000000001,-0.3078708440640437,0.0159802346312601,-0.1640557136997109
2.3414999999999964,-0.3259803803827369,0.0085224427374883,-0.1768385051413174
2.344999999999999,-0.3376985209806268,0.0127827914416065,-0.1811005991746876
2.3485000000000014,-0.3515477085952018,0.0127827914416065,-0.1736428072809158
2.3519999999999968,-0.3526141047681703,0.0159802346312601,-0.1704471094205142
2.3554999999999997,-0.3526141047681703,0.0255673282124649,-0.1672514115601126
2.3590000000000018,-0.3462209637181151,0.0319587239332682,-0.166186760716396
2.362499999999997,-0.3355692192931938,0.0511346564249299,-0.1651203645434275
2.366,-0.3238510786953038,0.0607217500061347,-0.1693824585767977
2.369500000000002,-0.3068061932203272,0.0745709376207097,-0.1672514115601126
2.3729999999999976,-0.2918906094327836,0.0884201252352847,-0.1651203645434275
2.3765,-0.2737810731140905,0.1054650107102613,-0.1736428072809158
2.3800000000000026,-0.2652586303766022,0.124639197872671,-0.180035948330971
2.383499999999998,-0.2567361876391139,0.1459461773810178,-0.1928187397725775
2.3870000000000005,-0.2535404897787122,0.1672514115601126,-0.2034722295267509
2.390500000000003,-0.2620629325162006,0.1970790884766957,-0.2183860679850424
2.3939999999999984,-0.2705853752536888,0.2173214171413259,-0.2322352555996175
2.397500000000001,-0.2801724688348937,0.2439533961975074,-0.2482137449016255
2.400999999999996,-0.2897613077453505,0.2578025838120825,-0.260998281672484
2.4044999999999987,-0.3100018910807288,0.2791078179911772,-0.2759121201307756
2.4080000000000013,-0.3249157295390203,0.2993484013265555,-0.2833681666952953
2.4114999999999966,-0.3376985209806268,0.3153286359578156,-0.2961527034661538
2.414999999999999,-0.3472873598910836,0.3323735214327922,-0.2972173543098703
2.4185000000000016,-0.3526141047681703,0.3472873598910837,-0.3078708440640437
2.421999999999997,-0.3558098026285719,0.3632658491930918,-0.314262239784847
2.4254999999999995,-0.3558098026285719,0.38350643252847,-0.3259803803827369
2.429000000000002,-0.3526141047681703,0.3984202709867616,-0.3323735214327921
2.432499999999997,-0.3408942188410284,0.4058780628805333,-0.3430252658577135
2.436,-0.3313071252598236,0.4122694586013366,-0.3472873598910836
2.4395000000000024,-0.3046751462036421,0.4197272504951084,-0.341960615013997
2.442999999999998,-0.2844345628682638,0.4325100419367148,-0.3408942188410284
2.4465000000000003,-0.2524758389349956,0.4389031829867701,-0.3345028231202252
2.450000000000003,-0.221581765845444,0.4410324846742031,-0.3270467765557054
2.4534999999999982,-0.1811005991746875,0.4399678338304866,-0.3217200316786187
2.4570000000000007,-0.1470108282247343,0.43890318298677,-0.3100018910807288
2.4605000000000032,-0.096942567972773,0.4314453910929982,-0.300413052170272
2.463999999999998,-0.0617864008498512,0.4197272504951083,-0.2908259585890671
2.467500000000001,-0.0127827914416064,0.4080091098972184,-0.2769767709744921
2.4709999999999965,0.0181095363186932,0.3909642244222418,-0.2673896773932873
2.474499999999999,0.0639174478665363,0.3685925940701784,-0.2567361876391139
2.478000000000001,0.0958761717998045,0.3504830577514853,-0.2460844432141925
2.481499999999997,0.1352926876268444,0.3259803803827369,-0.2311688594266489
2.4849999999999994,0.1629910628559944,0.3078708440640437,-0.2141239739516723
2.488500000000002,0.1874919948954908,0.2769767709744921,-0.2066679273871525
2.4919999999999973,0.2087989744038376,0.2556715367953973,-0.1981454846496642
2.4955,0.2343645572870506,0.2322352555996174,-0.1874919948954908
2.4990000000000023,0.2492801410745941,0.2183860679850424,-0.1811005991746876
2.5024999999999977,0.2663250265495707,0.2002765316663493,-0.1768385051413174
2.506,0.2684543282370038,0.1917540889288609,-0.1736428072809158
2.5095000000000027,0.2705853752536888,0.1885583910684593,-0.1757738542976009
2.512999999999998,0.2695207244099723,0.1896230419121758,-0.1768385051413174
2.5165000000000006,0.2535404897787122,0.193883390616294,-0.1811005991746876
2.520000000000003,0.2428870000245389,0.1949497867892626,-0.1832316461913727
2.5234999999999985,0.219450718828759,0.2024058333537823,-0.191754088928861
2.527000000000001,0.1981454846496642,0.2045368803704674,-0.1853609478788057
2.5304999999999964,0.1693824585767977,0.2173214171413258,-0.180035948330971
2.533999999999999,0.1470108282247344,0.2269085107225307,-0.1736428072809158
2.5375000000000014,0.1150521042914662,0.2375620004767041,-0.1597953649955928
2.540999999999997,0.0916158230956863,0.2482137449016255,-0.1470108282247343
2.5444999999999998,0.0628527970228198,0.2567361876391139,-0.1214435000122694
2.548000000000002,0.0383501196540714,0.2599318854995155,-0.1033339636935762
2.551499999999997,0.0031956978604016,0.2663250265495707,-0.0756355884644262
2.555,-0.0202405833353782,0.260998281672484,-0.0500682602519613
2.558500000000002,-0.0521993072686463,0.2514094427620272,-0.0255673282124649
2.5619999999999976,-0.0756355884644262,0.2418223491808223,0.0010646508437165
2.5655,-0.1097253594143794,0.2237128128621291,0.0319587239332681
2.5690000000000026,-0.1278348957330726,0.2013411825100658,0.0500682602519613
2.572499999999998,-0.1534022239455376,0.1747092034538844,0.0841580312019145
2.5760000000000005,-0.1651203645434275,0.1523375731018211,0.1001382658331746
2.579500000000003,-0.1779049013142859,0.1289012919060412,0.1214435000122694
2.5829999999999984,-0.1842962970350892,0.1022693128498597,0.1352926876268444
2.586500000000001,-0.1853609478788057,0.0703088435873396,0.1534022239455376
2.5899999999999963,-0.1768385051413174,0.0521993072686464,0.1597953649955928
2.593499999999999,-0.1619246666830259,0.0234362811957798,0.1693824585767977
2.5970000000000013,-0.1470108282247343,0.002131047016685,0.1704471094205142
2.6004999999999967,-0.1129210572747811,-0.0149138384582915,0.1725781564371993
2.603999999999999,-0.0873537290623162,-0.0287630260728665,0.1693824585767977
2.6075000000000017,-0.0447432607041266,-0.041545817514473,0.1629910628559944
2.610999999999997,-0.0063913957208032,-0.0511346564249298,0.152337573101821
2.6145,0.0394165158270399,-0.0564614013020165,0.1406194325039311
2.618000000000002,0.0809623333415129,-0.055395005129048,0.124639197872671
2.621499999999997,0.1299659427497577,-0.0532657034416149,0.1065296615539778
2.625,0.166186760716396,-0.0468725623915597,0.0862890782185996
2.6285000000000025,0.205601531214184,-0.02769837522915,0.0607217500061347
2.631999999999998,0.2279731615662473,-0.013849187614575,0.0447432607041266
2.6355000000000004,0.2514094427620272,0.0053267448770866,0.0223716303520633
2.639000000000003,0.2631275833599171,0.0213052341790947,0.0127827914416064
2.6424999999999983,0.2684543282370038,0.0394165158270399,0.0095870935812048
2.646000000000001,0.2663250265495707,0.0490036094082447,0.0
2.649499999999996,0.2578025838120824,0.0585907029894496,0.0
2.6529999999999987,0.2396913021641372,0.0639174478665363,-0.002131047016685
2.656500000000001,0.2258421145495622,0.0745709376207097,0.0
2.6599999999999966,0.205601531214184,0.0798976824977963,0.0063913957208032
2.663499999999999,0.1747092034538843,0.0884201252352847,0.0117181405978899
2.6670000000000016,0.1576643179789077,0.0916158230956863,0.0234362811957798
2.670499999999997,0.124639197872671,0.096942567972773,0.0383501196540714
2.6739999999999995,0.1086607085706629,0.1012029166768911,0.0468725623915597
2.677500000000002,0.0820287295144815,0.1043986145372928,0.0596570991624181
2.6809999999999974,0.0671131457269379,0.1022693128498597,0.0660484948832214
2.6845,0.0500682602519613,0.1097253594143795,0.0671131457269379
2.6880000000000024,0.0383501196540714,0.110790010258096,0.0703088435873395
2.691499999999998,0.0266319790561814,0.1139874534477496,0.0649838440395048
2.6950000000000003,0.0223716303520633,0.1235745470289545,0.0532657034416149
2.698500000000003,0.0106534897541734,0.1342280367831279,0.0458079115478431
2.701999999999998,0.0031956978604016,0.1470108282247343,0.0351544217936697
2.7055000000000007,0.0010646508437165,0.1683160624038291,0.0234362811957798
2.709000000000003,-0.0063913957208032,0.1853609478788057,0.0149138384582915
2.7124999999999986,-0.0095870935812048,0.2119946722642392,0.0053267448770866
2.716000000000001,-0.0127827914416064,0.233299906443334,-0.002131047016685
2.7194999999999965,-0.0191759324916616,0.2684543282370038,-0.0127827914416064
2.722999999999999,-0.0276983752291499,0.2982837504828389,-0.0170448854749766
2.726500000000001,-0.0372854688103548,0.3398295679973119,-0.0255673282124649
2.729999999999997,-0.043676864531158,0.3707236410868635,-0.02769837522915
2.7335,-0.0596570991624181,0.3994866671597301,-0.02769837522915
2.737000000000002,-0.0724398906040245,0.4218582975117934,-0.0202405833353782
2.7404999999999973,-0.0916158230956862,0.4506213235846599,-0.0095870935812048
2.744,-0.1033339636935762,0.4676662090596366,0.0
2.7475000000000023,-0.1171831513081512,0.4879067923950148,0.0202405833353782
2.7509999999999977,-0.1289012919060411,0.4964292351325031,0.0319587239332681
2.7545,-0.1352926876268443,0.4985585368199362,0.0479389585645282
2.7580000000000027,-0.1395530363309625,0.4974938859762197,0.0607217500061347
2.761499999999998,-0.140619432503931,0.4836446983616446,0.0756355884644262
2.765000000000001,-0.1342280367831278,0.4772533026408414,0.0841580312019145
2.768500000000003,-0.1193124529955843,0.4559463231324946,0.1012029166768912
2.7719999999999985,-0.1054650107102612,0.4325100419367148,0.1161167551351827
2.775500000000001,-0.0777666354811113,0.3941599222826434,0.1374237346435295
2.7789999999999964,-0.0500682602519612,0.3632658491930918,0.1512729222581045
2.782499999999999,-0.0117181405978898,0.3206536355056502,0.1757738542976009
2.7860000000000014,0.0202405833353782,0.2833681666952953,0.1885583910684593
2.7894999999999968,0.0649838440395049,0.2450180470412239,0.1949497867892626
2.7929999999999997,0.1012029166768912,0.2151903701246408,0.1960144376329791
2.7965000000000018,0.1384883854872461,0.1853609478788057,0.2013411825100658
2.799999999999997,0.1619246666830259,0.1640557136997109,0.205601531214184
2.8035,0.1906876927558924,0.1406194325039311,0.2066679273871525
2.807000000000002,0.1960144376329791,0.1139874534477496,0.2098636252475541
2.8104999999999976,0.1981454846496642,0.0745709376207097,0.2162550209683574
2.814,0.1853609478788057,0.0479389585645282,0.2205171150017275
2.8175000000000026,0.1693824585767977,0.0095870935812048,0.2247774637058457
2.820999999999998,0.1491418752414194,-0.0159802346312601,0.2269085107225308
2.8245000000000005,0.1235745470289545,-0.041545817514473,0.2322352555996175
2.828000000000003,0.1012029166768911,-0.0681795418999065,0.2354309534600191
2.8314999999999984,0.0735062867769931,-0.0841580312019145,0.2311688594266489
2.835000000000001,0.0500682602519613,-0.1001382658331746,0.2290395577392158
2.838499999999996,0.0234362811957798,-0.1214435000122694,0.2269085107225308
2.8419999999999987,0.0085224427374882,-0.1310323389227262,0.2205171150017275
2.8455000000000013,-0.0127827914416064,-0.1470108282247343,0.2119946722642392
2.8489999999999966,-0.0213052341790947,-0.152337573101821,0.2024058333537824
2.852499999999999,-0.0340897709499532,-0.1640557136997109,0.1906876927558924
2.8560000000000016,-0.0426122136874415,-0.1693824585767977,0.1789695521580025
2.859499999999997,-0.0543303542853315,-0.177904901314286,0.1651203645434275
2.8629999999999995,-0.0543303542853315,-0.1864273440517743,0.1544686201185061
2.866500000000002,-0.0607217500061347,-0.1853609478788057,0.1427504795206162
2.869999999999997,-0.0703088435873396,-0.1757738542976009,0.1320969897664428
2.8735,-0.0798976824977964,-0.1693824585767977,0.1214435000122694
2.8770000000000024,-0.0873537290623162,-0.1619246666830259,0.1097253594143795
2.880499999999998,-0.1075943123976944,-0.1534022239455376,0.1097253594143795
2.8840000000000003,-0.1267702448893561,-0.152337573101821,0.1054650107102613
2.887500000000003,-0.1470108282247344,-0.1491418752414194,0.1097253594143795
2.8909999999999982,-0.1693824585767977,-0.1448797812080492,0.1161167551351827
2.8945000000000007,-0.191754088928861,-0.1406194325039311,0.1310323389227262
2.897999999999996,-0.2141239739516723,-0.1320969897664428,0.1448797812080492
2.901499999999998,-0.2354309534600191,-0.1225098961852379,0.1619246666830259
2.905000000000001,-0.2578025838120824,-0.1150521042914661,0.177904901314286
2.9084999999999965,-0.286565609884949,-0.1033339636935762,0.1896230419121759
2.911999999999999,-0.3046751462036421,-0.0916158230956863,0.2045368803704674
2.915500000000001,-0.3217200316786187,-0.0756355884644262,0.2279731615662473
2.918999999999997,-0.3334381722765087,-0.0596570991624181,0.2460844432141925
2.9224999999999994,-0.3387649171535954,-0.0319587239332681,0.2759121201307756
2.926000000000002,-0.3376985209806268,-0.0149138384582915,0.302544099186957
2.9294999999999973,-0.3345028231202252,0.0117181405978899,0.3366338701369103
2.933,-0.3217200316786187,0.0266319790561815,0.3643322453660603
2.9365000000000023,-0.2972173543098703,0.0426122136874415,0.4026823650201317
2.9399999999999977,-0.2727164222703739,0.055395005129048,0.4314453910929982
2.9435,-0.2343645572870505,0.0703088435873396,0.4634041150262664
2.9470000000000027,-0.2002765316663493,0.0767019846373948,0.4825800475179281
2.950499999999998,-0.1459461773810178,0.0852244273748831,0.5124077244345112
2.9540000000000006,-0.1022693128498597,0.0862890782185996,0.5294526099094878
2.957500000000003,-0.0330233747769846,0.0926804739394028,0.547562146228181
2.9609999999999985,0.0181095363186931,0.0980072188164895,0.5571509851386378
2.964500000000001,0.0916158230956863,0.1054650107102613,0.5709984274239609
2.9679999999999964,0.1480754790684509,0.1075943123976944,0.5731294744406459
2.971499999999999,0.2226464166891606,0.1075943123976944,0.5795208701614492
2.9750000000000014,0.274847469287059,0.1022693128498597,0.5837829641948193
2.978499999999997,0.3398295679973119,0.0916158230956863,0.5891097090719061
2.9819999999999998,0.3867021303888716,0.0809623333415129,0.5848476150385359
2.985500000000002,0.4420988808471717,0.0628527970228197,0.5763251723010476
2.988999999999997,0.4740576047804398,0.0458079115478431,0.5603466829990394
2.9925,0.5113430735907947,0.0266319790561814,0.5358440056302911
2.996000000000002,0.5273215628928027,0.0149138384582914,0.5113430735907947
2.9994999999999976,0.5379750526469761,0.0031956978604015,0.4783179534845579
3.003,0.5390397034906926,-0.0031956978604016,0.4495549274116914
3.0065000000000026,0.5273215628928027,-0.0149138384582916,0.4122694586013365
3.009999999999998,0.5145387714511963,-0.0245026773687484,0.3803107346680683
3.0135000000000005,0.4847093492053612,-0.0351544217936698,0.3398295679973119
3.017000000000003,0.4559463231324946,-0.0458079115478432,0.3089354949077603
3.0204999999999984,0.4218582975117934,-0.0596570991624182,0.2652586303766022
3.024000000000001,0.3888331774055567,-0.0724398906040246,0.233299906443334
3.0274999999999963,0.3430252658577135,-0.0905494269227178,0.191754088928861
3.030999999999999,0.3046751462036421,-0.096942567972773,0.1608600158393093
3.0345000000000013,0.258867234655799,-0.1129210572747811,0.1235745470289545
3.0379999999999967,0.2279731615662473,-0.1193124529955843,0.1012029166768912
3.041499999999999,0.1842962970350892,-0.124639197872671,0.0713752397603081
3.0450000000000017,0.1502065260851359,-0.1257055940456396,0.0511346564249298
3.048499999999997,0.1086607085706629,-0.138488385487246,0.02769837522915
3.052,0.0798976824977964,-0.1470108282247343,0.0170448854749766
3.055500000000002,0.043676864531158,-0.1587289688226243,0.0085224427374883
3.058999999999997,0.0138491876145749,-0.1704471094205142,0.0074577918937717
3.0625,-0.0117181405978899,-0.1821652500184041,0.0117181405978899
3.0660000000000025,-0.0319587239332681,-0.1928187397725775,0.0181095363186931
3.069499999999998,-0.0447432607041266,-0.2045368803704674,0.0340897709499532
3.0730000000000004,-0.0532657034416149,-0.2183860679850424,0.0404811666707564
3.076500000000003,-0.0543303542853315,-0.2311688594266489,0.0511346564249298
3.0799999999999983,-0.055395005129048,-0.2460844432141925,0.055395005129048
3.083500000000001,-0.0511346564249299,-0.2567361876391139,0.0660484948832214
3.086999999999996,-0.0436768645311581,-0.2652586303766022,0.0660484948832214
3.0904999999999987,-0.0394165158270399,-0.2759121201307756,0.0767019846373948
3.094000000000001,-0.0234362811957798,-0.2833681666952953,0.0916158230956863
3.0974999999999966,-0.0074577918937718,-0.2897613077453506,0.1065296615539778
3.100999999999999,0.0063913957208031,-0.2950880526224372,0.1150521042914662
3.1045000000000016,0.0330233747769846,-0.3036087500306735,0.1235745470289545
3.107999999999997,0.057526052145733,-0.3068061932203272,0.1320969897664428
3.1114999999999995,0.0916158230956863,-0.3046751462036421,0.1331616406101593
3.115000000000002,0.1139874534477496,-0.3046751462036421,0.1267702448893561
3.1184999999999974,0.1480754790684509,-0.2876302607286655,0.1171831513081512
3.122,0.1725781564371993,-0.2737810731140905,0.1097253594143795
3.1255000000000024,0.1960144376329791,-0.2567361876391139,0.0990718696602061
3.128999999999998,0.2130593231079557,-0.2460844432141925,0.0990718696602061
3.1325000000000003,0.2311688594266489,-0.219450718828759,0.096942567972773
3.136000000000003,0.2418223491808223,-0.2024058333537824,0.0958761717998045
3.139499999999998,0.2492801410745941,-0.1757738542976009,0.1022693128498597
3.1430000000000007,0.2514094427620272,-0.1608600158393094,0.1139874534477496
3.146500000000003,0.258867234655799,-0.1331616406101594,0.1320969897664428
3.1499999999999986,0.2556715367953973,-0.1086607085706629,0.1544686201185061
3.153500000000001,0.2514094427620272,-0.0841580312019146,0.1928187397725775
3.1569999999999965,0.2492801410745941,-0.0660484948832214,0.2258421145495622
3.160499999999999,0.247149094057909,-0.0383501196540714,0.2663250265495707
3.164000000000001,0.2460844432141925,-0.0202405833353782,0.2972173543098703
3.167499999999997,0.2407576983371057,-0.0042603487041181,0.3302424744161071
3.171,0.2364956043037356,0.0063913957208032,0.3462209637181151
3.174500000000002,0.2279731615662473,0.0234362811957798,0.3664615470534934
3.1779999999999973,0.2183860679850424,0.029827676916583,0.3813771308410369
3.1815,0.2002765316663493,0.043676864531158,0.4037470158638482
3.1850000000000023,0.1842962970350892,0.0511346564249298,0.4218582975117934
3.1884999999999977,0.1672514115601126,0.0671131457269379,0.4580773701491797
3.192,0.1555332709622227,0.0820287295144815,0.4815136513449596
3.1955000000000027,0.1416840833476476,0.0937468701123714,0.5156034222949128
3.198999999999998,0.136357338470561,0.1054650107102613,0.5379750526469761
3.202500000000001,0.1406194325039311,0.1171831513081512,0.5678027295635593
3.206000000000003,0.1491418752414194,0.1257055940456395,0.5837829641948193
3.2094999999999985,0.1715135055934828,0.1299659427497577,0.5976321518093943
3.213000000000001,0.1960144376329791,0.1331616406101593,0.5986968026531109
3.2164999999999964,0.2375620004767042,0.1448797812080492,0.5912390107593392
3.219999999999999,0.2769767709744921,0.1534022239455376,0.5816519171781342
3.2235000000000014,0.3345028231202252,0.166186760716396,0.559280286826071
3.2269999999999968,0.3739193389472651,0.1853609478788057,0.5401060996636612
3.2304999999999997,0.4325100419367148,0.2151903701246408,0.5060163287137079
3.2340000000000018,0.4697955107470697,0.2343645572870505,0.480449000501243
3.237499999999997,0.5102766774178261,0.260998281672484,0.43890318298677
3.241,0.5315836569261729,0.2791078179911771,0.4090737607409349
3.244500000000002,0.5518242402615512,0.2993484013265554,0.3760503859639502
3.2479999999999976,0.5550199381219528,0.3174579376452485,0.3526141047681703
3.2515,0.5528888911052677,0.3408942188410284,0.3334381722765087
3.2550000000000026,0.5390397034906926,0.357939104316005,0.3217200316786187
3.258499999999998,0.5092120265741096,0.3813771308410368,0.3185243338182171
3.2620000000000005,0.4793843496575266,0.3962909692993284,0.3153286359578155
3.265500000000003,0.4282496932325967,0.4154651564617381,0.3121311927681619
3.2689999999999984,0.3813771308410369,0.4218582975117934,0.3100018910807288
3.272500000000001,0.3195889846619337,0.4367721359700849,0.3185243338182171
3.275999999999996,0.272716422270374,0.4378367868138014,0.3249157295390203
3.2794999999999987,0.2130593231079558,0.4325100419367148,0.3526141047681703
3.2830000000000013,0.1683160624038292,0.4378367868138015,0.3728546881035486
3.2864999999999966,0.1118564064310646,0.4325100419367148,0.4090737607409349
3.289999999999999,0.0767019846373948,0.4314453910929982,0.4335764381096833
3.2935000000000016,0.0234362811957799,0.4239875991992265,0.4665998128866681
3.296999999999997,-0.0053267448770866,0.4186608543221398,0.4879067923950148
3.3004999999999995,-0.043676864531158,0.397355620143045,0.5145387714511963
3.304000000000002,-0.071375239760308,0.3824417816847534,0.5315836569261729
3.307499999999997,-0.1001382658331746,0.3526141047681703,0.5539552872782363
3.311,-0.1118564064310645,0.3345028231202252,0.561411333842756
3.3145000000000024,-0.1289012919060412,0.3046751462036421,0.5603466829990394
3.317999999999998,-0.1363573384705609,0.2769767709744921,0.5550199381219528
3.3215000000000003,-0.1459461773810178,0.233299906443334,0.5390397034906926
3.325000000000003,-0.1534022239455376,0.1938833906162941,0.5294526099094878
3.3284999999999982,-0.1576643179789077,0.1448797812080493,0.5070809795574245
3.3320000000000007,-0.1576643179789077,0.1043986145372928,0.4868403962220463
3.335499999999996,-0.1555332709622227,0.0585907029894496,0.4580773701491797
3.338999999999998,-0.1565979218059392,0.0245026773687484,0.4367721359700849
3.342500000000001,-0.1512729222581045,-0.01598023463126,0.41120480775762
3.3459999999999965,-0.150206526085136,-0.0458079115478431,0.397355620143045
3.349499999999999,-0.1459461773810178,-0.0873537290623161,0.3845728287014385
3.353000000000001,-0.1448797812080492,-0.1129210572747811,0.3792460838243518
3.356499999999997,-0.1448797812080493,-0.1502065260851359,0.3813771308410369
3.3599999999999994,-0.1523375731018211,-0.1757738542976009,0.3877685265618402
3.363500000000002,-0.1619246666830259,-0.2183860679850424,0.3994866671597301
3.3669999999999973,-0.1725781564371993,-0.2556715367953973,0.4165315526347067
3.3705,-0.1874919948954908,-0.2961527034661538,0.4346410889533998
3.3740000000000023,-0.1960144376329791,-0.3270467765557054,0.4506213235846599
3.3774999999999977,-0.2109282760912707,-0.3611348021764067,0.4708619069200382
3.381,-0.2183860679850425,-0.3824417816847534,0.4836446983616446
3.3845000000000027,-0.2226464166891607,-0.4080091098972184,0.5006895838366213
3.387999999999998,-0.2205171150017276,-0.4207919013388249,0.5102766774178261
3.3915000000000006,-0.219450718828759,-0.4357057397971164,0.517734469311598
3.395000000000003,-0.2119946722642393,-0.4378367868138015,0.517734469311598
3.3984999999999985,-0.1938833906162941,-0.4442281825346047,0.5070809795574245
3.402000000000001,-0.1842962970350893,-0.4452945787075733,0.4964292351325031
3.4054999999999964,-0.1661867607163961,-0.4410324846742031,0.4719265577637547
3.408999999999999,-0.1534022239455376,-0.4346410889533998,0.4570127193054631
3.4125000000000014,-0.1374237346435295,-0.4239875991992265,0.4293143440763132
3.415999999999997,-0.1278348957330727,-0.4101401569139035,0.4048134120368167
3.4194999999999998,-0.1107900102580961,-0.38350643252847,0.3707236410868635
3.423000000000002,-0.1043986145372928,-0.3600701513326901,0.3398295679973119
3.426499999999997,-0.0980072188164896,-0.3323735214327921,0.302544099186957
3.43,-0.0990718696602061,-0.3100018910807288,0.2716500260974054
3.433500000000002,-0.1033339636935763,-0.288694911572382,0.2354309534600191
3.4369999999999976,-0.1033339636935763,-0.2684543282370038,0.2098636252475541
3.4405,-0.1065296615539779,-0.2418223491808223,0.1821652500184041
3.4440000000000026,-0.1097253594143795,-0.2247774637058457,0.1619246666830259
3.447499999999998,-0.1235745470289545,-0.1992101354933807,0.1416840833476476
3.4510000000000005,-0.1395530363309626,-0.1832316461913726,0.1289012919060412
3.454500000000003,-0.1523375731018211,-0.166186760716396,0.1161167551351827
3.4579999999999984,-0.1736428072809158,-0.1587289688226242,0.1086607085706629
3.461500000000001,-0.1906876927558924,-0.1459461773810178,0.0980072188164895
3.4649999999999963,-0.1992101354933808,-0.1352926876268444,0.096942567972773
3.468499999999999,-0.2087989744038376,-0.1235745470289545,0.0894847760790012
3.4720000000000013,-0.2087989744038376,-0.1150521042914661,0.0894847760790012
3.4754999999999967,-0.2034722295267509,-0.0980072188164895,0.0905494269227178
3.478999999999999,-0.1949497867892626,-0.0884201252352847,0.0894847760790012
3.4825000000000017,-0.1832316461913727,-0.0660484948832213,0.0948115209560879
3.485999999999997,-0.1672514115601126,-0.0511346564249298,0.0926804739394028
3.4895,-0.1406194325039311,-0.0330233747769846,0.0905494269227178
3.493000000000002,-0.1214435000122694,-0.0127827914416064,0.0905494269227178
3.496499999999997,-0.0926804739394028,0.0031956978604016,0.0745709376207097
3.5,-0.0777666354811113,0.0234362811957798,0.0639174478665363
3.5035000000000025,-0.0500682602519613,0.041545817514473,0.0372854688103548
3.506999999999998,-0.041545817514473,0.0585907029894496,0.0117181405978899
3.5105000000000004,-0.0266319790561814,0.0798976824977964,-0.0202405833353782
3.514000000000003,-0.0191759324916616,0.0958761717998045,-0.0468725623915597
3.5174999999999983,-0.0202405833353782,0.1086607085706629,-0.0788312863248278
3.521000000000001,-0.0181095363186931,0.1139874534477496,-0.1043986145372928
3.524499999999996,-0.0266319790561814,0.124639197872671,-0.1448797812080492
3.5279999999999987,-0.0340897709499532,0.124639197872671,-0.1725781564371993
3.531500000000001,-0.0468725623915597,0.1267702448893561,-0.2109282760912707
3.5349999999999966,-0.0617864008498512,0.1257055940456395,-0.2396913021641372
3.538499999999999,-0.0916158230956863,0.1171831513081513,-0.2727164222703739
3.5420000000000016,-0.1118564064310645,0.1139874534477496,-0.286565609884949
3.545499999999997,-0.1459461773810178,0.1033339636935763,-0.3089354949077603
3.5489999999999995,-0.177904901314286,0.096942567972773,-0.3121311927681619
3.552500000000002,-0.2141239739516723,0.0820287295144815,-0.316393286801532
3.5559999999999974,-0.2460844432141925,0.0617864008498512,-0.314262239784847
3.5595,-0.2695207244099723,0.0479389585645282,-0.3046751462036421
3.5630000000000024,-0.3057397970473587,0.0245026773687484,-0.2950880526224372
3.566499999999998,-0.3249157295390203,3.9790700817258837e-17,-0.2780431671474606
3.5700000000000003,-0.3376985209806268,-0.01598023463126,-0.2684543282370038
3.573500000000003,-0.3472873598910836,-0.0330233747769846,-0.2546051406224288
3.576999999999998,-0.3483520107348002,-0.0553950051290479,-0.2386266513204207
3.5805000000000007,-0.3462209637181151,-0.0681795418999064,-0.2301042085829324
3.584000000000003,-0.3366338701369103,-0.0809623333415129,-0.2183860679850424
3.5874999999999986,-0.3227846825223353,-0.0894847760790012,-0.2119946722642392
3.591000000000001,-0.3057397970473587,-0.0937468701123713,-0.2066679273871525
3.5944999999999965,-0.288694911572382,-0.0980072188164895,-0.2066679273871525
3.597999999999999,-0.2705853752536888,-0.0948115209560879,-0.2098636252475541
3.601500000000001,-0.2599318854995155,-0.0980072188164895,-0.2066679273871525
3.604999999999997,-0.2514094427620272,-0.1022693128498597,-0.2034722295267509
3.6085,-0.2407576983371057,-0.1001382658331746,-0.1938833906162941
3.612000000000002,-0.2396913021641372,-0.1001382658331746,-0.1885583910684593
3.615499999999997,-0.2343645572870505,-0.099071869660206,-0.1832316461913727
3.619,-0.233299906443334,-0.0937468701123713,-0.1789695521580025
3.6225000000000014,-0.2311688594266489,-0.0937468701123713,-0.177904901314286
3.6259999999999977,-0.2354309534600191,-0.0958761717998044,-0.1768385051413174
3.6295,-0.2343645572870505,-0.0862890782185996,-0.1789695521580025
3.6330000000000022,-0.2322352555996175,-0.0798976824977963,-0.180035948330971
3.636499999999998,-0.2343645572870505,-0.0703088435873395,-0.1832316461913727
3.640000000000001,-0.2269085107225308,-0.0617864008498512,-0.1864273440517743
3.643500000000003,-0.2247774637058457,-0.0543303542853314,-0.191754088928861
3.6469999999999994,-0.219450718828759,-0.0319587239332681,-0.1981454846496642
3.650500000000001,-0.2141239739516723,-0.0223716303520632,-0.2087989744038376
3.653999999999997,-0.2183860679850424,-0.0106534897541733,-0.2141239739516723
3.657499999999999,-0.2215817658454441,-0.0010646508437165,-0.2247774637058457
3.661000000000002,-0.2269085107225308,0.0117181405978899,-0.2301042085829324
3.6644999999999968,-0.2354309534600191,0.0223716303520633,-0.2343645572870505
3.6679999999999993,-0.2418223491808223,0.0362208179666383,-0.2396913021641372
3.6715000000000018,-0.2546051406224288,0.0479389585645282,-0.2354309534600191
3.674999999999997,-0.2652586303766022,0.0628527970228198,-0.2354309534600191
3.6785,-0.2780431671474606,0.0767019846373948,-0.2301042085829324
3.682000000000002,-0.288694911572382,0.0926804739394029,-0.233299906443334
3.6854999999999976,-0.2918906094327836,0.1129210572747811,-0.2301042085829324
3.689,-0.2918906094327836,0.1331616406101594,-0.2290395577392158
3.6925000000000026,-0.2908259585890671,0.1534022239455376,-0.2311688594266489
3.695999999999998,-0.2854992137119804,0.1789695521580026,-0.2343645572870505
3.699500000000001,-0.2759121201307756,0.1981454846496642,-0.233299906443334
3.703000000000003,-0.2620629325162005,0.2311688594266489,-0.2301042085829324
3.7064999999999984,-0.2492801410745941,0.2503447919183107,-0.2290395577392158
3.710000000000001,-0.2301042085829323,0.2780431671474607,-0.2215817658454441
3.713499999999996,-0.2141239739516723,0.2950880526224372,-0.2162550209683574
3.716999999999999,-0.1928187397725775,0.3078708440640437,-0.2045368803704674
3.720500000000001,-0.1757738542976009,0.3195889846619337,-0.1960144376329791
3.7239999999999966,-0.1491418752414194,0.3270467765557054,-0.1864273440517743
3.727499999999999,-0.1331616406101593,0.3302424744161071,-0.177904901314286
3.7310000000000016,-0.1118564064310645,0.3323735214327921,-0.1683160624038291
3.734499999999997,-0.099071869660206,0.3302424744161071,-0.1672514115601126
3.738,-0.0745709376207096,0.3249157295390203,-0.166186760716396
3.741500000000002,-0.057526052145733,0.3227846825223353,-0.1629910628559944
3.744999999999997,-0.0362208179666382,0.3153286359578155,-0.1587289688226243
3.7485,-0.0213052341790947,0.3078708440640437,-0.1597953649955928
3.7520000000000016,3.6268246035866046e-17,0.2961527034661538,-0.1576643179789077
3.755499999999998,0.013849187614575,0.2876302607286655,-0.1597953649955928
3.759,0.0298276769165831,0.2673896773932873,-0.1608600158393093
3.762500000000003,0.0404811666707565,0.2524758389349957,-0.1640557136997109
3.7659999999999982,0.0490036094082448,0.2311688594266489,-0.1747092034538843
3.7695000000000007,0.0607217500061347,0.2109282760912707,-0.1864273440517743
3.772999999999996,0.0671131457269379,0.1842962970350892,-0.205601531214184
3.776499999999999,0.0777666354811113,0.1725781564371993,-0.2215817658454441
3.780000000000001,0.0820287295144815,0.1534022239455376,-0.247149094057909
3.783499999999997,0.0873537290623162,0.138488385487246,-0.2652586303766022
3.786999999999999,0.096942567972773,0.1203788491685528,-0.288694911572382
3.7905000000000015,0.1022693128498597,0.110790010258096,-0.3100018910807288
3.793999999999997,0.110790010258096,0.0905494269227178,-0.3366338701369103
3.7975,0.1129210572747811,0.0820287295144815,-0.3547434064556034
3.801000000000002,0.1193124529955843,0.0745709376207097,-0.3781796876513833
3.804499999999997,0.1182478021518678,0.069244192743623,-0.3898978282492732
3.808,0.1161167551351827,0.0671131457269379,-0.4058780628805333
3.8115000000000014,0.1118564064310646,0.0713752397603081,-0.41120480775762
3.8149999999999977,0.096942567972773,0.0809623333415129,-0.4154651564617382
3.8185,0.0905494269227178,0.0852244273748831,-0.4154651564617382
3.8220000000000023,0.0809623333415129,0.083093380358198,-0.4026823650201317
3.825499999999998,0.069244192743623,0.0841580312019145,-0.3930952714389268
3.8290000000000006,0.0617864008498512,0.0820287295144815,-0.3653968962097769
3.832500000000003,0.0607217500061347,0.083093380358198,-0.3472873598910836
3.8359999999999994,0.0575260521457331,0.0767019846373947,-0.316393286801532
3.839500000000001,0.0511346564249298,0.0745709376207097,-0.2961527034661538
3.842999999999997,0.0447432607041266,0.0617864008498512,-0.2599318854995155
3.846499999999999,0.0372854688103548,0.0543303542853314,-0.2343645572870505
3.8500000000000014,0.0181095363186931,0.0340897709499532,-0.2034722295267509
3.853499999999997,0.0010646508437165,0.0234362811957798,-0.1874919948954908
3.8569999999999993,-0.0202405833353782,0.0074577918937717,-0.1757738542976009
3.860500000000002,-0.0490036094082447,-0.0127827914416064,-0.1629910628559944
3.863999999999997,-0.0798976824977964,-0.0340897709499532,-0.1544686201185061
3.8675,-0.1086607085706629,-0.0500682602519613,-0.152337573101821
3.871000000000002,-0.150206526085136,-0.0713752397603081,-0.152337573101821
3.8744999999999976,-0.1821652500184041,-0.0884201252352847,-0.1576643179789077
3.878,-0.2141239739516723,-0.1022693128498597,-0.166186760716396
3.8815000000000026,-0.2450180470412239,-0.1139874534477496,-0.1757738542976009
3.884999999999998,-0.2897613077453506,-0.1267702448893561,-0.1928187397725775
3.888500000000001,-0.3227846825223353,-0.1374237346435295,-0.2130593231079557
3.892000000000003,-0.3611348021764067,-0.138488385487246,-0.2364956043037356
3.8954999999999984,-0.3941599222826434,-0.1448797812080492,-0.2631275833599171
3.899000000000001,-0.4282496932325966,-0.1395530363309625,-0.2929570056057522
3.902499999999996,-0.4580773701491797,-0.1363573384705609,-0.3227846825223353
3.905999999999999,-0.4836446983616446,-0.1331616406101593,-0.3504830577514853
3.909500000000001,-0.5006895838366213,-0.1257055940456395,-0.3707236410868635
3.9129999999999967,-0.5134723752782278,-0.1086607085706628,-0.3994866671597301
3.916499999999999,-0.5209301671719996,-0.0969425679727729,-0.4165315526347067
3.9200000000000017,-0.5230612141886847,-0.0809623333415128,-0.4293143440763132
3.923499999999997,-0.5241258650324012,-0.0671131457269378,-0.4399678338304866
3.927,-0.5166698184678814,-0.0532657034416148,-0.4367721359700849
3.930500000000002,-0.5145387714511963,-0.0383501196540713,-0.4261186462159115
3.9339999999999975,-0.5092120265741096,-0.0245026773687483,-0.4016177141764152
3.9375,-0.5113430735907947,-0.0234362811957797,-0.3781796876513833
3.9410000000000025,-0.5092120265741096,-0.0181095363186931,-0.3355692192931938
3.944499999999998,-0.5166698184678814,-0.0213052341790947,-0.3057397970473587
3.948,-0.5166698184678814,-0.0351544217936697,-0.2556715367953973
3.951500000000003,-0.517734469311598,-0.043676864531158,-0.2162550209683574
3.9549999999999983,-0.5219948180157161,-0.0649838440395048,-0.1683160624038291
3.958500000000001,-0.517734469311598,-0.0745709376207096,-0.1331616406101593
3.961999999999996,-0.503885281697023,-0.0958761717998044,-0.0958761717998045
3.965499999999999,-0.4964292351325031,-0.1118564064310645,-0.0767019846373948
3.969000000000001,-0.4751222556241564,-0.124639197872671,-0.0511346564249298
3.9724999999999966,-0.4506213235846599,-0.1352926876268443,-0.041545817514473
3.975999999999999,-0.4197272504951083,-0.1502065260851359,-0.0330233747769847
3.9795000000000016,-0.3941599222826434,-0.1544686201185061,-0.0319587239332681
3.982999999999997,-0.3568744534722885,-0.1640557136997109,-0.0362208179666383
3.9865,-0.3259803803827369,-0.1640557136997109,-0.0447432607041266
3.990000000000002,-0.2812388650078622,-0.1619246666830258,-0.055395005129048
3.993499999999997,-0.2482137449016256,-0.1587289688226242,-0.0767019846373948
3.997,-0.2087989744038376,-0.1459461773810178,-0.1012029166768912
4.000500000000002,-0.1821652500184042,-0.1320969897664428,-0.1257055940456395
4.003999999999998,-0.1534022239455376,-0.1129210572747811,-0.1597953649955928
4.0075,-0.1310323389227262,-0.0948115209560879,-0.1853609478788057
4.011000000000003,-0.1075943123976944,-0.0724398906040246,-0.2290395577392158
4.014499999999998,-0.0916158230956863,-0.0521993072686464,-0.2546051406224288
4.018000000000001,-0.0798976824977964,-0.0287630260728665,-0.2993484013265554
4.021500000000003,-0.0617864008498512,-0.0117181405978899,-0.3291760782431385
4.024999999999999,-0.0447432607041266,0.013849187614575,-0.3643322453660603
4.028500000000001,-0.0330233747769847,0.0234362811957798,-0.3898978282492732
4.0319999999999965,-0.0170448854749766,0.041545817514473,-0.4058780628805333
4.035499999999999,-0.0095870935812048,0.0532657034416149,-0.4175962034784233
4.0390000000000015,-0.002131047016685,0.0639174478665363,-0.4282496932325966
4.042499999999997,-0.0031956978604016,0.069244192743623,-0.4325100419367148
4.045999999999999,-0.002131047016685,0.069244192743623,-0.4346410889533998
4.049500000000002,-0.0074577918937717,0.0639174478665363,-0.43890318298677
4.052999999999997,-0.01598023463126,0.0575260521457331,-0.4463592295512898
4.0565,-0.0213052341790947,0.0479389585645282,-0.4495549274116914
4.060000000000002,-0.0308940730895516,0.041545817514473,-0.4506213235846599
4.063499999999998,-0.0340897709499532,0.0340897709499532,-0.4548816722887781
4.067,-0.029827676916583,0.0255673282124649,-0.4591437663221482
4.070500000000003,-0.0287630260728665,0.0181095363186931,-0.4634041150262664
4.073999999999998,-0.0202405833353782,0.0074577918937717,-0.4687308599033531
4.077500000000001,-0.0149138384582915,1.8264184530947443e-18,-0.4793843496575265
4.081000000000003,-6.523381063598781e-19,-0.0053267448770866,-0.492167141099133
4.084499999999999,0.0085224427374883,-0.0106534897541733,-0.508147375730393
4.088000000000001,0.0287630260728665,-0.0095870935812048,-0.5230612141886847
4.091499999999996,0.0447432607041266,-0.0074577918937717,-0.5454328445407479
4.094999999999999,0.069244192743623,-0.0063913957208032,-0.5667380787198427
4.098500000000001,0.0841580312019145,-0.002131047016685,-0.5827165680218508
4.101999999999997,0.1182478021518678,-0.0042603487041181,-0.6040235475301975
4.105499999999999,0.1491418752414194,-0.0063913957208032,-0.6136106411114024
4.109000000000002,0.1906876927558924,-0.0117181405978899,-0.628524479569694
4.112499999999997,0.2343645572870505,-0.0085224427374883,-0.6327865736030641
4.116,0.3036087500306735,-0.0085224427374883,-0.6466357612176391
4.119500000000002,0.3536787556118869,-0.0042603487041182,-0.6540918077821589
4.1229999999999976,0.4325100419367148,-5.296720384568853e-17,-0.6732677402738206
4.1265,0.4911024902554164,-6.0142709274459e-17,-0.6828548338550254
4.130000000000003,0.5709984274239609,0.004260348704118,-0.6945729744529154
4.133499999999998,0.6349176206197492,0.0085224427374882,-0.7084221620674903
4.1370000000000005,0.7062911150508053,0.0127827914416063,-0.7180110009779472
4.140500000000003,0.7616878655091054,0.018109536318693,-0.7222713496820654
4.143999999999998,0.8181475214818699,0.0330233747769846,-0.7318584432632703
4.147500000000001,0.8628907821859965,0.0436768645311579,-0.7329248394362388
4.150999999999996,0.9044365997004696,0.0553950051290479,-0.7329248394362388
4.154499999999999,0.9278728808962494,0.0692441927436229,-0.7318584432632703
4.158000000000001,0.9534402091087144,0.0756355884644261,-0.7286627454028686
4.161499999999997,0.9651583497066044,0.0926804739394027,-0.7297291415758372
4.164999999999999,0.9555712561253994,0.1043986145372927,-0.723336000525782
4.168500000000002,0.942788464683793,0.1182478021518677,-0.7190756518216638
4.171999999999997,0.9076322975608712,0.1395530363309625,-0.713748906944577
4.1755,0.8778046206442881,0.1565979218059391,-0.7073575112237738
4.179000000000002,0.820278568498555,0.182165250018404,-0.6998997193300021
4.182499999999997,0.7691439120736251,0.2034722295267508,-0.6903126257487973
4.186,0.6903126257487973,0.2258421145495621,-0.6743323911175372
4.189500000000002,0.6295908757426625,0.2386266513204206,-0.6615495996759307
4.192999999999998,0.5379750526469761,0.2535404897787122,-0.644504714200954
4.1965,0.4612730680095814,0.263127583359917,-0.6295908757426625
4.200000000000003,0.3664615470534934,0.2759121201307755,-0.6093502924072843
4.203499999999998,0.2940216564494688,0.2727164222703739,-0.5944364539489927
4.207000000000001,0.1938833906162941,0.2695207244099723,-0.5720648235969293
4.210499999999996,0.1257055940456396,0.260998281672484,-0.559280286826071
4.213999999999999,0.0372854688103548,0.2407576983371057,-0.5390397034906926
4.217500000000001,-0.0276983752291499,0.2247774637058457,-0.5305172607532044
4.2209999999999965,-0.110790010258096,0.2002765316663493,-0.5209301671719996
4.224499999999999,-0.1608600158393093,0.1789695521580026,-0.5145387714511963
4.2280000000000015,-0.2258421145495622,0.1427504795206162,-0.5092120265741096
4.231499999999997,-0.258867234655799,0.1161167551351827,-0.508147375730393
4.234999999999999,-0.2982837504828389,0.0788312863248279,-0.5028206308533064
4.238500000000002,-0.3217200316786187,0.0543303542853315,-0.4911024902554164
4.241999999999997,-0.3302424744161071,0.0191759324916617,-0.4868403962220463
4.2455,-0.3259803803827369,-0.0010646508437165,-0.4847093492053612
4.249000000000002,-0.3131975889411305,-0.0287630260728665,-0.4847093492053612
4.252499999999998,-0.2929570056057522,-0.0458079115478431,-0.4815136513449596
4.256,-0.258867234655799,-0.0660484948832213,-0.4889714432387313
4.259500000000003,-0.2311688594266489,-0.0798976824977963,-0.4942981881158181
4.262999999999998,-0.1842962970350892,-0.096942567972773,-0.5017542346803379
4.266500000000001,-0.1470108282247343,-0.1012029166768911,-0.5060163287137079
4.270000000000003,-0.0937468701123714,-0.1097253594143795,-0.519865516328283
4.273499999999999,-0.0532657034416149,-0.1075943123976944,-0.5251905158761178
4.277000000000001,-0.0031956978604016,-0.1022693128498597,-0.5369104018032596
4.280499999999996,0.0372854688103548,-0.0980072188164895,-0.5347793547865746
4.283999999999999,0.0798976824977964,-0.0873537290623162,-0.533712958613606
4.287500000000001,0.1150521042914661,-0.0809623333415129,-0.5315836569261729
4.290999999999997,0.1555332709622227,-0.0735062867769932,-0.519865516328283
4.294499999999999,0.1789695521580025,-0.0660484948832214,-0.5070809795574245
4.298000000000002,0.2087989744038376,-0.0703088435873396,-0.480449000501243
4.301499999999997,0.2226464166891606,-0.0767019846373948,-0.4623394641825499
4.305,0.2386266513204207,-0.0926804739394029,-0.4218582975117934
4.308500000000002,0.2439533961975074,-0.1065296615539779,-0.3920288752659583
4.311999999999998,0.2524758389349957,-0.1331616406101594,-0.3515477085952018
4.3155,0.2578025838120824,-0.1555332709622227,-0.3174579376452486
4.319000000000003,0.2567361876391139,-0.1821652500184042,-0.2684543282370038
4.322499999999998,0.2599318854995155,-0.2002765316663493,-0.2301042085829324
4.3260000000000005,0.2546051406224288,-0.219450718828759,-0.1789695521580025
4.329500000000003,0.2546051406224287,-0.2322352555996175,-0.1448797812080492
4.332999999999998,0.2535404897787122,-0.2418223491808223,-0.0958761717998045
4.336500000000001,0.2418223491808223,-0.2450180470412239,-0.0628527970228197
4.339999999999996,0.2311688594266489,-0.2439533961975074,-0.0191759324916617
4.343499999999999,0.2183860679850424,-0.2364956043037356,0.0117181405978899
4.347000000000001,0.2002765316663493,-0.2258421145495623,0.0521993072686464
4.350499999999997,0.1853609478788057,-0.2098636252475542,0.0745709376207097
4.353999999999999,0.1651203645434275,-0.1874919948954908,0.1086607085706629
4.357500000000002,0.1491418752414194,-0.1608600158393094,0.1267702448893561
4.360999999999997,0.1214435000122694,-0.1289012919060412,0.1459461773810178
4.3645,0.0926804739394028,-0.1012029166768912,0.1597953649955928
4.368000000000002,0.057526052145733,-0.0617864008498512,0.1672514115601126
4.3714999999999975,0.0255673282124649,-0.0255673282124649,0.1715135055934827
4.375,-0.01598023463126,0.0181095363186931,0.1693824585767977
4.3785000000000025,-0.0521993072686464,0.0479389585645282,0.1576643179789077
4.381999999999998,-0.1012029166768911,0.083093380358198,0.1448797812080492
4.3855,-0.1374237346435295,0.1139874534477496,0.1278348957330726
4.389000000000003,-0.1896230419121758,0.1534022239455376,0.1086607085706629
4.392499999999998,-0.2237128128621291,0.1757738542976009,0.0884201252352847
4.396000000000001,-0.2663250265495707,0.2034722295267509,0.055395005129048
4.399499999999996,-0.3004130521702719,0.2279731615662473,0.0319587239332681
4.402999999999999,-0.3334381722765086,0.2492801410745941,-0.002131047016685
4.406500000000001,-0.3536787556118868,0.2620629325162006,-0.0266319790561814
4.409999999999997,-0.3771150368076667,0.2812388650078623,-0.0724398906040246
4.413499999999999,-0.385637479545155,0.2929570056057523,-0.1001382658331746
4.417000000000002,-0.3909642244222417,0.3078708440640438,-0.1416840833476476
4.420499999999997,-0.3877685265618401,0.3206536355056503,-0.1725781564371993
4.424,-0.3845728287014385,0.3313071252598237,-0.2130593231079557
4.427500000000002,-0.3760503859639502,0.3408942188410285,-0.2428870000245388
4.430999999999997,-0.3558098026285719,0.3536787556118869,-0.2769767709744921
4.4345,-0.3408942188410284,0.3536787556118869,-0.3036087500306735
4.438000000000002,-0.3110665419244453,0.3515477085952019,-0.3345028231202252
4.441499999999998,-0.2854992137119804,0.3451563128743987,-0.3579391043160051
4.445,-0.2450180470412239,0.3355692192931938,-0.38350643252847
4.448500000000003,-0.2056015312141839,0.3270467765557054,-0.4026823650201317
4.451999999999998,-0.1587289688226242,0.3174579376452486,-0.4261186462159115
4.455500000000001,-0.112921057274781,0.3100018910807288,-0.43890318298677
4.459000000000003,-0.0617864008498512,0.2940216564494687,-0.4538170214450616
4.462499999999999,-0.0202405833353782,0.2844345628682639,-0.464468765869983
4.466000000000001,0.0330233747769847,0.2663250265495707,-0.4815136513449596
4.4694999999999965,0.0745709376207097,0.2514094427620272,-0.4825800475179281
4.472999999999999,0.1193124529955843,0.2322352555996174,-0.492167141099133
4.4765000000000015,0.1576643179789078,0.2119946722642392,-0.492167141099133
4.479999999999997,0.1970790884766957,0.1811005991746876,-0.4985585368199362
4.483499999999999,0.2258421145495623,0.1565979218059392,-0.5070809795574245
4.487000000000002,0.2599318854995155,0.1161167551351827,-0.5070809795574245
4.490499999999997,0.288694911572382,0.0841580312019145,-0.5145387714511963
4.494,0.316393286801532,0.0340897709499532,-0.5209301671719996
4.497500000000002,0.341960615013997,-0.0010646508437165,-0.5283879590657713
4.500999999999998,0.3664615470534934,-0.055395005129048,-0.5379750526469761
4.5045,0.3856374795451551,-0.0990718696602061,-0.5550199381219528
4.508000000000003,0.4090737607409349,-0.1512729222581045,-0.5720648235969293
4.511499999999998,0.4239875991992265,-0.191754088928861,-0.586978662055221
4.515000000000001,0.4399678338304865,-0.2407576983371058,-0.6093502924072843
4.518500000000003,0.452750625272093,-0.2748474692870591,-0.6253287817092923
4.521999999999999,0.4644687658699829,-0.3068061932203272,-0.6434400633572375
4.525500000000001,0.4708619069200381,-0.3355692192931938,-0.6594185526592456
4.528999999999996,0.4740576047804398,-0.3685925940701785,-0.6775280889779387
4.532499999999999,0.4793843496575264,-0.3898978282492733,-0.6860505317154271
4.536000000000001,0.4815136513449595,-0.4154651564617382,-0.6998997193300021
4.539499999999997,0.4761869064678729,-0.4325100419367148,-0.7073575112237738
4.542999999999999,0.4697955107470696,-0.4484902765679749,-0.7169446048049787
4.546500000000002,0.4602084171658647,-0.4580773701491797,-0.7212066988383489
4.549999999999997,0.4506213235846599,-0.4687308599033532,-0.7190756518216638
4.5535,0.4378367868138014,-0.4729912086074713,-0.7190756518216638
4.557000000000002,0.4207919013388248,-0.4729912086074713,-0.7148135577882937
4.5604999999999976,0.4048134120368167,-0.4676662090596367,-0.7052264642070888
4.564,0.3792460838243517,-0.4591437663221483,-0.697768672313317
4.567500000000003,0.3568744534722884,-0.4452945787075733,-0.6988350684862855
4.570999999999998,0.3249157295390203,-0.4282496932325967,-0.6945729744529154
4.5745000000000005,0.2972173543098703,-0.4080091098972184,-0.6945729744529154
4.578000000000003,0.2567361876391138,-0.3824417816847535,-0.6860505317154271
4.581499999999998,0.2194507188287589,-0.3653968962097769,-0.6881815787321122
4.585000000000001,0.1747092034538843,-0.3387649171535954,-0.6817901830113089
4.588499999999996,0.1374237346435295,-0.3195889846619337,-0.6753987872905056
4.591999999999999,0.0809623333415129,-0.2950880526224372,-0.6615495996759307
4.595500000000001,0.043676864531158,-0.286565609884949,-0.6540918077821589
4.598999999999997,-0.0095870935812048,-0.2684543282370038,-0.6413090163405525
4.602499999999999,-0.0532657034416149,-0.2631275833599171,-0.6381133184801508
4.606000000000002,-0.0980072188164896,-0.2503447919183106,-0.6370469223071823
4.609499999999997,-0.1331616406101594,-0.2407576983371057,-0.6317219227593476
4.613,-0.1768385051413175,-0.2279731615662473,-0.6317219227593476
4.616500000000002,-0.2066679273871526,-0.2205171150017275,-0.630655526586379
4.619999999999997,-0.2396913021641372,-0.2056015312141839,-0.628524479569694
4.6235,-0.2663250265495707,-0.1949497867892626,-0.6253287817092923
4.627000000000002,-0.286565609884949,-0.1736428072809158,-0.614677037284371
4.630499999999998,-0.2940216564494687,-0.1576643179789077,-0.6018925005135125
4.634,-0.3078708440640437,-0.1310323389227262,-0.5837829641948193
4.637500000000003,-0.3089354949077603,-0.1139874534477496,-0.561411333842756
4.640999999999998,-0.3078708440640437,-0.0884201252352846,-0.5315836569261729
4.644500000000001,-0.3014794483432405,-0.0628527970228197,-0.5017542346803379
4.647999999999996,-0.2897613077453506,-0.0351544217936697,-0.464468765869983
4.651499999999999,-0.2791078179911772,-0.0085224427374882,-0.4378367868138015
4.655000000000001,-0.2546051406224288,0.0191759324916617,-0.3994866671597301
4.6584999999999965,-0.2396913021641372,0.0383501196540714,-0.3685925940701784
4.661999999999999,-0.2119946722642392,0.0521993072686464,-0.3291760782431385
4.6655000000000015,-0.1874919948954908,0.0649838440395049,-0.2993484013265554
4.668999999999997,-0.1597953649955928,0.0713752397603081,-0.260998281672484
4.672499999999999,-0.1342280367831279,0.0756355884644262,-0.2290395577392158
4.676000000000002,-0.096942567972773,0.0660484948832214,-0.1874919948954908
4.679499999999997,-0.0724398906040246,0.0607217500061347,-0.1534022239455376
4.683,-0.0351544217936697,0.0500682602519613,-0.110790010258096
4.686500000000002,-0.0085224427374883,0.0436768645311581,-0.0767019846373948
4.689999999999998,0.029827676916583,0.029827676916583,-0.0447432607041266
4.6935,0.0564614013020165,0.0181095363186931,-0.013849187614575
4.697000000000003,0.0948115209560879,0.0117181405978899,0.013849187614575
4.700499999999998,0.1267702448893561,0.0042603487041181,0.0308940730895516
4.704000000000001,0.1640557136997109,-0.002131047016685,0.0490036094082447
4.707500000000003,0.1949497867892626,-0.0074577918937717,0.0607217500061347
4.710999999999999,0.2290395577392158,-0.0085224427374883,0.0756355884644262
4.714500000000001,0.2514094427620272,-0.0095870935812048,0.0820287295144815
4.717999999999996,0.2791078179911772,-0.0042603487041181,0.0948115209560879
4.721499999999999,0.2972173543098703,0.0010646508437165,0.1033339636935762
4.725000000000001,0.314262239784847,0.002131047016685,0.1214435000122694
4.728499999999997,0.3270467765557054,-4.005167880804043e-17,0.1352926876268444
4.731999999999999,0.3334381722765087,-0.0074577918937718,0.150206526085136
4.735500000000002,0.3462209637181151,-0.0191759324916617,0.1629910628559944
4.738999999999997,0.3526141047681703,-0.0330233747769847,0.177904901314286
4.7425,0.3579391043160051,-0.0479389585645282,0.1853609478788057
4.746000000000002,0.3622011983493752,-0.0735062867769932,0.1981454846496642
4.749499999999998,0.3568744534722885,-0.0926804739394029,0.2024058333537824
4.753,0.3515477085952018,-0.1257055940456396,0.2087989744038376
4.756500000000003,0.3408942188410284,-0.1523375731018211,0.2130593231079557
4.759999999999998,0.3227846825223353,-0.1842962970350892,0.2162550209683574
4.7635000000000005,0.3046751462036421,-0.2034722295267509,0.2151903701246408
4.767000000000003,0.2737810731140904,-0.2279731615662473,0.2215817658454441
4.770499999999998,0.2450180470412239,-0.247149094057909,0.2258421145495622
4.774000000000001,0.2034722295267509,-0.2673896773932873,0.2439533961975074
4.777499999999996,0.1672514115601125,-0.2801724688348938,0.258867234655799
4.780999999999999,0.1118564064310645,-0.2950880526224372,0.274847469287059
4.784500000000001,0.0681795418999064,-0.300413052170272,0.2929570056057522
4.787999999999997,0.01598023463126,-0.300413052170272,0.3110665419244454
4.791499999999999,-0.0287630260728665,-0.302544099186957,0.3227846825223353
4.795000000000002,-0.0862890782185997,-0.2961527034661538,0.3313071252598236
4.798499999999997,-0.1267702448893561,-0.2876302607286655,0.3345028231202252
4.802,-0.1811005991746876,-0.2769767709744921,0.3483520107348002
4.805500000000002,-0.2162550209683574,-0.2684543282370038,0.3600701513326901
4.8089999999999975,-0.258867234655799,-0.2556715367953973,0.3760503859639502
4.8125,-0.2918906094327837,-0.2439533961975073,0.3898978282492732
4.8160000000000025,-0.3249157295390204,-0.2322352555996174,0.4080091098972184
4.819499999999998,-0.3430252658577136,-0.2269085107225307,0.4239875991992265
4.823,-0.3611348021764067,-0.2141239739516722,0.43890318298677
4.826500000000003,-0.3675279432264619,-0.2087989744038375,0.4612730680095813
4.829999999999998,-0.3643322453660603,-0.1970790884766956,0.4857757453783297
4.833500000000001,-0.3536787556118869,-0.1896230419121758,0.503885281697023
4.836999999999996,-0.3217200316786187,-0.1821652500184041,0.5262569120490862
4.840499999999999,-0.2897613077453506,-0.1736428072809158,0.5443664483677794
4.844000000000001,-0.2247774637058457,-0.1576643179789077,0.559280286826071
4.847499999999997,-0.1704471094205142,-0.1470108282247343,0.5667380787198427
4.850999999999999,-0.0777666354811113,-0.1182478021518678,0.5688691257365278
4.854500000000002,0.0010646508437165,-0.1012029166768912,0.5656734278761262
4.857999999999997,0.1161167551351827,-0.0798976824977964,0.559280286826071
4.8615,0.2024058333537824,-0.0596570991624182,0.547562146228181
4.865000000000002,0.3249157295390203,-0.0298276769165831,0.533712958613606
4.868499999999997,0.4122694586013365,-0.0106534897541734,0.519865516328283
4.872,0.5283879590657713,0.0181095363186931,0.5049499325407395
4.875500000000002,0.5997614534968274,0.0383501196540713,0.4889714432387313
4.878999999999998,0.6807255321675924,0.0564614013020164,0.4676662090596366
4.8825,0.7350541411236718,0.0735062867769931,0.4591437663221482
4.886000000000003,0.7766017039673969,0.0884201252352846,0.4431635316908882
4.889499999999998,0.7947112402860901,0.0916158230956862,0.4431635316908882
4.893000000000001,0.8032336830235783,0.0980072188164894,0.4335764381096833
4.896499999999996,0.7957776364590586,0.0916158230956862,0.4314453910929982
4.899999999999999,0.7766017039673969,0.0830933803581979,0.4261186462159115
4.903500000000001,0.753165422771617,0.071375239760308,0.4239875991992265
4.9069999999999965,0.7116178599278921,0.0500682602519612,0.4239875991992265
4.910499999999999,0.6764634381342222,0.0383501196540713,0.4239875991992265
4.9140000000000015,0.6231994800218592,0.0117181405978898,0.4282496932325966
4.917499999999997,0.5859140112115044,-7.175377184057552e-17,0.4271832970596281
4.920999999999999,0.5347793547865746,-0.02769837522915,0.425053995372195
4.924500000000002,0.492167141099133,-0.0436768645311581,0.425053995372195
4.927999999999997,0.4463592295512898,-0.0607217500061347,0.4261186462159115
4.9315,0.4122694586013365,-0.0681795418999065,0.4186608543221398
4.935000000000002,0.3717882919305801,-0.0703088435873396,0.4090737607409349
4.938499999999998,0.3408942188410284,-0.0713752397603081,0.3962909692993285
4.942,0.302544099186957,-0.069244192743623,0.3813771308410369
4.945500000000003,0.2780431671474606,-0.0607217500061347,0.369657244913895
4.948999999999998,0.247149094057909,-0.0500682602519613,0.3430252658577135
4.952500000000001,0.2290395577392158,-0.041545817514473,0.3227846825223353
4.956000000000003,0.2045368803704674,-0.0255673282124649,0.302544099186957
4.959499999999999,0.191754088928861,-0.0095870935812048,0.2791078179911772
4.963000000000001,0.1704471094205142,0.0127827914416064,0.2556715367953973
4.966499999999996,0.1565979218059392,0.0362208179666383,0.2386266513204207
4.969999999999999,0.1320969897664428,0.0596570991624181,0.2141239739516723
4.973500000000001,0.1118564064310646,0.0767019846373947,0.2002765316663493
4.976999999999997,0.0841580312019145,0.096942567972773,0.1842962970350892
4.980499999999999,0.055395005129048,0.1139874534477496,0.1811005991746876
4.984000000000002,0.0202405833353782,0.1225098961852379,0.1747092034538843
4.987499999999997,-0.002131047016685,0.1289012919060412,0.1715135055934827
4.991,-0.041545817514473,0.1406194325039311,0.1693824585767977
4.994500000000002,-0.0713752397603081,0.1459461773810178,0.1725781564371993
4.9979999999999976,-0.1086607085706629,0.1534022239455376,0.1747092034538843
5.0015,-0.1310323389227262,0.1544686201185061,0.1864273440517743
5.005000000000003,-0.1640557136997109,0.1555332709622227,0.2002765316663493
5.008499999999998,-0.1853609478788057,0.1544686201185061,0.2183860679850424
5.0120000000000005,-0.2034722295267509,0.1459461773810178,0.2354309534600191
5.015500000000003,-0.2151903701246408,0.1395530363309626,0.247149094057909
5.018999999999998,-0.2269085107225307,0.1310323389227263,0.2546051406224288
5.022500000000001,-0.2364956043037356,0.1193124529955843,0.2652586303766022
5.025999999999996,-0.2354309534600191,0.1097253594143795,0.2727164222703739
5.029499999999999,-0.2386266513204207,0.0980072188164896,0.2652586303766022
5.033000000000001,-0.233299906443334,0.0873537290623162,0.258867234655799
5.036499999999997,-0.2237128128621291,0.0767019846373948,0.2482137449016255
5.039999999999999,-0.2162550209683574,0.0660484948832214,0.2407576983371057
5.043500000000002,-0.2077325782308691,0.0575260521457331,0.233299906443334
5.046999999999997,-0.1960144376329791,0.055395005129048,0.2205171150017275
5.0505,-0.180035948330971,0.0426122136874415,0.2151903701246408
5.054000000000002,-0.1640557136997109,0.0308940730895516,0.2098636252475541
5.057499999999997,-0.152337573101821,0.0245026773687484,0.2066679273871525
5.061,-0.1310323389227262,0.0149138384582915,0.2013411825100658
5.064500000000002,-0.1257055940456395,0.0085224427374883,0.2002765316663493
5.067999999999998,-0.1033339636935762,-0.0042603487041181,0.1981454846496642
5.0715,-0.0937468701123714,-0.0127827914416064,0.2002765316663493
5.075000000000003,-0.0788312863248278,-0.0266319790561814,0.205601531214184
5.078499999999998,-0.0681795418999064,-0.0330233747769847,0.2066679273871525
5.082000000000001,-0.0585907029894496,-0.0383501196540713,0.219450718828759
5.085499999999996,-0.0511346564249298,-0.0468725623915597,0.2205171150017275
5.088999999999999,-0.0479389585645282,-0.0543303542853314,0.2269085107225308
5.092500000000001,-0.0426122136874415,-0.0660484948832214,0.2226464166891606
5.0959999999999965,-0.0436768645311581,-0.0745709376207097,0.219450718828759
5.099499999999999,-0.0404811666707564,-0.083093380358198,0.2098636252475541
5.1030000000000015,-0.0404811666707564,-0.0948115209560879,0.1970790884766957
5.106499999999997,-0.0372854688103548,-0.0948115209560879,0.1842962970350892
5.109999999999999,-0.0319587239332681,-0.1033339636935762,0.166186760716396
5.113500000000002,-0.0308940730895516,-0.1097253594143795,0.1534022239455376
5.116999999999997,-0.0149138384582915,-0.1161167551351827,0.1395530363309626
5.1205,-0.0053267448770867,-0.1182478021518678,0.1235745470289545
5.124000000000002,0.0149138384582915,-0.1235745470289545,0.0926804739394028
5.127499999999998,0.0383501196540713,-0.1235745470289545,0.0745709376207097
5.131,0.0681795418999064,-0.1267702448893561,0.0426122136874415
5.134500000000003,0.0958761717998044,-0.1235745470289545,0.0202405833353782
5.137999999999998,0.1416840833476476,-0.1150521042914662,-0.0053267448770866
5.141500000000001,0.180035948330971,-0.1022693128498597,-0.0234362811957798
5.145000000000003,0.2301042085829324,-0.0884201252352847,-0.0521993072686464
5.148499999999999,0.2716500260974054,-0.0724398906040246,-0.0671131457269379
5.152000000000001,0.3238510786953038,-0.0404811666707565,-0.0884201252352847
5.155499999999996,0.3600701513326901,-0.0213052341790948,-0.1043986145372928
5.158999999999999,0.4133358547743051,0.0053267448770866,-0.1161167551351827
5.162500000000001,0.4442281825346047,0.0234362811957798,-0.1161167551351827
5.165999999999997,0.4857757453783297,0.0426122136874414,-0.1193124529955843
5.169499999999999,0.503885281697023,0.057526052145733,-0.110790010258096
5.173000000000002,0.5283879590657713,0.0703088435873395,-0.0873537290623162
5.176499999999997,0.5347793547865746,0.0809623333415128,-0.0639174478665363
5.18,0.5379750526469761,0.0937468701123713,-0.0319587239332681
5.183500000000002,0.5283879590657713,0.0969425679727729,0.0
5.186999999999998,0.5017542346803379,0.096942567972773,0.0308940730895516
5.1905,0.4729912086074713,0.0905494269227177,0.0564614013020165
5.194000000000003,0.425053995372195,0.0798976824977963,0.0990718696602061
5.197499999999998,0.3792460838243518,0.0628527970228197,0.1278348957330726
5.2010000000000005,0.3100018910807288,0.0394165158270399,0.1725781564371993
5.204500000000003,0.2492801410745941,0.0149138384582915,0.2024058333537824
5.207999999999998,0.1683160624038291,-0.0213052341790948,0.2535404897787122
5.211500000000001,0.1033339636935762,-0.0479389585645282,0.2812388650078622
5.214999999999996,0.0138491876145749,-0.0862890782185996,0.3089354949077603
5.218499999999999,-0.0447432607041266,-0.1139874534477496,0.3270467765557054
5.222000000000001,-0.1299659427497577,-0.1491418752414194,0.341960615013997
5.225499999999997,-0.1864273440517743,-0.1683160624038291,0.3451563128743986
5.228999999999999,-0.2556715367953973,-0.1853609478788057,0.3483520107348002
5.232500000000002,-0.300413052170272,-0.193883390616294,0.3483520107348002
5.235999999999997,-0.3451563128743986,-0.2002765316663492,0.3408942188410284
5.2395,-0.369657244913895,-0.1981454846496642,0.3355692192931938
5.243000000000002,-0.3845728287014385,-0.1981454846496642,0.3259803803827369
5.2464999999999975,-0.38350643252847,-0.1917540889288609,0.3206536355056502
5.25,-0.369657244913895,-0.1779049013142859,0.3121311927681619
5.2535000000000025,-0.3472873598910836,-0.1747092034538843,0.3068061932203272
5.256999999999998,-0.3110665419244454,-0.1619246666830258,0.300413052170272
5.2605,-0.2769767709744921,-0.1470108282247343,0.2961527034661538
5.264000000000003,-0.2375620004767042,-0.1342280367831278,0.300413052170272
5.267499999999998,-0.2034722295267509,-0.124639197872671,0.3057397970473587
5.271000000000001,-0.1619246666830259,-0.1129210572747811,0.316393286801532
5.274499999999996,-0.136357338470561,-0.1022693128498597,0.3291760782431385
5.277999999999999,-0.1097253594143795,-0.0958761717998044,0.3430252658577135
5.281500000000001,-0.0894847760790013,-0.0905494269227178,0.3568744534722885
5.284999999999997,-0.0767019846373948,-0.0916158230956863,0.369657244913895
5.288499999999999,-0.0777666354811113,-0.0926804739394028,0.3749839897909817
5.292000000000002,-0.0937468701123714,-0.1022693128498597,0.3898978282492732
5.295499999999997,-0.1097253594143795,-0.1097253594143795,0.397355620143045
5.299,-0.1427504795206162,-0.1235745470289545,0.4090737607409349
5.302500000000002,-0.1736428072809158,-0.1299659427497577,0.4197272504951083
5.305999999999997,-0.2141239739516723,-0.138488385487246,0.4303807402492817
5.3095,-0.2482137449016256,-0.138488385487246,0.4335764381096833
5.313000000000002,-0.288694911572382,-0.1406194325039311,0.4367721359700849
5.316499999999998,-0.314262239784847,-0.1342280367831278,0.4367721359700849
5.32,-0.3387649171535954,-0.1225098961852379,0.4378367868138015
5.323500000000003,-0.3494166615785167,-0.1161167551351827,0.4293143440763132
5.326999999999998,-0.3451563128743986,-0.1022693128498597,0.4186608543221398
5.330500000000001,-0.3302424744161071,-0.0809623333415129,0.4122694586013365
5.333999999999996,-0.288694911572382,-0.0564614013020165,0.4037470158638482
5.337499999999999,-0.2450180470412239,-0.0308940730895515,0.4016177141764152
5.341000000000001,-0.1693824585767977,2.074336857277845e-17,0.4122694586013365
5.3444999999999965,-0.1012029166768912,0.02769837522915,0.4303807402492817
5.347999999999999,0.002131047016685,0.0639174478665363,0.4634041150262664
5.3515000000000015,0.0894847760790013,0.0948115209560879,0.4942981881158181
5.354999999999997,0.2098636252475542,0.1352926876268444,0.5358440056302911
5.358499999999999,0.3110665419244454,0.1608600158393093,0.5731294744406459
5.362000000000002,0.4282496932325966,0.1896230419121758,0.6221330838488908
5.365499999999997,0.5251905158761178,0.2098636252475541,0.6519625060947258
5.369,0.6359822714634658,0.2375620004767041,0.6892479749050807
5.372500000000002,0.7116178599278921,0.2578025838120823,0.7084221620674903
5.375999999999998,0.7925801932694049,0.279107817991177,0.7307937924195538
5.3795,0.8373234539735316,0.2982837504828388,0.7393162351570419
5.383000000000003,0.8671511308901148,0.3249157295390202,0.7510343757549319
5.386499999999998,0.8714132249234848,0.3366338701369102,0.7467722817215618
5.390000000000001,0.8575640373089098,0.357939104316005,0.7403808860007585
5.393500000000003,0.8224096155152401,0.3685925940701783,0.7286627454028686
5.396999999999999,0.767014610386192,0.3792460838243517,0.7041618133633722
5.400500000000001,0.713748906944577,0.3867021303888715,0.6807255321675924
5.403999999999996,0.6200020368322057,0.3824417816847534,0.6466357612176391
5.407499999999999,0.5411707505073777,0.3835064325284699,0.614677037284371
5.411000000000001,0.4303807402492817,0.3792460838243517,0.5773915684740161
5.414499999999997,0.3504830577514853,0.3792460838243517,0.5507578440885826
5.417999999999999,0.2269085107225308,0.385637479545155,0.5134723752782278
5.421500000000002,0.1395530363309626,0.3845728287014385,0.4815136513449596
5.424999999999997,0.0564614013020166,0.3824417816847534,0.4474238803950063
5.4285,-0.0490036094082447,0.3685925940701784,0.4080091098972184
5.432000000000002,-0.1150521042914661,0.3590055004889736,0.369657244913895
5.4354999999999976,-0.1917540889288609,0.3408942188410284,0.3238510786953038
5.439,-0.2322352555996174,0.3270467765557054,0.2940216564494687
5.442500000000003,-0.2759121201307755,0.3131975889411305,0.260998281672484
5.445999999999998,-0.290825958589067,0.3014794483432405,0.2396913021641372
5.4495000000000005,-0.2950880526224372,0.2812388650078623,0.2237128128621291
5.453000000000003,-0.288694911572382,0.2641939795328857,0.2173214171413259
5.456499999999998,-0.2546051406224287,0.2482137449016256,0.219450718828759
5.460000000000001,-0.2311688594266489,0.2247774637058457,0.2258421145495622
5.463499999999996,-0.1757738542976009,0.1992101354933808,0.2439533961975074
5.466999999999999,-0.1267702448893561,0.1757738542976009,0.2641939795328856
5.470500000000001,-0.0596570991624181,0.1448797812080492,0.2940216564494687
5.473999999999997,-0.0095870935812048,0.1235745470289545,0.3249157295390203
5.477499999999999,0.0607217500061347,0.0948115209560879,0.369657244913895
5.481000000000002,0.1129210572747811,0.0777666354811113,0.4069427137242498
5.484499999999997,0.1693824585767977,0.057526052145733,0.4516859744283765
5.488,0.2119946722642392,0.043676864531158,0.4889714432387313
5.491500000000002,0.258867234655799,0.029827676916583,0.5315836569261729
5.494999999999997,0.2961527034661538,0.0202405833353782,0.561411333842756
5.4985,0.3249157295390203,0.0149138384582915,0.5955011047927092
5.502000000000002,0.3472873598910836,0.0170448854749765,0.6200020368322057
5.505499999999998,0.3579391043160051,0.01598023463126,0.6402426201675839
5.509,0.3653968962097769,0.0234362811957798,0.6530271569384424
5.512500000000003,0.3685925940701784,0.0266319790561814,0.6604849488322142
5.515999999999998,0.3622011983493752,0.0404811666707564,0.6647452975363323
5.519500000000001,0.355809802628572,0.0564614013020165,0.6647452975363323
5.522999999999996,0.3440916620306821,0.0671131457269379,0.6572875056425604
5.526499999999999,0.3174579376452486,0.0862890782185996,0.6391779693238674
5.530000000000001,0.300413052170272,0.096942567972773,0.6210684330051742
5.5334999999999965,0.2673896773932873,0.1203788491685528,0.5997614534968274
5.536999999999999,0.2364956043037356,0.1363573384705609,0.5773915684740161
5.5405000000000015,0.2002765316663493,0.1565979218059392,0.5507578440885826
5.543999999999997,0.164055713699711,0.1736428072809158,0.5305172607532044
5.547499999999999,0.1182478021518678,0.1842962970350892,0.5049499325407395
5.551000000000002,0.0809623333415129,0.1960144376329791,0.4889714432387313
5.554499999999997,0.02769837522915,0.2045368803704674,0.4708619069200382
5.558,-0.0085224427374882,0.2077325782308691,0.4602084171658648
5.561500000000002,-0.0596570991624181,0.205601531214184,0.4559463231324946
5.564999999999998,-0.0948115209560879,0.2024058333537824,0.4634041150262664
