time,Gyr_X,Gyr_Y,Gyr_Z
0.0,-0.002131047016685,0.0,-0.0031956978604016
0.0035000000000025,-0.0010646508437165,0.0,-0.0031956978604016
0.0069999999999978,0.0010646508437165,-0.002131047016685,-0.0031956978604016
0.0105000000000003,-0.0031956978604016,0.002131047016685,-0.0042603487041181
0.0139999999999957,0.0010646508437165,0.0,-0.0074577918937717
0.0174999999999982,0.0010646508437165,0.0,-0.0053267448770866
0.0210000000000007,0.0010646508437165,-0.0053267448770866,-0.0042603487041181
0.0244999999999961,0.002131047016685,0.0,-0.0010646508437165
0.0279999999999986,0.0,0.0,-0.0053267448770866
0.0315000000000011,0.0,0.0,-0.0031956978604016
0.0349999999999965,0.0,0.0,-0.002131047016685
0.038499999999999,0.0,0.0,-0.0031956978604016
0.0420000000000015,0.0010646508437165,0.0010646508437165,-0.0031956978604016
0.0454999999999969,-0.0010646508437165,-0.0010646508437165,-0.0053267448770866
0.0489999999999994,0.0,0.0,-0.0063913957208032
0.0525000000000019,-0.002131047016685,0.0010646508437165,-0.0010646508437165
0.0559999999999973,-0.002131047016685,-0.002131047016685,-0.0063913957208032
0.0594999999999998,-0.002131047016685,0.0,-0.002131047016685
0.0630000000000023,0.0,0.002131047016685,-0.0053267448770866
0.0664999999999977,0.0,0.0,-0.0042603487041181
0.0700000000000002,0.0,0.0,-0.0031956978604016
0.0735000000000027,0.0,0.0,-0.0042603487041181
0.0769999999999981,0.0,0.0,-0.0031956978604016
0.0805000000000006,-0.0010646508437165,0.0,-0.0042603487041181
0.083999999999996,0.0,-0.002131047016685,-0.0042603487041181
0.0874999999999985,0.0010646508437165,0.0,-0.0042603487041181
0.091000000000001,-0.0010646508437165,-0.002131047016685,-0.0042603487041181
0.0944999999999964,0.0,-0.002131047016685,-0.0031956978604016
0.0979999999999989,-0.002131047016685,-0.0042603487041181,-0.0031956978604016
0.1015000000000014,0.0,-0.0010646508437165,-0.002131047016685
0.1049999999999968,0.0,-0.0031956978604016,-0.0031956978604016
0.1084999999999993,-0.0010646508437165,0.0,-0.0053267448770866
0.1120000000000018,0.0,0.0,-0.0053267448770866
0.1154999999999972,-0.0010646508437165,-0.002131047016685,-0.0063913957208032
0.1189999999999997,0.0,0.0,-0.0042603487041181
0.1225000000000022,0.0,-0.002131047016685,-0.0063913957208032
0.1259999999999976,0.0,0.0,-0.0085224427374883
0.1295000000000001,0.0010646508437165,-0.0042603487041181,-0.002131047016685
0.1330000000000026,0.0010646508437165,-0.0010646508437165,-0.0031956978604016
0.136499999999998,0.0,0.0,-0.0042603487041181
0.1400000000000005,0.0,-0.0010646508437165,-0.0031956978604016
0.1434999999999959,0.0,-0.002131047016685,-0.002131047016685
0.1469999999999984,-0.0010646508437165,-0.0010646508437165,-0.0063913957208032
0.1505000000000009,0.0,0.0,-0.0031956978604016
0.1539999999999963,0.0,0.002131047016685,-0.0031956978604016
0.1574999999999988,0.0,-0.0031956978604016,-0.002131047016685
0.1610000000000013,0.0,0.0010646508437165,-0.0031956978604016
0.1644999999999967,0.0,0.0,-0.0031956978604016
0.1679999999999992,0.002131047016685,0.0010646508437165,-0.0042603487041181
0.1715000000000017,0.0,0.0,-0.0042603487041181
0.1749999999999971,0.0,0.0,-0.002131047016685
0.1784999999999996,0.0,-0.0010646508437165,-0.0031956978604016
0.1820000000000021,0.0010646508437165,-0.0010646508437165,-0.0010646508437165
0.1854999999999975,0.0,0.0,-0.0031956978604016
0.189,0.0,-0.0031956978604016,0.0
0.1925000000000025,-0.0010646508437165,-0.0010646508437165,-0.0031956978604016
0.1959999999999979,0.0,0.0,-0.0053267448770866
0.1995000000000004,0.0010646508437165,-0.002131047016685,-0.0031956978604016
0.2029999999999958,0.0,-0.0010646508437165,-0.0063913957208032
0.2064999999999983,0.0,0.0,-0.0031956978604016
0.2100000000000008,0.0,0.0,-0.002131047016685
0.2134999999999962,0.0,-0.0010646508437165,-0.0053267448770866
0.2169999999999987,0.0010646508437165,-0.0010646508437165,-0.0042603487041181
0.2205000000000012,0.0,0.0010646508437165,-0.002131047016685
0.2239999999999966,0.0,-0.0031956978604016,-0.0010646508437165
0.2274999999999991,0.0,0.0,-0.0031956978604016
0.2310000000000016,0.002131047016685,-0.0042603487041181,-0.002131047016685
0.234499999999997,-0.0010646508437165,-0.0010646508437165,-0.0053267448770866
0.2379999999999995,0.0031956978604016,-0.002131047016685,-0.0042603487041181
0.241500000000002,-0.0010646508437165,-0.0010646508437165,-0.0042603487041181
0.2449999999999974,0.002131047016685,0.002131047016685,-0.0031956978604016
0.2484999999999999,-0.002131047016685,0.0,-0.0042603487041181
0.2520000000000024,0.0,-0.0010646508437165,-0.0085224427374883
0.2554999999999978,0.0010646508437165,0.0,-0.0095870935812048
0.2590000000000003,-0.0031956978604016,0.0,-0.0074577918937717
0.2625000000000028,-0.0053267448770866,0.0031956978604016,-0.0095870935812048
0.2659999999999982,-0.0042603487041181,0.0106534897541733,-0.0127827914416064
0.2695000000000007,-0.0053267448770866,0.0149138384582915,-0.0127827914416064
0.2729999999999961,-0.0085224427374883,0.0127827914416064,-0.0170448854749766
0.2764999999999986,-0.013849187614575,0.0117181405978899,-0.0149138384582915
0.2800000000000011,-0.013849187614575,0.0053267448770866,-0.0095870935812048
0.2834999999999965,-0.0085224427374883,0.0053267448770866,-0.0074577918937717
0.286999999999999,-0.002131047016685,0.0053267448770866,-0.0117181405978899
0.2905000000000015,0.0031956978604016,0.0053267448770866,-0.0117181405978899
0.2939999999999969,0.0,0.0031956978604016,-0.0127827914416064
0.2974999999999994,-0.0010646508437165,0.0042603487041181,-0.0127827914416064
0.3010000000000019,-0.0042603487041181,-0.0245026773687483,-0.0170448854749766
0.3044999999999973,-0.01598023463126,-0.0724398906040246,-0.0223716303520633
0.3079999999999998,-0.0202405833353782,-0.1310323389227262,-0.0127827914416064
0.3115000000000023,-0.0213052341790947,-0.1352926876268444,0.0031956978604016
0.3149999999999977,-0.0085224427374883,-0.0777666354811113,0.0085224427374883
0.3185000000000002,0.0117181405978899,-0.0127827914416064,0.0042603487041181
0.3220000000000027,0.029827676916583,0.0575260521457331,0.0
0.3254999999999981,0.0234362811957798,0.0798976824977964,0.0
0.3290000000000006,-0.0106534897541733,0.0884201252352847,0.0031956978604016
0.332499999999996,-0.0330233747769847,0.0820287295144815,0.0042603487041181
0.3359999999999985,-0.0426122136874415,0.0649838440395048,0.0074577918937717
0.339500000000001,-0.0372854688103548,0.0543303542853314,0.0127827914416064
0.3429999999999964,-0.02769837522915,0.0436768645311581,0.01598023463126
0.3464999999999989,-0.0213052341790947,0.0447432607041266,0.01598023463126
0.3500000000000014,-0.0149138384582915,0.0490036094082447,0.0245026773687483
0.3534999999999968,-0.0042603487041181,0.0596570991624181,0.0245026773687483
0.3569999999999993,0.0085224427374883,0.0639174478665363,0.029827676916583
0.3605000000000018,0.0117181405978899,0.0617864008498512,0.0255673282124649
0.3639999999999972,0.0074577918937717,0.055395005129048,0.01598023463126
0.3674999999999997,0.0010646508437165,0.0447432607041266,0.0127827914416064
0.3710000000000022,-0.0053267448770866,0.0362208179666383,0.0063913957208032
0.3744999999999976,-0.0074577918937717,0.029827676916583,0.0010646508437165
0.3780000000000001,-0.0085224427374883,0.0266319790561814,0.0
0.3815000000000026,-0.0085224427374883,0.0234362811957798,0.002131047016685
0.384999999999998,0.0,0.0213052341790947,0.0
0.3885000000000005,0.0053267448770866,0.0031956978604016,-0.0170448854749766
0.3919999999999959,0.0042603487041181,-0.0245026773687483,-0.0202405833353782
0.3954999999999984,0.0,-0.0447432607041266,-0.0042603487041181
0.3990000000000009,0.0,-0.0713752397603081,0.0053267448770866
0.4024999999999963,0.0031956978604016,-0.0798976824977964,0.0
0.4059999999999988,0.0063913957208032,-0.0756355884644262,-0.0074577918937717
0.4095000000000013,0.0117181405978899,-0.0639174478665363,-0.0127827914416064
0.4129999999999967,0.0127827914416064,-0.0372854688103548,-0.0181095363186931
0.4164999999999992,0.0053267448770866,-0.0127827914416064,-0.0308940730895516
0.4200000000000017,-0.0010646508437165,-0.0074577918937717,-0.0191759324916617
0.4234999999999971,-0.0053267448770866,-0.0117181405978899,-0.0106534897541733
0.4269999999999996,-0.0127827914416064,-0.0191759324916617,-0.0181095363186931
0.4305000000000021,-0.0085224427374883,-0.0202405833353782,-0.0266319790561814
0.4339999999999975,-0.0063913957208032,0.0074577918937717,-0.029827676916583
0.4375,-0.0010646508437165,0.01598023463126,-0.0287630260728665
0.4410000000000025,-0.0085224427374883,0.02769837522915,-0.0213052341790947
0.4444999999999979,-0.0074577918937717,0.0255673282124649,-0.0223716303520633
0.4480000000000004,-0.01598023463126,0.0245026773687483,-0.0266319790561814
0.4514999999999958,-0.0181095363186931,0.0223716303520633,-0.0234362811957798
0.4549999999999983,-0.0181095363186931,0.02769837522915,-0.0213052341790947
0.4585000000000008,-0.0170448854749766,0.0404811666707564,-0.0181095363186931
0.4619999999999962,-0.0149138384582915,0.0287630260728665,-0.0106534897541733
0.4654999999999987,-0.0117181405978899,0.0149138384582915,-0.0085224427374883
0.4690000000000012,0.0,-0.013849187614575,0.0095870935812048
0.4724999999999966,0.0010646508437165,-0.0308940730895516,0.02769837522915
0.4759999999999991,0.0127827914416064,-0.0521993072686464,0.0372854688103548
0.4795000000000016,0.0095870935812048,-0.0479389585645282,0.0213052341790947
0.482999999999997,0.0095870935812048,-0.0330233747769847,0.0149138384582915
0.4864999999999995,0.0010646508437165,-0.0170448854749766,0.0010646508437165
0.490000000000002,-0.0042603487041181,-0.0031956978604016,0.0
0.4934999999999974,-0.002131047016685,-0.0127827914416064,0.0053267448770866
0.4969999999999999,-0.0085224427374883,-0.0404811666707564,0.0031956978604016
0.5005000000000024,-0.0170448854749766,-0.0500682602519613,0.0074577918937717
0.5039999999999978,-0.0191759324916617,-0.0575260521457331,-0.002131047016685
0.5075000000000003,-0.0213052341790947,-0.0372854688103548,-0.0095870935812048
0.5110000000000028,-0.0181095363186931,-0.01598023463126,-0.0127827914416064
0.5144999999999982,-0.0170448854749766,0.01598023463126,-0.0234362811957798
0.5180000000000007,-0.0127827914416064,0.0319587239332681,-0.0266319790561814
0.5214999999999961,-0.0074577918937717,0.041545817514473,-0.0245026773687483
0.5249999999999986,0.0010646508437165,0.041545817514473,-0.0202405833353782
0.5285000000000011,0.0117181405978899,0.0287630260728665,-0.0223716303520633
0.5319999999999965,0.0170448854749766,0.0181095363186931,-0.0202405833353782
0.535499999999999,0.0127827914416064,0.0063913957208032,-0.0181095363186931
0.5390000000000015,0.0085224427374883,-0.0085224427374883,-0.0149138384582915
0.5424999999999969,-0.0042603487041181,-0.0234362811957798,-0.0053267448770866
0.5459999999999994,-0.0074577918937717,-0.0362208179666383,-0.0010646508437165
0.5495000000000019,-0.0149138384582915,-0.0383501196540714,0.0031956978604016
0.5529999999999973,-0.0042603487041181,-0.0468725623915597,0.0074577918937717
0.5564999999999998,0.0031956978604016,-0.0404811666707564,0.0063913957208032
0.5600000000000023,0.0149138384582915,-0.0394165158270399,0.0063913957208032
0.5634999999999977,0.0202405833353782,-0.0351544217936697,0.0127827914416064
0.5670000000000002,0.0181095363186931,-0.0362208179666383,0.0117181405978899
0.5705000000000027,0.0063913957208032,-0.0340897709499532,0.0170448854749766
0.5739999999999981,0.0,-0.0362208179666383,0.0170448854749766
0.5775000000000006,-0.0085224427374883,-0.0308940730895516,0.0202405833353782
0.580999999999996,-0.0095870935812048,-0.0245026773687483,0.0181095363186931
0.5844999999999985,-0.0063913957208032,-0.0213052341790947,0.013849187614575
0.588000000000001,-0.0074577918937717,-0.0191759324916617,0.013849187614575
0.5914999999999964,-0.0010646508437165,-0.0149138384582915,0.0170448854749766
0.5949999999999989,-0.0031956978604016,-0.01598023463126,0.013849187614575
0.5985000000000014,-0.0117181405978899,-0.01598023463126,0.0127827914416064
0.6019999999999968,-0.0170448854749766,-0.0127827914416064,0.0127827914416064
0.6054999999999993,-0.02769837522915,-0.0106534897541733,0.0095870935812048
0.6090000000000018,-0.0287630260728665,-0.0095870935812048,0.0074577918937717
0.6124999999999972,-0.0266319790561814,-0.0063913957208032,0.0063913957208032
0.6159999999999997,-0.0266319790561814,-0.0053267448770866,0.0063913957208032
0.6195000000000022,-0.0106534897541733,-0.0042603487041181,0.0010646508437165
0.6229999999999976,-0.0042603487041181,-0.0031956978604016,0.0
0.6265000000000001,0.0010646508437165,0.0063913957208032,-0.0010646508437165
0.6300000000000026,0.0,0.0106534897541733,-0.0095870935812048
0.633499999999998,-0.0042603487041181,0.0202405833353782,-0.0117181405978899
0.6370000000000005,-0.0085224427374883,0.0191759324916617,-0.0191759324916617
0.6404999999999959,-0.0202405833353782,0.01598023463126,-0.0181095363186931
0.6439999999999984,-0.0266319790561814,0.0127827914416064,-0.013849187614575
0.6475000000000009,-0.0319587239332681,-0.0010646508437165,-0.0106534897541733
0.6509999999999962,-0.0340897709499532,-0.0117181405978899,-0.0095870935812048
0.6544999999999987,-0.0330233747769847,-0.0213052341790947,-0.0063913957208032
0.6580000000000013,-0.0383501196540714,-0.0319587239332681,-0.002131047016685
0.6614999999999966,-0.0490036094082447,-0.0447432607041266,0.002131047016685
0.6649999999999991,-0.0628527970228197,-0.055395005129048,0.0085224427374883
0.6685000000000016,-0.0937468701123714,-0.0649838440395048,0.0095870935812048
0.671999999999997,-0.110790010258096,-0.069244192743623,0.0149138384582915
0.6754999999999995,-0.1406194325039311,-0.0703088435873395,0.0149138384582915
0.679000000000002,-0.1555332709622227,-0.0671131457269379,0.0106534897541733
0.6824999999999974,-0.1832316461913727,-0.069244192743623,0.0031956978604016
0.6859999999999999,-0.1853609478788057,-0.0724398906040246,0.0
0.6895000000000024,-0.1928187397725775,-0.0905494269227178,-0.0010646508437165
0.6929999999999978,-0.1938833906162941,-0.1001382658331746,-0.002131047016685
0.6965000000000003,-0.2151903701246408,-0.1225098961852379,0.002131047016685
0.7000000000000028,-0.2343645572870505,-0.1395530363309626,0.01598023463126
0.7034999999999982,-0.2759121201307756,-0.1683160624038291,0.02769837522915
0.7070000000000007,-0.2972173543098703,-0.1938833906162941,0.0383501196540714
0.7104999999999961,-0.3440916620306821,-0.2151903701246408,0.0447432607041266
0.7139999999999986,-0.3792460838243518,-0.2396913021641372,0.0394165158270399
0.7175000000000011,-0.425053995372195,-0.274847469287059,0.0308940730895516
0.7209999999999965,-0.452750625272093,-0.2982837504828389,0.01598023463126
0.724499999999999,-0.4729912086074713,-0.3291760782431385,0.0031956978604016
0.7280000000000015,-0.4847093492053612,-0.3494166615785167,-0.002131047016685
0.7314999999999969,-0.464468765869983,-0.3813771308410369,-0.013849187614575
0.7349999999999994,-0.42292294835551,-0.4026823650201317,-0.013849187614575
0.7385000000000019,-0.3345028231202252,-0.4357057397971164,-0.0117181405978899
0.7419999999999973,-0.2418223491808223,-0.4751222556241564,-0.0117181405978899
0.7454999999999998,-0.1193124529955843,-0.5262569120490862,-0.013849187614575
0.7490000000000023,-0.0862890782185996,-0.561411333842756,-0.0074577918937717
0.7524999999999977,-0.0980072188164895,-0.626395177882261,-0.0074577918937717
0.7560000000000002,-0.1427504795206162,-0.6583539018155291,-0.0042603487041181
0.7595000000000027,-0.2024058333537824,-0.6881815787321122,-0.0031956978604016
0.7629999999999981,-0.2439533961975074,-0.7180110009779472,-0.0042603487041181
0.7665000000000006,-0.2769767709744921,-0.7425119330174437,-0.0053267448770866
0.769999999999996,-0.2801724688348938,-0.7574257714757352,0.0031956978604016
0.7734999999999985,-0.2631275833599171,-0.7819284488444836,0.0191759324916617
0.777000000000001,-0.2460844432141925,-0.8011026360068932,0.0351544217936697
0.7804999999999964,-0.2183860679850424,-0.8117561257610666,0.0521993072686464
0.7839999999999989,-0.1789695521580025,-0.8138871727777518,0.0617864008498512
0.7875000000000014,-0.1214435000122694,-0.80642938088398,0.0798976824977964
0.7909999999999968,-0.0894847760790012,-0.7989733343194602,0.1001382658331746
0.7944999999999993,-0.0649838440395048,-0.7776663548111135,0.1214435000122694
0.7980000000000018,-0.0649838440395048,-0.7563611206320187,0.1427504795206162
0.8014999999999972,-0.0873537290623162,-0.7201403026653803,0.166186760716396
0.8049999999999997,-0.1193124529955843,-0.6881815787321122,0.1864273440517743
0.8085000000000022,-0.1555332709622227,-0.6370469223071823,0.2141239739516723
0.8119999999999976,-0.1747092034538843,-0.5944364539489927,0.2311688594266489
0.8155000000000001,-0.1842962970350892,-0.5305172607532044,0.260998281672484
0.8190000000000026,-0.1906876927558924,-0.480449000501243,0.2801724688348938
0.822499999999998,-0.191754088928861,-0.4101401569139035,0.3057397970473587
0.8260000000000005,-0.1970790884766957,-0.3579391043160051,0.3174579376452486
0.8294999999999959,-0.1874919948954908,-0.2780431671474606,0.3174579376452486
0.8329999999999984,-0.1842962970350892,-0.2130593231079557,0.3089354949077603
0.8365000000000009,-0.1651203645434275,-0.1193124529955843,0.2897613077453506
0.8399999999999963,-0.1512729222581045,-0.0287630260728665,0.258867234655799
0.8434999999999988,-0.1320969897664428,0.1097253594143795,0.2130593231079557
0.8470000000000013,-0.1299659427497577,0.2247774637058457,0.1789695521580025
0.8504999999999967,-0.1214435000122694,0.38350643252847,0.1374237346435295
0.8539999999999992,-0.1235745470289545,0.4932317919428495,0.1065296615539778
0.8575000000000017,-0.1203788491685528,0.630655526586379,0.0639174478665363
0.8609999999999971,-0.1118564064310645,0.7307937924195538,0.0404811666707564
0.8644999999999996,-0.0735062867769931,0.8394545009902167,0.0106534897541733
0.8680000000000021,-0.0308940730895516,0.9044365997004696,0.002131047016685
0.8714999999999975,0.0511346564249298,0.968355792896258,-0.002131047016685
0.875,0.1182478021518678,0.9928567249357544,-0.0074577918937717
0.8785000000000025,0.1981454846496642,0.9992481206565574,-0.0031956978604016
0.8819999999999979,0.2567361876391139,0.9928567249357544,-0.0085224427374883
0.8855000000000004,0.3227846825223353,0.968355792896258,-0.002131047016685
0.8889999999999958,0.3707236410868635,0.9385263706504228,0.002131047016685
0.8924999999999983,0.4175962034784233,0.889522761242178,0.0202405833353782
0.8960000000000008,0.4442281825346047,0.8543683394485082,0.029827676916583
0.8994999999999962,0.4687308599033531,0.7776663548111135,0.0532657034416149
0.9029999999999988,0.4665998128866681,0.7403808860007585,0.0639174478665363
0.9065000000000012,0.4516859744283765,0.6658099483800488,0.0809623333415129
0.9099999999999966,0.4303807402492817,0.6082838962343158,0.1022693128498597
0.9134999999999992,0.3867021303888716,0.5262569120490862,0.1182478021518678
0.9170000000000016,0.3451563128743986,0.4623394641825499,0.1320969897664428
0.920499999999997,0.2929570056057522,0.3771150368076668,0.1512729222581045
0.9239999999999996,0.2524758389349957,0.3131975889411305,0.1629910628559944
0.927500000000002,0.2034722295267509,0.2322352555996175,0.1768385051413174
0.9309999999999974,0.1715135055934827,0.1725781564371993,0.1874919948954908
0.9345,0.1374237346435295,0.0948115209560879,0.1960144376329791
0.9380000000000024,0.1118564064310645,0.0404811666707564,0.1949497867892626
0.9414999999999978,0.0820287295144815,-0.0308940730895516,0.1896230419121759
0.9450000000000004,0.0660484948832214,-0.0756355884644262,0.1768385051413174
0.9485000000000028,0.0458079115478431,-0.1235745470289545,0.1597953649955928
0.9519999999999982,0.0468725623915597,-0.152337573101821,0.1406194325039311
0.9555000000000008,0.0436768645311581,-0.1715135055934827,0.1139874534477496
0.958999999999996,0.0426122136874415,-0.1768385051413174,0.0905494269227178
0.9624999999999986,0.0468725623915597,-0.1693824585767977,0.0532657034416149
0.9660000000000012,0.041545817514473,-0.1715135055934827,0.0308940730895516
0.9694999999999964,0.0191759324916617,-0.1789695521580025,-0.0063913957208032
0.972999999999999,0.0,-0.1842962970350892,-0.0287630260728665
0.9765000000000016,-0.0426122136874415,-0.1960144376329791,-0.0564614013020165
0.9799999999999968,-0.0735062867769931,-0.2013411825100658,-0.0820287295144815
0.9834999999999994,-0.1203788491685528,-0.2109282760912707,-0.1097253594143795
0.987000000000002,-0.1459461773810178,-0.2162550209683574,-0.1299659427497577
0.9904999999999972,-0.1651203645434275,-0.219450718828759,-0.1565979218059392
0.9939999999999998,-0.166186760716396,-0.2247774637058457,-0.1747092034538843
0.9975000000000024,-0.1534022239455376,-0.2237128128621291,-0.1960144376329791
1.0009999999999977,-0.1331616406101593,-0.2183860679850424,-0.2130593231079557
1.0045000000000002,-0.0916158230956863,-0.1970790884766957,-0.2247774637058457
1.008000000000003,-0.0575260521457331,-0.1821652500184041,-0.2269085107225308
1.011499999999998,-0.0127827914416064,-0.1512729222581045,-0.2311688594266489
1.0150000000000006,0.01598023463126,-0.1352926876268444,-0.2290395577392158
1.018499999999996,0.0426122136874415,-0.1065296615539778,-0.2269085107225308
1.0219999999999985,0.0564614013020165,-0.0852244273748831,-0.2205171150017275
1.025500000000001,0.0660484948832214,-0.0564614013020165,-0.2045368803704674
1.0289999999999964,0.0660484948832214,-0.0340897709499532,-0.1949497867892626
1.0324999999999989,0.0649838440395048,-0.0031956978604016,-0.1768385051413174
1.0360000000000014,0.0703088435873395,0.02769837522915,-0.1597953649955928
1.0394999999999968,0.0767019846373948,0.0724398906040246,-0.1416840833476476
1.0429999999999993,0.0884201252352847,0.1001382658331746,-0.1289012919060412
1.0465000000000018,0.1129210572747811,0.136357338470561,-0.1129210572747811
1.0499999999999972,0.1470108282247343,0.1640557136997109,-0.1054650107102613
1.0534999999999997,0.2024058333537824,0.1960144376329791,-0.096942567972773
1.0570000000000022,0.2460844432141925,0.2237128128621291,-0.0916158230956863
1.0604999999999976,0.3121311927681619,0.2641939795328856,-0.083093380358198
1.064,0.3622011983493752,0.2940216564494687,-0.0735062867769931
1.0675000000000026,0.4335764381096833,0.3323735214327921,-0.0671131457269379
1.070999999999998,0.4783179534845579,0.3568744534722885,-0.0596570991624181
1.0745000000000005,0.5390397034906926,0.3984202709867616,-0.055395005129048
1.077999999999996,0.5805872663344177,0.4346410889533998,-0.0617864008498512
1.0814999999999984,0.6221330838488908,0.508147375730393,-0.0745709376207097
1.0850000000000009,0.6466357612176391,0.5624759846864725,-0.0841580312019145
1.0884999999999962,0.6753987872905056,0.6295908757426625,-0.1033339636935762
1.0919999999999987,0.6903126257487973,0.6785944851509074,-0.1139874534477496
1.0955000000000013,0.6945729744529154,0.7212066988383489,-0.1267702448893561
1.0989999999999966,0.6935083236091989,0.7457076308778453,-0.1374237346435295
1.1024999999999991,0.6817901830113089,0.7606214693361367,-0.1480754790684509
1.1060000000000016,0.670072042413419,0.7606214693361367,-0.1597953649955928
1.109499999999997,0.6530271569384424,0.7520990265986485,-0.1715135055934827
1.1129999999999995,0.6338512244467807,0.7382515843133254,-0.1842962970350892
1.116500000000002,0.6200020368322057,0.7180110009779472,-0.205601531214184
1.1199999999999974,0.605088198373914,0.7030954171904037,-0.2162550209683574
1.1235,0.5880433128989375,0.6892479749050807,-0.2237128128621291
1.1270000000000024,0.5731294744406459,0.6690056462404504,-0.2269085107225308
1.1304999999999978,0.5390397034906926,0.644504714200954,-0.2290395577392158
1.1340000000000003,0.508147375730393,0.6221330838488908,-0.2258421145495622
1.1375000000000028,0.4516859744283765,0.5827165680218508,-0.2183860679850424
1.1409999999999982,0.3984202709867616,0.5539552872782363,-0.2109282760912707
1.1445000000000007,0.3174579376452486,0.503885281697023,-0.1981454846496642
1.147999999999996,0.2556715367953973,0.4708619069200382,-0.1949497867892626
1.1514999999999986,0.1693824585767977,0.4218582975117934,-0.1938833906162941
1.1550000000000011,0.1065296615539778,0.3898978282492732,-0.1992101354933808
1.1584999999999963,0.0330233747769847,0.3462209637181151,-0.2087989744038376
1.161999999999999,-0.0106534897541733,0.3227846825223353,-0.2183860679850424
1.1655000000000015,-0.0585907029894496,0.2908259585890671,-0.2386266513204207
1.168999999999997,-0.0820287295144815,0.2705853752536888,-0.2578025838120824
1.1724999999999994,-0.1043986145372928,0.247149094057909,-0.2897613077453506
1.176000000000002,-0.1054650107102613,0.2386266513204207,-0.314262239784847
1.179499999999997,-0.0894847760790012,0.2279731615662473,-0.3483520107348002
1.1829999999999998,-0.0745709376207097,0.2311688594266489,-0.3760503859639502
1.1865000000000023,-0.0404811666707564,0.2450180470412239,-0.4154651564617382
1.1899999999999975,0.0,0.2620629325162006,-0.4410324846742031
1.1935000000000002,0.0575260521457331,0.2908259585890671,-0.4729912086074713
1.1970000000000027,0.1086607085706629,0.316393286801532,-0.4996249329929048
1.200499999999998,0.1811005991746876,0.3504830577514853,-0.5369104018032596
1.2040000000000006,0.2354309534600191,0.3717882919305801,-0.5646070317031576
1.207499999999996,0.3121311927681619,0.3994866671597301,-0.6082838962343158
1.2109999999999983,0.3622011983493752,0.4207919013388249,-0.6391779693238674
1.214500000000001,0.4314453910929982,0.4357057397971164,-0.6775280889779387
1.2179999999999964,0.4825800475179281,0.4484902765679749,-0.709488558240459
1.221499999999999,0.5496931932448661,0.4602084171658648,-0.7446429800341288
1.2250000000000014,0.6018925005135125,0.4634041150262664,-0.7702103082465936
1.2284999999999968,0.6562228547988439,0.4719265577637547,-0.8011026360068932
1.231999999999999,0.6956393706258839,0.480449000501243,-0.8181475214818699
1.2355000000000018,0.7382515843133254,0.4879067923950148,-0.8373234539735316
1.2389999999999972,0.753165422771617,0.4847093492053612,-0.8437148496943347
1.2424999999999995,0.7702103082465936,0.4687308599033531,-0.84584589671102
1.2460000000000022,0.7691439120736251,0.4559463231324946,-0.8394545009902167
1.2494999999999976,0.7574257714757352,0.4261186462159115,-0.8213432193422715
1.253,0.7489033287382468,0.3930952714389268,-0.8117561257610666
1.2565000000000026,0.7382515843133254,0.3387649171535954,-0.7936465894423735
1.259999999999998,0.7329248394362388,0.300413052170272,-0.7851241467048852
1.2635000000000003,0.723336000525782,0.2354309534600191,-0.7893844954090034
1.266999999999996,0.7105532090841755,0.191754088928861,-0.7936465894423735
1.2704999999999984,0.6785944851509074,0.1352926876268444,-0.8074957770569485
1.274000000000001,0.6434400633572375,0.0937468701123714,-0.8128207766047831
1.2774999999999963,0.5827165680218508,0.041545817514473,-0.8170828706381533
1.2809999999999988,0.5326483077698895,0.0074577918937717,-0.8170828706381533
1.2845000000000013,0.4655351620429515,-0.0319587239332681,-0.8085604279006651
1.2879999999999967,0.4122694586013365,-0.055395005129048,-0.8053647300402634
1.2914999999999992,0.3515477085952018,-0.0852244273748831,-0.8043000791965469
1.2950000000000017,0.3131975889411305,-0.1065296615539778,-0.8021690321798618
1.298499999999997,0.2705853752536888,-0.124639197872671,-0.8085604279006651
1.3019999999999996,0.2514094427620272,-0.1352926876268444,-0.8096250787443816
1.305500000000002,0.2322352555996175,-0.1491418752414194,-0.8138871727777518
1.3089999999999975,0.2407576983371057,-0.1512729222581045,-0.8181475214818699
1.3125,0.2567361876391139,-0.152337573101821,-0.8160182197944368
1.3160000000000025,0.2801724688348938,-0.1555332709622227,-0.8128207766047831
1.319499999999998,0.3217200316786187,-0.166186760716396,-0.8021690321798618
1.3230000000000004,0.3547434064556034,-0.1789695521580025,-0.7925801932694049
1.3264999999999958,0.397355620143045,-0.1960144376329791,-0.7766017039673969
1.3299999999999983,0.42292294835551,-0.2173214171413259,-0.7659482142132235
1.3335000000000008,0.4495549274116914,-0.2524758389349957,-0.7478386778945303
1.3369999999999962,0.4665998128866681,-0.2876302607286655,-0.7329248394362388
1.3404999999999987,0.4836446983616446,-0.3334381722765087,-0.7222713496820654
1.3440000000000012,0.4953628389595346,-0.3675279432264619,-0.7180110009779472
1.3474999999999966,0.4996249329929048,-0.3994866671597301,-0.725467047542467
1.350999999999999,0.503885281697023,-0.4197272504951083,-0.7403808860007585
1.3545000000000016,0.5028206308533064,-0.4271832970596281,-0.7499697249112154
1.357999999999997,0.503885281697023,-0.4293143440763132,-0.7552947244590501
1.3614999999999997,0.5028206308533064,-0.4207919013388249,-0.7627525163528219
1.365000000000002,0.5060163287137079,-0.4186608543221398,-0.7680792612299085
1.3684999999999974,0.508147375730393,-0.41120480775762,-0.7776663548111135
1.372,0.508147375730393,-0.4048134120368167,-0.7840577505319166
1.3755000000000024,0.5028206308533064,-0.3962909692993285,-0.8011026360068932
1.3789999999999978,0.4911024902554164,-0.3930952714389268,-0.8128207766047831
1.3825000000000005,0.4751222556241564,-0.3888331774055567,-0.8288010112360433
1.3860000000000028,0.4580773701491797,-0.3760503859639502,-0.836258803129815
1.3894999999999982,0.4314453910929982,-0.3547434064556034,-0.8351924069568466
1.393000000000001,0.4080091098972184,-0.3323735214327921,-0.8234742663589566
1.396499999999996,0.3781796876513833,-0.302544099186957,-0.7947112402860901
1.3999999999999986,0.3611348021764067,-0.2844345628682639,-0.7755353077944284
1.403500000000001,0.3302424744161071,-0.2631275833599171,-0.7350541411236718
1.4069999999999965,0.300413052170272,-0.2546051406224288,-0.6988350684862855
1.410499999999999,0.247149094057909,-0.2343645572870505,-0.6466357612176391
1.4140000000000017,0.1981454846496642,-0.2258421145495622,-0.5965657556364258
1.4174999999999969,0.1406194325039311,-0.2215817658454441,-0.5369104018032596
1.4209999999999994,0.0543303542853314,-0.2258421145495622,-0.4580773701491797
1.424500000000002,-0.013849187614575,-0.2364956043037356,-0.3941599222826434
1.4279999999999973,-0.1097253594143795,-0.2759121201307756,-0.314262239784847
1.4314999999999998,-0.1906876927558924,-0.3131975889411305,-0.2556715367953973
1.4350000000000025,-0.2801724688348938,-0.3728546881035486,-0.1853609478788057
1.4384999999999977,-0.3430252658577135,-0.42292294835551,-0.1395530363309626
1.4420000000000002,-0.4197272504951083,-0.4911024902554164,-0.083093380358198
1.445500000000003,-0.4665998128866681,-0.5379750526469761,-0.0521993072686464
1.448999999999998,-0.5134723752782278,-0.6018925005135125,-0.0181095363186931
1.4525000000000006,-0.5411707505073777,-0.6391779693238674,-0.002131047016685
1.455999999999996,-0.5635423808594411,-0.6785944851509074,0.0085224427374883
1.4594999999999985,-0.5720648235969293,-0.6998997193300021,0.0095870935812048
1.463000000000001,-0.5678027295635593,-0.7148135577882937,0.0
1.4664999999999964,-0.5507578440885826,-0.7222713496820654,-0.0170448854749766
1.4699999999999989,-0.5102766774178261,-0.7201403026653803,-0.0543303542853314
1.4735000000000014,-0.4719265577637547,-0.7062911150508053,-0.0916158230956863
1.4769999999999968,-0.4069427137242498,-0.6753987872905056,-0.1512729222581045
1.4804999999999993,-0.3483520107348002,-0.6359822714634658,-0.2013411825100658
1.4840000000000018,-0.260998281672484,-0.5731294744406459,-0.2780431671474606
1.4874999999999972,-0.1864273440517743,-0.5262569120490862,-0.3345028231202252
1.4909999999999997,-0.0820287295144815,-0.4570127193054631,-0.4154651564617382
1.4945000000000022,-0.0074577918937717,-0.3898978282492732,-0.480449000501243
1.4979999999999976,0.0841580312019145,-0.3014794483432405,-0.5656734278761262
1.5015,0.1480754790684509,-0.2375620004767041,-0.6274598287259775
1.5050000000000026,0.2226464166891606,-0.152337573101821,-0.7062911150508053
1.508499999999998,0.260998281672484,-0.0937468701123714,-0.7638171671965385
1.5120000000000005,0.3014794483432405,-0.0213052341790947,-0.8224096155152401
1.515499999999996,0.3227846825223353,0.0213052341790947,-0.8692821779067997
1.5189999999999984,0.3334381722765087,0.0713752397603081,-0.9193504381587612
1.5225000000000009,0.3323735214327921,0.110790010258096,-0.947048813387911
1.5259999999999962,0.3238510786953038,0.1565979218059392,-0.9747471886170612
1.5294999999999987,0.3036087500306735,0.1885583910684593,-0.9875299800586675
1.5330000000000013,0.2705853752536888,0.2269085107225308,-0.9822032351815808
1.5364999999999966,0.2450180470412239,0.247149094057909,-0.9630290480191712
1.5399999999999991,0.2045368803704674,0.2684543282370038,-0.9204168343317296
1.5435000000000016,0.1789695521580025,0.2716500260974054,-0.8767399698005716
1.546999999999997,0.1512729222581045,0.2641939795328856,-0.8043000791965469
1.5504999999999995,0.1406194325039311,0.2546051406224288,-0.7638171671965385
1.554000000000002,0.1267702448893561,0.2364956043037356,-0.7148135577882937
1.5574999999999974,0.1257055940456395,0.2151903701246408,-0.6903126257487973
1.561,0.1289012919060412,0.1864273440517743,-0.6604849488322142
1.5645000000000024,0.136357338470561,0.1597953649955928,-0.642373667184269
1.5679999999999978,0.1629910628559944,0.1225098961852379,-0.6253287817092923
1.5715000000000003,0.1789695521580025,0.0820287295144815,-0.614677037284371
1.5749999999999955,0.2024058333537824,0.02769837522915,-0.614677037284371
1.5784999999999982,0.2162550209683574,-0.0170448854749766,-0.616806338971804
1.5820000000000007,0.2247774637058457,-0.0724398906040246,-0.6327865736030641
1.585499999999996,0.2162550209683574,-0.1182478021518678,-0.6477004120613556
1.5889999999999986,0.1842962970350892,-0.1629910628559944,-0.6711366932571355
1.5925000000000011,0.1470108282247343,-0.1928187397725775,-0.6935083236091989
1.5959999999999963,0.0756355884644262,-0.2311688594266489,-0.7052264642070888
1.599499999999999,0.0010646508437165,-0.2514094427620272,-0.7169446048049787
1.6030000000000015,-0.1171831513081512,-0.2812388650078622,-0.7105532090841755
1.606499999999997,-0.2162550209683574,-0.3046751462036421,-0.7020307663466872
1.6099999999999994,-0.3590055004889736,-0.3345028231202252,-0.6817901830113089
1.613500000000002,-0.4687308599033531,-0.3547434064556034,-0.6626142505196473
1.616999999999997,-0.6125459902676859,-0.3813771308410369,-0.6327865736030641
1.6204999999999998,-0.7148135577882937,-0.3952245731263599,-0.605088198373914
1.6240000000000023,-0.8373234539735316,-0.4080091098972184,-0.5667380787198427
1.6274999999999975,-0.9086986937338396,-0.4069427137242498,-0.533712958613606
1.6310000000000002,-0.984334282198266,-0.3994866671597301,-0.4751222556241564
1.6345000000000027,-1.0248154488690224,-0.3877685265618402,-0.4218582975117934
1.637999999999998,-1.0493181262377709,-0.3643322453660603,-0.3355692192931938
1.6415000000000006,-1.063165568523094,-0.3440916620306821,-0.2684543282370038
1.644999999999996,-1.0493181262377709,-0.316393286801532,-0.1608600158393093
1.6484999999999983,-1.0290775429023926,-0.2950880526224372,-0.0681795418999064
1.652000000000001,-0.9853989330419826,-0.2844345628682639,0.041545817514473
1.6554999999999964,-0.9438531155275096,-0.2759121201307756,0.1310323389227262
1.658999999999999,-0.8841960163650913,-0.2705853752536888,0.2301042085829324
1.6625000000000014,-0.836258803129815,-0.2599318854995155,0.2908259585890671
1.6659999999999968,-0.7755353077944284,-0.247149094057909,0.3664615470534934
1.669499999999999,-0.7297291415758372,-0.2322352555996175,0.4122694586013365
1.6730000000000018,-0.6764634381342222,-0.2119946722642392,0.4761869064678729
1.6764999999999972,-0.6402426201675839,-0.1864273440517743,0.5166698184678814
1.6799999999999995,-0.602958896686481,-0.1619246666830259,0.5709984274239609
1.6835000000000022,-0.5752605214573311,-0.1406194325039311,0.6104149432510009
1.6869999999999976,-0.561411333842756,-0.1139874534477496,0.6530271569384424
1.6905,-0.5603466829990394,-0.0948115209560879,0.6722030894301041
1.6940000000000026,-0.5667380787198427,-0.0724398906040246,0.6967040214696004
1.697499999999998,-0.5837829641948193,-0.0607217500061347,0.7116178599278921
1.7010000000000003,-0.6072192453905992,-0.0458079115478431,0.7201403026653803
1.704499999999996,-0.6200020368322057,-0.0394165158270399,0.725467047542467
1.7079999999999984,-0.6359822714634658,-0.02769837522915,0.727598094559152
1.711500000000001,-0.6455693650446706,-0.0181095363186931,0.7361205372966404
1.7149999999999963,-0.6391779693238674,-0.0063913957208032,0.7414472821737271
1.7184999999999988,-0.6231994800218592,-0.0031956978604016,0.7520990265986485
1.7220000000000013,-0.5912390107593392,0.0031956978604016,0.7829930996882002
1.7254999999999967,-0.5507578440885826,0.0127827914416064,0.8128207766047831
1.7289999999999992,-0.4751222556241564,0.0202405833353782,0.8650218292026817
1.7325000000000017,-0.4016177141764152,0.0223716303520633,0.9065676467171546
1.735999999999997,-0.2791078179911772,0.0319587239332681,0.956635906969116
1.7394999999999996,-0.1683160624038291,0.0362208179666383,0.9928567249357544
1.743000000000002,0.0074577918937717,0.0394165158270399,1.035468938623196
1.7464999999999975,0.152337573101821,0.0287630260728665,1.0716880112605822
1.75,0.3568744534722885,0.0095870935812048,1.1174959228084254
1.7535000000000025,0.5209301671719996,-0.0117181405978899,1.1409322040042051
1.756999999999998,0.7339894902799553,-0.0521993072686464,1.173957324110442
1.7605000000000004,0.8905874120858945,-0.0884201252352847,1.18247976684793
1.7639999999999958,1.079145803154354,-0.1438151303643327,1.1846108138646152
1.7674999999999983,1.1995246523229068,-0.1832316461913727,1.1728926732667255
1.7710000000000008,1.3337526891060347,-0.2322352555996175,1.1430632510208902
1.7744999999999962,1.399799438660004,-0.2663250265495707,1.1015174335064173
1.7779999999999987,1.448803048068249,-0.314262239784847,1.0407956835002825
1.7815000000000012,1.4498694442412174,-0.3494166615785167,0.9832696313545496
1.7849999999999966,1.407257230553776,-0.397355620143045,0.8905874120858945
1.788499999999999,1.3433397826872395,-0.4325100419367148,0.8160182197944368
1.7920000000000016,1.215503141624915,-0.4761869064678729,0.7041618133633722
1.795499999999997,1.0961906886293304,-0.5049499325407395,0.6157416881280875
1.7989999999999997,0.9044365997004696,-0.5369104018032596,0.4932317919428495
1.802500000000002,0.7446429800341288,-0.559280286826071,0.3984202709867616
1.8059999999999972,0.5187991201553145,-0.5688691257365278,0.2791078179911772
1.8095,0.3483520107348002,-0.5773915684740161,0.1874919948954908
1.8130000000000024,0.124639197872671,-0.5805872663344177,0.0756355884644262
1.8164999999999976,-0.0340897709499532,-0.5720648235969293,-0.0074577918937717
1.8200000000000005,-0.219450718828759,-0.5422354013510943,-0.1054650107102613
1.8235000000000028,-0.3451563128743986,-0.517734469311598,-0.1736428072809158
1.8269999999999984,-0.4793843496575265,-0.4612730680095813,-0.2503447919183106
1.830500000000001,-0.5656734278761262,-0.4101401569139035,-0.288694911572382
1.833999999999996,-0.6466357612176391,-0.3259803803827369,-0.3153286359578155
1.8374999999999984,-0.697768672313317,-0.2631275833599171,-0.3153286359578155
1.841000000000001,-0.7414472821737271,-0.1821652500184041,-0.2908259585890671
1.8444999999999965,-0.7616878655091054,-0.1289012919060412,-0.2641939795328856
1.847999999999999,-0.767014610386192,-0.0703088435873395,-0.2258421145495622
1.8515000000000013,-0.7616878655091054,-0.0213052341790947,-0.1906876927558924
1.8549999999999969,-0.7307937924195538,0.0319587239332681,-0.1438151303643327
1.8584999999999996,-0.7009661155029706,0.0735062867769931,-0.1118564064310645
1.8620000000000017,-0.6349176206197492,0.1225098961852379,-0.0724398906040246
1.8654999999999973,-0.5741958706136145,0.1470108282247343,-0.0575260521457331
1.869,-0.4932317919428495,0.1789695521580025,-0.0436768645311581
1.8725000000000025,-0.4239875991992265,0.1874919948954908,-0.0426122136874415
1.8759999999999977,-0.3323735214327921,0.1874919948954908,-0.0532657034416149
1.8795,-0.2716500260974054,0.1715135055934827,-0.0735062867769931
1.883000000000003,-0.2066679273871525,0.1438151303643327,-0.1129210572747811
1.886499999999998,-0.1715135055934827,0.1203788491685528,-0.1491418752414194
1.8900000000000008,-0.1491418752414194,0.0852244273748831,-0.2109282760912707
1.893499999999996,-0.152337573101821,0.0575260521457331,-0.2631275833599171
1.8969999999999985,-0.1938833906162941,0.0245026773687483,-0.341960615013997
1.900500000000001,-0.2450180470412239,0.0010646508437165,-0.4037470158638482
1.9039999999999964,-0.3408942188410284,-0.0223716303520633,-0.492167141099133
1.9074999999999989,-0.4293143440763132,-0.0383501196540714,-0.5550199381219528
1.9110000000000011,-0.5656734278761262,-0.0617864008498512,-0.6253287817092923
1.9144999999999968,-0.6871169278883955,-0.0873537290623162,-0.6690056462404504
1.9179999999999997,-0.8490415945714216,-0.1331616406101593,-0.709488558240459
1.9215000000000015,-0.9768764903044942,-0.1725781564371993,-0.7318584432632703
1.9249999999999967,-1.1419986001771738,-0.233299906443334,-0.7595568184924202
1.9285,-1.25705070446864,-0.288694911572382,-0.7702103082465936
1.9320000000000024,-1.3891476942350829,-0.3494166615785167,-0.7968422873027752
1.9354999999999976,-1.474370376280714,-0.3920288752659583,-0.8074957770569485
1.939,-1.5563991057951954,-0.4431635316908882,-0.8149518236214683
1.9425000000000023,-1.599011319482637,-0.4719265577637547,-0.8181475214818699
1.945999999999998,-1.629903647242937,-0.5156034222949128,-0.8224096155152401
1.9495000000000005,-1.6362967882929915,-0.5369104018032596,-0.8224096155152401
1.952999999999996,-1.6213812045054483,-0.561411333842756,-0.8341277561131301
1.9564999999999984,-1.5936845746055504,-0.5720648235969293,-0.8511726415881066
1.9600000000000009,-1.5350921262868489,-0.5955011047927092,-0.8788692714880046
1.963499999999996,-1.4754367724536823,-0.6136106411114024,-0.9108279954212728
1.9669999999999987,-1.3859519963746811,-0.630655526586379,-0.9630290480191712
1.9705000000000013,-1.3230991993518617,-0.6413090163405525,-1.007770563394046
1.9739999999999969,-1.2346790741165767,-0.644504714200954,-1.0706233604168656
1.9774999999999991,-1.1707616262500404,-0.6434400633572375,-1.1143002249480238
1.9810000000000016,-1.1015174335064173,-0.6317219227593476,-1.1696952300770718
1.984499999999997,-1.063165568523094,-0.6178727351447726,-1.215503141624915
1.9879999999999995,-1.032273240762794,-0.5976321518093943,-1.2687688450665298
1.991500000000002,-1.0333378916065108,-0.5784562193177326,-1.3135103604414045
1.9949999999999972,-1.063165568523094,-0.5539552872782363,-1.3571889703018147
1.9985,-1.108973480070937,-0.5411707505073777,-1.390212345078799
2.0020000000000024,-1.203785001027025,-0.5219948180157161,-1.4296288609058392
2.005499999999998,-1.2996629181560817,-0.5070809795574245,-1.4477383972245323
2.0090000000000003,-1.4541297929453356,-0.4996249329929048,-1.4637186318557929
2.012499999999996,-1.584095735695093,-0.4942981881158181,-1.4701100275765957
2.0159999999999982,-1.7779808716406396,-0.4911024902554164,-1.4733057254369972
2.0195000000000007,-1.931383095586177,-0.4974938859762197,-1.4626522356828238
2.022999999999996,-2.13805102297333,-0.5092120265741096,-1.4424116523474455
2.026499999999998,-2.283997200354348,-0.5230612141886847,-1.4221710690120672
2.030000000000001,-2.45870465847898,-0.5379750526469761,-1.379558855324626
2.0334999999999965,-2.5758878097871314,-0.547562146228181,-1.3358819907934678
2.036999999999999,-2.6856131692015106,-0.5550199381219528,-1.2698334959102464
2.040500000000001,-2.755923758118102,-0.5571509851386378,-1.2048513971999937
2.043999999999997,-2.798535971805544,-0.5688691257365278,-1.1057777822105357
2.0474999999999994,-2.7964049247888583,-0.5805872663344177,-1.0184240531482192
2.051000000000002,-2.7633798046826223,-0.6018925005135125,-0.9023072980130364
2.0544999999999973,-2.714376195274377,-0.6274598287259775,-0.8096250787443816
2.058,-2.629153513228746,-0.6615495996759307,-0.6881815787321122
2.0615000000000023,-2.553516179435068,-0.6913772765925138,-0.6061545945468827
2.0649999999999977,-2.450182215741492,-0.7201403026653803,-0.503885281697023
2.0685,-2.379873372154152,-0.7425119330174437,-0.4271832970596281
2.0720000000000027,-2.308498132393844,-0.7520990265986485,-0.3281114273994219
2.075499999999998,-2.2722790597564577,-0.7499697249112154,-0.2567361876391139
2.0790000000000006,-2.2541677781085125,-0.7414472821737271,-0.1629910628559944
2.082499999999996,-2.273343710600174,-0.7286627454028686,-0.0990718696602061
2.0859999999999985,-2.327674064885506,-0.7073575112237738,-0.0181095363186931
2.089500000000001,-2.3926561635957584,-0.683921230027994,0.0351544217936697
2.0929999999999964,-2.4949254764456184,-0.6572875056425604,0.0884201252352847
2.096499999999999,-2.5876059503850213,-0.6370469223071823,0.1139874534477496
2.1000000000000014,-2.707984799553574,-0.614677037284371,0.1235745470289545
2.103499999999997,-2.797469575632575,-0.6040235475301975,0.1182478021518678
2.1069999999999998,-2.9008035393261515,-0.5837829641948193,0.0990718696602061
2.110500000000002,-2.953002846594798,-0.5678027295635593,0.0745709376207097
2.113999999999997,-3.008397851723846,-0.5624759846864725,0.0308940730895516
2.1175,-3.0265091333717917,-0.5582156359823544,-0.0106534897541733
2.121000000000002,-3.0350315761092794,-0.5486285424011496,-0.0862890782185996
2.1244999999999976,-3.022247039338421,-0.5486285424011496,-0.1459461773810178
2.128,-2.99561506028224,-0.5443664483677794,-0.2364956043037356
2.1315000000000026,-2.9625899401760027,-0.5454328445407479,-0.3121311927681619
2.134999999999998,-2.903999237186553,-0.5454328445407479,-0.4165315526347067
2.1385000000000005,-2.8592577218116784,-0.5486285424011496,-0.4953628389595346
2.141999999999996,-2.803860971353379,-0.5464974953844645,-0.5933700577760241
2.1454999999999984,-2.772968643593079,-0.547562146228181,-0.6583539018155291
2.149000000000001,-2.747401315380614,-0.5401060996636612,-0.7339894902799553
2.1524999999999963,-2.753792711101417,-0.5315836569261729,-0.7840577505319166
2.155999999999999,-2.7996006226492605,-0.5273215628928027,-0.836258803129815
2.1595000000000013,-2.8635180705157968,-0.5219948180157161,-0.875673573627603
2.1629999999999967,-2.9860279667010348,-0.5102766774178261,-0.921481485175446
2.166499999999999,-3.097884373132099,-0.508147375730393,-0.952375558264998
2.1700000000000017,-3.274722878273417,-0.4942981881158181,-0.9790075373211792
2.173499999999997,-3.4281251022189543,-0.4879067923950148,-0.9885963762316362
2.177,-3.646511170203997,-0.4751222556241564,-0.9747471886170612
2.180500000000002,-3.803110837339188,-0.4697955107470696,-0.9545066052816829
2.183999999999997,-4.012974462586742,-0.4570127193054631,-0.9076322975608712
2.1875,-4.158918894638508,-0.4474238803950063,-0.8692821779067997
2.1910000000000025,-4.338954842969479,-0.4293143440763132,-0.8128207766047831
2.194499999999998,-4.450811249400544,-0.4122694586013365,-0.7712749590903102
2.1980000000000004,-4.563732306675325,-0.3888331774055567,-0.7286627454028686
2.201499999999996,-4.619127311804372,-0.3653968962097769,-0.7020307663466872
2.2049999999999983,-4.64043429131272,-0.3334381722765087,-0.6807255321675924
2.208500000000001,-4.620193707977341,-0.3110665419244454,-0.6690056462404504
2.211999999999996,-4.5253804416920005,-0.2801724688348938,-0.6615495996759307
2.2154999999999987,-4.416721478450591,-0.2599318854995155,-0.6530271569384424
2.219000000000001,-4.216444946784241,-0.2311688594266489,-0.6391779693238674
2.2224999999999966,-4.022561556167947,-0.2151903701246408,-0.6295908757426625
2.225999999999999,-3.725344201858076,-0.205601531214184,-0.6200020368322057
2.2295000000000016,-3.473933013766797,-0.1981454846496642,-0.6104149432510009
2.232999999999997,-3.114927513277824,-0.205601531214184,-0.600827849669796
2.2364999999999995,-2.8379507423033314,-0.2045368803704674,-0.5901743599156226
2.240000000000002,-2.453379658931145,-0.2087989744038376,-0.5763251723010476
2.2434999999999974,-2.172140793923283,-0.2109282760912707,-0.5635423808594411
2.247,-1.7939593609426474,-0.2269085107225308,-0.5464974953844645
2.2505000000000024,-1.522309334845242,-0.2460844432141925,-0.5283879590657713
2.253999999999998,-1.1803487198312452,-0.2769767709744921,-0.503885281697023
2.2575000000000003,-0.9534402091087144,-0.3068061932203272,-0.4815136513449596
2.261000000000003,-0.6871169278883955,-0.341960615013997,-0.4484902765679749
2.264499999999998,-0.5219948180157161,-0.3685925940701784,-0.4144005056180216
2.2680000000000007,-0.3472873598910836,-0.4005513180034466,-0.3547434064556034
2.271499999999996,-0.2535404897787122,-0.42292294835551,-0.2982837504828389
2.2749999999999986,-0.1832316461913727,-0.4431635316908882,-0.2034722295267509
2.278500000000001,-0.1672514115601126,-0.4602084171658648,-0.1150521042914662
2.2819999999999965,-0.2013411825100658,-0.4697955107470696,0.0127827914416064
2.285499999999999,-0.2684543282370038,-0.4751222556241564,0.1129210572747811
2.289000000000001,-0.4048134120368167,-0.4751222556241564,0.2535404897787122
2.292499999999997,-0.5433017975240628,-0.4676662090596366,0.355809802628572
2.296,-0.7478386778945303,-0.4474238803950063,0.4911024902554164
2.299500000000002,-0.912959042437958,-0.4282496932325966,0.5912390107593392
2.3029999999999973,-1.1398675531604887,-0.3984202709867616,0.725467047542467
2.3065,-1.3113810587539714,-0.3824417816847534,0.8309320582527283
2.3100000000000023,-1.52656968354936,-0.3547434064556034,0.970485094583691
2.3134999999999977,-1.686365048544953,-0.3281114273994219,1.063165568523094
2.317,-1.8866415802113023,-0.2908259585890671,1.176088371127127
2.3205000000000027,-2.0293903144026664,-0.2546051406224288,1.2517239595915532
2.323999999999998,-2.188119283225291,-0.2130593231079557,1.3412087356705549
2.327500000000001,-2.285061851198064,-0.1811005991746876,1.4061925797100594
2.330999999999996,-2.354306043941687,-0.152337573101821,1.4658479335432255
2.3344999999999985,-2.4043760495229005,-0.1310323389227262,1.5414852673369035
2.338000000000001,-2.409701049070735,-0.110790010258096,1.6043380643597236
2.3414999999999964,-2.38413372085827,-0.1075943123976944,1.6458838818741963
2.344999999999999,-2.334065460606309,-0.0990718696602061,1.6799736528241498
2.3485000000000014,-2.2381892888065043,-0.0916158230956863,1.7172591216345048
2.3519999999999968,-2.1082233460567465,-0.0894847760790012,1.7449557515344027
2.3554999999999997,-1.994235892608997,-0.0937468701123714,1.765196334869781
2.3590000000000018,-1.8770527413008455,-0.1001382658331746,1.7758498246239545
2.362499999999997,-1.7108677259137015,-0.1086607085706629,1.7896990122385292
2.366,-1.5787707361472587,-0.1150521042914662,1.7960904079593327
2.369500000000002,-1.4061925797100594,-0.1267702448893561,1.8120706425905928
2.3729999999999976,-1.2762248916310497,-0.1331616406101593,1.825918084875916
2.3765,-1.1057777822105357,-0.1406194325039311,1.857878554138436
2.3800000000000026,-0.972616141600376,-0.150206526085136,1.8781191374738144
2.383499999999998,-0.8053647300402634,-0.1555332709622227,1.9164692571278852
2.3870000000000005,-0.6743323911175372,-0.1576643179789077,1.938840887479949
2.390499999999996,-0.5028206308533064,-0.1704471094205142,1.9718642622569336
2.3939999999999984,-0.3813771308410369,-0.1864273440517743,1.9899755439048787
2.397500000000001,-0.2258421145495622,-0.2066679273871525,2.0048893823631704
2.400999999999996,-0.1203788491685528,-0.2279731615662473,2.003822986190201
2.4044999999999987,-0.0127827914416064,-0.2652586303766022,1.9867781007152248
2.4080000000000013,0.0521993072686464,-0.2908259585890671,1.966537517379847
2.4114999999999966,0.1118564064310645,-0.3408942188410284,1.9324494917591453
2.414999999999999,0.138488385487246,-0.3717882919305801,1.9100778614070824
2.4185000000000016,0.1587289688226243,-0.4218582975117934,1.8759880904571289
2.421999999999997,0.1651203645434275,-0.4580773701491797,1.857878554138436
2.4254999999999995,0.1459461773810178,-0.503885281697023,1.834440527613404
2.429000000000002,0.1267702448893561,-0.5433017975240628,1.816330991294711
2.432499999999997,0.0798976824977964,-0.5955011047927092,1.7960904079593327
2.436,0.0351544217936697,-0.6338512244467807,1.774785173780238
2.4395000000000024,-0.0372854688103548,-0.6796591359946239,1.7385643558135997
2.442999999999998,-0.0926804739394028,-0.7105532090841755,1.7108677259137015
2.4465000000000003,-0.1747092034538843,-0.7446429800341288,1.6629287673491733
2.449999999999996,-0.2301042085829324,-0.7616878655091054,1.624578647695102
2.4534999999999982,-0.302544099186957,-0.7915155424256883,1.5787707361472587
2.4570000000000007,-0.3579391043160051,-0.8053647300402634,1.5478766630577072
2.460499999999996,-0.4218582975117934,-0.8224096155152401,1.5148515429514704
2.463999999999998,-0.4708619069200382,-0.8298656620797599,1.498873053649462
2.467500000000001,-0.5315836569261729,-0.8298656620797599,1.4796971211578005
2.4709999999999965,-0.5763251723010476,-0.8383881048172481,1.4658479335432255
2.474499999999999,-0.6242641308655758,-0.8298656620797599,1.453065142101619
2.478000000000001,-0.6455693650446706,-0.8224096155152401,1.4424116523474455
2.481499999999997,-0.6572875056425604,-0.8085604279006651,1.4317599079225245
2.4849999999999994,-0.6391779693238674,-0.7947112402860901,1.4221710690120672
2.488500000000002,-0.5837829641948193,-0.7744706569507118,1.4179107203079493
2.4919999999999973,-0.5092120265741096,-0.7542300736153336,1.4168443241349806
2.4955,-0.3856374795451551,-0.7297291415758372,1.4189753711516655
2.4990000000000023,-0.274847469287059,-0.7126842561008605,1.4200400219953824
2.5024999999999977,-0.1118564064310645,-0.697768672313317,1.4179107203079493
2.506,0.0063913957208032,-0.6871169278883955,1.4157796732912642
2.5095000000000027,0.1683160624038291,-0.6817901830113089,1.405126183537091
2.512999999999998,0.2759121201307756,-0.6807255321675924,1.3966037407996024
2.5165000000000006,0.4058780628805333,-0.6828548338550254,1.3806252514975943
2.519999999999996,0.4942981881158181,-0.6722030894301041,1.3689071108997044
2.5234999999999985,0.5965657556364258,-0.6668763445530174,1.3497311784080428
2.527000000000001,0.6604849488322142,-0.6615495996759307,1.3390776886538696
2.5304999999999964,0.727598094559152,-0.6434400633572375,1.328425944228948
2.533999999999999,0.7606214693361367,-0.6295908757426625,1.3230991993518617
2.5375000000000014,0.7851241467048852,-0.6157416881280875,1.326294897212263
2.540999999999997,0.7797974018277984,-0.6104149432510009,1.3294905950726643
2.5444999999999998,0.7584921676487036,-0.6040235475301975,1.3316216420893496
2.548000000000002,0.7265316983861836,-0.6040235475301975,1.3358819907934678
2.551499999999997,0.6668763445530174,-0.6114795940947174,1.3358819907934678
2.555,0.6274598287259775,-0.616806338971804,1.3369483869664365
2.558500000000002,0.5805872663344177,-0.6295908757426625,1.3390776886538696
2.5619999999999976,0.5624759846864725,-0.6381133184801508,1.338013037810153
2.5655,0.5709984274239609,-0.6434400633572375,1.3497311784080428
2.5690000000000026,0.5976321518093943,-0.6519625060947258,1.367840714726736
2.572499999999998,0.6668763445530174,-0.6668763445530174,1.402996881849658
2.5760000000000005,0.7457076308778453,-0.6860505317154271,1.4317599079225245
2.579499999999996,0.8596950843255949,-0.7201403026653803,1.4733057254369972
2.5829999999999984,0.9555712561253994,-0.7489033287382468,1.5010041006661472
2.586500000000001,1.0823415010147557,-0.7947112402860901,1.5329628245994156
2.5899999999999963,1.1728926732667255,-0.8256053133756417,1.5574637566389118
2.593499999999999,1.2783559386477348,-0.8714132249234848,1.5723775950972034
2.5970000000000013,1.3390776886538696,-0.901240901840068,1.5894224805721802
2.6004999999999967,1.407257230553776,-0.9363953236337376,1.5979449233096683
2.603999999999999,1.4360202566266425,-0.9598333501587696,1.603271668186755
2.6075000000000017,1.4541297929453356,-0.9896610270753528,1.6085984130638418
2.610999999999997,1.4637186318557929,-1.0173594023045027,1.6181855066450466
2.6145,1.4562608399620207,-1.051447427925204,1.6277743455555036
2.618000000000002,1.4562608399620207,-1.083406151858472,1.6352303921200233
2.621499999999997,1.4637186318557929,-1.122822667685512,1.6458838818741963
2.625,1.4796971211578005,-1.1515856937583784,1.6554709754554016
2.6285000000000025,1.518048986141124,-1.1878065117250167,1.6725158609303783
2.631999999999998,1.5649215485326835,-1.208047095060395,1.6927564442657563
2.6355000000000004,1.6277743455555036,-1.2325480270998914,1.721519470338623
2.638999999999996,1.6831693506845515,-1.2410704698373798,1.7417600536740012
2.6424999999999983,1.735368657953198,-1.2581153553123563,1.765196334869781
2.646000000000001,1.7620006370093797,-1.2623774493457267,1.779045522484356
2.649499999999996,1.7737187776072691,-1.2719645429269315,1.7992861058197342
2.6529999999999987,1.7779808716406396,-1.2762248916310497,1.8046128506968209
2.656500000000001,1.774785173780238,-1.2783559386477348,1.8046128506968209
2.6599999999999966,1.7662627310427494,-1.286878381385223,1.795025757115616
2.663499999999999,1.7641316840260644,-1.2836826835248214,1.7865033143781277
2.6670000000000016,1.763067033182348,-1.275160240787333,1.7833076165177262
2.670499999999997,1.7705230797468676,-1.254919657451955,1.7833076165177262
2.6739999999999995,1.7758498246239545,-1.2463972147144666,1.7833076165177262
2.677500000000002,1.7918300592552143,-1.22935232923949,1.795025757115616
2.6809999999999974,1.806743897713506,-1.2229609335186866,1.7992861058197342
2.6845,1.820593085328081,-1.2144384907811985,1.7992861058197342
2.6880000000000024,1.8237887831884827,-1.203785001027025,1.7960904079593327
2.691499999999998,1.8301801789092855,-1.1910022095854185,1.7854369182051593
2.6950000000000003,1.8397672724904908,-1.1867401155520485,1.769458428903151
2.698500000000003,1.849356111400948,-1.173957324110442,1.752413543428175
2.701999999999998,1.8695966947363256,-1.1707616262500404,1.7417600536740012
2.7055000000000007,1.9079468143903973,-1.1590434856521503,1.721519470338623
2.708999999999996,1.946296934044469,-1.1473253450542604,1.7098013297407328
2.7124999999999986,2.0166075229610603,-1.1409322040042051,1.7023452831762131
2.716000000000001,2.0826560178442817,-1.131345110423,1.6980831891428432
2.7194999999999965,2.181727887504488,-1.131345110423,1.6948874912824414
2.722999999999999,2.253103127264796,-1.134540808283402,1.6884960955616382
2.726500000000001,2.363893137522892,-1.134540808283402,1.6853003977012364
2.729999999999997,2.45124861191446,-1.1462589488812918,1.686365048544953
2.7335,2.578018856803816,-1.1622391835125518,1.6970185382991263
2.737000000000002,2.679221773480708,-1.1792840689875286,1.7034099340199298
2.7404999999999973,2.821972253001324,-1.203785001027025,1.7268462152157096
2.744,2.928501914555301,-1.2229609335186866,1.7428264498469697
2.7475000000000023,3.073381695763351,-1.24533256387075,1.7683920327301823
2.7509999999999977,3.1767156594569275,-1.254919657451955,1.7865033143781277
2.7545,3.316268695787889,-1.2581153553123563,1.811004246417624
2.7580000000000027,3.4025577740064894,-1.2527886104352697,1.829115528065569
2.761499999999998,3.5037624360126327,-1.2389411681499467,1.852551809261349
2.765000000000001,3.5591574411416804,-1.22935232923949,1.873857043440444
2.768499999999996,3.601769654829122,-1.2112427929207967,1.8962286737925071
2.7719999999999985,3.615617097114445,-1.196328954462505,1.9090114652341137
2.775500000000001,3.612421399254044,-1.1728926732667255,1.9239270490216571
2.7789999999999964,3.5975075607957523,-1.1611727873395834,1.9377744913069803
2.782499999999999,3.5666134877062,-1.1398675531604887,1.9558857729549253
2.7860000000000014,3.5367858107896173,-1.1206916206688269,1.966537517379847
2.7894999999999968,3.501631388995948,-1.1004510373334488,1.9878444968881936
2.7929999999999997,3.472868362923081,-1.0919285945959605,2.0059540332068866
2.7965000000000018,3.4334518470960407,-1.0876682458918423,2.0304567105756357
2.799999999999997,3.413211263760662,-1.092994990768929,2.0411084550005567
2.8035,3.3908396334085995,-1.1153666211209925,2.0560222934588483
2.807000000000002,3.380187888983678,-1.1505210429146622,2.0645447361963365
2.8104999999999976,3.374861144106591,-1.2208298865020015,2.0837206686879983
2.814,3.3844482376877965,-1.289009428401908,2.0922431114254865
2.8175000000000026,3.4014931231627727,-1.3966037407996024,2.094374158442172
2.820999999999998,3.418538008637749,-1.4850238660348871,2.07946031998388
2.8245000000000005,3.4323871962523245,-1.606467366047157,2.049630897738045
2.827999999999996,3.4387785919731275,-1.6980831891428432,2.019803220821462
2.8314999999999984,3.43025614923564,-1.816330991294711,1.9761263562903035
2.835000000000001,3.4100155659002613,-1.903686465686279,1.940970189167382
2.838499999999996,3.368469748385788,-2.010216127240257,1.8909019289154203
2.8419999999999987,3.3343799774358347,-2.0890474135650847,1.8536164601050655
2.8455000000000013,3.2843099718546216,-2.1774675388003697,1.800352501992703
2.8489999999999966,3.2385020603067787,-2.236058241789819,1.7609359861656628
2.852499999999999,3.1831070551777305,-2.2935842939355524,1.700214236159528
2.8560000000000016,3.149017284227777,-2.3255430178688203,1.654406324611685
2.859499999999997,3.1127982115903907,-2.347914648220884,1.5936845746055504
2.8629999999999995,3.090426581238328,-2.345783601204199,1.5446809651973052
2.866500000000002,3.065923903869579,-2.342587903343797,1.483959215191171
2.869999999999997,3.0531411124279724,-2.3330008097625923,1.4381513036433275
2.8735,3.051010065411288,-2.3180869713043006,1.3710364125871377
2.8770000000000024,3.041422971830083,-2.3095645285668125,1.3294905950726643
2.880499999999998,3.0382272739696807,-2.2967799917959537,1.2719645429269315
2.8840000000000003,3.0350315761092794,-2.294648944779269,1.2272212822228048
2.887499999999996,3.0211823884947044,-2.2882575490584656,1.1718262770937566
2.8909999999999982,3.010528898740531,-2.2871928982147494,1.1270847617188822
2.8945000000000007,2.988157268388468,-2.2786704554772608,1.0770147561376688
2.897999999999996,2.973243429930176,-2.271212663583489,1.0386646364835974
2.901499999999998,2.9466114508739945,-2.264821267862686,0.986465329214951
2.905000000000001,2.929566565399018,-2.260560919158568,0.947048813387911
2.9084999999999965,2.9114570290803248,-2.2445806845273077,0.8927184591025796
2.911999999999999,2.90932598206364,-2.228600449896048,0.8511726415881066
2.915500000000001,2.915717377784443,-2.2094262627336376,0.8032336830235783
2.918999999999997,2.935957961119821,-2.190250330241976,0.767014610386192
2.9224999999999994,2.982832268840633,-2.168945096062881,0.7222713496820654
2.926000000000002,3.031834132919626,-2.141246720833731,0.6935083236091989
2.9294999999999973,3.1245163521882806,-2.10289660117966,0.6775280889779387
2.933,3.20654333637351,-2.0730671789338246,0.6775280889779387
2.9365000000000023,3.3279868363857794,-2.0166075229610603,0.6817901830113089
2.9399999999999977,3.4217337064981512,-1.975059960117335,0.6849858808717105
2.9435,3.5410479048229875,-1.9068821635466808,0.6817901830113089
2.9470000000000027,3.620943841991532,-1.841898319507176,0.6785944851509074
2.950499999999998,3.71575536294762,-1.7470867985510878,0.6807255321675924
2.9540000000000006,3.772216764249636,-1.6714512100866616,0.6817901830113089
2.957499999999996,3.831873863412054,-1.5670525955493688,0.7020307663466872
2.9609999999999985,3.860636889484921,-1.4892859600682575,0.7169446048049787
2.964500000000001,3.8734196809265273,-1.383820949357996,0.7446429800341288
2.9679999999999964,3.863832587345323,-1.314576756614373,0.7787327509840819
2.971499999999999,3.827611769378685,-1.2272212822228048,0.8170828706381533
2.9750000000000014,3.7828685086745577,-1.160108136495867,0.8511726415881066
2.978499999999997,3.7019061753330447,-1.081276850171039,0.8873917142254929
2.9819999999999998,3.6262705868686185,-1.0312068445898257,0.9140254386109264
2.985500000000002,3.513349529593837,-0.9736807924440926,0.9236125321921312
2.988999999999997,3.4217337064981512,-0.944917766371226,0.9268082300525328
2.9925,3.288572065887992,-0.9161547402983594,0.8991098548233829
2.996000000000002,3.1841734513506985,-0.8969805531359498,0.8788692714880046
2.9994999999999976,3.043554018846768,-0.8799356676609732,0.8341277561131301
3.003,2.931697612415703,-0.8724778757672014,0.7989733343194602
3.0065000000000026,2.7942738777721736,-0.8767399698005716,0.7563611206320187
3.009999999999998,2.684548518357794,-0.8841960163650913,0.7190756518216638
3.0135000000000005,2.5513868777476345,-0.9076322975608712,0.670072042413419
3.016999999999996,2.453379658931145,-0.933199625773336,0.6295908757426625
3.0204999999999984,2.326609414041789,-0.9736807924440926,0.5688691257365278
3.024000000000001,2.245645335371024,-1.0045748655336442,0.5219948180157161
3.0274999999999963,2.141246720833731,-1.0493181262377709,0.4602084171658648
3.030999999999999,2.074133575106793,-1.0855371988751572,0.41120480775762
3.0345000000000013,1.9889091477319103,-1.130280459579284,0.3515477085952018
3.0379999999999967,1.9377744913069803,-1.1654348813729536,0.3131975889411305
3.041499999999999,1.8781191374738144,-1.2165695377978836,0.2673896773932873
3.0450000000000017,1.8376379708030577,-1.2623774493457267,0.2439533961975074
3.048499999999997,1.7960904079593327,-1.3199035014914595,0.2087989744038376
3.052,1.7662627310427494,-1.3571889703018147,0.1811005991746876
3.055500000000002,1.7268462152157096,-1.407257230553776,0.1448797812080492
3.058999999999997,1.7023452831762131,-1.4424116523474455,0.110790010258096
3.0625,1.6693201630699763,-1.486088516878604,0.0607217500061347
3.0660000000000025,1.6469485327179132,-1.5095265434036358,0.0191759324916617
3.069499999999998,1.6192519028180152,-1.5393542203202186,-0.0362208179666383
3.0730000000000004,1.603271668186755,-1.555332709622227,-0.0820287295144815
3.076499999999996,1.583031084851377,-1.573443991270172,-0.1438151303643327
3.0799999999999983,1.5670525955493688,-1.5766396891305736,-0.1885583910684593
3.083500000000001,1.5478766630577072,-1.5809000378346918,-0.2514094427620272
3.086999999999996,1.536158522459817,-1.573443991270172,-0.302544099186957
3.0904999999999987,1.522309334845242,-1.5585301528118805,-0.3675279432264619
3.094000000000001,1.5052644493702656,-1.5446809651973052,-0.4207919013388249
3.0974999999999966,1.480763517330769,-1.5244403818619272,-0.4985585368199362
3.100999999999999,1.4583918869787058,-1.5073954963869507,-0.5603466829990394
3.1045000000000016,1.4200400219953824,-1.483959215191171,-0.6413090163405525
3.107999999999997,1.3870166472183978,-1.4573254908057371,-0.7062911150508053
3.1114999999999995,1.338013037810153,-1.4253667668724692,-0.7893844954090034
3.115000000000002,1.300727568999798,-1.3987347878162877,-0.8522372924318231
3.1184999999999974,1.247461865558183,-1.361449319005933,-0.9363953236337376
3.122,1.2069806988874263,-1.3305552459163812,-1.0035102146899275
3.1255000000000024,1.1398675531604887,-1.2932697771060262,-1.0866035950481256
3.128999999999998,1.0876682458918423,-1.267704194222813,-1.1462589488812918
3.1325000000000003,1.012032657427416,-1.2325480270998914,-1.2229609335186866
3.136000000000003,0.952375558264998,-1.201655699339592,-1.2708998920832149
3.139499999999998,0.8692821779067997,-1.1633038343562685,-1.3273595480559794
3.1430000000000007,0.80642938088398,-1.1398675531604887,-1.358253621145531
3.146499999999996,0.727598094559152,-1.1036484805231024,-1.3923433920954844
3.1499999999999986,0.6690056462404504,-1.0706233604168656,-1.4083218813974925
3.153500000000001,0.6040235475301975,-1.037599985639881,-1.4200400219953824
3.1569999999999965,0.5560845889656694,-1.0067059125503293,-1.4179107203079493
3.160499999999999,0.5060163287137079,-0.9662247458795729,-1.4104529284141776
3.164000000000001,0.4772533026408414,-0.9385263706504228,-1.395539089955886
3.167499999999997,0.4516859744283765,-0.9086986937338396,-1.377429553637193
3.171,0.4410324846742031,-0.8810003185046897,-1.3667760638830195
3.174500000000002,0.4357057397971164,-0.8415838026776498,-1.3465354805476413
3.1779999999999973,0.4474238803950063,-0.8011026360068932,-1.3358819907934678
3.1815,0.4740576047804398,-0.7414472821737271,-1.326294897212263
3.1850000000000023,0.5017542346803379,-0.7020307663466872,-1.314576756614373
3.1884999999999977,0.5560845889656694,-0.6498314590780407,-1.3039232668601997
3.192,0.6072192453905992,-0.6178727351447726,-1.2975318711393966
3.1955000000000027,0.6753987872905056,-0.5848476150385359,-1.2858137305415065
3.198999999999998,0.7339894902799553,-0.5752605214573311,-1.2762248916310497
3.202500000000001,0.8128207766047831,-0.5624759846864725,-1.25705070446864
3.205999999999996,0.8788692714880046,-0.5624759846864725,-1.24533256387075
3.2094999999999985,0.956635906969116,-0.5688691257365278,-1.2261566313790884
3.213000000000001,1.007770563394046,-0.5795208701614492,-1.21017814207708
3.2164999999999964,1.065296615539779,-0.6082838962343158,-1.2005893031666235
3.219999999999999,1.0961906886293304,-0.6317219227593476,-1.1973936053062215
3.2235000000000014,1.1174959228084254,-0.6626142505196473,-1.1941979074458202
3.2269999999999968,1.1174959228084254,-0.6913772765925138,-1.1931332566021038
3.2304999999999997,1.0908639437522438,-0.7329248394362388,-1.192066860429135
3.2340000000000018,1.051447427925204,-0.7734060061069953,-1.1878065117250167
3.237499999999997,0.9747471886170612,-0.8266699642193582,-1.1792840689875286
3.241,0.901240901840068,-0.8586286881526264,-1.1654348813729536
3.244500000000002,0.780862052671515,-0.8980452039796664,-1.1473253450542604
3.2479999999999976,0.6796591359946239,-0.9268082300525328,-1.130280459579284
3.2515,0.5741958706136145,-0.9534402091087144,-1.1143002249480238
3.2550000000000026,0.42292294835551,-0.9811385843378644,-1.0961906886293304
3.258499999999998,0.2727164222703739,-0.9971170736398725,-1.0770147561376688
3.2620000000000005,0.1608600158393093,-1.0088369595670144,-1.0642319646960623
3.265499999999996,0.0575260521457331,-1.014161959114849,-1.0429249851877156
3.2689999999999984,-0.0745709376207097,-1.009901610410731,-1.016293006131534
3.272500000000001,-0.191754088928861,-0.9928567249357544,-0.9800739334941478
3.275999999999996,-0.2705853752536888,-0.9630290480191712,-0.9534402091087144
3.2794999999999987,-0.3387649171535954,-0.9246771830358478,-0.9268082300525328
3.2830000000000013,-0.4144005056180216,-0.863955433029713,-0.8884581103984615
3.2864999999999966,-0.4580773701491797,-0.8085604279006651,-0.863955433029713
3.289999999999999,-0.4953628389595346,-0.7286627454028686,-0.8351924069568466
3.2935000000000016,-0.5070809795574245,-0.6753987872905056,-0.820278568498555
3.296999999999997,-0.5092120265741096,-0.5986968026531109,-0.7957776364590586
3.3004999999999995,-0.4974938859762197,-0.5433017975240628,-0.7787327509840819
3.304000000000002,-0.4655351620429515,-0.4623394641825499,-0.7574257714757352
3.307499999999997,-0.4293143440763132,-0.4037470158638482,-0.7435765838611602
3.311,-0.3653968962097769,-0.3185243338182171,-0.7318584432632703
3.3145000000000024,-0.3078708440640437,-0.258867234655799,-0.7265316983861836
3.317999999999998,-0.2215817658454441,-0.1885583910684593,-0.727598094559152
3.3215000000000003,-0.1512729222581045,-0.1470108282247343,-0.7361205372966404
3.324999999999996,-0.055395005129048,-0.0990718696602061,-0.7595568184924202
3.3284999999999982,0.01598023463126,-0.0681795418999064,-0.7840577505319166
3.3320000000000007,0.110790010258096,-0.0319587239332681,-0.8277363603923268
3.335499999999996,0.1832316461913727,-0.0063913957208032,-0.8628907821859965
3.338999999999998,0.2641939795328856,0.0117181405978899,-0.917221136471328
3.342500000000001,0.3217200316786187,0.0234362811957798,-0.9598333501587696
3.3459999999999965,0.3813771308410369,0.0319587239332681,-1.014161959114849
3.349499999999999,0.4144005056180216,0.0362208179666383,-1.0546431257856057
3.353000000000001,0.4506213235846599,0.02769837522915,-1.106844178383504
3.356499999999997,0.4570127193054631,0.02769837522915,-1.1505210429146622
3.3599999999999994,0.4495549274116914,0.0234362811957798,-1.2069806988874263
3.363500000000002,0.4346410889533998,0.0213052341790947,-1.2506593087478366
3.3669999999999973,0.3888331774055567,0.0245026773687483,-1.3081853608935698
3.3705,0.3451563128743986,0.0330233747769847,-1.351862225424728
3.3740000000000023,0.2769767709744921,0.0266319790561814,-1.4040615326933743
3.3774999999999977,0.2141239739516723,0.0085224427374883,-1.4445426993641308
3.381,0.1257055940456395,-0.02769837522915,-1.4914152617556906
3.3845000000000027,0.0671131457269379,-0.0607217500061347,-1.527636079722329
3.387999999999998,0.0479389585645282,-0.1406194325039311,-1.6085984130638418
3.3915000000000006,0.0479389585645282,-0.1704471094205142,-1.648014928890882
3.394999999999996,0.0660484948832214,-0.1608600158393093,-1.6980831891428432
3.3984999999999985,0.0788312863248278,-0.1693824585767977,-1.7343040071094815
3.402000000000001,0.1129210572747811,-0.1736428072809158,-1.767327381886466
3.4054999999999964,0.1299659427497577,-0.1725781564371993,-1.7801119186573249
3.408999999999999,0.1438151303643327,-0.1949497867892626,-1.7843722673614426
3.4125000000000014,0.152337573101821,-0.2183860679850424,-1.7865033143781277
3.415999999999997,0.1534022239455376,-0.2546051406224288,-1.7960904079593327
3.4194999999999998,0.1512729222581045,-0.2897613077453506,-1.8141999442780257
3.423000000000002,0.1310323389227262,-0.3270467765557054,-1.8397672724904908
3.426499999999997,0.1161167551351827,-0.3547434064556034,-1.8610742519988372
3.43,0.0873537290623162,-0.3760503859639502,-1.889837278071704
3.433500000000002,0.0628527970228197,-0.3781796876513833,-1.9239270490216571
3.4369999999999976,0.0372854688103548,-0.3813771308410369,-1.972930658429902
3.4405,0.02769837522915,-0.3707236410868635,-2.0293903144026664
3.4440000000000026,0.0223716303520633,-0.3632658491930918,-2.1007655541629746
3.447499999999998,0.029827676916583,-0.3685925940701784,-2.162553700342078
3.4510000000000005,0.0532657034416149,-0.3675279432264619,-2.2584298721418827
3.454499999999996,0.0681795418999064,-0.3760503859639502,-2.3330008097625923
3.4579999999999984,0.1001382658331746,-0.3962909692993285,-2.434203726439484
3.461500000000001,0.1171831513081512,-0.4133358547743051,-2.510905711076878
3.4649999999999963,0.1374237346435295,-0.4559463231324946,-2.6153043256141717
3.468499999999999,0.1491418752414194,-0.4847093492053612,-2.6941356119389988
3.4720000000000013,0.1491418752414194,-0.5390397034906926,-2.803860971353379
3.4754999999999967,0.1438151303643327,-0.5955011047927092,-2.879498305147057
3.478999999999999,0.1225098961852379,-0.6626142505196473,-2.973243429930176
3.4825000000000017,0.0990718696602061,-0.725467047542467,-3.0329005290925943
3.485999999999997,0.0628527970228197,-0.8043000791965469,-3.093622279098729
3.4895,0.029827676916583,-0.8703468287505163,-3.1245163521882806
3.493000000000002,-0.0095870935812048,-0.9630290480191712,-3.126645653875713
3.496499999999997,-0.0394165158270399,-1.0578405689752592,-3.102144721836217
3.5,-0.0788312863248278,-1.16649953221667,-3.066990300042548
3.5035000000000025,-0.1065296615539778,-1.2304187254124583,-3.048879018394602
3.506999999999998,-0.1459461773810178,-1.3188371053184913,-3.0009418051593264
3.5105000000000004,-0.1821652500184041,-1.3848856002017127,-2.9455468000302782
3.513999999999996,-0.2439533961975074,-1.4690453767328793,-2.849668882901222
3.5174999999999983,-0.314262239784847,-1.5244403818619272,-2.761248757665937
3.521000000000001,-0.4207919013388249,-1.5915535275888653,-2.622760372178691
3.524499999999996,-0.5219948180157161,-1.6394924861533935,-2.5268842003788863
3.5279999999999987,-0.6711366932571355,-1.6746469079470632,-2.4065053512103334
3.531500000000001,-0.7968422873027752,-1.686365048544953,-2.338327554639679
3.5349999999999966,-0.9790075373211792,-1.686365048544953,-2.269083361896056
3.538499999999999,-1.1238890638584804,-1.686365048544953,-2.239253939650221
3.5420000000000016,-1.314576756614373,-1.6895607464053546,-2.2147530076107245
3.545499999999997,-1.4520004912579023,-1.6948874912824414,-2.2040995178565512
3.5489999999999995,-1.61712085580133,-1.7108677259137015,-2.2094262627336376
3.552500000000002,-1.7151280746178197,-1.7140634237741033,-2.221144403331528
3.5559999999999974,-1.829115528065569,-1.725781564371993,-2.237122892633536
3.5595,-1.8909019289154203,-1.752413543428175,-2.250972080248111
3.5630000000000024,-1.936709840463264,-1.7577402883052613,-2.3042377836897256
3.566499999999998,-1.9399055383236647,-1.7534781942718909,-2.3553724401146554
3.5700000000000003,-1.8951640229487907,-1.7545445904448598,-2.428876981562397
3.573499999999996,-1.8387026216467743,-1.752413543428175,-2.4927944294289333
3.576999999999998,-1.7449557515344027,-1.752413543428175,-2.585474903368336
3.5805000000000007,-1.6639934181928897,-1.749217845567773,-2.636609559793266
3.583999999999996,-1.5489413139014236,-1.735368657953198,-2.6824174713411093
3.5874999999999986,-1.4583918869787058,-1.7225858665115914,-2.698397705972369
3.591000000000001,-1.3476001313913577,-1.7087366788970164,-2.726094335872267
3.5944999999999965,-1.2708998920832149,-1.6767779549637485,-2.739943523486842
3.597999999999999,-1.20591604804371,-1.626707949382535,-2.7484659662243307
3.601500000000001,-1.1814151160042137,-1.5904888767451486,-2.738878872643125
3.604999999999997,-1.1952625582895369,-1.5478766630577072,-2.707984799553574
3.6085,-1.2432015168540649,-1.4818281681744856,-2.6696346798995023
3.612000000000002,-1.3529268762684443,-1.3870166472183978,-2.6046508358599976
3.615499999999997,-1.4722410745932808,-1.3039232668601997,-2.5492558307309494
3.619,-1.665059814365858,-1.1707616262500404,-2.444857216193657
3.6225000000000014,-1.8387026216467743,-1.0780811523106375,-2.3553724401146554
3.6259999999999977,-2.094374158442172,-0.9534402091087144,-2.231797893085701
3.6295,-2.308498132393844,-0.8746089227838865,-2.136986372129613
3.6330000000000022,-2.6067818828766827,-0.7872551937215703,-2.0166075229610603
3.636499999999998,-2.8432774871804187,-0.7339894902799553,-1.9431012361840672
3.640000000000001,-3.1532793782611472,-0.6785944851509074,-1.8706613455800425
3.643499999999996,-3.3769921911232763,-0.6487650629050722,-1.8323112259259708
3.6469999999999994,-3.64544651936028,-0.6242641308655758,-1.8014171528364191
3.650500000000001,-3.810566883903708,-0.614677037284371,-1.7822412203447575
3.653999999999997,-3.971426899743017,-0.6178727351447726,-1.772654126763553
3.657499999999999,-4.038540045469955,-0.628524479569694,-1.772654126763553
3.661000000000002,-4.050258186067845,-0.6604849488322142,-1.769458428903151
3.6644999999999968,-4.009777019397089,-0.6913772765925138,-1.7705230797468676
3.6679999999999993,-3.894724915105622,-0.7361205372966404,-1.769458428903151
3.6715000000000018,-3.766890019372549,-0.7712749590903102,-1.7662627310427494
3.674999999999997,-3.558091044968712,-0.8213432193422715,-1.7577402883052613
3.6785,-3.3844482376877965,-0.8596950843255949,-1.7502824964114894
3.682000000000002,-3.1511483312444626,-0.8969805531359498,-1.7449557515344027
3.6854999999999976,-2.984961570528066,-0.9257435792088164,-1.7470867985510878
3.689,-2.7878824820513706,-0.9513109074212812,-1.7577402883052613
3.6925000000000026,-2.6675036328828177,-0.9768764903044942,-1.7758498246239545
3.695999999999998,-2.541798038837178,-0.9907256779190692,-1.7918300592552143
3.699500000000001,-2.4725538460935548,-1.0056395163773606,-1.8131352934343088
3.702999999999996,-2.410767445243704,-1.0130973082711323,-1.8408336686634592
3.7064999999999984,-2.386264767874956,-1.022684401852337,-1.8642699498592392
3.710000000000001,-2.38413372085827,-1.0333378916065108,-1.894097626775822
3.713499999999996,-2.4043760495229005,-1.0386646364835974,-1.9090114652341137
3.716999999999999,-2.453379658931145,-1.0386646364835974,-1.9271227468820589
3.720500000000001,-2.50238326833939,-1.043991381360684,-1.9196649549882872
3.7239999999999966,-2.583345601680903,-1.0578405689752592,-1.904751116529996
3.727499999999999,-2.647263049547439,-1.0684923134001805,-1.8866415802113023
3.7310000000000016,-2.737812476470157,-1.095126037785614,-1.850420762244664
3.734499999999997,-2.802796320509662,-1.1260183655459135,-1.816330991294711
3.738,-2.8848250500241432,-1.176088371127127,-1.7705230797468676
3.741500000000002,-2.9434157530135927,-1.215503141624915,-1.7311083092490798
3.744999999999997,-3.023313435511389,-1.28048698566442,-1.6799736528241498
3.7485,-3.077643789796721,-1.3337526891060347,-1.6373614391367084
3.7520000000000016,-3.1458215863673757,-1.409388277570461,-1.5702482934097703
3.755499999999998,-3.188433800054817,-1.4722410745932808,-1.520178287828557
3.759,-3.2321106645859747,-1.555332709622227,-1.4424116523474455
3.762499999999996,-3.263004737675527,-1.6192519028180152,-1.379558855324626
3.7659999999999982,-3.291767763748393,-1.695952142126158,-1.2836826835248214
3.7695000000000007,-3.305616951362968,-1.749217845567773,-1.2123074437645132
3.772999999999996,-3.317335091960858,-1.8078085485572224,-1.1121691779313387
3.776499999999999,-3.3269221855420628,-1.848289715227979,-1.043991381360684
3.780000000000001,-3.347162768877441,-1.9068821635466808,-0.958766953985801
3.783499999999997,-3.3631430035087018,-1.938840887479949,-0.9023072980130364
3.786999999999999,-3.4100155659002613,-1.982517752011107,-0.8447812458673034
3.7905000000000015,-3.453692430431419,-2.003822986190201,-0.8181475214818699
3.793999999999997,-3.526132321035444,-2.0315213614193515,-0.7915155424256883
3.7975,-3.5847247693541453,-2.045370549033927,-0.7797974018277984
3.801000000000002,-3.681665591997666,-2.06774217938599,-0.767014610386192
3.804499999999997,-3.761563274495463,-2.085851715704683,-0.7584921676487036
3.808,-3.878746425803615,-2.10289660117966,-0.7414472821737271
3.8115000000000014,-3.981013993324222,-2.133788928939959,-0.7169446048049787
3.8149999999999977,-4.11950412414072,-2.1913149810856924,-0.6753987872905056
3.8185,-4.237751926292588,-2.243516033683591,-0.6359822714634658
3.8220000000000023,-4.399676592975614,-2.3351318567792774,-0.5784562193177326
3.825499999999998,-4.518989045971198,-2.4171588409645066,-0.5241258650324012
3.8290000000000006,-4.684111155843877,-2.5332755960996893,-0.4623394641825499
3.832499999999996,-4.804488259683179,-2.622760372178691,-0.42292294835551
3.8359999999999994,-4.957892228957968,-2.7410081743305588,-0.3717882919305801
3.839500000000001,-5.062290843495261,-2.8198412059846385,-0.341960615013997
3.842999999999997,-5.184800739680499,-2.9189130756448445,-0.3014794483432405
3.846499999999999,-5.258305281128241,-2.981765872667665,-0.2705853752536888
3.8500000000000014,-5.333942614921918,-3.0531411124279724,-0.2354309534600191
3.853499999999997,-5.375488432436391,-3.090426581238328,-0.2077325782308691
3.8569999999999993,-5.396793666615486,-3.1404948414902885,-0.1768385051413174
3.860500000000002,-5.392533317911369,-3.1660621697027533,-0.1534022239455376
3.863999999999997,-5.368032385871872,-3.191629497915218,-0.1267702448893561
3.8675,-5.329680520888548,-3.192694148758935,-0.1118564064310645
3.871000000000002,-5.243391442669949,-3.1873691492111007,-0.0926804739394028
3.8744999999999976,-5.163493760172153,-3.1799113573173288,-0.0841580312019145
3.878,-5.033527817422394,-3.162866471842352,-0.0767019846373948
3.8815000000000026,-4.928062806712132,-3.1458215863673757,-0.0767019846373948
3.884999999999998,-4.777856280626997,-3.1191896073111938,-0.0735062867769931
3.888500000000001,-4.6638705725085,-3.098949023975816,-0.0735062867769931
3.891999999999996,-4.539229629306577,-3.0531411124279724,-0.0884201252352847
3.8954999999999984,-4.456137994277631,-3.0115952949135,-0.0990718696602061
3.899000000000001,-4.3677178690423455,-2.9583295914718843,-0.1267702448893561
3.902499999999996,-4.3155185617737,-2.9103906329073563,-0.152337573101821
3.905999999999999,-4.270775301069572,-2.85073527907419,-0.1885583910684593
3.909500000000001,-4.255861462611281,-2.7964049247888583,-0.2215817658454441
3.9129999999999967,-4.2590571604716825,-2.707984799553574,-0.2631275833599171
3.916499999999999,-4.277166696790376,-2.6302181640724625,-0.2972173543098703
3.9200000000000017,-4.322974608338219,-2.508774664060193,-0.341960615013997
3.923499999999997,-4.362391124165259,-2.4075717473833023,-0.3771150368076668
3.927,-4.407132639540134,-2.282930804181379,-0.4101401569139035
3.930500000000002,-4.442288806663056,-2.1987727729794644,-0.4293143440763132
3.9339999999999975,-4.483834624177529,-2.0922431114254865,-0.4378367868138015
3.9375,-4.505139858356623,-2.010216127240257,-0.4293143440763132
3.9410000000000025,-4.526446837864969,-1.889837278071704,-0.397355620143045
3.944499999999998,-4.5434917233399466,-1.7971568041323012,-0.3547434064556034
3.948,-4.560536608814924,-1.6767779549637485,-0.2823035158515788
3.951499999999996,-4.576515098116931,-1.5883578297284635,-0.2215817658454441
3.9549999999999983,-4.590364285731507,-1.482892819018202,-0.138488385487246
3.958500000000001,-4.603148822502364,-1.4179107203079493,-0.0756355884644262
3.961999999999996,-4.610604869066885,-1.340144084826838,0.0031956978604016
3.965499999999999,-4.61273591608357,-1.2911404754185931,0.0511346564249298
3.969000000000001,-4.591428936575223,-1.23361442327286,0.110790010258096
3.9724999999999966,-4.5679926553794425,-1.201655699339592,0.1438151303643327
3.975999999999999,-4.501944160496222,-1.1611727873395834,0.1874919948954908
3.9795000000000016,-4.44015775964637,-1.1430632510208902,0.2098636252475541
3.982999999999997,-4.332561701919424,-1.130280459579284,0.2492801410745941
3.9865,-4.243076925840422,-1.1281494125625986,0.2684543282370038
3.990000000000002,-4.097132493788656,-1.1356072044563703,0.2844345628682639
3.993499999999997,-3.981013993324222,-1.144129647193859,0.2929570056057522
3.997,-3.810566883903708,-1.16649953221667,0.2950880526224372
4.000500000000002,-3.6742095454331465,-1.1835444176916468,0.2940216564494687
4.003999999999998,-3.4696726650626792,-1.2261566313790884,0.2876302607286655
4.0075,-3.3077462530504014,-1.2517239595915532,0.2823035158515788
4.010999999999996,-3.077643789796721,-1.3028586160164832,0.286565609884949
4.014499999999998,-2.9146527269407265,-1.340144084826838,0.2940216564494687
4.018000000000001,-2.7133115444306606,-1.390212345078799,0.3036087500306735
4.021499999999996,-2.5908016482454226,-1.4338892096099574,0.3195889846619337
4.024999999999999,-2.4800116379873267,-1.492481657928659,0.3440916620306821
4.028500000000001,-2.437399424299885,-1.5414852673369035,0.3707236410868635
4.0319999999999965,-2.444857216193657,-1.606467366047157,0.41120480775762
4.035499999999999,-2.4938608256019017,-1.648014928890882,0.4463592295512898
4.0390000000000015,-2.6046508358599976,-1.6884960955616382,0.5187991201553145
4.042499999999997,-2.7090494503972904,-1.7161927254615363,0.5880433128989375
4.045999999999999,-2.865649117532482,-1.7449557515344027,0.7116178599278921
4.049500000000002,-2.979634825650979,-1.772654126763553,0.8032336830235783
4.052999999999997,-3.144756935523658,-1.774785173780238,0.921481485175446
4.0565,-3.260873690658842,-1.7833076165177262,1.0130973082711323
4.060000000000002,-3.412146612916946,-1.7875679652218444,1.130280459579284
4.063499999999998,-3.5144141804375537,-1.7865033143781277,1.203785001027025
4.067,-3.636924076622792,-1.774785173780238,1.2708998920832149
4.070500000000003,-3.71575536294762,-1.7609359861656628,1.3113810587539714
4.073999999999998,-3.7913909514120463,-1.743891100690686,1.3529268762684443
4.077500000000001,-3.8233514206745673,-1.7311083092490798,1.3635803660226178
4.080999999999996,-3.834003165099488,-1.7076702827240478,1.3710364125871377
4.084499999999999,-3.8222850245015976,-1.6884960955616382,1.3763631574642243
4.088000000000001,-3.771150368076668,-1.6607977203324882,1.3880812980621142
4.091499999999996,-3.706168269366415,-1.6437528348575114,1.4019304856766894
4.094999999999999,-3.593247212091634,-1.6192519028180152,1.421106418168351
4.098500000000001,-3.5037624360126327,-1.596880272465952,1.4413470015037293
4.101999999999997,-3.369534399229505,-1.5659861993764004,1.476501423297399
4.105499999999999,-3.271527180413015,-1.5436145690243368,1.512722241264037
4.109000000000002,-3.1586061231382336,-1.5084601472306671,1.5702482934097703
4.112499999999997,-3.0893619303946105,-1.482892819018202,1.61285876176796
4.116,-3.007333200880129,-1.4434780485204144,1.6789072566511811
4.119500000000002,-2.961525289332286,-1.4061925797100594,1.730041913076111
4.1229999999999976,-2.893347492761632,-1.3625139698496491,1.8237887831884827
4.1265,-2.8390171384763003,-1.3252302463685464,1.8983597208091925
4.130000000000003,-2.7623151538389057,-1.273029193770648,2.0091497310672883
4.133499999999998,-2.6888088670619124,-1.22935232923949,2.0975698563025733
4.1370000000000005,-2.576952460630848,-1.1803487198312452,2.220078007158559
4.140499999999996,-2.476815940126925,-1.1398675531604887,2.308498132393844
4.143999999999998,-2.323411970852136,-1.081276850171039,2.419289887981192
4.147500000000001,-2.192381377258661,-1.0386646364835974,2.497056523462303
4.150999999999996,-1.994235892608997,-0.9790075373211792,2.576952460630848
4.154499999999999,-1.8312448297530024,-0.9395927668233912,2.6302181640724625
4.158000000000001,-1.583031084851377,-0.8810003185046897,2.6675036328828177
4.161499999999997,-1.3891476942350829,-0.8469105475547365,2.6856131692015106
4.164999999999999,-1.1803487198312452,-0.8170828706381533,2.6834838675140773
4.168500000000002,-0.8863270633817765,-0.7797974018277984,2.6536544452682427
4.171999999999997,-0.5688691257365278,-0.7574257714757352,2.596128393122509
4.1755,-0.3227846825223353,-0.7403808860007585,2.5364712939600915
4.179000000000002,0.0,-0.7222713496820654,2.450182215741492
4.182499999999997,0.2375620004767041,-0.7030954171904037,2.382004419170837
4.186,0.5315836569261729,-0.6753987872905056,2.294648944779269
4.189500000000002,0.7307937924195538,-0.6498314590780407,2.2307314969127323
4.192999999999998,0.9001762509963515,-0.628524479569694,2.1700097469065978
4.1965,1.0844725480314406,-0.5848476150385359,2.095438809285888
4.199999999999996,1.18247976684793,-0.5560845889656694,2.0411084550005567
4.203499999999998,1.253855006608238,-0.5124077244345112,1.97719100713402
4.207000000000001,1.2815516365081363,-0.4729912086074713,1.9356451896195472
4.210499999999996,1.282618032681105,-0.4207919013388249,1.8930329759321056
4.213999999999999,1.2687688450665298,-0.3792460838243518,1.8770527413008455
4.217500000000001,1.2506593087478366,-0.3046751462036421,1.8866415802113023
4.2209999999999965,1.23361442327286,-0.2503447919183106,1.915404606284169
4.224499999999999,1.208047095060395,-0.1842962970350892,1.970799611413217
4.2280000000000015,1.2027203501833084,-0.1331616406101593,2.019803220821462
4.231499999999997,1.203785001027025,-0.0809623333415129,2.080524970827597
4.234999999999999,1.2186988394853169,-0.0468725623915597,2.123137184515038
4.238500000000002,1.2506593087478366,0.0,2.160422653325393
4.241999999999997,1.2922051262623095,0.0266319790561814,2.1710743977503144
4.2455,1.3667760638830195,0.0490036094082447,2.172140793923283
4.249000000000002,1.4402806053307606,0.0532657034416149,2.1561605592920228
4.252499999999998,1.5585301528118805,0.0468725623915597,2.124201835358755
4.256,1.65653737162837,0.02769837522915,2.095438809285888
4.259500000000003,1.7960904079593327,0.0053267448770866,2.053892991771415
4.262999999999998,1.899424371652909,-0.0117181405978899,2.02406356952558
4.266500000000001,2.032586012263068,-0.0308940730895516,1.9803867049944217
4.269999999999996,2.1199414866546364,-0.0468725623915597,1.947363330217437
4.273499999999999,2.227535799052331,-0.0617864008498512,1.9090114652341137
4.277000000000001,2.298911038812639,-0.0671131457269379,1.8802484391612475
4.280499999999996,2.390526861908325,-0.0798976824977964,1.841898319507176
4.283999999999999,2.4523132627581767,-0.0841580312019145,1.8195266891551125
4.287500000000001,2.5332755960996893,-0.1012029166768912,1.8035481998531044
4.290999999999997,2.5876059503850213,-0.1171831513081512,1.795025757115616
4.294499999999999,2.652589794424526,-0.1310323389227262,1.800352501992703
4.298000000000002,2.698397705972369,-0.138488385487246,1.8120706425905928
4.301499999999997,2.7410081743305588,-0.1534022239455376,1.8376379708030577
4.305,2.765510851699307,-0.1555332709622227,1.8589432049821528
4.308500000000002,2.780424690157598,-0.1555332709622227,1.889837278071704
4.311999999999998,2.785751435034685,-0.152337573101821,1.9186003041445707
4.3155,2.765510851699307,-0.150206526085136,1.9644082156924136
4.319000000000003,2.7346167786097557,-0.152337573101821,2.0027583353464853
4.322499999999998,2.6738950286036207,-0.1629910628559944,2.0560222934588483
4.3260000000000005,2.608912929893368,-0.1832316461913727,2.0975698563025733
4.329499999999996,2.4917297785852166,-0.2130593231079557,2.148704512727503
4.332999999999998,2.3883958148916404,-0.2546051406224288,2.1774675388003697
4.336500000000001,2.229666846069016,-0.3089354949077603,2.2072952157169525
4.339999999999996,2.1018302050066917,-0.3590055004889736,2.221144403331528
4.343499999999999,1.9196649549882872,-0.4271832970596281,2.2232754503482126
4.347000000000001,1.790763663082246,-0.4761869064678729,2.2158176584544407
4.350499999999997,1.626707949382535,-0.5486285424011496,2.1998374238231806
4.353999999999999,1.5297671267390138,-0.5997614534968274,2.1795968404878026
4.357500000000002,1.4253667668724692,-0.6647452975363323,2.162553700342078
4.360999999999997,1.369971761743421,-0.7062911150508053,2.1455088148671013
4.3645,1.332686292933066,-0.7489033287382468,2.1359199759566443
4.368000000000002,1.3358819907934678,-0.7712749590903102,2.1316596272525263
4.3714999999999975,1.369971761743421,-0.7872551937215703,2.130593231079558
4.375,1.4168443241349806,-0.7893844954090034,2.1284639293921246
4.3785000000000025,1.5031334023535805,-0.7872551937215703,2.123137184515038
4.381999999999998,1.5947492254492668,-0.7787327509840819,2.117810439637952
4.3855,1.737499704969883,-0.7584921676487036,2.1082233460567465
4.388999999999996,1.860007855825869,-0.7478386778945303,2.0997009033192584
4.392499999999998,2.04004380415684,-0.7126842561008605,2.095438809285888
4.396000000000001,2.1795968404878026,-0.6849858808717105,2.1039612520233764
4.399499999999996,2.354306043941687,-0.6540918077821589,2.111419043917148
4.403000000000006,2.47042279907687,-0.6338512244467807,2.117810439637952
4.406499999999994,2.6110422315808006,-0.602958896686481,2.1263328823754395
4.409999999999997,2.690939914078597,-0.5848476150385359,2.124201835358755
4.413499999999999,2.77190224742011,-0.5667380787198427,2.113548345604581
4.417000000000002,2.8251679508617253,-0.5518242402615512,2.1039612520233764
4.420500000000004,2.876302607286655,-0.5390397034906926,2.0826560178442817
4.423999999999992,2.89760784146575,-0.5294526099094878,2.0666757832130216
4.427499999999995,2.9221087735052462,-0.5145387714511963,2.0389791533131234
4.430999999999997,2.924239820521932,-0.5124077244345112,2.017672173804777
4.4345,2.929566565399018,-0.5017542346803379,1.9867781007152248
4.438000000000002,2.9402200551531914,-0.5006895838366213,1.9676039135528156
4.441500000000005,2.9561985444552,-0.503885281697023,1.945232283200752
4.444999999999993,2.9679166850530896,-0.5060163287137079,1.9420365853403505
4.448499999999996,2.997746107298924,-0.517734469311598,1.9484279810611536
4.451999999999998,3.01905134147802,-0.5273215628928027,1.9633418195194452
4.455500000000001,3.0467497167071693,-0.5379750526469761,1.9889091477319103
4.459000000000003,3.0648592530258623,-0.5369104018032596,2.0187385699777454
4.462500000000006,3.0882955342216425,-0.5401060996636612,2.0528265955984466
4.465999999999994,3.1127982115903907,-0.5411707505073777,2.0826560178442817
4.4694999999999965,3.146887982540344,-0.547562146228181,2.1156793926212663
4.472999999999999,3.1831070551777305,-0.5550199381219528,2.147638116554534
4.4765000000000015,3.255546945781755,-0.5699337765802444,2.185989981537858
4.480000000000004,3.322661836837945,-0.5933700577760241,2.2158176584544407
4.483499999999992,3.4217337064981512,-0.6231994800218592,2.2541677781085125
4.486999999999995,3.505891737700066,-0.6477004120613556,2.2861265020417805
4.490499999999997,3.6166834932874137,-0.6913772765925138,2.326609414041789
4.494,3.6987104774726434,-0.7244023966987505,2.348979299064601
4.497500000000002,3.7945883946017,-0.7680792612299085,2.382004419170837
4.501000000000005,3.8553101446078335,-0.8011026360068932,2.4043760495229005
4.504499999999993,3.922423290334773,-0.8575640373089098,2.4246166328582786
4.507999999999996,3.965035504022214,-0.901240901840068,2.441661518333255
4.511499999999998,4.011908066413773,-0.952375558264998,2.4565753567915465
4.515000000000001,4.04493318652001,-0.9875299800586675,2.4672271012164684
4.518500000000003,4.084347957017798,-1.0312068445898257,2.483207335847728
4.522000000000006,4.109915285230263,-1.055709521958574,2.4927944294289333
4.525499999999994,4.15039645190102,-1.0823415010147557,2.50238326833939
4.528999999999996,4.167441337375997,-1.0961906886293304,2.51410140893728
4.532499999999999,4.182355175834288,-1.1132355741043072,2.5204928046580832
4.536000000000001,4.185552619023942,-1.1174959228084254,2.5258195495351696
4.539500000000004,4.172768082253083,-1.1281494125625986,2.534341992272658
4.542999999999992,4.152527498917705,-1.1238890638584804,2.5471247837142648
4.546499999999995,4.132286915582326,-1.1217580168417955,2.5790835076475327
4.549999999999997,4.11524203010735,-1.1132355741043072,2.603586185016281
4.5535,4.102459238665743,-1.095126037785614,2.638740606809951
4.557000000000002,4.0981971446323735,-1.0770147561376688,2.6579165393016124
4.560500000000005,4.089674701894885,-1.0610362668356608,2.680286424324424
4.563999999999993,4.083283306174081,-1.0525138240981724,2.687744216218196
4.567499999999996,4.07582551428031,-1.0418603343439992,2.6856131692015106
4.570999999999998,4.059847024978302,-1.045056032204401,2.6696346798995023
4.5745000000000005,4.027888301045034,-1.043991381360684,2.638740606809951
4.578000000000003,3.992733879251364,-1.0493181262377709,2.6057172320329665
4.5815000000000055,3.951186316407639,-1.0546431257856057,2.553516179435068
4.584999999999994,3.927750035211859,-1.0642319646960623,2.5151660597809964
4.588499999999996,3.912836196753567,-1.0780811523106375,2.464031403356066
4.591999999999999,3.921358639491056,-1.0823415010147557,2.428876981562397
4.595500000000001,3.955446665111757,-1.1015174335064173,2.38413372085827
4.599000000000004,3.992733879251364,-1.1121691779313387,2.356437090958372
4.602500000000006,4.050258186067845,-1.1377365061438036,2.317020575131332
4.6059999999999945,4.090741098067854,-1.1515856937583784,2.289322199902182
4.609499999999997,4.13867831130313,-1.1835444176916468,2.250972080248111
4.613,4.165310290359311,-1.215503141624915,2.2243401011919293
4.616500000000002,4.175963780113484,-1.2740955899436164,2.2030348670128346
4.6200000000000045,4.172768082253083,-1.3252302463685464,2.1966417259627797
4.623499999999993,4.125895519861524,-1.4019304856766894,2.1870546323815745
4.626999999999995,4.077956561296995,-1.4690453767328793,2.1827925383482043
4.630499999999998,3.976753644620104,-1.5404188711639353,2.1806632366607714
4.634,3.889399915557788,-1.5958156216222352,2.174271840939968
4.637500000000003,3.7530408317579744,-1.6554709754554016,2.1678786998899127
4.641000000000005,3.64118442532691,-1.7012788870032447,2.162553700342078
4.644499999999994,3.488846852225089,-1.7417600536740012,2.154031257604589
4.647999999999996,3.3780568419669925,-1.774785173780238,2.141246720833731
4.651499999999999,3.227850315881857,-1.820593085328081,2.123137184515038
4.655000000000001,3.128776700892399,-1.8610742519988372,2.107156949883778
4.658500000000004,3.0211823884947044,-1.9271227468820589,2.0901120644088014
4.662000000000006,2.961525289332286,-1.982517752011107,2.080524970827597
4.665499999999994,2.924239820521932,-2.045370549033927,2.0762646221234786
4.668999999999997,2.923175169678215,-2.0730671789338246,2.070937877246392
4.672499999999999,2.94874249789068,-2.077329272967195,2.0688068302297067
4.676000000000002,2.983896919684349,-2.059219736648502,2.0666757832130216
4.679500000000004,3.049945414567571,-2.0134118251006585,2.059219736648502
4.682999999999993,3.103209372679934,-1.966537517379847,2.0528265955984466
4.686499999999995,3.1799113573173288,-1.903686465686279,2.0315213614193515
4.689999999999998,3.224654618021455,-1.8536164601050655,2.0187385699777454
4.6935,3.280049623150503,-1.7960904079593327,2.0027583353464853
4.697000000000003,3.317335091960858,-1.7609359861656628,1.9867781007152248
4.700500000000005,3.362076607335733,-1.7364333087969146,1.9814531011673904
4.7039999999999935,3.386579284704481,-1.723650517355308,1.97719100713402
4.707499999999996,3.4142759146043797,-1.7225858665115914,1.9793220541507053
4.710999999999999,3.4270604513752376,-1.7343040071094815,1.9803867049944217
4.714500000000001,3.4366475449564424,-1.7620006370093797,1.970799611413217
4.718000000000004,3.431320800079356,-1.792894710098931,1.9633418195194452
4.721500000000006,3.403624170179458,-1.8355069237863724,1.9377744913069803
4.724999999999994,3.371665446246189,-1.8759880904571289,1.9186003041445707
4.728499999999997,3.331184279575433,-1.9431012361840672,1.897293324636224
4.731999999999999,3.30455055519,-2.0016936845027686,1.8781191374738144
4.735500000000002,3.2725918312567317,-2.0730671789338246,1.860007855825869
4.739000000000004,3.2587426436421567,-2.124201835358755,1.849356111400948
4.742499999999993,3.244895201356833,-2.172140793923283,1.8323112259259708
4.745999999999995,3.2395684564797467,-2.192381377258661,1.816330991294711
4.749499999999998,3.228914966725573,-2.201968470839866,1.7875679652218444
4.753,3.214001128267282,-2.1966417259627797,1.7609359861656628
4.756500000000003,3.204412289356825,-2.1785321896440863,1.728977262232395
4.760000000000005,3.198020893636022,-2.152964861431621,1.7012788870032447
4.763499999999993,3.1948251957756204,-2.1156793926212663,1.6661244652095748
4.766999999999996,3.1948251957756204,-2.0826560178442817,1.6362967882929915
4.770499999999998,3.196956242792305,-2.0293903144026664,1.6000759703263534
4.774000000000001,3.196956242792305,-1.982517752011107,1.5659861993764004
4.777500000000003,3.191629497915218,-1.9260563507090904,1.531896428426447
4.781000000000006,3.177780310300644,-1.8781191374738144,1.4999377044931788
4.784499999999994,3.149017284227777,-1.820593085328081,1.4701100275765957
4.787999999999997,3.1181232111382258,-1.7758498246239545,1.4424116523474455
4.791499999999999,3.048879018394602,-1.727910866059426,1.411517579257894
4.795000000000002,2.988157268388468,-1.6970185382991263,1.3912769959225155
4.798500000000004,2.8901500495719783,-1.6597330694887715,1.367840714726736
4.8019999999999925,2.81131876324715,-1.6416217878408266,1.3465354805476413
4.805499999999995,2.695202008111968,-1.6394924861533935,1.3177724544747746
4.8089999999999975,2.618500023474573,-1.6458838818741963,1.2911404754185931
4.8125,2.5215574555018,-1.658666673315803,1.25705070446864
4.8160000000000025,2.45870465847898,-1.677842605807465,1.2240255843624033
4.819500000000005,2.38413372085827,-1.684234001528268,1.18247976684793
4.822999999999993,2.3372611584667102,-1.6821046998408349,1.136671855300087
4.826499999999996,2.2808015024939454,-1.6735822571033467,1.063165568523094
4.829999999999998,2.243516033683591,-1.6607977203324882,1.0067059125503293
4.833500000000001,2.193446028102377,-1.642688184013795,0.9193504381587612
4.837000000000003,2.157226955464991,-1.6224476006784168,0.8501062454151381
4.840500000000006,2.109287996900463,-1.596880272465952,0.7563611206320187
4.843999999999994,2.0751982259505097,-1.5787707361472587,0.6753987872905056
4.847499999999997,2.034717059279753,-1.545745616041022,0.5784562193177326
4.850999999999999,2.008085080223572,-1.531896428426447,0.5092120265741096
4.854500000000002,1.9814531011673904,-1.5105911942473522,0.4133358547743051
4.858000000000004,1.9676039135528156,-1.494610959616092,0.3462209637181151
4.861499999999992,1.9484279810611536,-1.4796971211578005,0.2556715367953973
4.864999999999995,1.931383095586177,-1.4722410745932808,0.1906876927558924
4.868499999999997,1.8962286737925071,-1.464783282699509,0.1075943123976944
4.872,1.865334600702956,-1.460522933995391,0.0479389585645282
4.875500000000002,1.811004246417624,-1.4658479335432255,-0.0223716303520633
4.879000000000005,1.7609359861656628,-1.4658479335432255,-0.0713752397603081
4.882499999999993,1.6799736528241498,-1.486088516878604,-0.1310323389227262
4.885999999999996,1.6107294600805269,-1.502068751509864,-0.1651203645434275
4.889499999999998,1.5212446840015257,-1.5382895694765022,-0.2087989744038376
4.893000000000001,1.453065142101619,-1.5659861993764004,-0.2364956043037356
4.896500000000003,1.3731674596038226,-1.614989808784645,-0.2759121201307756
4.900000000000006,1.3135103604414045,-1.652275277595,-0.302544099186957
4.903499999999994,1.254919657451955,-1.6970185382991263,-0.3526141047681703
4.9069999999999965,1.2133738399374818,-1.7225858665115914,-0.3930952714389268
4.910499999999999,1.1750219749541586,-1.7460221477073712,-0.4495549274116914
4.9140000000000015,1.1558477877917488,-1.7577402883052613,-0.4974938859762197
4.917500000000004,1.145194298037575,-1.7662627310427494,-0.5741958706136145
4.920999999999992,1.136671855300087,-1.7737187776072691,-0.6370469223071823
4.924499999999995,1.1398675531604887,-1.7758498246239545,-0.7371851881403569
4.927999999999997,1.1409322040042051,-1.7801119186573249,-0.8149518236214683
4.9315,1.1398675531604887,-1.779045522484356,-0.9225478813484148
4.935000000000002,1.1419986001771738,-1.7737187776072691,-0.9939213757794708
4.938500000000005,1.138802902316772,-1.7641316840260644,-1.0866035950481256
4.941999999999993,1.138802902316772,-1.7577402883052613,-1.1462589488812918
4.945499999999996,1.138802902316772,-1.735368657953198,-1.2218962826749702
4.948999999999998,1.1356072044563703,-1.7204548194949063,-1.2783559386477348
4.952500000000001,1.1356072044563703,-1.706605631880331,-1.351862225424728
4.956000000000003,1.130280459579284,-1.6906253972490712,-1.4147150224475475
4.959500000000006,1.1143002249480238,-1.6789072566511811,-1.4850238660348871
4.962999999999994,1.106844178383504,-1.6661244652095748,-1.5425499181806204
4.966499999999996,1.0897992929085274,-1.6597330694887715,-1.6117941109242435
4.969999999999999,1.0770147561376688,-1.6607977203324882,-1.6576020224720869
4.973500000000001,1.0589052198189757,-1.6693201630699763,-1.7161927254615363
4.977000000000004,1.039729287327314,-1.686365048544953,-1.7545445904448598
4.980499999999992,1.014161959114849,-1.7012788870032447,-1.8056775015405373
4.983999999999995,0.9949877719524394,-1.7183237724782212,-1.8408336686634592
4.987499999999997,0.958766953985801,-1.7321729600927964,-1.885575184038334
4.991,0.9321349749296196,-1.7364333087969146,-1.922860652848689
4.994500000000002,0.889522761242178,-1.7428264498469697,-1.975059960117335
4.998000000000005,0.8554329902922247,-1.7406954028302846,-2.014476475944375
5.001499999999993,0.81069147491735,-1.7343040071094815,-2.06774217938599
5.004999999999996,0.7893844954090034,-1.723650517355308,-2.1124836947608645
5.008499999999998,0.7584921676487036,-1.700214236159528,-2.166814049046196
5.0120000000000005,0.7542300736153336,-1.6735822571033467,-2.2040995178565512
5.015500000000003,0.7552947244590501,-1.6458838818741963,-2.2541677781085125
5.0190000000000055,0.7659482142132235,-1.6203165536617317,-2.2935842939355524
5.022499999999994,0.7840577505319166,-1.5958156216222352,-2.3351318567792774
5.025999999999996,0.8000379851631767,-1.5745086421138883,-2.3670905807125457
5.029499999999999,0.8224096155152401,-1.5489413139014236,-2.3969182576291286
5.033000000000001,0.836258803129815,-1.531896428426447,-2.4128967469311364
5.036500000000004,0.8447812458673034,-1.506329100213982,-2.4203545388249084
5.040000000000006,0.8501062454151381,-1.483959215191171,-2.4203545388249084
5.0434999999999945,0.8543683394485082,-1.455196189118304,-2.4054407003666167
5.046999999999997,0.8469105475547365,-1.4370849074703589,-2.3852001170312387
5.0505,0.8351924069568466,-1.411517579257894,-2.3575017418020887
5.054000000000002,0.8234742663589566,-1.4008658348329728,-2.3372611584667102
5.0575000000000045,0.7947112402860901,-1.3891476942350829,-2.3042377836897256
5.060999999999993,0.7723396099340267,-1.3880812980621142,-2.2818661533376625
5.064499999999995,0.7244023966987505,-1.3891476942350829,-2.256298825125197
5.067999999999998,0.6913772765925138,-1.409388277570461,-2.2424496375106227
5.0715,0.6487650629050722,-1.427497813889154,-2.2307314969127323
5.075000000000003,0.5912390107593392,-1.460522933995391,-2.240320335823189
5.078500000000005,0.5401060996636612,-1.490350610911974,-2.2541677781085125
5.081999999999994,0.4719265577637547,-1.5382895694765022,-2.2903885960751507
5.085499999999996,0.4271832970596281,-1.5681172463930857,-2.330869762745907
5.088999999999999,0.3664615470534934,-1.603271668186755,-2.397982908472845
5.092500000000001,0.3291760782431385,-1.6096630639075584,-2.45124861191446
5.096000000000004,0.2854992137119804,-1.6000759703263534,-2.5236885025184845
5.099500000000006,0.2546051406224288,-1.571312944253487,-2.5694964140663283
5.102999999999994,0.2183860679850424,-1.520178287828557,-2.631282814916179
5.106499999999997,0.1938833906162941,-1.4615875848391076,-2.6632415388494475
5.109999999999999,0.1693824585767977,-1.3763631574642243,-2.7005270076598022
5.113500000000002,0.152337573101821,-1.3081853608935698,-2.722898638011866
5.117000000000004,0.136357338470561,-1.215503141624915,-2.742074570503527
5.120499999999993,0.1257055940456395,-1.145194298037575,-2.749530617068047
5.123999999999995,0.1129210572747811,-1.0599698706626923,-2.755923758118102
5.127499999999998,0.1001382658331746,-0.9992481206565574,-2.7633798046826223
5.131,0.083093380358198,-0.9268082300525328,-2.7687065495597087
5.134500000000003,0.0681795418999064,-0.8831313655213747,-2.774033294436796
5.138000000000005,0.0319587239332681,-0.8394545009902167,-2.7878824820513706
5.1414999999999935,0.0,-0.8096250787443816,-2.790013529068055
5.144999999999996,-0.0468725623915597,-0.7797974018277984,-2.7942738777721736
5.148499999999999,-0.0905494269227178,-0.7659482142132235,-2.8006652734929767
5.152000000000001,-0.1534022239455376,-0.7489033287382468,-2.802796320509662
5.155500000000004,-0.1534022239455376,-0.7489033287382468,-2.802796320509662
5.159000000000006,-0.1534022239455376,-0.7489033287382468,-2.802796320509662
5.162499999999994,-0.1534022239455376,-0.7489033287382468,-2.802796320509662
5.165999999999997,-0.316393286801532,-0.709488558240459,-2.832623997426245
5.169499999999999,-0.3355692192931938,-0.709488558240459,-2.842212836336702
5.173000000000002,-0.3611348021764067,-0.7020307663466872,-2.867780164549167
5.176500000000004,-0.3803107346680683,-0.7020307663466872,-2.888020747884545
5.179999999999993,-0.4058780628805333,-0.6956393706258839,-2.9263708675386164
5.183499999999995,-0.4282496932325966,-0.6945729744529154,-2.9540692427677664
5.186999999999998,-0.4538170214450616,-0.7009661155029706,-2.9860279667010348
5.1905,-0.4740576047804398,-0.7020307663466872,-3.006268550036413
5.194000000000003,-0.5134723752782278,-0.7041618133633722,-3.023313435511389
5.197500000000005,-0.5464974953844645,-0.6924436727654824,-3.0265091333717917
5.200999999999993,-0.605088198373914,-0.6775280889779387,-3.0211823884947044
5.204499999999996,-0.6508961099217573,-0.6594185526592456,-3.007333200880129
5.207999999999998,-0.7244023966987505,-0.6370469223071823,-2.975374476946861
5.211500000000001,-0.7819284488444836,-0.6125459902676859,-2.947676101717711
5.215000000000003,-0.8724778757672014,-0.5848476150385359,-2.9103906329073563
5.218500000000006,-0.9353306727900212,-0.5646070317031576,-2.880562955990773
5.221999999999994,-1.0194887039919358,-0.5411707505073777,-2.8390171384763003
5.225499999999997,-1.081276850171039,-0.5262569120490862,-2.8070584145430324
5.228999999999999,-1.1505210429146622,-0.5070809795574245,-2.77616434145348
5.232500000000002,-1.1941979074458202,-0.4942981881158181,-2.76018410682222
5.236000000000004,-1.2517239595915532,-0.4847093492053612,-2.7644462008555903
5.2394999999999925,-1.2911404754185931,-0.4825800475179281,-2.7814910863305675
5.242999999999995,-1.3294905950726643,-0.4815136513449596,-2.8070584145430324
5.2464999999999975,-1.358253621145531,-0.4836446983616446,-2.840081789320017
5.25,-1.4083218813974925,-0.4911024902554164,-2.8837586538511752
5.2535000000000025,-1.4477383972245323,-0.4911024902554164,-2.9199794718178134
5.257000000000005,-1.5137868921077535,-0.4836446983616446,-2.963656336348971
5.260499999999993,-1.561725850672282,-0.4772533026408414,-2.996679711125956
5.263999999999996,-1.624578647695102,-0.4655351620429515,-3.028638435059224
5.267499999999998,-1.6618641165054566,-0.4538170214450616,-3.054205763271689
5.271000000000001,-1.6991478399865596,-0.4431635316908882,-3.082968789344556
5.274500000000003,-1.7161927254615363,-0.4367721359700849,-3.1000136748195324
5.278000000000006,-1.7225858665115914,-0.4410324846742031,-3.114927513277824
5.281499999999994,-1.719388423321938,-0.4516859744283765,-3.113862862434108
5.284999999999997,-1.7140634237741033,-0.4793843496575265,-3.097884373132099
5.288499999999999,-1.7034099340199298,-0.5092120265741096,-3.075512742780036
5.292000000000002,-1.6884960955616382,-0.5507578440885826,-3.0211823884947044
5.295500000000004,-1.6671891160532917,-0.5837829641948193,-2.963656336348971
5.298999999999992,-1.626707949382535,-0.6349176206197492,-2.876302607286655
5.302499999999995,-1.584095735695093,-0.670072042413419,-2.8059920183700635
5.305999999999997,-1.504199798526549,-0.709488558240459,-2.7090494503972904
5.3095,-1.4434780485204144,-0.7393162351570419,-2.6398052576536672
5.313000000000002,-1.3529268762684443,-0.780862052671515,-2.5545825756080367
5.316500000000005,-1.2943361732789946,-0.80642938088398,-2.4991858251497363
5.319999999999993,-1.219765235658285,-0.8501062454151381,-2.441661518333255
5.323499999999996,-1.1814151160042137,-0.889522761242178,-2.4139631431041053
5.326999999999998,-1.157977089479182,-0.944917766371226,-2.402245002506215
5.330500000000001,-1.1494546467416935,-0.9822032351815808,-2.4139631431041053
5.334000000000003,-1.1558477877917488,-1.0429249851877156,-2.4565753567915465
5.337500000000006,-1.1771530219708437,-1.081276850171039,-2.5002522213227047
5.340999999999994,-1.2218962826749702,-1.1079088292272203,-2.576952460630848
5.3444999999999965,-1.2762248916310497,-1.1196269698251105,-2.638740606809951
5.347999999999999,-1.3646450168663344,-1.124953714702197,-2.715442591447346
5.3515000000000015,-1.453065142101619,-1.134540808283402,-2.7708375965763934
5.355000000000004,-1.6043380643597236,-1.1515856937583784,-2.832623997426245
5.358499999999992,-1.728977262232395,-1.173957324110442,-2.8699094662366
5.361999999999995,-1.917533907971602,-1.2027203501833084,-2.88588970086786
5.365499999999997,-2.0613490383359347,-1.2240255843624033,-2.8816276068344897
5.369,-2.237122892633536,-1.2559843082956712,-2.836886091459615
5.372500000000002,-2.350045695237569,-1.282618032681105,-2.790013529068055
5.376000000000005,-2.454444309774862,-1.3167078036310582,-2.7047891016931724
5.379499999999993,-2.5013168721664214,-1.3497311784080428,-2.638740606809951
5.382999999999996,-2.5151660597809964,-1.4008658348329728,-2.541798038837178
5.386499999999998,-2.5013168721664214,-1.4520004912579023,-2.460835705495665
5.390000000000001,-2.468293497389437,-1.5287007305660454,-2.3606974396624905
5.393500000000003,-2.445921867037373,-1.5915535275888653,-2.277604059304292
5.397000000000006,-2.4278123307186803,-1.6703848139136932,-2.1732054447669995
5.400499999999994,-2.425681283701995,-1.7247151681990245,-2.087982762721368
5.403999999999996,-2.448052914054059,-1.7918300592552143,-1.9782556579777368
5.407499999999999,-2.476815940126925,-1.834440527613404,-1.901555418669594
5.411000000000001,-2.530079898239288,-1.899424371652909,-1.8056775015405373
5.414500000000004,-2.5801499038205016,-1.9420365853403505,-1.7502824964114894
5.417999999999992,-2.6568501431286444,-2.008085080223572,-1.6948874912824414
5.421499999999995,-2.7175718931347785,-2.053892991771415,-1.6693201630699763
5.424999999999997,-2.788947132895087,-2.116745788794235,-1.6533416737679685
5.4285,-2.840081789320017,-2.155095908448306,-1.652275277595
5.432000000000002,-2.8837586538511752,-2.1966417259627797,-1.6693201630699763
5.435500000000005,-2.899738888482435,-2.219013356314843,-1.6831693506845515
5.438999999999993,-2.8890853987282616,-2.241384986666906,-1.706605631880331
5.442499999999996,-2.852864580761623,-2.245645335371024,-1.719388423321938
5.445999999999998,-2.77616434145348,-2.2520384764210792,-1.728977262232395
5.4495000000000005,-2.703724450849456,-2.2445806845273077,-1.7311083092490798
5.453000000000003,-2.589736997401706,-2.2381892888065043,-1.7385643558135997
5.4565000000000055,-2.5151660597809964,-2.2264711482086144,-1.7428264498469697
5.459999999999994,-2.437399424299885,-2.2094262627336376,-1.7385643558135997
5.463499999999996,-2.3990493046458137,-2.1849235853648894,-1.7332376109365126
5.466999999999999,-2.3969182576291286,-2.147638116554534,-1.705540981036615
5.470500000000001,-2.425681283701995,-2.1124836947608645,-1.6767779549637485
5.474000000000004,-2.4885340807248157,-2.0560222934588483,-1.6256432985388185
5.477500000000006,-2.5492558307309494,-2.008085080223572,-1.5809000378346918
5.4809999999999945,-2.645132002530754,-1.945232283200752,-1.527636079722329
5.484499999999997,-2.715442591447346,-1.897293324636224,-1.4935463087723757
5.488,-2.820905856828355,-1.8536164601050655,-1.4754367724536823
5.491500000000002,-2.903999237186553,-1.8280491318926009,-1.474370376280714
5.4950000000000045,-3.0275737842155075,-1.8099395955739075,-1.4956773557890606
5.498499999999993,-3.128776700892399,-1.8046128506968209,-1.5244403818619272
5.501999999999995,-3.264069388519244,-1.8078085485572224,-1.561725850672282
5.505499999999998,-3.368469748385788,-1.820593085328081,-1.5904888767451486
5.509,-3.502696039839664,-1.8450940173675772,-1.6288389963992198
5.512500000000003,-3.592180815918665,-1.881314835334216,-1.649079579734598
5.516000000000005,-3.683796639014352,-1.9494926319048704,-1.6671891160532917
5.519499999999994,-3.735995946282998,-2.014476475944375,-1.6757115587907798
5.522999999999996,-3.783934904847527,-2.1220707883420697,-1.6767779549637485
5.526499999999999,-3.809502233059992,-2.2158176584544407,-1.677842605807465
5.530000000000001,-3.8254807223619993,-2.362828486679175,-1.6597330694887715
5.533500000000004,-3.838265259132858,-2.476815940126925,-1.6341657412763066
5.537000000000006,-3.842525607836976,-2.631282814916179,-1.587293178884747
5.540499999999994,-3.8553101446078335,-2.739943523486842,-1.5446809651973052
5.543999999999997,-3.8723550300828102,-2.872040513253285,-1.4701100275765957
5.547499999999999,-3.903247357843111,-2.9647209871926883,-1.407257230553776
5.551000000000002,-3.973557946759702,-3.068054950886264,-1.3167078036310582
5.554500000000004,-4.045997837363727,-3.137299143629887,-1.259181751485325
5.557999999999993,-4.184486222850973,-3.221457174831801,-1.176088371127127
5.561499999999995,-4.316583212617416,-3.275787529117133,-1.1164312719647087
5.564999999999998,-4.528577884881655,-3.3429024201733237,-1.0386646364835974
5.5685,-4.709678484056343,-3.3951017274419697,-0.9758118394607777
5.572000000000003,-4.957892228957968,-3.463281269341876,-0.8969805531359498
5.575500000000005,-5.136861781115971,-3.512283133420869,-0.8394545009902167
5.5789999999999935,-5.352052151240611,-3.5793980244770585,-0.7797974018277984
5.582499999999996,-5.477757745286251,-3.615617097114445,-0.7446429800341288
5.585999999999999,-5.591743453404749,-3.6486422172206816,-0.7158799539612621
5.589500000000001,-5.625833224354702,-3.6486422172206816,-0.7084221620674903
5.593000000000004,-5.609852989723442,-3.627336983041587,-0.7158799539612621
5.596500000000006,-5.557653682454795,-3.593247212091634,-0.7414472821737271
5.599999999999994,-5.455386114934188,-3.5367858107896173,-0.7893844954090034
5.603499999999997,-5.353116802084329,-3.482455456504286,-0.8383881048172481
5.606999999999999,-5.22741295336794,-3.4014931231627727,-0.9140254386109264
5.610500000000002,-5.131535036238884,-3.3343799774358347,-0.9747471886170612
5.614000000000004,-5.03139677040571,-3.2480908992172357,-1.0578405689752592
5.617499999999993,-4.977066416120378,-3.1831070551777305,-1.1153666211209925
