time,Gyr_X,Gyr_Y,Gyr_Z
0.0,0.0063913957208032,0.002131047016685,-0.0053267448770866
0.0034999999999953,0.0042603487041181,0.002131047016685,-0.002131047016685
0.0069999999999978,0.0042603487041181,0.0053267448770866,-0.0074577918937717
0.0105000000000003,0.0053267448770866,0.002131047016685,-0.0031956978604016
0.0139999999999957,0.002131047016685,0.0042603487041181,-0.0031956978604016
0.0174999999999982,0.0053267448770866,0.0031956978604016,-0.0031956978604016
0.0210000000000007,0.002131047016685,0.0031956978604016,-0.0063913957208032
0.0244999999999961,0.002131047016685,0.0031956978604016,-0.002131047016685
0.0279999999999986,0.0010646508437165,0.0031956978604016,-0.0063913957208032
0.0315000000000011,0.0053267448770866,-6.523381063598781e-19,-0.0042603487041181
0.0349999999999965,0.0042603487041181,-5.217422403749877e-19,-0.0010646508437165
0.038499999999999,0.002131047016685,0.0010646508437165,-0.0031956978604016
0.0419999999999944,0.0042603487041181,0.002131047016685,-0.0063913957208032
0.0454999999999969,0.0031956978604016,0.002131047016685,-0.0031956978604016
0.0489999999999994,0.0042603487041181,-5.217422403749877e-19,-0.002131047016685
0.0524999999999948,0.0042603487041181,0.0010646508437165,-0.0063913957208032
0.0559999999999973,0.0042603487041181,-5.217422403749877e-19,-0.0053267448770866
0.0594999999999998,0.0053267448770866,0.0010646508437165,-0.0042603487041181
0.0629999999999952,0.0063913957208032,-7.827202311565772e-19,-0.002131047016685
0.0664999999999977,0.0042603487041181,0.0053267448770866,-0.0031956978604016
0.0700000000000002,-0.0010646508437165,0.0063913957208032,-0.002131047016685
0.0734999999999956,0.0010646508437165,0.0095870935812048,-0.0031956978604016
0.0769999999999981,-0.0031956978604016,0.0085224427374883,-0.0042603487041181
0.0805000000000006,-0.002131047016685,0.0106534897541733,-0.0031956978604016
0.083999999999996,-0.0042603487041181,0.0127827914416064,-0.0074577918937717
0.0874999999999985,-0.0042603487041181,0.0106534897541733,-0.0031956978604016
0.091000000000001,6.523381063598781e-19,0.0053267448770866,-0.002131047016685
0.0944999999999964,3.913601155782886e-19,0.0031956978604016,-0.0010646508437165
0.0979999999999989,0.002131047016685,-2.6097799078158957e-19,-0.002131047016685
0.1014999999999943,0.0095870935812048,-0.0053267448770866,-0.0042603487041181
0.1049999999999968,0.0127827914416064,-0.0031956978604016,-0.0031956978604016
0.1084999999999993,0.0117181405978899,0.002131047016685,-0.0010646508437165
0.1119999999999947,0.0095870935812048,0.002131047016685,-0.0053267448770866
0.1154999999999972,0.0085224427374883,0.0085224427374883,-0.0053267448770866
0.1189999999999997,0.0074577918937717,0.0106534897541733,-0.0010646508437165
0.1224999999999951,9.133160971414677e-19,0.0074577918937717,-0.0042603487041181
0.1259999999999976,-0.0010646508437165,0.0074577918937717,-0.0042603487041181
0.1295000000000001,-0.0042603487041181,0.0095870935812048,-0.0042603487041181
0.1329999999999955,-0.0095870935812048,0.0042603487041181,-0.002131047016685
0.136499999999998,-0.0106534897541733,0.0053267448770866,-0.0042603487041181
0.1400000000000005,-0.0085224427374883,0.0031956978604016,-0.0085224427374883
0.1434999999999959,-0.0010646508437165,1.3038212479669908e-19,-0.0053267448770866
0.1469999999999984,0.0053267448770866,0.002131047016685,-0.0053267448770866
0.1505000000000009,0.0127827914416064,-0.002131047016685,-0.0074577918937717
0.1539999999999963,0.0202405833353782,-0.0031956978604016,-0.0095870935812048
0.1574999999999988,0.0255673282124649,-0.0095870935812048,-0.0085224427374883
0.1609999999999942,0.0308940730895516,-0.0095870935812048,-0.0053267448770866
0.1644999999999967,0.0266319790561814,-0.0095870935812048,-0.0085224427374883
0.1679999999999992,0.0223716303520633,-0.0085224427374883,-0.0053267448770866
0.1714999999999946,0.0202405833353782,-0.0031956978604016,-0.0053267448770866
0.1749999999999971,0.013849187614575,0.0010646508437165,-0.0074577918937717
0.1784999999999996,0.0053267448770866,0.0031956978604016,-0.0053267448770866
0.181999999999995,-0.0085224427374883,0.0106534897541733,-0.0063913957208032
0.1854999999999975,-0.0095870935812048,0.0063913957208032,-0.0042603487041181
0.189,-0.0106534897541733,0.0031956978604016,-0.0042603487041181
0.1924999999999954,-0.0063913957208032,0.002131047016685,-0.0042603487041181
0.1959999999999979,-0.0042603487041181,5.217422403749877e-19,-0.0063913957208032
0.1995000000000004,0.0031956978604016,0.002131047016685,-0.0063913957208032
0.2029999999999958,0.0085224427374883,0.0010646508437165,-0.0031956978604016
0.2064999999999983,0.0106534897541733,0.0074577918937717,-0.0042603487041181
0.2100000000000008,0.0117181405978899,0.0095870935812048,-0.0031956978604016
0.2134999999999962,0.0149138384582915,0.0149138384582915,0.0
0.2169999999999987,0.0117181405978899,0.0117181405978899,-0.002131047016685
0.2205000000000012,0.0117181405978899,0.0085224427374883,-0.0063913957208032
0.2239999999999966,0.0074577918937717,0.0063913957208032,-0.0053267448770866
0.2274999999999991,0.0031956978604016,0.0053267448770866,-0.0042603487041181
0.2309999999999945,-0.0031956978604016,0.0106534897541733,-0.0053267448770866
0.234499999999997,-0.0095870935812048,0.0127827914416064,-0.0031956978604016
0.2379999999999995,-0.0053267448770866,0.0170448854749766,-0.0074577918937717
0.2414999999999949,-0.0085224427374883,0.0234362811957798,-0.0053267448770866
0.2449999999999974,-0.0074577918937717,0.0255673282124649,-0.0063913957208032
0.2484999999999999,-0.0063913957208032,0.0202405833353782,-0.0063913957208032
0.2519999999999953,2.0873964438763333e-18,0.0170448854749766,-0.0085224427374883
0.2554999999999978,0.0031956978604016,0.0085224427374883,-0.0085224427374883
0.2590000000000003,0.0095870935812048,0.0085224427374883,-0.0074577918937717
0.2624999999999957,0.0063913957208032,0.0095870935812048,-0.0149138384582915
0.2659999999999982,0.0063913957208032,0.013849187614575,-0.0117181405978899
0.2695000000000007,0.002131047016685,0.0191759324916617,-0.013849187614575
0.2729999999999961,-0.0031956978604016,0.029827676916583,-0.0170448854749766
0.2764999999999986,-0.0074577918937717,0.0287630260728665,-0.01598023463126
0.2800000000000011,-0.0063913957208032,0.0255673282124649,-0.0170448854749766
0.2834999999999965,-0.0074577918937717,0.0255673282124649,-0.0181095363186931
0.286999999999999,-0.0053267448770866,0.0234362811957798,-0.01598023463126
0.2904999999999944,-0.0085224427374883,0.0085224427374883,-0.0106534897541733
0.2939999999999969,-0.0053267448770866,0.0042603487041181,-0.0074577918937717
0.2974999999999994,0.0053267448770866,0.0053267448770866,-0.0117181405978899
0.3009999999999948,0.0031956978604016,0.0063913957208032,-0.0074577918937717
0.3044999999999973,0.0085224427374883,-1.0436982219381666e-18,-0.0010646508437165
0.3079999999999998,0.0053267448770866,-0.0074577918937717,0.0
0.3114999999999952,0.013849187614575,-0.0095870935812048,0.0
0.3149999999999977,0.0127827914416064,-0.0074577918937717,-0.0042603487041181
0.3185000000000002,0.013849187614575,-0.013849187614575,0.0
0.3219999999999956,0.0117181405978899,-0.0106534897541733,0.0010646508437165
0.3254999999999981,0.0063913957208032,-0.0106534897541733,0.0
0.3290000000000006,0.0042603487041181,-0.0074577918937717,-0.0053267448770866
0.332499999999996,0.0063913957208032,-0.0106534897541733,-0.002131047016685
0.3359999999999985,0.0042603487041181,-0.0095870935812048,-0.002131047016685
0.339500000000001,0.0031956978604016,-0.0085224427374883,-0.0031956978604016
0.3429999999999964,0.0031956978604016,-0.0053267448770866,-0.0053267448770866
0.3464999999999989,0.0010646508437165,-0.0149138384582915,-0.0085224427374883
0.3499999999999943,0.0074577918937717,-0.0372854688103548,-0.0106534897541733
0.3534999999999968,0.0223716303520633,-0.0660484948832214,-0.0127827914416064
0.3569999999999993,0.0308940730895516,-0.0681795418999064,-0.0063913957208032
0.3604999999999947,0.0351544217936697,-0.0511346564249298,-0.0042603487041181
0.3639999999999972,0.0372854688103548,-0.0340897709499532,-0.0063913957208032
0.3674999999999997,0.0404811666707564,-0.0223716303520633,-0.0127827914416064
0.3709999999999951,0.0330233747769847,-0.0202405833353782,-0.013849187614575
0.3744999999999976,0.0223716303520633,-0.0191759324916617,-0.0063913957208032
0.3780000000000001,0.0234362811957798,-0.0245026773687483,-0.0042603487041181
0.3814999999999955,0.0234362811957798,-0.0266319790561814,-0.0031956978604016
0.384999999999998,0.0181095363186931,-0.0223716303520633,-0.002131047016685
0.3885000000000005,0.0149138384582915,-0.0213052341790947,-0.0010646508437165
0.3919999999999959,0.0085224427374883,-0.0149138384582915,0.0010646508437165
0.3954999999999984,-5.217422403749877e-19,-0.0042603487041181,0.002131047016685
0.3990000000000009,-0.0010646508437165,1.3038212479669908e-19,0.002131047016685
0.4024999999999963,7.827202311565772e-19,0.0063913957208032,0.0010646508437165
0.4059999999999988,-0.0010646508437165,0.0053267448770866,0.0
0.4094999999999942,0.0031956978604016,0.0106534897541733,0.0042603487041181
0.4129999999999967,0.0095870935812048,0.0085224427374883,-0.002131047016685
0.4164999999999992,0.0127827914416064,0.0117181405978899,-0.0053267448770866
0.4199999999999946,0.0106534897541733,0.0191759324916617,-0.0085224427374883
0.4234999999999971,0.0127827914416064,0.02769837522915,-0.0106534897541733
0.4269999999999996,0.0031956978604016,0.0266319790561814,-0.0085224427374883
0.430499999999995,1.5654404623131544e-18,0.0127827914416064,-0.0053267448770866
0.4339999999999975,0.0053267448770866,-0.0010646508437165,-0.0042603487041181
0.4375,0.0170448854749766,-0.01598023463126,-0.0042603487041181
0.4409999999999954,0.0234362811957798,-0.0223716303520633,-0.0117181405978899
0.4444999999999979,0.0266319790561814,-0.0202405833353782,-0.0202405833353782
0.4480000000000004,0.02769837522915,-0.0117181405978899,-0.0202405833353782
0.4514999999999958,0.0223716303520633,0.0042603487041181,-0.02769837522915
0.4549999999999983,0.0085224427374883,0.0127827914416064,-0.0255673282124649
0.4585000000000008,0.0042603487041181,0.0255673282124649,-0.0234362811957798
0.4619999999999962,-0.0010646508437165,0.0330233747769847,-0.0202405833353782
0.4654999999999987,-0.0085224427374883,0.0308940730895516,-0.0106534897541733
0.4690000000000012,-0.0053267448770866,0.02769837522915,-0.0053267448770866
0.4724999999999966,-0.002131047016685,0.0234362811957798,0.0
0.4759999999999991,3.1310946658145007e-18,0.0255673282124649,-0.0031956978604016
0.4794999999999945,-0.0031956978604016,0.0223716303520633,0.0010646508437165
0.482999999999997,-0.013849187614575,0.0213052341790947,0.0031956978604016
0.4864999999999995,-0.0213052341790947,0.029827676916583,0.0
0.4899999999999949,-0.0245026773687483,0.0245026773687483,0.002131047016685
0.4934999999999974,-0.0223716303520633,0.013849187614575,0.0053267448770866
0.4969999999999999,-0.0127827914416064,0.0031956978604016,0.0042603487041181
0.5004999999999953,0.0149138384582915,-0.0127827914416064,0.0063913957208032
0.5039999999999978,0.0287630260728665,-0.0127827914416064,0.0042603487041181
0.5075000000000003,0.0458079115478431,-0.0191759324916617,-0.0010646508437165
0.5109999999999957,0.0436768645311581,-0.01598023463126,0.0
0.5144999999999982,0.041545817514473,-0.0127827914416064,-0.002131047016685
0.5180000000000007,0.0340897709499532,-0.0010646508437165,-0.0063913957208032
0.5214999999999961,0.0223716303520633,0.0095870935812048,-0.0085224427374883
0.5249999999999986,0.01598023463126,0.0181095363186931,-0.0117181405978899
0.5285000000000011,0.0074577918937717,0.0191759324916617,-0.0063913957208032
0.5319999999999965,-0.002131047016685,0.0127827914416064,-0.0042603487041181
0.535499999999999,-0.0053267448770866,0.0010646508437165,-0.002131047016685
0.5389999999999944,-0.0053267448770866,-0.0063913957208032,-0.0042603487041181
0.5424999999999969,-1.4350583375164553e-18,-0.0117181405978899,-0.0053267448770866
0.5459999999999994,0.0063913957208032,-0.0117181405978899,-0.0074577918937717
0.5494999999999948,0.0181095363186931,-0.0053267448770866,0.0
0.5529999999999973,0.0266319790561814,0.0053267448770866,0.0
0.5564999999999998,0.029827676916583,0.0181095363186931,0.0042603487041181
0.5599999999999952,0.0308940730895516,0.029827676916583,0.0
0.5634999999999977,0.02769837522915,0.0426122136874415,-0.0063913957208032
0.5670000000000002,0.0266319790561814,0.0490036094082447,-0.0117181405978899
0.5704999999999956,0.0245026773687483,0.0447432607041266,-0.0095870935812048
0.5739999999999981,0.013849187614575,0.0394165158270399,-0.0085224427374883
0.5775000000000006,-0.002131047016685,0.0372854688103548,-0.0117181405978899
0.580999999999996,-0.0074577918937717,0.0362208179666383,-0.0085224427374883
0.5844999999999985,-0.0202405833353782,0.0340897709499532,-0.0085224427374883
0.588000000000001,-0.0266319790561814,0.029827676916583,-0.0042603487041181
0.5914999999999964,-0.0245026773687483,0.02769837522915,0.0053267448770866
0.5949999999999989,-0.0287630260728665,0.0202405833353782,0.0063913957208032
0.5984999999999943,-0.029827676916583,0.013849187614575,0.0010646508437165
0.6019999999999968,-0.0362208179666383,0.0127827914416064,0.0010646508437165
0.6054999999999993,-0.0372854688103548,0.0149138384582915,-0.0010646508437165
0.6089999999999947,-0.0394165158270399,0.01598023463126,0.0
0.6124999999999972,-0.0340897709499532,0.01598023463126,-0.002131047016685
0.6159999999999997,-0.0245026773687483,0.0213052341790947,0.0
0.619499999999995,-0.0074577918937717,0.0181095363186931,0.002131047016685
0.6229999999999976,0.0031956978604016,0.0117181405978899,0.0010646508437165
0.6265000000000001,0.0191759324916617,0.0031956978604016,0.0053267448770866
0.6299999999999955,0.0202405833353782,-2.4787565594546217e-18,0.0074577918937717
0.633499999999998,0.0266319790561814,-0.0085224427374883,0.013849187614575
0.6370000000000005,0.0245026773687483,-0.0031956978604016,0.0149138384582915
0.6404999999999959,0.0287630260728665,0.0031956978604016,0.0127827914416064
0.6439999999999984,0.0330233747769847,0.013849187614575,0.0127827914416064
0.6475000000000009,0.0458079115478431,0.0308940730895516,0.0149138384582915
0.6509999999999962,0.0458079115478431,0.0447432607041266,0.0127827914416064
0.6544999999999987,0.0468725623915597,0.055395005129048,0.0074577918937717
0.6580000000000013,0.0383501196540714,0.0660484948832214,0.0042603487041181
0.6614999999999966,0.0362208179666383,0.0777666354811113,0.0063913957208032
0.6649999999999991,0.0330233747769847,0.0745709376207097,0.0095870935812048
0.6684999999999945,0.041545817514473,0.0745709376207097,0.0031956978604016
0.671999999999997,0.041545817514473,0.0703088435873395,0.0042603487041181
0.6754999999999995,0.0500682602519613,0.0671131457269379,-0.002131047016685
0.6789999999999949,0.0628527970228198,0.0724398906040246,-0.0042603487041181
0.6824999999999974,0.0767019846373948,0.069244192743623,-0.0074577918937717
0.6859999999999999,0.0884201252352847,0.0607217500061347,-0.0095870935812048
0.6894999999999953,0.1118564064310646,0.057526052145733,-0.0031956978604016
0.6929999999999978,0.1289012919060412,0.0490036094082447,-0.0063913957208032
0.6965000000000003,0.1544686201185061,0.0458079115478431,-0.0042603487041181
0.6999999999999957,0.1811005991746876,0.0479389585645282,-0.0063913957208032
0.7034999999999982,0.2141239739516723,0.0383501196540713,-0.0042603487041181
0.7070000000000007,0.2322352555996175,0.0362208179666382,-0.0170448854749766
0.7104999999999961,0.260998281672484,0.0351544217936697,-0.0255673282124649
0.7139999999999986,0.2801724688348938,0.0340897709499532,-0.0340897709499532
0.7175000000000011,0.302544099186957,0.0362208179666382,-0.0351544217936697
0.7209999999999965,0.314262239784847,0.0330233747769846,-0.029827676916583
0.724499999999999,0.3217200316786187,0.0287630260728665,-0.0213052341790947
0.7279999999999944,0.3323735214327921,0.0340897709499532,-0.013849187614575
0.7314999999999969,0.3472873598910836,0.0351544217936697,-0.0063913957208032
0.7349999999999994,0.3600701513326901,0.0372854688103548,-0.0117181405978899
0.7384999999999948,0.3813771308410369,0.0351544217936697,-0.0127827914416064
0.7419999999999973,0.3920288752659583,0.0319587239332681,-0.0074577918937717
0.7454999999999998,0.4037470158638482,0.0276983752291499,0.0
0.7489999999999952,0.4080091098972184,0.0319587239332681,0.0
0.7524999999999977,0.4080091098972184,0.0287630260728665,0.0053267448770866
0.7560000000000002,0.397355620143045,0.01598023463126,0.013849187614575
0.7594999999999956,0.3909642244222418,-0.0063913957208032,0.0191759324916617
0.7629999999999981,0.38350643252847,-0.0223716303520633,0.0149138384582915
0.7665000000000006,0.3685925940701784,-0.0404811666707565,0.0042603487041181
0.769999999999996,0.3643322453660603,-0.0543303542853315,-0.0010646508437165
0.7734999999999985,0.3483520107348002,-0.0745709376207097,-0.0095870935812048
0.777000000000001,0.3430252658577135,-0.083093380358198,-0.01598023463126
0.7804999999999964,0.3174579376452486,-0.0958761717998045,-0.0191759324916617
0.7839999999999989,0.2908259585890671,-0.1182478021518678,-0.0170448854749766
0.7874999999999943,0.2237128128621291,-0.1470108282247344,-0.01598023463126
0.7909999999999968,0.1597953649955928,-0.1842962970350892,-0.0202405833353782
0.7944999999999993,0.0149138384582915,-0.2578025838120824,-0.02769837522915
0.7979999999999947,-0.0926804739394029,-0.3014794483432405,-0.0234362811957798
0.8014999999999972,-0.2087989744038376,-0.355809802628572,-0.0223716303520633
0.8049999999999997,-0.3163932868015321,-0.397355620143045,-0.0340897709499532
0.8084999999999951,-0.4399678338304866,-0.4420988808471716,-0.0575260521457331
0.8119999999999976,-0.5273215628928029,-0.4687308599033531,-0.0735062867769931
0.8155000000000001,-0.6093502924072844,-0.494298188115818,-0.0980072188164895
0.8189999999999955,-0.6594185526592458,-0.494298188115818,-0.1150521042914662
0.822499999999998,-0.7052264642070889,-0.496429235132503,-0.1331616406101593
0.8260000000000005,-0.7414472821737272,-0.4953628389595345,-0.1438151303643327
0.8294999999999959,-0.792580193269405,-0.4953628389595345,-0.1555332709622227
0.8329999999999984,-0.8437148496943349,-0.496429235132503,-0.1587289688226243
0.8365000000000009,-0.8927184591025797,-0.5038852816970228,-0.1629910628559944
0.8399999999999963,-0.915090089454643,-0.4985585368199361,-0.1640557136997109
0.8434999999999988,-0.940657417667108,-0.5006895838366212,-0.1736428072809158
0.8469999999999942,-0.9577023031420846,-0.5092120265741095,-0.177904901314286
0.8504999999999967,-0.9651583497066044,-0.5198655163282829,-0.1811005991746876
0.8539999999999992,-0.9694204437399746,-0.5283879590657712,-0.1821652500184041
0.8574999999999946,-0.968355792896258,-0.5433017975240627,-0.1768385051413174
0.8609999999999971,-0.964093698862888,-0.5539552872782362,-0.1715135055934827
0.8644999999999996,-0.9534402091087144,-0.5678027295635591,-0.1608600158393093
0.867999999999995,-0.9417220685108244,-0.5859140112115043,-0.1480754790684509
0.8714999999999975,-0.9236125321921314,-0.6061545945468826,-0.1299659427497577
0.875,-0.9097633445775564,-0.6317219227593475,-0.1139874534477496
0.8784999999999954,-0.8810003185046898,-0.6562228547988438,-0.1001382658331746
0.8819999999999979,-0.8639554330297131,-0.6743323911175371,-0.0852244273748831
0.8855000000000004,-0.8309320582527284,-0.6988350684862854,-0.0649838440395048
0.8889999999999958,-0.8021690321798619,-0.7180110009779471,-0.0490036094082447
0.8924999999999983,-0.7531654227716171,-0.7339894902799552,-0.0181095363186931
0.8960000000000008,-0.7094885582404591,-0.7361205372966403,0.0053267448770866
0.8994999999999962,-0.638113318480151,-0.7361205372966403,0.0372854688103548
0.9029999999999988,-0.5773915684740162,-0.7244023966987504,0.0607217500061347
0.9065000000000012,-0.4793843496575266,-0.7009661155029705,0.0894847760790012
0.9099999999999966,-0.3930952714389269,-0.670072042413419,0.1129210572747811
0.9134999999999992,-0.2737810731140905,-0.6189373859884891,0.136357338470561
0.9169999999999944,-0.1747092034538844,-0.5784562193177326,0.1470108282247343
0.920499999999997,-0.0458079115478432,-0.5049499325407395,0.1629910628559944
0.9239999999999996,0.0543303542853314,-0.4431635316908882,0.1768385051413174
0.9274999999999948,0.1842962970350891,-0.3547434064556034,0.1842962970350892
0.9309999999999974,0.2716500260974053,-0.2791078179911772,0.1906876927558924
0.9345,0.3813771308410369,-0.1811005991746876,0.1949497867892626
0.9379999999999952,0.4516859744283765,-0.094811520956088,0.1981454846496642
0.9414999999999978,0.533712958613606,0.0213052341790947,0.1960144376329791
0.9450000000000004,0.5763251723010476,0.1107900102580959,0.1906876927558924
0.9484999999999956,0.616806338971804,0.2258421145495621,0.1832316461913727
0.9519999999999982,0.6317219227593476,0.3121311927681618,0.1864273440517743
0.9555000000000008,0.6370469223071823,0.4122694586013365,0.180035948330971
0.958999999999996,0.6295908757426626,0.4889714432387312,0.1736428072809158
0.9624999999999986,0.6082838962343159,0.5784562193177325,0.1608600158393093
0.9660000000000012,0.5805872663344178,0.6381133184801507,0.1534022239455376
0.9694999999999964,0.5401060996636613,0.7062911150508052,0.1352926876268444
0.972999999999999,0.5028206308533065,0.7467722817215617,0.124639197872671
0.9764999999999944,0.4420988808471718,0.7851241467048852,0.1065296615539778
0.9799999999999968,0.3920288752659584,0.8085604279006651,0.0990718696602061
0.9834999999999994,0.3174579376452487,0.8330613599401614,0.0862890782185996
0.9869999999999948,0.2578025838120825,0.8447812458673034,0.0745709376207097
0.9904999999999972,0.1789695521580026,0.8426501988506182,0.0649838440395048
0.9939999999999998,0.1193124529955844,0.8373234539735316,0.0596570991624181
0.9974999999999952,0.0458079115478432,0.820278568498555,0.0447432607041266
1.0009999999999977,-0.0031956978604015,0.7979069381464917,0.0458079115478431
1.0045000000000002,-0.0607217500061346,0.7638171671965385,0.0404811666707564
1.0079999999999956,-0.0937468701123713,0.7318584432632703,0.0308940730895516
1.011499999999998,-0.1171831513081512,0.6785944851509074,0.02769837522915
1.0150000000000006,-0.1320969897664427,0.6359822714634658,0.0255673282124649
1.018499999999996,-0.1203788491685528,0.5720648235969293,0.0223716303520633
1.0219999999999985,-0.1107900102580959,0.5187991201553145,0.0181095363186931
1.025500000000001,-0.0777666354811112,0.4570127193054631,0.0085224427374883
1.0289999999999964,-0.0447432607041265,0.41120480775762,-0.0042603487041181
1.0324999999999989,-0.0010646508437164,0.3387649171535954,-0.02769837522915
1.0359999999999945,0.0330233747769847,0.2812388650078622,-0.041545817514473
1.0394999999999968,0.0745709376207097,0.205601531214184,-0.0649838440395048
1.0429999999999993,0.1065296615539779,0.1438151303643327,-0.0809623333415129
1.0464999999999949,0.1480754790684509,0.0617864008498512,-0.1033339636935762
1.0499999999999972,0.1747092034538843,0.0010646508437165,-0.1182478021518678
1.0534999999999997,0.1970790884766957,-0.0767019846373948,-0.1342280367831279
1.056999999999995,0.2066679273871525,-0.1278348957330727,-0.1470108282247343
1.0604999999999976,0.2109282760912706,-0.1992101354933808,-0.1619246666830259
1.064,0.2045368803704674,-0.247149094057909,-0.1725781564371993
1.0674999999999957,0.1864273440517742,-0.3089354949077603,-0.1864273440517743
1.070999999999998,0.1715135055934827,-0.3483520107348002,-0.1906876927558924
1.0745000000000005,0.138488385487246,-0.4016177141764152,-0.1949497867892626
1.077999999999996,0.1150521042914661,-0.4367721359700849,-0.1949497867892626
1.0814999999999984,0.0798976824977963,-0.4793843496575265,-0.1874919948954908
1.0850000000000009,0.0564614013020164,-0.4985585368199362,-0.1811005991746876
1.0884999999999962,0.0234362811957797,-0.5209301671719996,-0.1629910628559944
1.0919999999999987,-6.496962652738333e-17,-0.5305172607532044,-0.150206526085136
1.0955000000000013,-0.0287630260728666,-0.5347793547865746,-0.1310323389227262
1.0989999999999966,-0.0468725623915597,-0.5305172607532044,-0.1139874534477496
1.1024999999999991,-0.0596570991624182,-0.5251905158761178,-0.0841580312019145
1.1059999999999943,-0.0692441927436231,-0.519865516328283,-0.0607217500061347
1.109499999999997,-0.0724398906040247,-0.5070809795574245,-0.0351544217936697
1.1129999999999995,-0.0735062867769932,-0.4996249329929048,-0.0181095363186931
1.116499999999995,-0.069244192743623,-0.4825800475179281,0.0117181405978899
1.1199999999999974,-0.0660484948832214,-0.4655351620429515,0.0245026773687483
1.1235,-0.0596570991624182,-0.4431635316908882,0.0479389585645282
1.1269999999999951,-0.0543303542853315,-0.4293143440763132,0.0639174478665363
1.1304999999999978,-0.0458079115478432,-0.4144005056180216,0.0841580312019145
1.1340000000000003,-0.0490036094082448,-0.4069427137242498,0.0948115209560879
1.1374999999999955,-0.0543303542853315,-0.3962909692993285,0.1086607085706629
1.1409999999999982,-0.0617864008498513,-0.3845728287014385,0.1129210572747811
1.1445000000000007,-0.0756355884644263,-0.3707236410868635,0.1171831513081512
1.147999999999996,-0.0905494269227178,-0.355809802628572,0.1139874534477496
1.1514999999999986,-0.1129210572747811,-0.3387649171535954,0.1118564064310645
1.1550000000000011,-0.1320969897664428,-0.3185243338182171,0.1075943123976944
1.1584999999999963,-0.1534022239455376,-0.2876302607286655,0.0948115209560879
1.161999999999999,-0.1715135055934828,-0.2620629325162006,0.0820287295144815
1.1654999999999944,-0.1906876927558924,-0.2141239739516723,0.0639174478665363
1.168999999999997,-0.2002765316663493,-0.1736428072809158,0.0479389585645282
1.1724999999999994,-0.2066679273871526,-0.1161167551351827,0.0330233747769847
1.1759999999999948,-0.2130593231079557,-0.0767019846373947,0.0202405833353782
1.179499999999997,-0.2098636252475541,-0.0149138384582915,0.0063913957208032
1.1829999999999998,-0.2024058333537824,0.0234362811957798,0.0010646508437165
1.1864999999999952,-0.191754088928861,0.0809623333415129,-0.0074577918937717
1.1899999999999975,-0.1779049013142859,0.1267702448893561,-0.0095870935812048
1.1935000000000002,-0.1565979218059392,0.1811005991746876,-0.0149138384582915
1.1969999999999956,-0.1310323389227262,0.2205171150017276,-0.0149138384582915
1.200499999999998,-0.0958761717998044,0.2716500260974054,-0.0085224427374883
1.2040000000000006,-0.0692441927436229,0.316393286801532,-0.0042603487041181
1.207499999999996,-0.0266319790561814,0.3707236410868635,0.0010646508437165
1.2109999999999983,0.0085224427374883,0.4090737607409349,0.0074577918937717
1.214500000000001,0.0628527970228198,0.4591437663221482,0.0202405833353782
1.2179999999999964,0.1001382658331747,0.4911024902554164,0.0340897709499532
1.221499999999999,0.1565979218059393,0.5273215628928027,0.0521993072686464
1.2249999999999943,0.2002765316663493,0.5433017975240628,0.0596570991624181
1.2284999999999968,0.258867234655799,0.5528888911052677,0.0660484948832214
1.231999999999999,0.2993484013265555,0.5528888911052677,0.0681795418999064
1.2354999999999947,0.355809802628572,0.5433017975240628,0.0649838440395048
1.2389999999999972,0.4005513180034467,0.5305172607532044,0.055395005129048
1.2424999999999995,0.4527506252720931,0.5017542346803379,0.0351544217936697
1.2459999999999951,0.4964292351325032,0.4708619069200381,0.0213052341790947
1.2494999999999976,0.5486285424011496,0.4303807402492816,-0.0074577918937717
1.253,0.5859140112115044,0.3909642244222417,-0.0308940730895516
1.2564999999999955,0.6370469223071823,0.3376985209806268,-0.0681795418999064
1.259999999999998,0.6732677402738206,0.2982837504828388,-0.0916158230956863
1.2635000000000003,0.7190756518216638,0.2450180470412238,-0.124639197872671
1.266999999999996,0.7435765838611602,0.2151903701246407,-0.1512729222581045
1.2704999999999984,0.767014610386192,0.1672514115601125,-0.1853609478788057
1.274000000000001,0.7787327509840819,0.1352926876268443,-0.2077325782308691
1.2774999999999963,0.7787327509840819,0.0916158230956862,-0.2364956043037356
1.2809999999999988,0.767014610386192,0.0607217500061346,-0.258867234655799
1.2844999999999942,0.7361205372966404,0.0266319790561813,-0.2791078179911772
1.2879999999999967,0.7052264642070888,-8.636533320652168e-17,-0.2801724688348938
1.2914999999999992,0.6477004120613556,-0.0149138384582916,-0.2844345628682639
1.2949999999999946,0.6018925005135125,-0.0213052341790948,-0.2759121201307756
1.298499999999997,0.5251905158761178,-0.02769837522915,-0.2503447919183106
1.3019999999999996,0.4591437663221482,-0.0330233747769847,-0.2226464166891606
1.305499999999995,0.3632658491930918,-0.0330233747769847,-0.205601531214184
1.3089999999999975,0.2908259585890671,-0.0181095363186932,-0.1981454846496642
1.3125,0.1842962970350892,-2.2569787025873186e-17,-0.1821652500184041
1.3159999999999954,0.1001382658331746,-1.2263400672476409e-17,-0.1619246666830259
1.319499999999998,-0.01598023463126,0.0223716303520633,-0.1459461773810178
1.3230000000000004,-0.0894847760790012,0.0458079115478431,-0.1342280367831279
1.3264999999999958,-0.1821652500184041,0.0500682602519613,-0.1416840833476476
1.3299999999999983,-0.2375620004767041,0.0521993072686464,-0.1512729222581045
1.3335000000000008,-0.2972173543098703,0.0564614013020165,-0.177904901314286
1.3369999999999962,-0.3227846825223353,0.0500682602519613,-0.2034722295267509
1.3404999999999987,-0.3313071252598236,0.0340897709499532,-0.2396913021641372
1.3440000000000012,-0.3089354949077603,0.0223716303520633,-0.2716500260974054
1.3474999999999966,-0.2514094427620272,-0.0031956978604015,-0.3131975889411305
1.350999999999999,-0.1864273440517743,-0.0266319790561814,-0.3398295679973119
1.3544999999999945,-0.0724398906040246,-0.0671131457269379,-0.3675279432264619
1.357999999999997,0.0308940730895516,-0.0958761717998045,-0.3867021303888716
1.3614999999999997,0.1789695521580025,-0.1193124529955843,-0.4016177141764152
1.3649999999999949,0.2908259585890671,-0.1331616406101594,-0.4154651564617382
1.3684999999999974,0.43890318298677,-0.1448797812080493,-0.4218582975117934
1.372,0.5443664483677794,-0.1629910628559945,-0.4261186462159115
1.3754999999999953,0.6636806466926157,-0.1768385051413175,-0.425053995372195
1.3789999999999978,0.7350541411236718,-0.1853609478788058,-0.4261186462159115
1.3825000000000005,0.8032336830235783,-0.2024058333537825,-0.4293143440763132
1.3859999999999957,0.8351924069568466,-0.203472229526751,-0.4261186462159115
1.3894999999999982,0.8373234539735316,-0.1960144376329792,-0.4303807402492817
1.393000000000001,0.8256053133756417,-0.1715135055934828,-0.4335764381096833
1.396499999999996,0.7797974018277984,-0.1214435000122695,-0.4367721359700849
1.3999999999999986,0.7286627454028686,-0.0692441927436231,-0.4357057397971164
1.403500000000001,0.6370469223071823,0.004260348704118,-0.4101401569139035
1.4069999999999965,0.5507578440885826,0.0639174478665362,-0.3707236410868635
1.410499999999999,0.4261186462159115,0.1608600158393093,-0.3281114273994219
1.4139999999999944,0.3259803803827369,0.235430953460019,-0.2908259585890671
1.4174999999999969,0.1949497867892626,0.3291760782431385,-0.2290395577392158
1.4209999999999994,0.096942567972773,0.3856374795451551,-0.1693824585767977
1.4244999999999948,-0.0191759324916616,0.4378367868138015,-0.0894847760790012
1.4279999999999973,-0.0926804739394028,0.4570127193054631,-0.02769837522915
1.4314999999999998,-0.1715135055934827,0.4665998128866681,0.0404811666707564
1.4349999999999952,-0.2087989744038375,0.4538170214450616,0.0841580312019145
1.4384999999999977,-0.2290395577392158,0.4293143440763132,0.1225098961852379
1.4420000000000002,-0.221581765845444,0.4080091098972184,0.1427504795206162
1.4454999999999956,-0.180035948330971,0.369657244913895,0.1704471094205142
1.448999999999998,-0.1342280367831278,0.3345028231202252,0.1853609478788057
1.4525000000000006,-0.0543303542853314,0.2801724688348938,0.205601531214184
1.455999999999996,0.0149138384582915,0.2386266513204207,0.2215817658454441
1.4594999999999985,0.1054650107102613,0.1725781564371993,0.2364956043037356
1.463000000000001,0.1736428072809158,0.1320969897664428,0.2450180470412239
1.4664999999999964,0.2535404897787122,0.0681795418999064,0.2546051406224288
1.4699999999999989,0.3014794483432405,0.0383501196540713,0.2705853752536888
1.4734999999999945,0.3430252658577135,0.0149138384582915,0.2833681666952953
1.4769999999999968,0.3600701513326901,0.0106534897541733,0.2940216564494687
1.4804999999999993,0.3600701513326901,0.029827676916583,0.3036087500306735
1.4839999999999949,0.3430252658577135,0.0500682602519612,0.3121311927681619
1.4874999999999972,0.2961527034661538,0.085224427374883,0.3249157295390203
1.4909999999999997,0.2418223491808223,0.1203788491685528,0.3408942188410284
1.494499999999995,0.1448797812080493,0.1811005991746876,0.3504830577514853
1.4979999999999976,0.0617864008498512,0.2269085107225308,0.3622011983493752
1.5015,-0.0681795418999064,0.2918906094327836,0.3707236410868635
1.5049999999999957,-0.1736428072809158,0.3430252658577135,0.38350643252847
1.508499999999998,-0.3068061932203271,0.3792460838243519,0.4080091098972184
1.5120000000000005,-0.3930952714389268,0.3888331774055568,0.4410324846742031
1.515499999999996,-0.4868403962220462,0.3888331774055568,0.4911024902554164
1.5189999999999984,-0.5262569120490862,0.3877685265618402,0.5315836569261729
1.5225000000000009,-0.5358440056302911,0.3824417816847535,0.5688691257365278
1.5259999999999962,-0.519865516328283,0.369657244913895,0.5880433128989375
1.5294999999999987,-0.452750625272093,0.3195889846619337,0.6072192453905992
1.5330000000000013,-0.3803107346680683,0.2546051406224288,0.6189373859884891
1.5364999999999966,-0.235430953460019,0.1342280367831279,0.6221330838488908
1.5399999999999991,-0.1086607085706629,0.0202405833353782,0.6136106411114024
1.5434999999999943,0.1075943123976944,-0.138488385487246,0.5901743599156226
1.546999999999997,0.2823035158515787,-0.2631275833599171,0.5646070317031576
1.5504999999999995,0.537975052646976,-0.4559463231324947,0.5369104018032596
1.553999999999995,0.7244023966987504,-0.6082838962343159,0.5187991201553145
1.5574999999999974,0.9598333501587696,-0.8128207766047832,0.503885281697023
1.561,1.1174959228084251,-0.9598333501587696,0.4932317919428495
1.5644999999999951,1.2868783813852227,-1.1473253450542606,0.4729912086074713
1.5679999999999978,1.3774295536371928,-1.262377449345727,0.4495549274116914
1.5715000000000003,1.4615875848391071,-1.3838209493579965,0.4186608543221398
1.5749999999999955,1.4903506109119735,-1.456260839962021,0.3920288752659583
1.5784999999999982,1.4999377044931783,-1.529767126739014,0.3600701513326901
1.5820000000000007,1.4860885168786038,-1.5659861993764006,0.3451563128743986
1.585499999999996,1.4530651421016187,-1.5819664340076605,0.3206536355056502
1.5889999999999986,1.415779673291264,-1.5659861993764006,0.3089354949077603
1.5925000000000011,1.3571889703018143,-1.4988730536494623,0.3036087500306735
1.5959999999999963,1.307118964720601,-1.4413470015037295,0.3227846825223353
1.599499999999999,1.2293523292394897,-1.363580366022618,0.3803107346680683
1.6029999999999944,1.1483899958979766,-1.3113810587539716,0.452750625272093
1.606499999999997,0.9992481206565572,-1.2378747719769785,0.5656734278761262
1.6099999999999994,0.8479769437277049,-1.21017814207708,0.6775280889779387
1.6134999999999948,0.6434400633572374,-1.1910022095854185,0.7712749590903102
1.616999999999997,0.3100018910807287,-1.0716880112605822,0.8405191518339332
1.6204999999999998,-0.0767019846373949,-0.8724778757672014,0.8533036886047917
1.6239999999999952,-0.3824417816847535,-0.7062911150508053,0.836258803129815
1.6274999999999975,-0.7680792612299085,-0.4484902765679748,0.8085604279006651
1.6310000000000002,-1.0184240531482192,-0.2918906094327835,0.7936465894423735
1.6344999999999956,-1.2655731472061282,-0.1597953649955926,0.7883198445652868
1.637999999999998,-1.395539089955886,-0.0969425679727728,0.7904508915819718
1.6415000000000006,-1.494610959616092,-0.0521993072686462,0.7723396099340267
1.644999999999996,-1.5169825899681555,-0.0394165158270397,0.7403808860007585
1.6484999999999983,-1.494610959616092,-0.0500682602519611,0.6711366932571355
1.652000000000001,-1.4445426993641308,-0.0671131457269377,0.6125459902676859
1.6554999999999964,-1.3497311784080428,-0.0905494269227176,0.5145387714511963
1.658999999999999,-1.2623774493457267,-0.1107900102580959,0.4346410889533998
1.6624999999999943,-1.1377365061438036,-0.1257055940456394,0.3078708440640437
1.6659999999999968,-1.0407956835002825,-0.1278348957330725,0.2013411825100658
1.669499999999999,-0.9204168343317296,-0.1161167551351826,0.0628527970228197
1.6729999999999947,-0.8415838026776498,-0.0969425679727729,-0.0308940730895516
1.6764999999999972,-0.7691439120736251,-0.0703088435873394,-0.1193124529955843
1.6799999999999995,-0.6903126257487973,-0.0245026773687483,-0.219450718828759
1.6834999999999951,-0.6402426201675839,0.0063913957208033,-0.288694911572382
1.6869999999999976,-0.5773915684740161,0.0319587239332682,-0.3504830577514853
1.6905,-0.5358440056302911,0.0266319790561815,-0.3941599222826434
1.6939999999999955,-0.4740576047804398,-0.0031956978604015,-0.4346410889533998
1.697499999999998,-0.4314453910929982,-0.0426122136874415,-0.4570127193054631
1.7010000000000003,-0.3824417816847534,-0.1225098961852379,-0.464468765869983
1.704499999999996,-0.341960615013997,-0.1928187397725775,-0.4506213235846599
1.7079999999999984,-0.2886949115723821,-0.3100018910807288,-0.41120480775762
1.711500000000001,-0.2418223491808223,-0.4122694586013365,-0.3728546881035486
1.7149999999999963,-0.161924666683026,-0.5709984274239609,-0.3153286359578155
1.7184999999999988,-0.080962333341513,-0.7116178599278921,-0.2695207244099723
1.7219999999999942,0.0468725623915596,-0.9076322975608712,-0.219450718828759
1.7254999999999967,0.1480754790684507,-1.0642319646960623,-0.1811005991746876
1.7289999999999992,0.2854992137119803,-1.2815516365081363,-0.1459461773810178
1.7324999999999946,0.3760503859639501,-1.4413470015037293,-0.1267702448893561
1.735999999999997,0.4676662090596364,-1.6437528348575114,-0.110790010258096
1.7394999999999996,0.4953628389595343,-1.769458428903151,-0.1118564064310645
1.742999999999995,0.4900360940824477,-1.897293324636224,-0.1331616406101593
1.7464999999999975,0.4463592295512896,-1.9516236789215555,-0.1640557136997109
1.75,0.3440916620306818,-1.9878444968881936,-0.2173214171413259
1.7534999999999954,0.2354309534600188,-1.9697332152402485,-0.2567361876391139
1.756999999999998,0.0532657034416147,-1.913273559267484,-0.3195889846619337
1.7605000000000004,-0.0980072188164898,-1.850420762244664,-0.3643322453660603
1.7639999999999958,-0.3270467765557056,-1.735368657953198,-0.4410324846742031
1.7674999999999983,-0.5038852816970232,-1.6341657412763066,-0.4974938859762197
1.7710000000000008,-0.7435765838611604,-1.490350610911974,-0.5795208701614492
1.7744999999999962,-0.9225478813484148,-1.3657114130393029,-0.6434400633572375
1.7779999999999987,-1.1356072044563708,-1.196328954462505,-0.7201403026653803
1.7815000000000012,-1.2762248916310497,-1.069558709573149,-0.7627525163528219
1.7849999999999966,-1.4370849074703589,-0.8991098548233827,-0.8053647300402634
1.788499999999999,-1.5297671267390138,-0.7808620526715148,-0.8266699642193582
1.7919999999999945,-1.6224476006784168,-0.6285244795696938,-0.84584589671102
1.795499999999997,-1.6693201630699763,-0.5230612141886845,-0.8522372924318231
1.7989999999999997,-1.7044745848636462,-0.3813771308410367,-0.8564993864651933
1.8024999999999949,-1.7108677259137015,-0.2716500260974052,-0.8554329902922247
1.8059999999999972,-1.6927564442657563,-0.1320969897664426,-0.8596950843255949
1.8095,-1.654406324611685,-0.0276983752291498,-0.8564993864651933
1.8129999999999955,-1.5745086421138883,0.1129210572747813,-0.861824386013028
1.8164999999999976,-1.4882195638952889,0.2183860679850426,-0.8575640373089098
1.8200000000000005,-1.3305552459163812,0.353678755611887,-0.8564993864651933
1.823499999999996,-1.1878065117250167,0.4527506252720932,-0.8554329902922247
1.8269999999999984,-0.9587669539858008,0.5678027295635594,-0.8501062454151381
1.830500000000001,-0.7648835633695068,0.6658099483800489,-0.8469105475547365
1.833999999999996,-0.4847093492053611,0.7840577505319167,-0.8394545009902167
1.8374999999999984,-0.2556715367953972,0.8554329902922247,-0.8330613599401614
1.841000000000001,0.0660484948832215,0.9385263706504228,-0.8277363603923268
1.8444999999999965,0.3078708440640438,0.9779428864774626,-0.8074957770569485
1.847999999999999,0.6274598287259776,1.0365335894669123,-0.7734060061069953
1.8514999999999944,0.8639554330297131,1.0823415010147557,-0.727598094559152
1.8549999999999969,1.1526520899313475,1.0919285945959605,-0.6338512244467807
1.8584999999999996,1.351862225424728,1.085537198875157,-0.5369104018032596
1.8619999999999948,1.5734439912701723,1.0610362668356603,-0.3952245731263599
1.8654999999999973,1.6991478399865598,1.0248154488690222,-0.2854992137119804
1.869,1.8110042464176244,0.9640936988628876,-0.1459461773810178
1.8724999999999952,1.839767272490491,0.9118943915942412,-0.0479389585645282
1.8759999999999977,1.8173973874676796,0.8245406625319249,0.0703088435873395
1.8795,1.7470867985510878,0.7563611206320184,0.1448797812080492
1.882999999999996,1.603271668186755,0.6508961099217571,0.2322352555996175
1.886499999999998,1.4562608399620207,0.567802729563559,0.288694911572382
1.8900000000000008,1.2229609335186866,0.4474238803950062,0.355809802628572
1.893499999999996,1.0248154488690224,0.357939104316005,0.3952245731263599
1.8969999999999985,0.7393162351570419,0.2322352555996174,0.4431635316908882
1.900500000000001,0.5241258650324012,0.1374237346435294,0.4729912086074713
1.9039999999999964,0.233299906443334,0.0138491876145749,0.5049499325407395
1.9074999999999989,0.0372854688103548,-0.0713752397603081,0.5273215628928027
1.9109999999999945,-0.1981454846496642,-0.1789695521580025,0.5550199381219528
1.9144999999999968,-0.3345028231202253,-0.2439533961975073,0.5667380787198427
1.9179999999999997,-0.4719265577637548,-0.3206536355056502,0.5880433128989375
1.9214999999999949,-0.5369104018032596,-0.3611348021764066,0.5965657556364258
1.9249999999999967,-0.6178727351447726,-0.4016177141764151,0.6040235475301975
1.9285,-0.697768672313317,-0.3994866671597299,0.6349176206197492
1.931999999999995,-0.8501062454151381,-0.332373521432792,0.6604849488322142
1.9354999999999976,-0.9640936988628878,-0.2514094427620271,0.6604849488322142
1.939,-1.0642319646960623,-0.1587289688226241,0.6583539018155291
1.9424999999999957,-1.0887328967355587,-0.1246391978726709,0.6391779693238674
1.945999999999998,-1.0567741728022906,-0.0894847760790011,0.6093502924072843
1.9495000000000005,-1.0152283552878176,-0.0767019846373946,0.586978662055221
1.952999999999996,-0.970485094583691,-0.0330233747769845,0.5678027295635593
1.9564999999999984,-0.956635906969116,0.0213052341790948,0.5422354013510943
1.9600000000000009,-0.9491798604045962,0.1331616406101594,0.464468765869983
1.963499999999996,-0.9353306727900212,0.2471490940579091,0.4058780628805333
1.9669999999999987,-0.8873917142254929,0.328111427399422,0.3536787556118869
1.9705000000000013,-0.8138871727777518,0.3504830577514854,0.3238510786953038
1.9739999999999969,-0.6690056462404504,0.3249157295390204,0.3057397970473587
1.9774999999999991,-0.5560845889656694,0.2695207244099724,0.2759121201307756
1.9809999999999943,-0.4207919013388249,0.1906876927558925,0.2151903701246408
1.984499999999997,-0.3408942188410284,0.1075943123976944,0.1544686201185061
1.9879999999999995,-0.2705853752536888,-0.0053267448770866,0.0713752397603081
1.991499999999995,-0.2482137449016255,-0.0862890782185996,0.0053267448770866
1.9949999999999972,-0.258867234655799,-0.1747092034538843,-0.0745709376207097
1.9985,-0.2823035158515788,-0.2311688594266489,-0.1214435000122694
2.001999999999996,-0.3345028231202253,-0.2854992137119804,-0.1672514115601126
2.005499999999998,-0.3707236410868636,-0.3249157295390203,-0.2002765316663493
2.0090000000000003,-0.4122694586013366,-0.3664615470534933,-0.233299906443334
2.012499999999996,-0.4293143440763132,-0.3845728287014385,-0.2535404897787122
2.0159999999999982,-0.4335764381096834,-0.39948666715973,-0.2854992137119804
2.0195000000000007,-0.4261186462159116,-0.3909642244222417,-0.3068061932203272
2.022999999999996,-0.3930952714389269,-0.3590055004889735,-0.3494166615785167
2.026499999999998,-0.3536787556118869,-0.3227846825223352,-0.3845728287014385
2.030000000000001,-0.2950880526224373,-0.2482137449016255,-0.4452945787075733
2.0334999999999965,-0.2396913021641372,-0.180035948330971,-0.4964292351325031
2.036999999999999,-0.1565979218059392,-0.0660484948832214,-0.5699337765802444
2.0404999999999944,-0.0948115209560879,0.0202405833353782,-0.6242641308655758
2.043999999999997,-0.0149138384582915,0.1310323389227262,-0.6924436727654824
2.0474999999999994,0.0394165158270399,0.2045368803704674,-0.7435765838611602
2.050999999999995,0.1022693128498597,0.2918906094327836,-0.8000379851631767
2.0544999999999973,0.1278348957330727,0.3515477085952018,-0.836258803129815
2.058,0.1438151303643328,0.4122694586013365,-0.8820667146776582
2.0614999999999952,0.1352926876268445,0.4474238803950063,-0.912959042437958
2.0649999999999977,0.0894847760790013,0.4985585368199362,-0.9534402091087144
2.0685,0.0287630260728666,0.5369104018032596,-0.9715514907566596
2.071999999999996,-0.0735062867769931,0.5539552872782363,-0.9853989330419826
2.075499999999998,-0.1704471094205141,0.5571509851386378,-0.9811385843378644
2.0790000000000006,-0.3206536355056502,0.5709984274239609,-0.9747471886170612
2.082499999999996,-0.4431635316908882,0.5741958706136145,-0.9662247458795729
2.0859999999999985,-0.6157416881280874,0.5837829641948195,-0.9417220685108244
2.089500000000001,-0.7382515843133253,0.6050881983739141,-0.9182857873150446
2.0929999999999964,-0.877804620644288,0.638113318480151,-0.8660864800463982
2.096499999999999,-0.9555712561253992,0.6615495996759309,-0.8192139176548384
2.0999999999999943,-1.016293006131534,0.6988350684862856,-0.7467722817215618
2.103499999999997,-1.0312068445898257,0.7318584432632704,-0.6924436727654824
2.1069999999999998,-1.002443818516959,0.7606214693361368,-0.6242641308655758
2.1104999999999947,-0.949179860404596,0.7851241467048853,-0.5624759846864725
2.113999999999997,-0.8437148496943346,0.8117561257610667,-0.4932317919428495
2.1175,-0.7318584432632702,0.831996709096445,-0.4474238803950063
2.120999999999995,-0.5709984274239608,0.8650218292026818,-0.3984202709867616
2.1244999999999976,-0.427183297059628,0.8927184591025796,-0.3600701513326901
2.128,-0.2066679273871524,0.9246771830358478,-0.3057397970473587
2.1314999999999955,-0.0276983752291498,0.9385263706504228,-0.2641939795328856
2.134999999999998,0.2162550209683575,0.9577023031420844,-0.1960144376329791
2.1385000000000005,0.3984202709867617,0.970485094583691,-0.136357338470561
2.141999999999996,0.6231994800218593,0.9790075373211792,-0.0340897709499532
2.1454999999999984,0.7595568184924203,0.9896610270753526,0.0447432607041266
2.149000000000001,0.8959141569629813,0.9949877719524391,0.1544686201185061
2.1524999999999963,0.9513109074212814,0.9917920740920376,0.2247774637058457
2.155999999999999,0.9587669539858013,0.9939213757794708,0.2961527034661538
2.159499999999994,0.9161547402983596,0.9864653292149508,0.3398295679973119
2.1629999999999967,0.7979069381464918,0.9853989330419824,0.38350643252847
2.166499999999999,0.6722030894301042,0.9811385843378644,0.4144005056180216
2.1699999999999946,0.4644687658699831,0.9811385843378644,0.452750625272093
2.173499999999997,0.2972173543098704,0.9694204437399744,0.4815136513449596
2.177,0.0585907029894497,0.9481134642316276,0.519865516328283
2.180499999999995,-0.1193124529955842,0.9342660219463046,0.5401060996636612
2.183999999999997,-0.3526141047681702,0.9140254386109264,0.5550199381219528
2.1875,-0.5166698184678813,0.899109854823383,0.5667380787198427
2.1909999999999954,-0.7233360005257818,0.887391714225493,0.5773915684740161
2.194499999999998,-0.8543683394485081,0.88526241253806,0.5784562193177326
2.1980000000000004,-1.014161959114849,0.8927184591025797,0.5741958706136145
2.201499999999996,-1.113235574104307,0.9161547402983596,0.5656734278761262
2.2049999999999983,-1.22189628267497,0.9875299800586675,0.5646070317031576
2.208500000000001,-1.2751602407873328,1.0514474279252042,0.5582156359823544
2.211999999999996,-1.2985965219831128,1.1356072044563708,0.5763251723010476
2.2154999999999987,-1.2879447775581914,1.2165695377978838,0.6082838962343158
2.219000000000001,-1.2400058189936631,1.3209681523351766,0.6551582039551274
2.2224999999999966,-1.1728926732667253,1.3902123450787995,0.6956393706258839
2.225999999999999,-1.0557095219585737,1.4818281681744858,0.7520990265986485
2.2294999999999945,-0.9459841625441944,1.548941313901424,0.8000379851631767
2.232999999999997,-0.7627525163528217,1.6309700434159051,0.8735442719401699
2.2364999999999995,-0.6125459902676856,1.6799736528241498,0.933199625773336
2.239999999999995,-0.3867021303888714,1.721519470338623,1.0035102146899275
2.2434999999999974,-0.2013411825100656,1.739630751986568,1.045056032204401
2.247,0.0617864008498514,1.7428264498469697,1.0706233604168656
2.2504999999999957,0.2620629325162008,1.719388423321938,1.065296615539779
2.253999999999998,0.525190515876118,1.65653737162837,1.0237507980253058
2.2575000000000003,0.7041618133633725,1.5862267827117784,0.9747471886170612
2.260999999999996,0.9065676467171548,1.475436772453682,0.8799356676609732
2.264499999999998,1.0248154488690226,1.4008658348329726,0.7968422873027752
2.2680000000000007,1.1238890638584806,1.3209681523351762,0.6775280889779387
2.271499999999996,1.153716740775064,1.2698334959102462,0.5816519171781342
2.2749999999999986,1.1505210429146624,1.2144384907811985,0.4420988808471717
2.278500000000001,1.106844178383504,1.192066860429135,0.3334381722765087
2.2819999999999965,1.0024438185169593,1.19419790744582,0.1821652500184041
2.285499999999999,0.8895227612421781,1.215503141624915,0.0681795418999064
2.2889999999999944,0.7148135577882938,1.2836826835248214,-0.0639174478665363
2.292499999999997,0.573129474440646,1.340144084826838,-0.150206526085136
2.296,0.3739193389472653,1.4200400219953824,-0.258867234655799
2.2994999999999948,0.2258421145495624,1.483959215191171,-0.3249157295390203
2.3029999999999973,0.0468725623915599,1.57770433997429,-0.4069427137242498
2.3065,-0.0777666354811111,1.658666673315803,-0.4474238803950063
2.309999999999995,-0.2151903701246406,1.7705230797468676,-0.4836446983616446
2.3134999999999977,-0.292957005605752,1.848289715227979,-0.480449000501243
2.317,-0.3600701513326899,1.9324494917591453,-0.4452945787075733
2.320499999999996,-0.3941599222826432,1.970799611413217,-0.3930952714389268
2.323999999999998,-0.4112048077576198,1.9867781007152248,-0.2982837504828389
2.327500000000001,-0.4175962034784231,1.9580150746423584,-0.219450718828759
2.330999999999996,-0.4325100419367145,1.860007855825869,-0.1033339636935762
2.3344999999999985,-0.4389031829867698,1.7534781942718909,-0.0287630260728665
2.338000000000001,-0.4580773701491795,1.5585301528118805,0.0447432607041266
2.3414999999999964,-0.4719265577637546,1.3880812980621142,0.0777666354811113
2.344999999999999,-0.4793843496575263,1.1356072044563703,0.1065296615539778
2.3484999999999943,-0.4676662090596365,0.9321349749296196,0.1171831513081512
2.3519999999999968,-0.4048134120368167,0.6647452975363323,0.110790010258096
2.3554999999999997,-0.3334381722765086,0.4804490005012431,0.0980072188164895
2.3589999999999947,-0.1885583910684593,0.2684543282370038,0.0671131457269379
2.362499999999997,-0.0521993072686464,0.1395530363309626,0.0330233747769847
2.366,0.1565979218059392,0.0053267448770866,-0.0149138384582915
2.369499999999995,0.3313071252598236,-0.0735062867769932,-0.0639174478665363
2.3729999999999976,0.5635423808594411,-0.1438151303643328,-0.1470108282247343
2.3765,0.7297291415758372,-0.1800359483309711,-0.2162550209683574
2.3799999999999955,0.9363953236337376,-0.1864273440517744,-0.3110665419244454
2.383499999999998,1.0706233604168656,-0.1651203645434276,-0.3749839897909817
2.3870000000000005,1.2229609335186866,-0.106529661553978,-0.4570127193054631
2.390499999999996,1.3124457095976878,-0.0362208179666384,-0.5092120265741096
2.3939999999999984,1.3966037407996024,0.061786400849851,-0.5773915684740161
2.397500000000001,1.4296288609058392,0.128901291906041,-0.6231994800218592
2.400999999999996,1.3923433920954844,0.2056015312141838,-0.6849858808717105
2.4044999999999987,1.3220328031788928,0.2471490940579088,-0.727598094559152
2.407999999999994,1.1718262770937566,0.265258630376602,-0.7584921676487036
2.4114999999999966,1.0461224283773694,0.237562000476704,-0.7627525163528219
2.414999999999999,0.8671511308901148,0.1534022239455375,-0.727598094559152
2.4184999999999945,0.7457076308778453,0.0543303542853313,-0.6807255321675924
2.421999999999997,0.616806338971804,-0.1118564064310646,-0.5816519171781342
2.4254999999999995,0.5486285424011496,-0.2673896773932873,-0.4847093492053612
2.428999999999995,0.5006895838366212,-0.5102766774178262,-0.3451563128743986
2.432499999999997,0.4900360940824478,-0.7084221620674904,-0.2226464166891606
2.436,0.5049499325407394,-0.9736807924440928,-0.0521993072686464
2.439499999999996,0.5283879590657712,-1.1707616262500404,0.0788312863248278
2.442999999999998,0.5614113338427558,-1.409388277570461,0.247149094057909
2.4465000000000003,0.595501104792709,-1.569181897236802,0.369657244913895
2.449999999999996,0.6466357612176389,-1.7588049391489775,0.5294526099094878
2.4534999999999982,0.6860505317154268,-1.8791837883175309,0.6370469223071823
2.4570000000000007,0.7286627454028684,-2.0187385699777454,0.7616878655091054
2.460499999999996,0.7680792612299083,-2.10289660117966,0.8405191518339332
2.463999999999998,0.8245406625319249,-2.188119283225291,0.905502995873438
2.467500000000001,0.8639554330297128,-2.257363475968914,0.9491798604045962
2.4709999999999965,0.9204168343317292,-2.354306043941687,0.970485094583691
2.474499999999999,0.9438531155275092,-2.421419189668625,0.9715514907566596
2.4779999999999944,0.9704850945836908,-2.5258195495351696,0.968355792896258
2.481499999999997,0.9800739334941476,-2.624891419195376,0.9662247458795729
2.4849999999999994,0.9747471886170608,-2.746334919207645,0.9513109074212812
2.488499999999995,0.9587669539858008,-2.836886091459615,0.9363953236337376
2.4919999999999973,0.9225478813484144,-2.950871799578113,0.9140254386109264
2.4955,0.8959141569629808,-3.0254427371988224,0.8735442719401699
2.4989999999999952,0.8501062454151377,-3.175651008613211,0.7989733343194602
2.5024999999999977,0.8011026360068928,-3.2619400868318102,0.7329248394362388
2.506,0.7190756518216633,-3.3343799774358347,0.6551582039551274
2.509499999999996,0.6455693650446701,-3.4089509150565447,0.6072192453905992
2.512999999999998,0.5337129586136056,-3.498435691135546,0.5635423808594411
2.5165000000000006,0.4527506252720926,-3.538916857806302,0.5241258650324012
2.519999999999996,0.3600701513326897,-3.6070946543769566,0.4868403962220463
2.5234999999999985,0.3174579376452481,-3.644380123187312,0.4282496932325966
2.527000000000001,0.3046751462036417,-3.651837915081084,0.3195889846619337
2.5304999999999964,0.3366338701369099,-3.663556055678973,0.2599318854995155
2.533999999999999,0.4154651564617377,-3.651837915081084,0.1896230419121759
2.5374999999999943,0.4900360940824474,-3.620943841991532,0.1427504795206162
2.540999999999997,0.5827165680218503,-3.5719402325832874,0.1043986145372928
2.5444999999999998,0.6402426201675835,-3.5176098782979555,0.0756355884644262
2.5479999999999947,0.6860505317154266,-3.451561383414734,-0.0010646508437165
2.551499999999997,0.7020307663466867,-3.412146612916946,-0.0511346564249298
2.555,0.7148135577882933,-3.3429024201733237,-0.1214435000122694
2.558499999999995,0.7233360005257815,-3.2970945086254804,-0.1757738542976009
2.5619999999999976,0.7318584432632699,-3.2321106645859747,-0.2460844432141925
2.5655,0.7286627454028681,-3.177780310300644,-0.3078708440640437
2.5689999999999955,0.7265316983861833,-3.086164487204957,-0.4186608543221398
2.572499999999998,0.7265316983861833,-3.015855643617618,-0.4974938859762197
2.5760000000000005,0.7169446048049783,-2.9199794718178134,-0.5976321518093943
2.579499999999996,0.7009661155029703,-2.841146440163733,-0.6604849488322142
2.5829999999999984,0.6732677402738203,-2.736747825626441,-0.7201403026653803
2.586500000000001,0.6338512244467803,-2.655785492284928,-0.7520990265986485
2.5899999999999963,0.5923054069323073,-2.5428644350101464,-0.7734060061069953
2.593499999999999,0.556084588965669,-2.4235502366853097,-0.7584921676487036
2.596999999999994,0.5518242402615509,-2.334065460606309,-0.7190756518216638
2.6004999999999967,0.5709984274239607,-2.2445806845273077,-0.6551582039551274
2.603999999999999,0.6242641308655755,-2.1284639293921246,-0.547562146228181
2.6074999999999946,0.6913772765925136,-2.0528265955984466,-0.4399678338304866
2.610999999999997,0.7787327509840817,-1.945232283200752,-0.2780431671474606
2.6145,0.8330613599401612,-1.8589432049821528,-0.1459461773810178
2.617999999999995,0.8650218292026814,-1.7641316840260644,0.0308940730895516
2.621499999999997,0.8362588031298148,-1.693822840438725,0.1565979218059392
2.625,0.7233360005257817,-1.6043380643597236,0.286565609884949
2.6284999999999954,0.5848476150385357,-1.5372231733035338,0.3547434064556034
2.631999999999998,0.3515477085952017,-1.4679789805599106,0.3994866671597301
2.6355000000000004,0.1576643179789076,-1.4370849074703589,0.4058780628805333
2.638999999999996,-0.0894847760790014,-1.4061925797100594,0.369657244913895
2.6424999999999983,-0.2524758389349958,-1.409388277570461,0.3153286359578155
2.646000000000001,-0.4133358547743053,-1.4189753711516655,0.2066679273871525
2.649499999999996,-0.4868403962220464,-1.432824558766241,0.1033339636935762
2.6529999999999987,-0.525190515876118,-1.460522933995391,-0.0468725623915597
2.656500000000001,-0.513472375278228,-1.4786324703140838,-0.1587289688226243
2.6599999999999966,-0.4676662090596368,-1.4892859600682575,-0.316393286801532
2.663499999999999,-0.4186608543221399,-1.4967420066327772,-0.4303807402492817
2.6669999999999945,-0.365396896209777,-1.4850238660348871,-0.5635423808594411
2.670499999999997,-0.3440916620306822,-1.460522933995391,-0.6466357612176391
2.6739999999999995,-0.3568744534722887,-1.402996881849658,-0.7169446048049787
2.677499999999995,-0.3941599222826435,-1.3358819907934678,-0.7510343757549319
2.6809999999999974,-0.4708619069200384,-1.2229609335186866,-0.7595568184924202
2.6845,-0.5347793547865747,-1.1164312719647087,-0.7414472821737271
2.6879999999999957,-0.6018925005135126,-0.9566359069691158,-0.6945729744529154
2.691499999999998,-0.6295908757426626,-0.8362588031298149,-0.6455693650446706
2.6950000000000003,-0.6221330838488909,-0.688181578732112,-0.5518242402615512
2.698499999999996,-0.5837829641948195,-0.5869786620552209,-0.4655351620429515
2.701999999999998,-0.5070809795574246,-0.4783179534845579,-0.3323735214327921
2.7055000000000007,-0.45062132358466,-0.427183297059628,-0.2311688594266489
2.708999999999996,-0.4069427137242499,-0.3760503859639502,-0.0873537290623162
2.7124999999999986,-0.4112048077576201,-0.3494166615785167,0.0063913957208032
2.716000000000001,-0.4879067923950148,-0.3153286359578154,0.110790010258096
2.7194999999999965,-0.6018925005135125,-0.2780431671474606,0.1693824585767977
2.722999999999999,-0.8074957770569485,-0.2226464166891605,0.2247774637058457
2.7264999999999944,-0.9811385843378644,-0.1725781564371992,0.2535404897787122
2.729999999999997,-1.2229609335186866,-0.0937468701123712,0.2769767709744921
2.7335,-1.3870166472183978,-0.0287630260728663,0.2940216564494687
2.7369999999999948,-1.5809000378346918,0.0745709376207099,0.314262239784847
2.7404999999999973,-1.6895607464053546,0.1661867607163962,0.3387649171535954
2.744,-1.774785173780238,0.3057397970473589,0.3760503859639502
2.747499999999995,-1.7992861058197342,0.4218582975117936,0.41120480775762
2.7509999999999977,-1.774785173780238,0.5848476150385361,0.4825800475179281
2.7545,-1.7161927254615363,0.7148135577882939,0.5518242402615512
2.757999999999996,-1.584095735695093,0.883131365521375,0.6551582039551274
2.761499999999998,-1.4551961891183038,1.012032657427416,0.7350541411236718
2.765000000000001,-1.2613110531727578,1.1867401155520485,0.8277363603923268
2.768499999999996,-1.0961906886293302,1.31990350149146,0.8799356676609732
2.7719999999999985,-0.8692821779067995,1.494610959616092,0.9140254386109264
2.775500000000001,-0.6988350684862853,1.614989808784645,0.9300039279129344
2.7789999999999964,-0.4964292351325029,1.772654126763553,0.9268082300525328
2.782499999999999,-0.3632658491930916,1.889837278071704,0.9108279954212728
2.7859999999999943,-0.2269085107225305,2.0219342678381467,0.8820667146776582
2.7894999999999968,-0.1470108282247341,2.1124836947608645,0.861824386013028
2.7929999999999997,-0.0681795418999062,2.2168823092981573,0.8213432193422715
2.7964999999999947,-0.022371630352063,2.275474757616859,0.7851241467048852
2.799999999999997,0.0287630260728668,2.321282669164702,0.7425119330174437
2.8035,0.0458079115478434,2.3159559242876155,0.7084221620674903
2.806999999999995,0.0362208179666386,2.260560919158568,0.6764634381342222
2.8104999999999976,-0.0266319790561812,2.197708122135748,0.6626142505196473
2.814,-0.198145484649664,2.105025902867093,0.6636806466926157
2.8174999999999955,-0.3877685265618399,2.048566246894328,0.6775280889779387
2.820999999999998,-0.6924436727654821,1.992104845592312,0.7062911150508053
2.8245000000000005,-0.9353306727900208,1.9707996114132167,0.7329248394362388
2.827999999999996,-1.25705070446864,1.9750599601173355,0.753165422771617
2.8314999999999984,-1.4882195638952886,1.9942358926089967,0.7638171671965385
2.835000000000001,-1.776914475467671,2.0368481062964383,0.7510343757549319
2.838499999999996,-1.9750599601173349,2.064544736196337,0.7318584432632703
2.8419999999999987,-2.21581765845444,2.0986345071462904,0.6956393706258839
2.845499999999994,-2.3660241845395764,2.1242018353587557,0.6583539018155291
2.8489999999999966,-2.526884200378886,2.163618351185795,0.614677037284371
2.852499999999999,-2.601455137999596,2.195577075119063,0.5880433128989375
2.8559999999999945,-2.621695721334974,2.237122892633536,0.5699337765802444
2.859499999999997,-2.569496414066328,2.272279059756458,0.5731294744406459
2.8629999999999995,-2.41183209608742,2.3276740648855063,0.5976321518093943
2.866499999999995,-2.242449637510622,2.3702862785729475,0.616806338971804
2.869999999999997,-1.9633418195194448,2.4384640751436018,0.6359822714634658
2.8735,-1.7172591216345046,2.505578966199792,0.6338512244467807
2.876999999999996,-1.3518622254247277,2.616368976457888,0.6210684330051742
2.880499999999998,-1.0375999856398808,2.712246893586944,0.5923054069323076
2.8840000000000003,-0.569933776580244,2.85073527907419,0.5294526099094878
2.887499999999996,-0.174709203453884,2.955133893611483,0.4740576047804398
2.8909999999999982,0.359005500488974,3.0371608777967127,0.3994866671597301
2.8945000000000007,0.7275980945591524,3.052076461584256,0.3568744534722885
2.897999999999996,1.0855371988751576,3.0574014611320908,0.3398295679973119
2.901499999999998,1.2112427929207972,3.101080070992501,0.3547434064556034
2.905000000000001,1.1675659283896391,3.243828805183865,0.4058780628805333
2.9084999999999965,0.9981834698128412,3.4334518470960407,0.4655351620429515
2.911999999999999,0.6615495996759312,3.787130602707928,0.5507578440885826
2.9154999999999944,0.3760503859639507,4.089674701894885,0.6114795940947174
2.918999999999997,0.0255673282124654,4.513664046423363,0.6807255321675924
2.9224999999999994,-0.1874919948954902,4.824728843018557,0.727598094559152
2.925999999999995,-0.386702130388871,5.185865390524215,0.7883198445652868
2.9294999999999973,-0.4687308599033525,5.420231693140518,0.8373234539735316
2.933,-0.4953628389595338,5.688686021377522,0.9161547402983594
2.9364999999999952,-0.4527506252720923,5.845283943183461,0.9790075373211792
2.9399999999999977,-0.3068061932203265,6.002948261162369,1.0546431257856057
2.9435,-0.129965942749757,6.0892373393809685,1.1004510373334488
2.946999999999996,0.1832316461913734,6.172330719739167,1.1217580168417955
2.950499999999998,0.4804490005012438,6.21387653725364,1.1132355741043072
2.9540000000000006,0.9342660219463054,6.2298567718849,1.0695587095731491
2.957499999999996,1.307118964720602,6.2117472355662064,0.9981834698128408
2.9609999999999985,1.8237887831884836,6.144632344510017,0.8586286881526264
2.964500000000001,2.2030348670128355,6.054082917587299,0.7201403026653803
2.9679999999999964,2.63554490894955,5.86978662055221,0.4996249329929048
2.971499999999999,2.858191325638711,5.702535208992097,0.3195889846619337
2.9749999999999943,2.9604606384885708,5.501194026482031,0.0607217500061347
2.978499999999997,2.8763026072866555,5.362703895665533,-0.138488385487246
2.9819999999999998,2.565234320032958,5.207170624703311,-0.4144005056180216
2.9854999999999947,2.2200780071585595,5.083596077674356,-0.6253287817092923
2.988999999999997,1.6863650485449535,4.8939747810914325,-0.9023072980130364
2.9925,1.2868783813852236,4.715003483604177,-1.095126037785614
2.995999999999995,0.8021690321798624,4.429504269892197,-1.324163850195578
2.9994999999999976,0.5102766774178267,4.184486222850973,-1.4626522356828238
3.003,0.2215817658454446,3.830807467239086,-1.6107294600805269
3.0064999999999955,0.0692441927436234,3.548503951387507,-1.695952142126158
3.009999999999998,-0.0372854688103544,3.1532793782611472,-1.7620006370093797
3.0135000000000005,-0.0639174478665359,2.842212836336702,-1.7801119186573249
3.016999999999996,-0.0351544217936694,2.4128967469311364,-1.7502824964114894
3.0204999999999984,0.0266319790561817,2.077329272967195,-1.6874296993886695
3.024000000000001,0.1800359483309712,1.6096630639075584,-1.5532034079347938
3.0274999999999963,0.3259803803827371,1.25705070446864,-1.4264331630454377
3.030999999999999,0.5411707505073778,0.8074957770569484,-1.24533256387075
3.034499999999994,0.6988350684862856,0.4889714432387312,-1.106844178383504
3.0379999999999967,0.8596950843255949,0.1193124529955842,-0.9225478813484148
3.041499999999999,0.928939277069218,-0.1225098961852381,-0.7851241467048852
3.0449999999999946,0.9097633445775564,-0.4399678338304867,-0.5539552872782363
3.048499999999997,0.8660864800463981,-0.5422354013510944,-0.464468765869983
3.052,0.7137489069445769,-0.6913772765925139,-0.2780431671474606
3.055499999999995,0.5763251723010475,-0.764883563369507,-0.1406194325039311
3.058999999999997,0.3568744534722884,-0.8341277561131301,0.0404811666707564
3.0625,0.1896230419121758,-0.8671511308901148,0.1629910628559944
3.0659999999999954,-0.03941651582704,-0.8905874120858945,0.3078708440640437
3.069499999999998,-0.2013411825100659,-0.9108279954212728,0.4037470158638482
3.0730000000000004,-0.3984202709867617,-0.928939277069218,0.5251905158761178
3.076499999999996,-0.5262569120490863,-0.9534402091087144,0.614677037284371
3.0799999999999983,-0.6391779693238675,-0.9981834698128408,0.7489033287382468
3.083500000000001,-0.6722030894301042,-1.043991381360684,0.8564993864651933
3.086999999999996,-0.6455693650446707,-1.1174959228084254,0.9939213757794708
3.0904999999999987,-0.570998427423961,-1.1888711625687334,1.0706233604168656
3.094000000000001,-0.390964224422242,-1.3188371053184913,1.1558477877917488
3.0974999999999966,-0.2045368803704676,-1.4317599079225245,1.1984582561499384
3.100999999999999,0.0745709376207095,-1.624578647695102,1.2229609335186866
3.1044999999999945,0.2876302607286653,-1.7918300592552143,1.2261566313790884
3.107999999999997,0.5464974953844642,-2.04004380415684,1.192066860429135
3.1114999999999995,0.7190756518216636,-2.2307314969127323,1.145194298037575
3.114999999999995,0.8735442719401696,-2.4949254764456184,1.051447427925204
3.1184999999999974,0.9427884646837926,-2.6962666589556843,0.9651583497066044
3.122,0.953440209108714,-2.9764391277905777,0.8298656620797599
3.1254999999999957,0.902307298013036,-3.198020893636022,0.7158799539612621
3.128999999999998,0.7787327509840815,-3.5048270868563494,0.5646070317031576
3.1325000000000003,0.6562228547988435,-3.7466494360371714,0.4602084171658648
3.135999999999996,0.4772533026408409,-4.063042722838703,0.3270467765557054
3.139499999999998,0.3504830577514848,-4.297407280125754,0.2237128128621291
3.1430000000000007,0.2098636252475536,-4.611669519910601,0.1001382658331746
3.146499999999996,0.1331616406101587,-4.836448728945698,0.0042603487041181
3.1499999999999986,0.0521993072686457,-5.101707359322301,-0.1214435000122694
3.153500000000001,0.0106534897541727,-5.281743307653272,-0.2162550209683574
3.1569999999999965,-0.0191759324916623,-5.500127630309063,-0.3313071252598236
3.160499999999999,-0.0159802346312607,-5.642878109829679,-0.4090737607409349
3.1639999999999944,0.0138491876145742,-5.807998474373106,-0.4857757453783297
3.167499999999997,0.0788312863248271,-5.920919531647887,-0.5358440056302911
3.171,0.19921013549338,-6.019993146637346,-0.6189373859884891
3.1744999999999948,0.3313071252598229,-6.055147568431015,-0.697768672313317
3.1779999999999973,0.5305172607532036,-6.037038032112322,-0.8245406625319252
3.1815,0.6871169278883947,-5.982707677826991,-0.9193504381587612
3.184999999999995,0.8873917142254922,-5.862328828658438,-1.051447427925204
3.1884999999999977,1.0099016104107303,-5.749407771383657,-1.1260183655459135
3.192,1.128149412562598,-5.587483104700631,-1.1803487198312452
3.195499999999996,1.1686305792333544,-5.444732625180015,-1.196328954462505
3.198999999999998,1.1782176728145597,-5.240195744809547,-1.1867401155520485
3.202500000000001,1.1547813916187797,-5.092120265741096,-1.157977089479182
3.205999999999996,1.1015174335064166,-4.9056929216893215,-1.0993863864897322
3.2094999999999985,1.0418603343439985,-4.778922676799965,-1.039729287327314
3.213000000000001,0.9608980010024856,-4.628714405385578,-0.9246771830358478
3.2164999999999964,0.8937848552755475,-4.5253804416920005,-0.8224096155152401
3.219999999999999,0.8043000791965463,-4.396480895115213,-0.6540918077821589
3.2234999999999943,0.7414472821737266,-4.306996119036211,-0.5145387714511963
3.2269999999999968,0.6722030894301035,-4.196204363448863,-0.3270467765557054
3.2304999999999997,0.6391779693238668,-4.11950412414072,-0.1970790884766957
3.2339999999999947,0.6317219227593471,-4.0332150459221205,-0.0287630260728665
3.237499999999997,0.6562228547988435,-3.969295852726332,0.0852244273748831
3.241,0.7158799539612617,-3.892595613418189,0.2205171150017275
3.244499999999995,0.7766017039673965,-3.831873863412054,0.3089354949077603
3.2479999999999976,0.8618243860130276,-3.757302925791345,0.4037470158638482
3.2515,0.9331996257733356,-3.6955147796122416,0.4612730680095813
3.2549999999999955,1.0333378916065104,-3.60603000353324,0.5124077244345112
3.258499999999998,1.1100398762439052,-3.544243602683389,0.5401060996636612
3.2620000000000005,1.2123074437645127,-3.463281269341876,0.5688691257365278
3.265499999999996,1.276224891631049,-3.4089509150565447,0.5773915684740161
3.2689999999999984,1.323099199351861,-3.337575675296237,0.5912390107593392
3.272500000000001,1.327359548055979,-3.283245321010905,0.5955011047927092
3.275999999999996,1.2527886104352692,-3.203347638513109,0.6157416881280875
3.2794999999999987,1.168630579233355,-3.1277120500486824,0.6338512244467807
3.282999999999994,1.013097308271132,-3.028638435059224,0.6562228547988439
3.2864999999999966,0.8895227612421777,-2.9466114508739945,0.670072042413419
3.289999999999999,0.7233360005257816,-2.830494695738812,0.6956393706258839
3.2934999999999945,0.6178727351447723,-2.7452702683639285,0.7286627454028686
3.296999999999997,0.4847093492053608,-2.624891419195376,0.7659482142132235
3.3004999999999995,0.4005513180034463,-2.5407333879934613,0.7979069381464917
3.303999999999995,0.2865656098849487,-2.428876981562397,0.8181475214818699
3.307499999999997,0.1970790884766954,-2.354306043941687,0.8160182197944368
3.311,0.0553950051290477,-2.2658859187064024,0.7851241467048852
3.314499999999996,-0.0713752397603083,-2.201968470839866,0.7393162351570419
3.317999999999998,-0.2737810731140908,-2.11461474177755,0.6508961099217573
3.3215000000000003,-0.4378367868138018,-2.048566246894328,0.5720648235969293
3.324999999999996,-0.6626142505196475,-1.9644082156924136,0.4516859744283765
3.3284999999999982,-0.8192139176548386,-1.894097626775822,0.3622011983493752
3.3320000000000007,-0.9992481206565575,-1.8088749447301908,0.2418223491808223
3.335499999999996,-1.112169177931339,-1.7374997049698828,0.1470108282247343
3.338999999999998,-1.2176341886416002,-1.6362967882929915,0.0170448854749766
3.342500000000001,-1.2719645429269315,-1.5563991057951951,-0.0852244273748831
3.3459999999999965,-1.3103146625810032,-1.429628860905839,-0.2301042085829324
3.349499999999999,-1.3028586160164837,-1.330555245916381,-0.3345028231202252
3.3529999999999944,-1.2538550066082383,-1.180348719831245,-0.4591437663221482
3.356499999999997,-1.195262558289537,-1.0557095219585737,-0.5347793547865746
3.3599999999999994,-1.097255339473047,-0.8788692714880045,-0.605088198373914
3.363499999999995,-1.0258800997127389,-0.7382515843133253,-0.6327865736030641
3.3669999999999973,-0.9491798604045965,-0.5582156359823542,-0.6253287817092923
3.3705,-0.9140254386109264,-0.4207919013388247,-0.600827849669796
3.3739999999999952,-0.8746089227838865,-0.2482137449016254,-0.5273215628928027
3.3774999999999977,-0.8586286881526264,-0.126770244889356,-0.4474238803950063
3.381,-0.8277363603923268,0.0223716303520634,-0.3036087500306735
3.384499999999996,-0.8053647300402634,0.1331616406101594,-0.1832316461913727
3.387999999999998,-0.7829930996882002,0.2620629325162007,-0.0063913957208032
3.3915000000000006,-0.7659482142132235,0.3451563128743987,0.1342280367831279
3.394999999999996,-0.7520990265986485,0.4431635316908883,0.3345028231202252
3.3984999999999985,-0.7478386778945302,0.5070809795574246,0.4825800475179281
3.402000000000001,-0.7542300736153335,0.5720648235969295,0.697768672313317
3.4054999999999964,-0.7702103082465935,0.610414943251001,0.8671511308901148
3.408999999999999,-0.808560427900665,0.6594185526592458,1.0844725480314406
3.4124999999999943,-0.8511726415881065,0.6892479749050808,1.2378747719769785
3.415999999999997,-0.9385263706504228,0.721206698838349,1.4008658348329728
3.4194999999999998,-1.0248154488690224,0.7489033287382469,1.498873053649462
3.4229999999999947,-1.1622391835125518,0.8011026360068934,1.5915535275888653
3.426499999999997,-1.2708998920832149,0.8447812458673035,1.6288389963992198
3.43,-1.407257230553776,0.9023072980130368,1.6554709754554016
3.433499999999995,-1.501004100666147,0.9481134642316278,1.6469485327179132
3.4369999999999976,-1.6043380643597234,1.019488703991936,1.6075337622201251
3.4405,-1.6661244652095746,1.0780811523106375,1.5478766630577072
3.4439999999999955,-1.7236505173553078,1.1728926732667255,1.439215954487044
3.447499999999998,-1.739630751986568,1.2613110531727585,1.338013037810153
3.4510000000000005,-1.7247151681990245,1.3976701369725713,1.1910022095854185
3.454499999999996,-1.6799736528241496,1.5052644493702658,1.0748854544502358
3.4579999999999984,-1.579835386990975,1.6544063246116851,0.9108279954212728
3.461500000000001,-1.4796971211578005,1.7747851737802385,0.7883198445652868
3.4649999999999963,-1.328425944228948,1.9345787934465788,0.6253287817092923
3.468499999999999,-1.2037850010270248,2.0560222934588483,0.5017542346803379
3.471999999999994,-1.0386646364835972,2.219013356314843,0.3345028231202252
3.4754999999999967,-0.9172211364713276,2.345783601204199,0.2183860679850424
3.478999999999999,-0.7638171671965381,2.5077082678872245,0.0852244273748831
3.4824999999999946,-0.6402426201675836,2.619564674318289,0.0031956978604016
3.485999999999997,-0.4868403962220459,2.7697712004034254,-0.069244192743623
3.4895,-0.3792460838243515,2.878431908974088,-0.0980072188164895
3.492999999999995,-0.2546051406224284,3.0243780863551057,-0.1203788491685528
3.496499999999997,-0.1821652500184037,3.1522129820881784,-0.138488385487246
3.5,-0.0884201252352843,3.336509279123268,-0.1704471094205142
3.5034999999999954,-0.0106534897541729,3.465410571029309,-0.1874919948954908
3.506999999999998,0.1225098961852384,3.599638607812437,-0.2013411825100658
3.5105000000000004,0.2599318854995159,3.66462070652269,-0.1874919948954908
3.513999999999996,0.4836446983616451,3.685927686031037,-0.1352926876268444
3.5174999999999983,0.6775280889779391,3.653968962097768,-0.0788312863248278
3.521000000000001,0.9513109074212818,3.5357211599459006,0.0202405833353782
3.524499999999996,1.137736506143804,3.40681986803986,0.1118564064310645
3.5279999999999987,1.3145767566143731,3.200151940652707,0.2578025838120824
3.531500000000001,1.3625139698496498,3.0467497167071693,0.3845728287014385
3.5349999999999966,1.313510360441405,2.89760784146575,0.5699337765802444
3.538499999999999,1.181415116004214,2.841146440163733,0.7062911150508053
3.5419999999999945,0.92041683433173,2.820905856828355,0.8831313655213747
3.545499999999997,0.6817901830113092,2.860322372655395,0.9971170736398725
3.5489999999999995,0.3515477085952022,2.9444804038573094,1.1270847617188822
3.552499999999995,0.1022693128498601,3.0179866906343027,1.2091117459041116
3.5559999999999974,-0.2034722295267505,3.114927513277824,1.2783559386477348
3.5595,-0.4101401569139031,3.2022829876693923,1.3156414074580896
3.5629999999999957,-0.6658099483800484,3.34822916505041,1.3305552459163812
3.566499999999998,-0.8362588031298146,3.474999409939766,1.3220328031788928
3.5700000000000003,-1.0333378916065104,3.691254430908124,1.314576756614373
3.573499999999996,-1.15478139161878,3.8851378215244177,1.3039232668601997
3.576999999999998,-1.2602464023290412,4.147200754040618,1.2623774493457267
3.5805000000000007,-1.3071189647206007,4.346410889533999,1.2027203501833084
3.583999999999996,-1.2964672202956793,4.59675568145231,1.0759501052939522
3.5874999999999986,-1.2421368660103478,4.767204536202075,0.944917766371226
3.591000000000001,-1.0855371988751563,4.967479322539172,0.7499697249112154
3.5944999999999965,-0.9140254386109256,5.084662473847325,0.5976321518093943
3.597999999999999,-0.6072192453905986,5.190125739228334,0.4101401569139035
3.6014999999999944,-0.331307125259823,5.248718187547035,0.2833681666952953
3.604999999999997,0.0767019846373954,5.296655400782312,0.1427504795206162
3.6085,0.4165315526347074,5.314766682430256,0.0479389585645282
3.6119999999999943,0.8767399698005722,5.331811567905233,-0.0735062867769931
3.615499999999997,1.218698839485317,5.339267614469754,-0.1683160624038291
3.619,1.6522752775950007,5.335007265765635,-0.2993484013265554
3.622499999999995,1.9452322832007527,5.3094399375531705,-0.397355620143045
3.6259999999999977,2.28719289821475,5.259371677301209,-0.5092120265741096
3.6295,2.504512570026823,5.213563765753365,-0.5816519171781342
3.632999999999996,2.737812476470158,5.165624807188838,-0.6413090163405525
3.636499999999998,2.864582721359514,5.136861781115971,-0.6626142505196473
3.640000000000001,2.9647209871926887,5.115556546936876,-0.6562228547988439
3.643499999999996,2.9849615705280663,5.113425499920191,-0.644504714200954
3.6469999999999994,2.928501914555302,5.114490150763907,-0.626395177882261
3.650500000000001,2.816645508124237,5.113425499920191,-0.6242641308655758
3.653999999999997,2.5556472264517534,5.097445265288931,-0.6381133184801508
3.657499999999999,2.283997200354348,5.064421890511946,-0.6562228547988439
3.660999999999994,1.8301801789092864,4.973870718259977,-0.6817901830113089
3.6644999999999968,1.4445426993641317,4.876929895616455,-0.6998997193300021
3.6679999999999993,0.9055029958734386,4.692633598581367,-0.6924436727654824
3.671499999999994,0.4974938859762202,4.509401952389994,-0.6679409953967339
3.674999999999997,-0.0117181405978894,4.223902738678013,-0.602958896686481
3.6785,-0.3419606150139965,3.981013993324222,-0.5305172607532044
3.681999999999995,-0.7062911150508049,3.6166834932874137,-0.397355620143045
3.6854999999999976,-0.8980452039796659,3.312008347083772,-0.2812388650078622
3.689,-1.059969870662692,2.868844815392884,-0.1161167551351827
3.692499999999996,-1.1100398762439054,2.5002522213227047,0.0031956978604016
3.695999999999998,-1.1196269698251102,1.9729306584299025,0.1619246666830259
3.699500000000001,-1.0802104539980704,1.553203407934794,0.2801724688348938
3.702999999999996,-1.0109662612544472,1.1270847617188824,0.3909642244222418
3.7064999999999984,-0.8703468287505162,0.5560845889656695,0.5422354013510943
3.710000000000001,-0.6998997193300021,0.0404811666707565,0.6828548338550254
3.713499999999996,-0.561411333842756,-0.3025440991869569,0.7734060061069953
3.716999999999999,-0.4271832970596281,-0.6018925005135125,0.8490415945714216
3.720499999999994,-0.2737810731140906,-0.9502445112483128,0.9236125321921312
3.7239999999999966,-0.1651203645434276,-1.2346790741165767,0.9694204437399744
3.727499999999999,-0.1235745470289547,-1.4221710690120672,0.9758118394607777
3.7309999999999945,-0.1235745470289547,-1.6469485327179132,0.9672893967232892
3.734499999999997,-0.1619246666830261,-1.7960904079593327,0.9438531155275096
3.738,-0.2226464166891608,-1.933514142602862,0.9150900894546428
3.741499999999995,-0.3142622397848473,-2.0975698563025733,0.8586286881526264
3.744999999999997,-0.4080091098972186,-2.231797893085701,0.7702103082465936
3.7485,-0.4761869064678732,-2.323411970852136,0.6828548338550254
3.7519999999999953,-0.5433017975240632,-2.41609419012079,0.5923054069323076
3.755499999999998,-0.6370469223071826,-2.552451528591351,0.4591437663221482
3.759,-0.7339894902799556,-2.7175718931347785,0.3259803803827369
3.762499999999996,-0.797906938146492,-2.868844815392884,0.2258421145495622
3.7659999999999982,-0.8618243860130284,-3.040356575657114,0.1352926876268444
3.7695000000000007,-0.92787288089625,-3.280049623150503,0.0266319790561814
3.772999999999996,-0.9608980010024866,-3.468606268889711,-0.0532657034416149
3.776499999999999,-0.9608980010024866,-3.7210821078247065,-0.1470108282247343
3.780000000000001,-0.930003927912935,-3.909640498893166,-0.2226464166891606
3.783499999999997,-0.8362588031298156,-4.148265404884334,-0.3131975889411305
3.786999999999999,-0.7254670475424676,-4.309125420723644,-0.3749839897909817
3.7904999999999935,-0.5251905158761183,-4.478507879300442,-0.4442281825346047
3.793999999999997,-0.3345028231202258,-4.564796957519042,-0.4729912086074713
3.7975,-0.0490036094082453,-4.631910103245979,-0.480449000501243
3.800999999999995,0.1842962970350886,-4.645759290860553,-0.4697955107470696
3.804499999999997,0.4847093492053606,-4.642563593000153,-0.4293143440763132
3.808,0.6828548338550249,-4.626585103698145,-0.3984202709867616
3.8114999999999952,0.8746089227838859,-4.574385796429499,-0.3749839897909817
3.8149999999999977,0.957702303142084,-4.508337301546277,-0.3717882919305801
3.8185,1.0162930061315336,-4.4050033378527,-0.3611348021764067
3.821999999999996,1.0429249851877151,-4.3261703061986205,-0.341960615013997
3.825499999999998,1.0663630117127472,-4.214313899767556,-0.302544099186957
3.8290000000000006,1.0866035950481252,-4.107784238213578,-0.2439533961975074
3.832499999999996,1.098321735646015,-4.031083998905436,-0.2024058333537824
3.8359999999999994,1.103648480523102,-3.9756889937763873,-0.1747092034538843
3.839500000000001,1.10790882922722,-3.925618988195174,-0.1640557136997109
3.842999999999997,1.1111045270876216,-3.912836196753567,-0.1928187397725775
3.846499999999999,1.1398675531604885,-3.909640498893166,-0.2673896773932873
3.8499999999999934,1.1824797668479297,-3.9234879411784886,-0.3345028231202252
3.853499999999997,1.2847473343685376,-3.957577712128442,-0.4548816722887781
3.8569999999999993,1.3784942044809088,-4.001256321988852,-0.5539552872782363
3.8604999999999943,1.5020687515098634,-4.072629816419909,-0.6945729744529154
3.863999999999997,1.597944923309668,-4.144005056180216,-0.8011026360068932
3.8675,1.7023452831762127,-4.262252858332085,-0.942788464683793
3.870999999999995,1.754544590444859,-4.3815670566569205,-1.045056032204401
3.8744999999999976,1.7875679652218437,-4.578646145133616,-1.16649953221667
3.878,1.7833076165177255,-4.743768255006296,-1.2368101211332618
3.881499999999996,1.7630670331823473,-4.965348275522488,-1.2975318711393966
3.884999999999998,1.7374997049698824,-5.12194794265768,-1.3188371053184913
3.888500000000001,1.6916917934220392,-5.303048541832367,-1.3113810587539714
3.891999999999996,1.6490795797345974,-5.427687739705038,-1.2879447775581916
3.8954999999999984,1.5691818972368012,-5.557653682454795,-1.2346790741165767
3.899000000000001,1.4839592151911702,-5.629028922215104,-1.1846108138646152
3.902499999999996,1.3262948972122623,-5.691881719237923,-1.111104527087622
3.905999999999999,1.1707616262500398,-5.709991255556616,-1.0663630117127476
3.909499999999994,0.9438531155275088,-5.7089266047129,-1.0056395163773606
3.9129999999999967,0.781928448844483,-5.7089266047129,-0.9417220685108244
3.916499999999999,0.5752605214573304,-5.69294637008164,-0.8405191518339332
3.9199999999999946,0.4463592295512891,-5.642878109829679,-0.7638171671965385
3.923499999999997,0.3142622397848463,-5.544870891013189,-0.6658099483800488
3.927,0.2332999064433333,-5.453255067917503,-0.5955011047927092
3.930499999999995,0.1683160624038285,-5.312635635413572,-0.5102766774178261
3.9339999999999975,0.1289012919060405,-5.185865390524215,-0.4580773701491797
3.9375,0.100138265833174,-5.001569093489127,-0.3898978282492732
3.9409999999999954,0.0980072188164889,-4.859885010141478,-0.3494166615785167
3.944499999999998,0.1075943123976938,-4.672393015245987,-0.2972173543098703
3.948,0.1246391978726705,-4.540296025479544,-0.2567361876391139
3.951499999999996,0.1587289688226237,-4.376240311779834,-0.1960144376329791
3.9549999999999983,0.1864273440517737,-4.252665764750879,-0.1416840833476476
3.958500000000001,0.2215817658454436,-4.079021212140711,-0.055395005129048
3.961999999999996,0.2439533961975069,-3.919227592474371,0.013849187614575
3.965499999999999,0.2609982816724836,-3.681665591997666,0.1171831513081512
3.969000000000001,0.2641939795328852,-3.4845865035209704,0.2002765316663493
3.9724999999999966,0.2588672346557986,-3.2012165914964235,0.3174579376452486
3.975999999999999,0.2354309534600187,-2.982832268840633,0.4101401569139035
3.9794999999999945,0.1704471094205139,-2.658981190145329,0.5347793547865746
3.982999999999997,0.0980072188164892,-2.4054407003666167,0.6231994800218592
3.9865,-0.0276983752291502,-2.065611132369305,0.7318584432632703
3.989999999999995,-0.1363573384705612,-1.8046128506968209,0.7915155424256883
3.993499999999997,-0.2854992137119806,-1.460522933995391,0.8426501988506182
3.997,-0.3888331774055569,-1.2069806988874263,0.8575640373089098
4.000499999999995,-0.4964292351325032,-0.8767399698005715,0.8554329902922247
4.003999999999998,-0.545432844540748,-0.6370469223071822,0.8330613599401614
4.0075,-0.5688691257365278,-0.3355692192931937,0.7702103082465936
4.010999999999996,-0.5496931932448661,-0.1214435000122693,0.7030954171904037
4.014499999999998,-0.4857757453783297,0.1395530363309626,0.5955011047927092
4.018000000000001,-0.4144005056180216,0.312131192768162,0.4953628389595346
4.021499999999996,-0.2940216564494687,0.508147375730393,0.3504830577514853
4.024999999999999,-0.193883390616294,0.6210684330051742,0.2386266513204207
4.028500000000001,-0.0681795418999064,0.7393162351570419,0.0894847760790012
4.0319999999999965,0.0138491876145751,0.7979069381464917,-0.0191759324916617
4.035499999999999,0.0905494269227179,0.8426501988506182,-0.152337573101821
4.038999999999994,0.122509896185238,0.84584589671102,-0.2407576983371057
4.042499999999997,0.122509896185238,0.8224096155152401,-0.3302424744161071
4.045999999999999,0.0905494269227179,0.7947112402860901,-0.3749839897909817
4.049499999999995,0.0159802346312601,0.7478386778945303,-0.4080091098972184
4.052999999999997,-0.0617864008498511,0.709488558240459,-0.4069427137242498
4.0565,-0.180035948330971,0.6807255321675924,-0.3717882919305801
4.059999999999995,-0.2759121201307755,0.6711366932571355,-0.3195889846619337
4.063499999999998,-0.4154651564617381,0.6807255321675924,-0.219450718828759
4.067,-0.5145387714511962,0.7030954171904038,-0.1182478021518678
4.070499999999996,-0.6562228547988438,0.7595568184924203,0.0308940730895516
4.073999999999998,-0.7563611206320185,0.8085604279006652,0.1459461773810178
4.077500000000001,-0.8948495061192645,0.8927184591025797,0.2908259585890671
4.080999999999996,-0.9992481206565572,0.9608980010024862,0.3824417816847534
4.084499999999999,-1.1462589488812915,1.0652966155397792,0.4729912086074713
4.088000000000001,-1.249592912574868,1.1494546467416935,0.5262569120490862
4.091499999999996,-1.360384668162216,1.2730291937706482,0.5848476150385359
4.094999999999999,-1.4125839754308624,1.3603846681622165,0.6178727351447726
4.098499999999994,-1.438151303643327,1.4871549130515729,0.6498314590780407
4.101999999999997,-1.422171069012067,1.578770736147259,0.6668763445530174
4.105499999999999,-1.352926876268444,1.6874296993886695,0.6849858808717105
4.108999999999995,-1.2740955899436162,1.7492178455677732,0.6913772765925138
4.112499999999997,-1.1558477877917486,1.8120706425905928,0.7062911150508053
4.116,-1.0748854544502355,1.846160413540546,0.7190756518216638
4.119499999999995,-0.9800739334941476,1.897293324636224,0.7371851881403569
4.1229999999999976,-0.9225478813484144,1.928187397725776,0.7478386778945303
4.1265,-0.8735442719401697,1.9654728665361303,0.7648835633695069
4.129999999999996,-0.8469105475547363,1.9889091477319103,0.7627525163528219
4.133499999999998,-0.8245406625319249,2.0134118251006585,0.753165422771617
4.1370000000000005,-0.8117561257610664,2.04004380415684,0.7393162351570419
4.140499999999996,-0.7840577505319164,2.093307762269203,0.7169446048049787
4.143999999999998,-0.7563611206320184,2.14976916357122,0.7084221620674903
4.147500000000001,-0.6956393706258837,2.241384986666906,0.7009661155029706
4.150999999999996,-0.6540918077821586,2.320216272991734,0.7030954171904037
4.154499999999999,-0.5965657556364254,2.4128967469311364,0.7041618133633722
4.157999999999994,-0.5635423808594408,2.476815940126925,0.7116178599278921
4.161499999999997,-0.5337129586136057,2.5545825756080367,0.6998997193300021
4.164999999999999,-0.5251905158761174,2.612108627753769,0.683921230027994
4.1684999999999945,-0.5411707505073774,2.686679565374479,0.6572875056425604
4.171999999999997,-0.5688691257365275,2.7484659662243307,0.6253287817092923
4.1755,-0.6210684330051739,2.8294282995658437,0.5752605214573311
4.178999999999995,-0.6753987872905053,2.88588970086786,0.5326483077698895
4.182499999999997,-0.7680792612299082,2.96046063848857,0.480449000501243
4.186,-0.8447812458673031,3.0115952949135,0.43890318298677
4.189499999999995,-0.9566359069691156,3.0765773936237526,0.3930952714389268
4.192999999999998,-1.0429249851877151,3.123449956015312,0.355809802628572
4.1965,-1.1313451104229997,3.1894984508985336,0.3068061932203272
4.199999999999996,-1.1835444176916463,3.2385020603067787,0.2737810731140905
4.203499999999998,-1.2080470950603943,3.323726487681661,0.2183860679850424
4.207000000000001,-1.1995246523229064,3.405753471866891,0.1832316461913727
4.210499999999996,-1.172892673266725,3.551699649247909,0.1406194325039311
4.213999999999999,-1.1302804595792837,3.6656871026956575,0.1150521042914662
4.217500000000001,-1.0631655685230934,3.8254807223619993,0.1054650107102613
4.2209999999999965,-1.003510214689927,3.9394681758097487,0.1139874534477496
4.224499999999999,-0.8937848552755476,4.074760863436594,0.1587289688226243
4.227999999999994,-0.7947112402860895,4.171703431409366,0.2077325782308691
4.231499999999997,-0.6381133184801503,4.310191816896612,0.2950880526224372
4.234999999999999,-0.5081473757303925,4.417786129294306,0.3611348021764067
4.238499999999995,-0.3270467765557048,4.537100327619143,0.4570127193054631
4.241999999999997,-0.1874919948954903,4.602082426329396,0.5209301671719996
4.2455,-0.003195697860401,4.664935223352216,0.6093502924072843
4.248999999999995,0.1225098961852385,4.691567202408398,0.6785944851509074
4.252499999999998,0.2844345628682644,4.705416390022973,0.7787327509840819
4.256,0.3930952714389274,4.699024994302169,0.8831313655213747
4.259499999999996,0.5134723752782283,4.703285343006288,1.0503827770814873
4.262999999999998,0.5805872663344183,4.732048369079154,1.1888711625687334
4.266500000000001,0.6306555265863796,4.828990937051927,1.369971761743421
4.269999999999996,0.6381133184801514,4.953630134924597,1.4882195638952889
4.273499999999999,0.5944364539489934,5.159233411468034,1.5926181784325817
4.277000000000001,0.5326483077698901,5.339267614469754,1.6224476006784168
4.280499999999996,0.4005513180034473,5.587483104700631,1.596880272465952
4.283999999999999,0.2886949115723827,5.762190562825263,1.5382895694765022
4.287499999999994,0.1257055940456403,5.93263941757503,1.4264331630454377
4.290999999999997,0.0170448854749773,6.023188844497747,1.3369483869664365
4.294499999999999,-0.1001382658331739,6.0913683863976535,1.203785001027025
4.297999999999995,-0.1619246666830251,6.096693385945488,1.0983217356460158
4.301499999999997,-0.1896230419121751,6.074323500922676,0.9513109074212812
4.305,-0.1757738542976001,6.024253495341464,0.8277363603923268
4.308499999999995,-0.0926804739394021,5.898549646625076,0.6636806466926157
4.311999999999998,0.0149138384582922,5.749407771383657,0.5347793547865746
4.3155,0.2130593231079564,5.468168906375794,0.3590055004889736
4.318999999999996,0.3930952714389275,5.206105973859593,0.2226464166891606
4.322499999999998,0.6498314590780413,4.837513379789415,0.0521993072686464
4.3260000000000005,0.8501062454151387,4.559470212641955,-0.0628527970228197
4.329499999999996,1.121758016841796,4.198335410465548,-0.1981454846496642
4.332999999999998,1.3103146625810034,3.95438201426804,-0.2812388650078622
4.336500000000001,1.5084601472306676,3.637988727466509,-0.3824417816847534
4.339999999999996,1.5862267827117789,3.4291914983919227,-0.4474238803950063
4.343499999999999,1.5734439912701723,3.172453565423557,-0.5134723752782278
4.346999999999994,1.4605229339953911,2.994550409438523,-0.5454328445407479
4.350499999999997,1.1920668604291351,2.7687065495597087,-0.5454328445407479
4.353999999999999,0.92041683433173,2.6067818828766827,-0.5145387714511963
4.357499999999995,0.4942981881158184,2.403309653349932,-0.4367721359700849
4.360999999999997,0.1406194325039314,2.262690220846,-0.3568744534722885
4.3645,-0.3291760782431382,2.1018302050066917,-0.2386266513204207
4.367999999999995,-0.6551582039551271,2.0070186840506032,-0.1459461773810178
4.3714999999999975,-1.028011146729424,1.909011465234114,-0.0170448854749766
4.375,-1.2410704698373796,1.8440293665238607,0.0745709376207097
4.378499999999995,-1.4125839754308624,1.760935986165663,0.2077325782308691
4.381999999999998,-1.4530651421016187,1.682104699840835,0.3078708440640437
4.3855,-1.3699717617434208,1.5553327096222271,0.4623394641825499
4.388999999999996,-1.2165695377978831,1.4530651421016192,0.5848476150385359
4.392499999999998,-0.909763344577556,1.306054313876885,0.7446429800341288
4.396000000000001,-0.6072192453905991,1.1899375587417018,0.863955433029713
4.399499999999996,-0.1320969897664426,1.0333378916065108,1.007770563394046
4.402999999999999,0.245018047041224,0.903371948856753,1.0897992929085274
4.406499999999994,0.7531654227716171,0.715879953961262,1.167565928389639
4.409999999999997,1.0961906886293304,0.5539552872782362,1.1941979074458202
4.413499999999999,1.4818281681744856,0.2918906094327835,1.1931332566021038
4.4169999999999945,1.6906253972490712,0.0671131457269377,1.1686305792333551
4.420499999999997,1.8610742519988372,-0.2631275833599173,1.1100398762439057
4.424,1.9079468143903973,-0.5315836569261732,1.0471870792210858
4.427499999999995,1.8589432049821524,-0.910827995421273,0.940657417667108
4.430999999999997,1.7609359861656626,-1.1984582561499386,0.8277363603923268
4.4345,1.550007710074392,-1.5958156216222354,0.6519625060947258
4.437999999999995,1.3337526891060345,-1.888770881898736,0.5006895838366213
4.441499999999998,0.994987771952439,-2.2967799917959537,0.2876302607286655
4.445,0.7105532090841752,-2.602519788843313,0.1374237346435295
4.448499999999996,0.3281114273994215,-3.0020064560030426,-0.0500682602519613
4.451999999999998,0.0575260521457327,-3.287505669715023,-0.180035948330971
4.455500000000001,-0.262062932516201,-3.6486422172206816,-0.3440916620306821
4.458999999999996,-0.4474238803950068,-3.911769800580599,-0.4634041150262664
4.462499999999999,-0.6029588966864815,-4.255861462611281,-0.6114795940947174
4.466000000000001,-0.6508961099217578,-4.5168597442837655,-0.7105532090841755
4.4694999999999965,-0.613610641111403,-4.846035822526903,-0.8043000791965469
4.472999999999999,-0.5326483077698901,-5.054834796930741,-0.8586286881526264
4.476499999999994,-0.3590055004889743,-5.294526099094878,-0.8916538082588631
4.479999999999997,-0.1917540889288616,-5.443667974336298,-0.8980452039796664
4.483499999999999,0.0703088435873389,-5.601330546985953,-0.889522761242178
4.486999999999995,0.2705853752536881,-5.6865549743608375,-0.8799356676609732
4.490499999999997,0.5092120265741089,-5.769648354719035,-0.8724778757672014
4.494,0.6626142505196466,-5.798411380791901,-0.8714132249234848
4.497499999999995,0.8170828706381527,-5.803738125668988,-0.8522372924318231
4.500999999999998,0.8991098548233822,-5.770713005562751,-0.8426501988506182
4.5045,0.9577023031420838,-5.739820677802451,-0.847976943727705
4.507999999999996,0.9630290480191706,-5.69720846411501,-0.7968422873027752
4.511499999999998,0.9385263706504222,-5.562980427331882,-0.6924436727654824
4.515000000000001,0.9033719488567524,-5.479887046973684,-0.6072192453905992
4.518499999999996,0.8490415945714209,-5.406382505525943,-0.5070809795574245
4.521999999999999,0.8053647300402628,-5.338202963626037,-0.43890318298677
4.525500000000001,0.7499697249112147,-5.242326791826232,-0.3675279432264619
4.528999999999996,0.7137489069445764,-5.178409343959696,-0.3334381722765087
4.532499999999999,0.6711366932571349,-5.098511661461899,-0.300413052170272
4.535999999999994,0.6445047142009533,-5.030332119561993,-0.2812388650078622
4.539499999999997,0.6189373859884886,-4.93338955158922,-0.2439533961975074
4.542999999999999,0.6029588966864804,-4.8641453588455965,-0.2077325782308691
4.546499999999995,0.5827165680218502,-4.773595931922879,-0.1534022239455376
4.549999999999997,0.5592802868260704,-4.71074313490006,-0.1171831513081512
4.5535,0.5273215628928022,-4.645759290860553,-0.0820287295144815
4.556999999999995,0.5124077244345107,-4.619127311804372,-0.0575260521457331
4.5604999999999976,0.5081473757303925,-4.6084738220502,-0.0394165158270399
4.564,0.520930167171999,-4.614866963100255,-0.0266319790561814
4.567499999999996,0.5443664483677788,-4.643629989173122,-0.0202405833353782
4.570999999999998,0.5688691257365273,-4.672393015245987,-0.0117181405978899
4.5745000000000005,0.6072192453905987,-4.696893947285484,0.0063913957208032
4.577999999999996,0.6349176206197487,-4.708612087883374,0.01598023463126
4.581499999999998,0.6700720424134184,-4.712874181916744,0.0234362811957798
4.585000000000001,0.6945729744529149,-4.715003483604177,0.0191759324916617
4.588499999999996,0.7254670475424665,-4.716069879777145,-0.0085224427374883
4.591999999999999,0.7499697249112148,-4.717134530620863,-0.0372854688103548
4.595499999999994,0.7861887975486012,-4.716069879777145,-0.0862890782185996
4.598999999999997,0.8149518236214678,-4.712874181916744,-0.1182478021518678
4.602499999999999,0.849041594571421,-4.701156041318854,-0.1608600158393093
4.6059999999999945,0.8628907821859959,-4.6883715045479954,-0.1874919948954908
4.609499999999997,0.8703468287505157,-4.670261968229303,-0.2290395577392158
4.613,0.8522372924318226,-4.65215243191061,-0.2460844432141925
4.616499999999995,0.8053647300402629,-4.622323009664775,-0.2599318854995155
4.619999999999997,0.7531654227716165,-4.578646145133616,-0.2631275833599171
4.6235,0.6764634381342216,-4.495552764775418,-0.2535404897787122
4.626999999999995,0.6210684330051737,-4.4209818271547086,-0.2386266513204207
4.630499999999998,0.5678027295635587,-4.3016693741591245,-0.1992101354933808
4.634,0.548628542401149,-4.2068578532030365,-0.150206526085136
4.637499999999996,0.5390397034906922,-4.067303071542821,-0.0575260521457331
4.640999999999998,0.532648307769889,-3.9469259677035207,0.0202405833353782
4.644500000000001,0.532648307769889,-3.781803857830841,0.1331616406101593
4.647999999999996,0.5209301671719991,-3.6529025659248,0.2183860679850424
4.651499999999999,0.4868403962220458,-3.4781951078001674,0.3376985209806268
4.655000000000001,0.4271832970596277,-3.3386403261399527,0.4186608543221398
4.6584999999999965,0.3163932868015316,-3.1511483312444626,0.5102766774178261
4.661999999999999,0.1981454846496639,-3.0147909927739014,0.5667380787198427
4.665499999999994,0.0010646508437161,-2.860322372655395,0.6125459902676859
4.668999999999997,-0.1640557136997113,-2.7452702683639285,0.6253287817092923
4.672499999999999,-0.3877685265618405,-2.5939973461058243,0.5997614534968274
4.675999999999995,-0.5454328445407483,-2.47042279907687,0.5646070317031576
4.679499999999997,-0.716944604804979,-2.283997200354348,0.4868403962220463
4.683,-0.8074957770569487,-2.1263328823754395,0.4122694586013365
4.686499999999995,-0.8650218292026819,-1.899424371652909,0.3014794483432405
4.689999999999998,-0.8596950843255952,-1.7247151681990245,0.2066679273871525
4.6935,-0.7936465894423738,-1.4796971211578005,0.0756355884644262
4.696999999999996,-0.7020307663466873,-1.2954008241227113,-0.02769837522915
4.700499999999998,-0.5507578440885827,-1.0589052198189757,-0.1565979218059392
4.704000000000001,-0.4239875991992266,-0.875673573627603,-0.2492801410745941
4.707499999999996,-0.2535404897787123,-0.644504714200954,-0.3568744534722885
4.710999999999999,-0.1278348957330727,-0.4708619069200382,-0.4335764381096833
4.714500000000001,0.0053267448770866,-0.2439533961975074,-0.5156034222949128
4.717999999999996,0.0980072188164895,-0.0852244273748831,-0.5667380787198427
4.721499999999999,0.2002765316663493,0.1150521042914661,-0.6136106411114024
4.724999999999994,0.2652586303766022,0.2514094427620271,-0.6189373859884891
4.728499999999997,0.3472873598910837,0.4090737607409349,-0.614677037284371
4.731999999999999,0.39522457312636,0.5102766774178261,-0.5859140112115044
4.735499999999995,0.4442281825346048,0.6274598287259775,-0.5347793547865746
4.738999999999997,0.4580773701491798,0.7041618133633721,-0.4825800475179281
4.7425,0.4612730680095814,0.7925801932694048,-0.397355620143045
4.745999999999995,0.4442281825346048,0.8575640373089098,-0.3313071252598236
4.749499999999998,0.4005513180034467,0.9363953236337376,-0.2322352555996175
4.753,0.3526141047681704,0.9949877719524394,-0.1565979218059392
4.756499999999996,0.2609982816724842,1.0663630117127476,-0.0500682602519613
4.759999999999998,0.1683160624038293,1.1121691779313387,0.0287630260728665
4.7635000000000005,0.0340897709499533,1.1654348813729536,0.1214435000122694
4.766999999999996,-0.087353729062316,1.1952625582895369,0.1832316461913727
4.770499999999998,-0.2482137449016254,1.231483376256175,0.2524758389349957
4.774000000000001,-0.3590055004889734,1.2527886104352697,0.2972173543098703
4.777499999999996,-0.496429235132503,1.267704194222813,0.3387649171535954
4.780999999999999,-0.577391568474016,1.2740955899436164,0.3664615470534934
4.784499999999994,-0.6604849488322141,1.2698334959102464,0.3952245731263599
4.787999999999997,-0.7105532090841754,1.259181751485325,0.4122694586013365
4.791499999999999,-0.7563611206320185,1.2463972147144666,0.4325100419367148
4.794999999999995,-0.7787327509840818,1.2432015168540649,0.4442281825346047
4.798499999999997,-0.7979069381464916,1.2378747719769785,0.4538170214450616
4.802,-0.8064293808839799,1.2432015168540649,0.4740576047804398
4.805499999999995,-0.8096250787443815,1.259181751485325,0.4932317919428495
4.8089999999999975,-0.8117561257610665,1.28048698566442,0.5145387714511963
4.8125,-0.808560427900665,1.3230991993518617,0.5262569120490862
4.815999999999995,-0.8138871727777516,1.367840714726736,0.519865516328283
4.819499999999998,-0.8288010112360431,1.4285624647328707,0.492167141099133
4.823,-0.8437148496943345,1.4722410745932808,0.4570127193054631
4.826499999999996,-0.8618243860130278,1.5244403818619272,0.3952245731263599
4.829999999999998,-0.8778046206442879,1.5606594544993135,0.3398295679973119
4.833500000000001,-0.8852624125380597,1.5979449233096683,0.2546051406224288
4.836999999999996,-0.884196016365091,1.6277743455555036,0.1992101354933808
4.840499999999999,-0.8735442719401697,1.6767779549637485,0.124639197872671
4.843999999999994,-0.8554329902922245,1.7151280746178197,0.0788312863248278
4.847499999999997,-0.8351924069568464,1.7683920327301823,0.0362208179666383
4.850999999999999,-0.8160182197944366,1.8120706425905928,0.0202405833353782
4.8544999999999945,-0.7840577505319164,1.871725996423759,0.0181095363186931
4.857999999999997,-0.7648835633695067,1.9079468143903973,0.0255673282124649
4.8615,-0.7233360005257817,1.9484279810611536,0.0468725623915597
4.864999999999995,-0.6913772765925136,1.9761263562903035,0.0617864008498512
4.868499999999997,-0.6413090163405523,2.0187385699777454,0.069244192743623
4.872,-0.6008278496697957,2.080524970827597,0.0777666354811113
4.875499999999995,-0.5411707505073775,2.222209054175244,0.0894847760790012
4.878999999999998,-0.4974938859762194,2.3361965076229936,0.0490036094082447
4.8825,-0.4399678338304863,2.4565753567915465,0.0340897709499532
4.885999999999996,-0.4005513180034463,2.6142396747704546,0.055395005129048
4.889499999999998,-0.3653968962097765,2.8443421380241345,0.083093380358198
4.893000000000001,-0.3558098026285716,2.966852034209373,0.0873537290623162
4.896499999999996,-0.3653968962097765,3.1596707739819503,0.1012029166768912
4.899999999999999,-0.3739193389472647,3.313072997927488,0.1075943123976944
4.903500000000001,-0.3930952714389264,3.482455456504286,0.1033339636935762
4.9069999999999965,-0.410140156913903,3.6113567484103273,0.1054650107102613
4.910499999999999,-0.4207919013388244,3.775412462110038,0.1171831513081512
4.913999999999994,-0.4229229483555095,3.8915292172452207,0.1150521042914662
4.917499999999997,-0.4090737607409344,4.054520280101215,0.1129210572747811
4.920999999999999,-0.3909642244222413,4.174899129269768,0.1001382658331746
4.924499999999995,-0.3632658491930912,4.344281587846566,0.0798976824977964
4.927999999999997,-0.3419606150139964,4.47531218144004,0.055395005129048
4.9315,-0.3217200316786182,4.6500213848939245,0.01598023463126
4.934999999999995,-0.3206536355056496,4.781051978487398,-0.0181095363186931
4.938499999999998,-0.3163932868015314,4.926998155868416,-0.0649838440395048
4.942,-0.3068061932203266,5.020745025980788,-0.0926804739394028
4.945499999999996,-0.2727164222703733,5.109165151216073,-0.1267702448893561
4.948999999999998,-0.2173214171413252,5.152842015747231,-0.1352926876268444
4.952500000000001,-0.0937468701123707,5.213563765753365,-0.1342280367831279
4.955999999999996,0.0404811666707571,5.254044932424122,-0.1203788491685528
4.959499999999999,0.2823035158515795,5.304113192676083,-0.0862890782185996
4.963000000000001,0.4879067923950154,5.333942614921918,-0.055395005129048
4.966499999999996,0.7648835633695076,5.362703895665533,-0.0170448854749766
4.969999999999999,0.9491798604045968,5.37229273457599,-0.0010646508437165
4.973499999999994,1.1206916206688275,5.355247849101013,0.0010646508437165
4.976999999999997,1.180348719831246,5.3222227289947766,0.0031956978604016
4.980499999999999,1.1654348813729545,5.256174234111556,0.0010646508437165
4.983999999999995,1.0802104539980713,5.21143271873668,0.0010646508437165
4.987499999999997,0.9033719488567536,5.169885155892955,0.0106534897541733
4.991,0.7329248394362394,5.152842015747231,0.0181095363186931
4.994499999999995,0.4932317919428501,5.134730734099286,0.0170448854749766
4.9979999999999976,0.3131975889411311,5.126208291361798,0.0042603487041181
5.0015,0.0905494269227184,5.123012593501396,-0.0330233747769847
5.004999999999996,-0.046872562391559,5.116621197780592,-0.0756355884644262
5.008499999999998,-0.1906876927558918,5.089989218724411,-0.136357338470561
5.0120000000000005,-0.2599318854995149,5.059095145634859,-0.177904901314286
5.015499999999996,-0.2993484013265548,4.991981999907921,-0.2322352555996175
5.018999999999998,-0.2865656098849484,4.924867108851732,-0.2599318854995155
5.022500000000001,-0.2332999064433334,4.8108814007332334,-0.2908259585890671
5.025999999999996,-0.1704471094205136,4.695829296441768,-0.302544099186957
5.029499999999999,-0.0692441927436224,4.5221847438316,-0.314262239784847
5.032999999999994,0.0106534897541739,4.3677178690423455,-0.3206536355056502
5.036499999999997,0.1086607085706634,4.137613660459413,-0.3238510786953038
5.039999999999999,0.1715135055934832,3.944794920686836,-0.3281114273994219
5.0434999999999945,0.2130593231079562,3.6742095454331465,-0.3217200316786187
5.046999999999997,0.2109282760912711,3.451561383414734,-0.3046751462036421
5.0505,0.1651203645434279,3.1660621697027533,-0.2620629325162006
5.053999999999995,0.0926804739394032,2.9561985444552,-0.2045368803704674
5.057499999999997,-0.0468725623915593,2.690939914078597,-0.1086607085706629
5.061,-0.1715135055934824,2.5013168721664214,-0.0319587239332681
5.064499999999995,-0.3696572449138947,2.264821267862686,0.0681795418999064
5.067999999999998,-0.540106099663661,2.1018302050066917,0.1257055940456395
5.0715,-0.7840577505319164,1.8887708818987357,0.191754088928861
5.074999999999996,-0.965158349706604,1.7247151681990247,0.2354309534600191
5.078499999999998,-1.1984582561499382,1.511655845091069,0.3057397970473587
5.082000000000001,-1.3422733865142709,1.3561225741288463,0.3781796876513833
5.085499999999996,-1.4807635173307687,1.153716740775064,0.4879067923950148
5.088999999999999,-1.5329628245994154,1.007770563394046,0.5880433128989375
5.092500000000001,-1.5329628245994156,0.8288010112360435,0.709488558240459
5.0959999999999965,-1.4775660741411154,0.7062911150508056,0.7989733343194602
5.099499999999999,-1.3603846681622165,0.5347793547865748,0.8991098548233829
5.102999999999994,-1.2517239595915532,0.393095271438927,0.970485094583691
5.106499999999997,-1.1057777822105357,0.1949497867892627,1.0642319646960623
5.109999999999999,-1.0088369595670144,0.0511346564249299,1.1473253450542604
5.113499999999995,-0.9161547402983594,-0.1331616406101592,1.28048698566442
5.116999999999997,-0.863955433029713,-0.2620629325162005,1.383820949357996
5.1205,-0.8266699642193582,-0.4367721359700848,1.520178287828557
5.123999999999995,-0.8170828706381534,-0.5646070317031575,1.6107294600805269
5.127499999999998,-0.8351924069568467,-0.7425119330174436,1.7044745848636462
5.131,-0.85756403730891,-0.8863270633817764,1.7577402883052613
5.134499999999996,-0.8927184591025797,-1.1004510373334488,1.800352501992703
5.137999999999998,-0.9140254386109264,-1.2623774493457265,1.820593085328081
5.141500000000001,-0.9331996257733364,-1.4786324703140836,1.8429629703508923
5.144999999999996,-0.936395323633738,-1.633099345103338,1.8397672724904908
5.148499999999999,-0.9076322975608714,-1.8312448297530024,1.8141999442780257
5.152000000000001,-0.8607597351693117,-1.9697332152402485,1.7758498246239545
5.155499999999996,-0.7638171671965387,-2.150833814414936,1.6853003977012364
5.158999999999999,-0.6743323911175375,-2.285061851198064,1.6000759703263534
5.162499999999994,-0.5347793547865749,-2.464031403356066,1.4711746784203124
5.165999999999997,-0.4335764381096836,-2.595063742278793,1.3721028087601062
5.169499999999999,-0.3004130521702723,-2.76018410682222,1.2432015168540649
5.172999999999995,-0.2066679273871529,-2.876302607286655,1.1462589488812918
5.176499999999997,-0.0841580312019149,-3.0350315761092794,1.0258800997127389
5.18,0.0021310470166846,-3.154344029104864,0.9385263706504228
5.183499999999995,0.1097253594143791,-3.312008347083772,0.8149518236214683
5.186999999999998,0.1811005991746872,-3.4217337064981512,0.7201403026653803
5.1905,0.2535404897787118,-3.577266977460374,0.616806338971804
5.193999999999996,0.2982837504828384,-3.689123383891438,0.5518242402615512
5.197499999999998,0.3451563128743982,-3.806306535199589,0.508147375730393
5.2010000000000005,0.370723641086863,-3.8776800296306457,0.4953628389595346
5.204499999999996,0.3994866671597296,-3.9309457330722606,0.5124077244345112
5.207999999999998,0.4133358547743046,-3.9426638736701514,0.5443664483677794
5.211500000000001,0.4154651564617377,-3.932010383915977,0.5944364539489927
5.214999999999996,0.4037470158638477,-3.9181629416306554,0.6413090163405525
5.218499999999999,0.3760503859639497,-3.876615378786929,0.7158799539612621
5.221999999999994,0.3472873598910832,-3.837198862959889,0.7872551937215703
5.225499999999997,0.3110665419244449,-3.745584785193455,0.9076322975608712
5.228999999999999,0.3100018910807284,-3.653968962097768,1.0248154488690224
5.232499999999995,0.3121311927681615,-3.5037624360126327,1.1973936053062215
5.235999999999997,0.3323735214327917,-3.375925794950308,1.3316216420893496
5.2395,0.366461547053493,-3.1948251957756204,1.525505032705644
5.242999999999995,0.3898978282492729,-3.055272159444658,1.6671891160532917
5.2464999999999975,0.3962909692993281,-2.865649117532482,1.8632035536862703
5.25,0.3760503859639499,-2.7346167786097557,2.015541126788092
5.253499999999995,0.3238510786953035,-2.557778273468438,2.219013356314843
5.256999999999998,0.2705853752536886,-2.4310080285790816,2.36495953369586
5.2605,0.1938833906162938,-2.266952314879371,2.538602340976776
5.263999999999996,0.1459461773810175,-2.16574939820248,2.6493940965641243
5.267499999999998,0.0937468701123711,-2.034717059279753,2.7708375965763934
5.271000000000001,0.0639174478665361,-1.9494926319048704,2.8475378358845367
5.274499999999996,0.036220817966638,-1.8472250643842625,2.9263708675386164
5.277999999999999,0.0191759324916614,-1.7886343613948128,2.9657873833656563
5.281499999999994,0.0042603487041179,-1.7183237724782212,2.9934840132655545
5.284999999999997,-0.0063913957208034,-1.6767779549637485,2.9934840132655545
5.288499999999999,-0.02343628119578,-1.6213812045054483,2.968983081226058
5.2919999999999945,-0.0426122136874417,-1.5851621318680618,2.934893310276105
5.295499999999997,-0.0671131457269381,-1.555332709622227,2.87417156026997
5.299,-0.0841580312019147,-1.5308317775827305,2.8070584145430324
5.302499999999995,-0.1054650107102615,-1.512722241264037,2.702658054676488
5.305999999999997,-0.1161167551351829,-1.5084601472306671,2.6067818828766827
5.3095,-0.1225098961852381,-1.5095265434036358,2.468293497389437
5.312999999999995,-0.1075943123976946,-1.5031334023535805,2.354306043941687
5.316499999999998,-0.078831286324828,-1.5010041006661472,2.193446028102377
5.32,-0.0468725623915598,-1.490350610911974,2.0666757832130216
5.323499999999996,0.0031956978604014,-1.4637186318557929,1.901555418669594
5.326999999999998,0.0404811666707563,-1.432824558766241,1.774785173780238
5.330500000000001,0.0894847760790011,-1.3710364125871377,1.6139251579409286
5.333999999999996,0.1235745470289543,-1.3209681523351764,1.490350610911974
5.337499999999999,0.1523375731018209,-1.22935232923949,1.3230991993518617
5.341000000000001,0.1800359483309709,-1.1569124386354652,1.1867401155520485
5.3444999999999965,0.2066679273871524,-1.0471870792210858,0.9949877719524394
5.347999999999999,0.2279731615662472,-0.9555712561253994,0.8394545009902167
5.351499999999994,0.2652586303766021,-0.836258803129815,0.630655526586379
5.354999999999997,0.2982837504828388,-0.7435765838611602,0.4612730680095813
5.358499999999999,0.3504830577514852,-0.6093502924072843,0.2535404897787122
5.361999999999995,0.4016177141764151,-0.508147375730393,0.0948115209560879
5.365499999999997,0.4719265577637547,-0.3653968962097769,-0.096942567972773
5.369,0.5390397034906926,-0.2556715367953974,-0.2354309534600191
5.372499999999995,0.6370469223071823,-0.1193124529955844,-0.4154651564617382
5.375999999999998,0.7116178599278921,-0.0170448854749767,-0.5486285424011496
5.3795,0.820278568498555,0.1161167551351826,-0.7297291415758372
5.382999999999996,0.901240901840068,0.221581765845444,-0.8564993864651933
5.386499999999998,0.9992481206565574,0.3664615470534932,-1.016293006131534
5.390000000000001,1.065296615539779,0.4751222556241563,-1.1270847617188822
5.393499999999996,1.1409322040042051,0.6125459902676857,-1.2655731472061282
5.396999999999999,1.1835444176916468,0.7052264642070887,-1.3710364125871377
5.400500000000001,1.2240255843624033,0.8160182197944367,-1.5084601472306671
5.403999999999996,1.2389411681499467,0.8799356676609731,-1.6139251579409286
5.407499999999999,1.243201516854065,0.9577023031420844,-1.7460221477073712
5.410999999999994,1.2325480270998916,1.008836959567014,-1.841898319507176
5.414499999999997,1.1888711625687336,1.0674276625564638,-1.9590814708153272
5.417999999999999,1.1430632510208905,1.1025820843501335,-2.043239502017242
5.421499999999995,1.0621009176793776,1.1441296471938585,-2.129528580235841
5.424999999999997,0.9885963762316364,1.1633038343562685,-2.174271840939968
5.4285,0.8937848552755482,1.18247976684793,-2.2062305648732363
5.431999999999995,0.8277363603923269,1.1941979074458202,-2.2158176584544407
5.4354999999999976,0.7414472821737272,1.201655699339592,-2.2094262627336376
5.439,0.6871169278883956,1.1984582561499384,-2.2051641687002674
5.442499999999996,0.6349176206197493,1.1835444176916468,-2.2104909135773543
5.445999999999998,0.5976321518093944,1.1611727873395834,-2.2115573097503227
5.4495000000000005,0.5688691257365279,1.1206916206688269,-2.2243401011919293
5.452999999999996,0.5560845889656695,1.0823415010147557,-2.233927194773134
5.456499999999998,0.5560845889656695,1.016293006131534,-2.2520384764210792
5.460000000000001,0.5784562193177327,0.9555712561253992,-2.2520384764210792
5.463499999999996,0.6285244795696941,0.8628907821859964,-2.2552341742814805
5.466999999999999,0.6743323911175373,0.7776663548111133,-2.260560919158568
5.470499999999994,0.7574257714757353,0.6391779693238673,-2.2818661533376625
5.473999999999997,0.831996709096445,0.5251905158761176,-2.306367085377159
5.477499999999999,0.933199625773336,0.37178829193058,-2.370286278572947
5.4809999999999945,1.0173594023045027,0.2599318854995154,-2.425681283701995
5.484499999999997,1.1281494125625986,0.1118564064310644,-2.5236885025184845
5.488,1.21017814207708,0.0010646508437163,-2.6046508358599976
5.491499999999995,1.2911404754185931,-0.1427504795206164,-2.7250296850285505
5.494999999999997,1.3167078036310582,-0.2471490940579092,-2.82303690384504
5.4985,1.2879447775581916,-0.4026823650201319,-2.9466114508739945
5.501999999999995,1.203785001027025,-0.5209301671719997,-3.048879018394602
5.505499999999998,1.012032657427416,-0.6764634381342223,-3.198020893636022
5.509,0.8138871727777517,-0.7872551937215704,-3.323726487681661
5.512499999999996,0.4804490005012429,-0.9204168343317296,-3.513349529593837
5.515999999999998,0.1864273440517742,-1.0130973082711323,-3.66462070652269
5.519500000000001,-0.2375620004767043,-1.1409322040042051,-3.875550727943213
5.522999999999996,-0.5720648235969295,-1.2442661676977815,-4.02895295188875
5.526499999999999,-1.0013791676732429,-1.3848856002017125,-4.214313899767556
5.530000000000001,-1.3039232668602,-1.4807635173307687,-4.348541936550684
5.5334999999999965,-1.6629287673491735,-1.6075337622201251,-4.506206254529592
5.536999999999999,-1.8930329759321056,-1.6874296993886693,-4.614866963100255
5.540499999999994,-2.116745788794235,-1.764131684026064,-4.754419999431217
5.543999999999997,-2.2243401011919293,-1.7907636630822457,-4.841773728493534
5.547499999999999,-2.276539408460576,-1.787567965221844,-4.924867108851732
5.550999999999995,-2.240320335823189,-1.757740288305261,-4.956825832784999
5.554499999999997,-2.1007655541629746,-1.6853003977012362,-4.96108792681837
5.558,-1.9313830955861773,-1.6096630639075582,-4.941911994326707
5.561499999999995,-1.6693201630699763,-1.4999377044931783,-4.913148968253841
5.564999999999998,-1.4541297929453358,-1.404061532693374,-4.901430827655951
5.5685,-1.1920668604291351,-1.251723959591553,-4.892908384918464
5.571999999999996,-1.045056032204401,-1.1302804595792837,-4.90249722382892
5.575499999999998,-0.9193504381587612,-0.9736807924440924,-4.91421536442681
5.579000000000001,-0.8831313655213748,-0.8511726415881065,-4.906757572533039
5.582499999999996,-0.9086986937338398,-0.6967040214696003,-4.883321291337259
5.585999999999999,-0.9577023031420846,-0.5923054069323075,-4.830057333224895
5.589500000000001,-1.0407956835002825,-0.468730859903353,-4.746963952866698
5.592999999999996,-1.1025820843501335,-0.3803107346680682,-4.664935223352216
