time,Gyr_X,Gyr_Y,Gyr_Z
0.0,0.0042603487041181,0.0053267448770866,-0.0053267448770866
0.0035000000000025,0.0053267448770866,-6.523381063598781e-19,-0.0053267448770866
0.007000000000005,0.0031956978604016,0.002131047016685,-0.0031956978604016
0.0105000000000075,0.0031956978604016,0.002131047016685,-0.0042603487041181
0.01400000000001,0.0031956978604016,0.0010646508437165,-0.0042603487041181
0.0175000000000125,0.0010646508437165,0.0031956978604016,-0.002131047016685
0.0209999999999865,0.0063913957208032,0.0042603487041181,-0.0053267448770866
0.024499999999989,0.0042603487041181,0.002131047016685,-0.0042603487041181
0.0279999999999915,0.0031956978604016,0.0010646508437165,-0.0053267448770866
0.031499999999994,0.0053267448770866,0.0063913957208032,-0.0063913957208032
0.0349999999999965,0.002131047016685,-2.6097799078158957e-19,-0.0063913957208032
0.038499999999999,0.0042603487041181,-5.217422403749877e-19,-0.0031956978604016
0.0420000000000015,0.0042603487041181,0.002131047016685,-0.0063913957208032
0.045500000000004,0.002131047016685,-2.6097799078158957e-19,-0.0010646508437165
0.0490000000000065,0.0042603487041181,-0.002131047016685,-0.0074577918937717
0.052500000000009,0.002131047016685,-0.0010646508437165,-0.0010646508437165
0.0560000000000115,0.0042603487041181,-0.002131047016685,-0.002131047016685
0.0594999999999856,0.0042603487041181,0.0010646508437165,-0.0031956978604016
0.0629999999999881,0.0053267448770866,0.002131047016685,-0.0031956978604016
0.0664999999999906,0.0042603487041181,0.0053267448770866,-0.0031956978604016
0.0699999999999931,5.217422403749877e-19,0.0042603487041181,-0.0031956978604016
0.0734999999999956,0.0053267448770866,0.0010646508437165,-0.002131047016685
0.0769999999999981,5.217422403749877e-19,0.0042603487041181,-0.002131047016685
0.0805000000000006,-0.0031956978604016,0.0085224427374883,-0.0010646508437165
0.0840000000000031,-0.0031956978604016,0.0031956978604016,-0.002131047016685
0.0875000000000056,-0.0,0.0,-0.0010646508437165
0.0910000000000081,0.0053267448770866,0.002131047016685,-0.002131047016685
0.0945000000000106,0.002131047016685,0.0053267448770866,-0.0010646508437165
0.0980000000000131,0.0053267448770866,0.0063913957208032,-0.0063913957208032
0.1014999999999872,0.0042603487041181,0.0063913957208032,-0.0010646508437165
0.1049999999999897,0.0031956978604016,0.0063913957208032,-0.0031956978604016
0.1084999999999922,0.0053267448770866,0.0053267448770866,-0.0063913957208032
0.1119999999999947,0.0042603487041181,0.0031956978604016,-0.0042603487041181
0.1154999999999972,0.0053267448770866,0.0063913957208032,-0.0063913957208032
0.1189999999999997,0.0031956978604016,0.0042603487041181,-0.0063913957208032
0.1225000000000022,0.002131047016685,0.0031956978604016,-0.0063913957208032
0.1260000000000047,-0.002131047016685,0.0063913957208032,-0.0085224427374883
0.1295000000000072,-0.0031956978604016,0.0063913957208032,-0.0063913957208032
0.1330000000000097,-0.0010646508437165,0.0053267448770866,-0.0095870935812048
0.1365000000000122,0.002131047016685,0.0031956978604016,-0.0085224427374883
0.1399999999999863,0.0053267448770866,-6.523381063598781e-19,-0.0053267448770866
0.1434999999999888,0.0053267448770866,-0.0042603487041181,-0.0063913957208032
0.1469999999999913,0.0117181405978899,-0.0010646508437165,-0.0063913957208032
0.1504999999999938,0.0074577918937717,-9.133160971414677e-19,-0.0042603487041181
0.1539999999999963,0.0085224427374883,0.002131047016685,-0.0063913957208032
0.1574999999999988,0.0117181405978899,0.0053267448770866,-0.0063913957208032
0.1610000000000013,0.0095870935812048,0.0085224427374883,-0.0031956978604016
0.1645000000000038,0.0042603487041181,0.0063913957208032,-0.0031956978604016
0.1680000000000063,0.0031956978604016,0.0095870935812048,-0.0031956978604016
0.1715000000000088,0.0042603487041181,0.0074577918937717,-0.002131047016685
0.1750000000000113,7.827202311565772e-19,0.0063913957208032,-0.0042603487041181
0.1784999999999854,0.0031956978604016,-3.913601155782886e-19,-0.0010646508437165
0.1819999999999879,0.0031956978604016,0.0074577918937717,-0.0010646508437165
0.1854999999999904,0.0063913957208032,0.0042603487041181,-0.0053267448770866
0.1889999999999929,0.0063913957208032,0.0085224427374883,-0.0031956978604016
0.1924999999999954,0.0074577918937717,0.0095870935812048,-0.0042603487041181
0.1959999999999979,0.0074577918937717,0.0095870935812048,-0.0031956978604016
0.1995000000000004,0.0095870935812048,0.0085224427374883,-0.0010646508437165
0.2030000000000029,0.0117181405978899,0.0010646508437165,0.0
0.2065000000000054,0.013849187614575,-0.0063913957208032,-0.0010646508437165
0.2100000000000079,0.0117181405978899,-0.0106534897541733,-0.0010646508437165
0.2135000000000104,0.0127827914416064,-0.0085224427374883,-0.0031956978604016
0.2170000000000129,0.013849187614575,-0.0074577918937717,-0.0042603487041181
0.220499999999987,0.0095870935812048,-0.0031956978604016,-0.0010646508437165
0.2239999999999895,0.0095870935812048,0.0031956978604016,-0.0053267448770866
0.227499999999992,0.0095870935812048,0.0074577918937717,-0.0031956978604016
0.2309999999999945,0.0085224427374883,0.0095870935812048,-0.0053267448770866
0.234499999999997,0.0095870935812048,0.0063913957208032,-0.0042603487041181
0.2379999999999995,0.0031956978604016,-3.913601155782886e-19,-0.0042603487041181
0.241500000000002,0.0053267448770866,-0.0074577918937717,-0.0042603487041181
0.2450000000000045,0.0074577918937717,-0.0191759324916617,-0.0106534897541733
0.248500000000007,0.0074577918937717,-0.0245026773687483,-0.0042603487041181
0.2520000000000095,0.0170448854749766,-0.029827676916583,-0.0085224427374883
0.255500000000012,0.0223716303520633,-0.0287630260728665,-0.0085224427374883
0.2589999999999861,0.0213052341790947,-0.029827676916583,-0.0053267448770866
0.2624999999999886,0.02769837522915,-0.0340897709499532,-0.0063913957208032
0.2659999999999911,0.0319587239332681,-0.0308940730895516,-0.0095870935812048
0.2694999999999936,0.0308940730895516,-0.0245026773687483,-0.0181095363186931
0.2729999999999961,0.0287630260728665,-0.0255673282124649,-0.0170448854749766
0.2764999999999986,0.0287630260728665,-0.029827676916583,-0.013849187614575
0.2800000000000011,0.0245026773687483,-0.0394165158270399,-0.0202405833353782
0.2835000000000036,0.029827676916583,-0.0426122136874415,-0.0181095363186931
0.2870000000000061,0.0255673282124649,-0.0330233747769847,-0.0202405833353782
0.2905000000000086,0.0223716303520633,-0.0287630260728665,-0.0181095363186931
0.2940000000000111,0.0170448854749766,-0.0149138384582915,-0.0170448854749766
0.2974999999999852,0.0117181405978899,0.0063913957208032,-0.0149138384582915
0.3009999999999877,3.7834327721743786e-18,0.0308940730895516,-0.0117181405978899
0.3044999999999902,-0.002131047016685,0.0394165158270399,-0.0117181405978899
0.3079999999999927,-0.0042603487041181,0.0521993072686464,-0.0117181405978899
0.3114999999999952,-0.002131047016685,0.0532657034416149,-0.0106534897541733
0.3149999999999977,-0.002131047016685,0.0436768645311581,-0.0063913957208032
0.3185000000000002,0.0053267448770866,0.0362208179666383,-0.0095870935812048
0.3220000000000027,0.0191759324916617,0.0308940730895516,-0.0010646508437165
0.3255000000000052,0.0213052341790947,0.0255673282124649,-0.002131047016685
0.3290000000000077,0.0330233747769847,0.0308940730895516,0.0031956978604016
0.3325000000000102,0.041545817514473,0.0362208179666383,0.0085224427374883
0.3360000000000127,0.0511346564249298,0.0245026773687483,0.0170448854749766
0.3394999999999868,0.0639174478665363,0.0074577918937717,0.0170448854749766
0.3429999999999893,0.0767019846373948,-0.0170448854749766,0.0245026773687483
0.3464999999999918,0.0809623333415129,-0.0404811666707564,0.0234362811957798
0.3499999999999943,0.0873537290623161,-0.0681795418999065,0.029827676916583
0.3534999999999968,0.0958761717998044,-0.083093380358198,0.029827676916583
0.3569999999999993,0.1001382658331746,-0.0990718696602061,0.02769837522915
0.3605000000000018,0.0980072188164895,-0.1012029166768912,0.0234362811957798
0.3640000000000043,0.0958761717998044,-0.1086607085706629,0.0170448854749766
0.3675000000000068,0.0852244273748831,-0.1054650107102613,0.0127827914416064
0.3710000000000093,0.0767019846373947,-0.0980072188164895,0.0063913957208032
0.3745000000000118,0.0681795418999064,-0.0948115209560879,0.002131047016685
0.3779999999999859,0.0564614013020165,-0.0798976824977964,0.002131047016685
0.3814999999999884,0.0468725623915597,-0.0671131457269379,-0.0042603487041181
0.3849999999999909,0.0447432607041266,-0.0596570991624181,0.0010646508437165
0.3884999999999934,0.0447432607041266,-0.0490036094082447,0.0010646508437165
0.3919999999999959,0.043676864531158,-0.0394165158270399,0.0
0.3954999999999984,0.0362208179666383,-0.0255673282124649,0.0
0.3990000000000009,0.0245026773687483,-0.0085224427374883,-0.0010646508437165
0.4025000000000034,0.0085224427374883,0.0063913957208032,-0.0010646508437165
0.4060000000000059,-0.0095870935812048,0.0319587239332681,-0.0042603487041181
0.4095000000000084,-0.0234362811957798,0.0543303542853314,-0.0106534897541733
0.4130000000000109,-0.0191759324916616,0.069244192743623,-0.0106534897541733
0.4165000000000134,-0.01598023463126,0.0735062867769931,-0.0117181405978899
0.4199999999999875,-0.0191759324916616,0.0713752397603081,-0.0117181405978899
0.42349999999999,-0.0287630260728665,0.0713752397603081,-0.0117181405978899
0.4269999999999925,-0.0404811666707564,0.0596570991624181,-0.0191759324916617
0.430499999999995,-0.0404811666707564,0.0543303542853314,-0.0202405833353782
0.4339999999999975,-0.0447432607041266,0.0607217500061347,-0.0266319790561814
0.4375,-0.0426122136874415,0.0649838440395048,-0.0223716303520633
0.4410000000000025,-0.043676864531158,0.0724398906040246,-0.0255673282124649
0.444500000000005,-0.0479389585645282,0.0788312863248278,-0.0181095363186931
0.4480000000000075,-0.0447432607041266,0.0820287295144815,-0.0202405833353782
0.45150000000001,-0.043676864531158,0.083093380358198,-0.0213052341790947
0.4550000000000125,-0.0532657034416149,0.083093380358198,-0.02769837522915
0.4584999999999866,-0.0671131457269379,0.0735062867769932,-0.0340897709499532
0.4619999999999891,-0.0841580312019145,0.0639174478665363,-0.041545817514473
0.4654999999999916,-0.0980072188164895,0.0543303542853314,-0.0447432607041266
0.4689999999999941,-0.1118564064310645,0.0404811666707564,-0.041545817514473
0.4724999999999966,-0.1139874534477496,0.0351544217936698,-0.0404811666707564
0.4759999999999991,-0.1171831513081512,0.0181095363186931,-0.0372854688103548
0.4795000000000016,-0.1097253594143795,0.0095870935812048,-0.0383501196540714
0.4830000000000041,-0.1033339636935762,0.002131047016685,-0.041545817514473
0.4865000000000066,-0.1033339636935762,0.0031956978604016,-0.0372854688103548
0.4900000000000091,-0.0916158230956863,0.002131047016685,-0.0330233747769847
0.4935000000000116,-0.0745709376207097,0.0042603487041181,-0.0255673282124649
0.4969999999999857,-0.0404811666707564,0.0106534897541733,-0.0095870935812048
0.5004999999999882,-0.0149138384582915,0.0170448854749766,0.002131047016685
0.5039999999999907,0.01598023463126,0.029827676916583,0.0074577918937717
0.5074999999999932,0.0351544217936697,0.0383501196540713,0.0074577918937717
0.5109999999999957,0.0394165158270399,0.0479389585645282,0.002131047016685
0.5144999999999982,0.0351544217936697,0.0490036094082447,0.002131047016685
0.5180000000000007,0.0245026773687483,0.0479389585645282,0.002131047016685
0.5215000000000032,0.0191759324916617,0.0436768645311581,0.0053267448770866
0.5250000000000057,0.013849187614575,0.0436768645311581,-0.002131047016685
0.5285000000000082,0.0127827914416064,0.0447432607041266,-0.0085224427374883
0.5320000000000107,0.0266319790561814,0.0511346564249298,-0.0106534897541733
0.5355000000000132,0.0266319790561814,0.0607217500061347,-0.0127827914416064
0.5389999999999873,0.0319587239332681,0.0660484948832214,-0.0127827914416064
0.5424999999999898,0.0287630260728665,0.0671131457269379,-0.01598023463126
0.5459999999999923,0.0234362811957798,0.0607217500061347,-0.0127827914416064
0.5494999999999948,0.0298276769165831,0.0500682602519613,-0.0149138384582915
0.5529999999999973,0.0362208179666383,0.0266319790561814,-0.0074577918937717
0.5564999999999998,0.0490036094082447,0.0031956978604016,-0.0085224427374883
0.5600000000000023,0.0575260521457331,-0.0255673282124649,-0.0031956978604016
0.5635000000000048,0.0649838440395048,-0.041545817514473,-0.0053267448770866
0.5670000000000073,0.0681795418999064,-0.0639174478665363,-0.0106534897541733
0.5705000000000098,0.0681795418999064,-0.0735062867769932,-0.0106534897541733
0.5740000000000123,0.0639174478665363,-0.0788312863248279,-0.0117181405978899
0.5774999999999864,0.0671131457269379,-0.0820287295144815,-0.0106534897541733
0.5809999999999889,0.0639174478665363,-0.0777666354811113,-0.013849187614575
0.5844999999999914,0.0617864008498512,-0.0788312863248279,-0.0170448854749766
0.5879999999999939,0.0628527970228197,-0.0798976824977964,-0.0223716303520633
0.5914999999999964,0.0649838440395048,-0.0852244273748831,-0.02769837522915
0.5949999999999989,0.0767019846373947,-0.0948115209560879,-0.0234362811957798
0.5985000000000014,0.0873537290623161,-0.0948115209560879,-0.0149138384582915
0.6020000000000039,0.1065296615539778,-0.0980072188164895,-0.0053267448770866
0.6055000000000064,0.124639197872671,-0.0980072188164895,0.0053267448770866
0.6090000000000089,0.150206526085136,-0.0852244273748831,0.0181095363186931
0.6125000000000114,0.166186760716396,-0.0809623333415129,0.0245026773687483
0.6159999999999854,0.1853609478788057,-0.0735062867769932,0.0308940730895516
0.619499999999988,0.1970790884766957,-0.0681795418999065,0.0308940730895516
0.6229999999999905,0.2087989744038376,-0.0596570991624182,0.0372854688103548
0.626499999999993,0.2024058333537824,-0.0532657034416149,0.0362208179666383
0.6299999999999955,0.1981454846496642,-0.041545817514473,0.0340897709499532
0.633499999999998,0.1885583910684593,-0.0372854688103548,0.0319587239332681
0.6370000000000005,0.1725781564371993,-0.0213052341790948,0.0319587239332681
0.640500000000003,0.1587289688226243,-0.0085224427374883,0.0319587239332681
0.6440000000000055,0.1374237346435295,0.0149138384582915,0.0287630260728665
0.647500000000008,0.1225098961852379,0.0340897709499532,0.02769837522915
0.6510000000000105,0.096942567972773,0.0511346564249298,0.0308940730895516
0.654500000000013,0.0777666354811113,0.0617864008498512,0.0340897709499532
0.657999999999987,0.0617864008498512,0.0681795418999064,0.0330233747769847
0.6614999999999895,0.0479389585645282,0.0703088435873395,0.0330233747769847
0.664999999999992,0.0330233747769847,0.0660484948832214,0.0394165158270399
0.6684999999999945,0.0245026773687483,0.0564614013020165,0.0404811666707564
0.671999999999997,0.0170448854749766,0.0479389585645282,0.0436768645311581
0.6754999999999995,0.0117181405978899,0.0521993072686464,0.0436768645311581
0.679000000000002,-0.002131047016685,0.0575260521457331,0.029827676916583
0.6825000000000045,-0.002131047016685,0.0649838440395048,0.0191759324916617
0.686000000000007,-0.0138491876145749,0.0724398906040246,0.0106534897541733
0.6895000000000095,-0.0223716303520633,0.083093380358198,0.0063913957208032
0.693000000000012,-0.0266319790561814,0.0958761717998045,-0.002131047016685
0.6964999999999861,-0.0149138384582915,0.1054650107102613,-0.0085224427374883
0.6999999999999886,-0.0074577918937717,0.110790010258096,-0.013849187614575
0.7034999999999911,0.0063913957208032,0.1182478021518678,-0.0223716303520633
0.7069999999999936,0.02769837522915,0.1193124529955843,-0.02769837522915
0.7104999999999961,0.0436768645311581,0.1203788491685528,-0.029827676916583
0.7139999999999986,0.0660484948832214,0.1203788491685528,-0.0340897709499532
0.7175000000000011,0.0820287295144815,0.1289012919060412,-0.0394165158270399
0.7210000000000036,0.1054650107102613,0.1395530363309626,-0.041545817514473
0.7245000000000061,0.1065296615539779,0.1470108282247343,-0.0426122136874415
0.7280000000000086,0.1214435000122694,0.1672514115601125,-0.0436768645311581
0.7315000000000111,0.122509896185238,0.1768385051413174,-0.0490036094082447
0.7349999999999852,0.1299659427497577,0.1821652500184041,-0.0490036094082447
0.7384999999999877,0.1374237346435295,0.1885583910684593,-0.0426122136874415
0.7419999999999902,0.1416840833476477,0.1885583910684593,-0.0447432607041266
0.7454999999999927,0.1523375731018211,0.1896230419121758,-0.0394165158270399
0.7489999999999952,0.1651203645434275,0.1970790884766956,-0.0394165158270399
0.7524999999999977,0.1715135055934828,0.2013411825100658,-0.0362208179666383
0.7560000000000002,0.1715135055934828,0.2056015312141839,-0.029827676916583
0.7595000000000027,0.1768385051413175,0.2034722295267509,-0.0170448854749766
0.7630000000000052,0.1811005991746876,0.2034722295267509,-0.0074577918937717
0.7665000000000077,0.1906876927558924,0.1896230419121758,-0.0063913957208032
0.7700000000000102,0.2024058333537824,0.1672514115601125,0.002131047016685
0.7735000000000127,0.2141239739516723,0.1416840833476476,0.0085224427374883
0.7769999999999868,0.2343645572870505,0.1118564064310645,0.01598023463126
0.7804999999999893,0.2439533961975074,0.0862890782185996,0.0213052341790947
0.7839999999999918,0.2567361876391139,0.0543303542853314,0.0234362811957798
0.7874999999999943,0.274847469287059,0.0447432607041266,0.0266319790561814
0.7909999999999968,0.286565609884949,0.0276983752291499,0.0170448854749766
0.7944999999999993,0.286565609884949,0.0191759324916616,0.0074577918937717
0.7980000000000018,0.2908259585890671,0.0213052341790947,-0.0042603487041181
0.8015000000000043,0.2908259585890671,0.0191759324916616,-0.0063913957208032
0.8050000000000068,0.2812388650078622,0.0308940730895515,-0.0010646508437165
0.8085000000000093,0.2727164222703739,0.0426122136874415,-0.0031956978604016
0.8120000000000118,0.2514094427620272,0.0703088435873395,-0.0010646508437165
0.8154999999999859,0.2247774637058457,0.0916158230956863,0.0010646508437165
0.8189999999999884,0.1832316461913727,0.1182478021518678,0.0074577918937717
0.8224999999999909,0.1459461773810178,0.1374237346435295,0.0127827914416064
0.8259999999999934,0.0980072188164895,0.1576643179789077,0.0149138384582915
0.8294999999999959,0.0745709376207097,0.1789695521580025,0.0127827914416064
0.8329999999999984,0.0564614013020165,0.2024058333537824,0.0085224427374883
0.8365000000000009,0.0372854688103548,0.2119946722642392,0.0010646508437165
0.8400000000000034,0.0149138384582915,0.2258421145495622,-0.0031956978604016
0.8435000000000059,0.0074577918937717,0.2269085107225308,-0.002131047016685
0.8470000000000084,0.0127827914416065,0.2439533961975074,-0.0106534897541733
0.8505000000000109,0.0117181405978899,0.2460844432141925,-0.013849187614575
0.8540000000000134,0.0149138384582915,0.2460844432141925,-0.0319587239332681
0.8574999999999875,0.0149138384582915,0.247149094057909,-0.0468725623915597
0.86099999999999,0.0213052341790948,0.2535404897787122,-0.0596570991624181
0.8644999999999925,0.0298276769165831,0.2482137449016255,-0.0617864008498512
0.867999999999995,0.0383501196540714,0.2364956043037356,-0.0735062867769931
0.8714999999999975,0.0479389585645282,0.2183860679850424,-0.0788312863248278
0.875,0.0681795418999065,0.2034722295267509,-0.0894847760790012
0.8785000000000025,0.0841580312019146,0.1928187397725775,-0.0980072188164895
0.882000000000005,0.0852244273748831,0.166186760716396,-0.1043986145372928
0.8855000000000075,0.0756355884644262,0.1438151303643327,-0.1129210572747811
0.88900000000001,0.0660484948832214,0.1150521042914661,-0.1225098961852379
0.8925000000000125,0.0575260521457331,0.0873537290623161,-0.1299659427497577
0.8959999999999866,0.0458079115478431,0.0490036094082447,-0.1267702448893561
0.8994999999999891,0.0308940730895516,0.0223716303520633,-0.124639197872671
0.9029999999999916,0.0053267448770866,-0.013849187614575,-0.1203788491685528
0.906499999999994,-0.0106534897541733,-0.029827676916583,-0.1161167551351827
0.9099999999999966,-0.0447432607041266,-0.0585907029894496,-0.110790010258096
0.9134999999999992,-0.0798976824977964,-0.0798976824977964,-0.1054650107102613
0.9170000000000016,-0.1139874534477496,-0.0926804739394028,-0.1043986145372928
0.920500000000004,-0.0916158230956863,-0.0873537290623161,-0.0926804739394028
0.9240000000000066,-0.0745709376207097,-0.0820287295144815,-0.069244192743623
0.9275000000000092,-0.1161167551351827,-0.1022693128498597,-0.0681795418999064
0.9310000000000116,-0.1853609478788058,-0.1139874534477496,-0.083093380358198
0.9344999999999856,-0.2641939795328856,-0.1438151303643327,-0.1033339636935762
0.9379999999999882,-0.3771150368076668,-0.1789695521580025,-0.1448797812080492
0.9414999999999908,-0.4474238803950063,-0.2002765316663492,-0.1736428072809158
0.9449999999999932,-0.5166698184678814,-0.2311688594266489,-0.2024058333537824
0.9484999999999956,-0.5433017975240628,-0.2514094427620271,-0.2258421145495622
0.9519999999999982,-0.5699337765802444,-0.2823035158515787,-0.2663250265495707
0.9555000000000008,-0.5709984274239609,-0.3078708440640437,-0.2918906094327836
0.9590000000000032,-0.561411333842756,-0.3451563128743986,-0.3249157295390203
0.9625000000000056,-0.5464974953844645,-0.3771150368076667,-0.3483520107348002
0.9660000000000082,-0.5209301671719996,-0.4303807402492816,-0.3739193389472651
0.9695000000000108,-0.4942981881158181,-0.4687308599033531,-0.3824417816847534
0.9730000000000132,-0.4623394641825499,-0.5294526099094877,-0.3962909692993285
0.9764999999999872,-0.4431635316908883,-0.5678027295635593,-0.4026823650201317
0.9799999999999898,-0.4154651564617382,-0.6221330838488908,-0.4101401569139035
0.9834999999999924,-0.3962909692993285,-0.6594185526592456,-0.4133358547743051
0.9869999999999948,-0.3696572449138951,-0.7073575112237738,-0.4122694586013365
0.9904999999999972,-0.3504830577514854,-0.7403808860007585,-0.4090737607409349
0.9939999999999998,-0.328111427399422,-0.7829930996882002,-0.4005513180034466
0.9975000000000024,-0.3025440991869571,-0.8128207766047831,-0.3909642244222418
1.0010000000000048,-0.2673896773932874,-0.847976943727705,-0.3771150368076668
1.0045000000000073,-0.245018047041224,-0.8650218292026817,-0.3664615470534934
1.0080000000000098,-0.1960144376329792,-0.8799356676609732,-0.3515477085952018
1.0115000000000125,-0.1629910628559945,-0.889522761242178,-0.3408942188410284
1.0149999999999864,-0.108660708570663,-0.8852624125380599,-0.3281114273994219
1.0184999999999889,-0.0713752397603082,-0.8746089227838865,-0.3206536355056502
1.0219999999999914,-0.0202405833353783,-0.847976943727705,-0.314262239784847
1.025499999999994,0.0191759324916616,-0.8266699642193582,-0.3057397970473587
1.0289999999999964,0.0724398906040245,-0.7766017039673969,-0.2972173543098703
1.0324999999999989,0.1075943123976943,-0.7297291415758372,-0.2897613077453506
1.0360000000000014,0.1555332709622226,-0.6487650629050722,-0.2812388650078622
1.039500000000004,0.1874919948954907,-0.5816519171781342,-0.2684543282370038
1.0430000000000064,0.2247774637058456,-0.4815136513449596,-0.2556715367953973
1.0465000000000089,0.2503447919183106,-0.3941599222826434,-0.2460844432141925
1.0500000000000114,0.288694911572382,-0.2801724688348938,-0.2301042085829324
1.0534999999999854,0.3131975889411305,-0.1864273440517743,-0.2226464166891606
1.056999999999988,0.3462209637181151,-0.0660484948832214,-0.2098636252475541
1.0604999999999905,0.3685925940701784,0.0223716303520632,-0.2034722295267509
1.063999999999993,0.3888331774055567,0.1331616406101593,-0.2087989744038376
1.0674999999999957,0.3994866671597301,0.2087989744038375,-0.2119946722642392
1.070999999999998,0.3941599222826434,0.2961527034661537,-0.219450718828759
1.0745000000000005,0.3867021303888717,0.3504830577514852,-0.2237128128621291
1.078000000000003,0.3611348021764067,0.4197272504951083,-0.2364956043037356
1.0815000000000057,0.3313071252598237,0.4676662090596366,-0.2354309534600191
1.085000000000008,0.2886949115723821,0.517734469311598,-0.2450180470412239
1.0885000000000105,0.2535404897787123,0.5550199381219528,-0.247149094057909
1.092000000000013,0.2013411825100659,0.5944364539489927,-0.2439533961975074
1.095499999999987,0.1544686201185062,0.6189373859884891,-0.2396913021641372
1.0989999999999895,0.0916158230956864,0.6466357612176391,-0.233299906443334
1.102499999999992,0.0383501196540714,0.6604849488322142,-0.2237128128621291
1.1059999999999943,-0.0266319790561813,0.6732677402738206,-0.2066679273871525
1.109499999999997,-0.0745709376207096,0.6743323911175372,-0.1949497867892626
1.1129999999999995,-0.1363573384705609,0.6785944851509074,-0.180035948330971
1.116500000000002,-0.1789695521580024,0.6764634381342222,-0.1587289688226243
1.1200000000000043,-0.2237128128621291,0.6722030894301041,-0.1427504795206162
1.123500000000007,-0.2514094427620271,0.6732677402738206,-0.1193124529955843
1.1270000000000095,-0.2737810731140904,0.6711366932571355,-0.0958761717998045
1.130500000000012,-0.2823035158515787,0.6722030894301041,-0.0767019846373948
1.133999999999986,-0.2801724688348936,0.6828548338550254,-0.0490036094082447
1.1374999999999886,-0.2705853752536887,0.6828548338550254,-0.0266319790561814
1.1409999999999911,-0.249280141074594,0.6871169278883955,0.0031956978604016
1.1444999999999936,-0.2162550209683573,0.6860505317154271,0.0255673282124649
1.147999999999996,-0.182165250018404,0.6753987872905056,0.0511346564249298
1.1514999999999986,-0.1448797812080492,0.6690056462404504,0.0713752397603081
1.1550000000000011,-0.0948115209560878,0.6508961099217573,0.0884201252352847
1.1585000000000036,-0.0639174478665362,0.6359822714634658,0.1012029166768912
1.162000000000006,-0.0117181405978898,0.6061545945468827,0.1054650107102613
1.1655000000000086,0.0245026773687484,0.5848476150385359,0.1118564064310645
1.1690000000000111,0.0660484948832214,0.5496931932448661,0.1182478021518678
1.1724999999999852,0.1012029166768912,0.5219948180157161,0.1171831513081512
1.1759999999999875,0.1416840833476477,0.4868403962220463,0.1225098961852379
1.1794999999999902,0.1672514115601126,0.4538170214450616,0.1299659427497577
1.1829999999999927,0.2002765316663493,0.4133358547743051,0.1310323389227262
1.1864999999999952,0.2215817658454441,0.3792460838243518,0.1352926876268444
1.1899999999999975,0.2482137449016256,0.3313071252598236,0.1310323389227262
1.1935000000000002,0.2663250265495708,0.2918906094327836,0.1331616406101593
1.1970000000000027,0.2854992137119805,0.2343645572870505,0.1289012919060412
1.2005000000000052,0.2972173543098703,0.1874919948954908,0.1289012919060412
1.2040000000000075,0.314262239784847,0.1225098961852379,0.124639197872671
1.2075000000000102,0.3227846825223353,0.0767019846373947,0.1193124529955843
1.2110000000000127,0.3387649171535954,0.0117181405978898,0.1150521042914662
1.2144999999999868,0.3462209637181151,-0.02769837522915,0.1150521042914662
1.217999999999989,0.3590055004889736,-0.0884201252352847,0.110790010258096
1.2214999999999918,0.3653968962097769,-0.1320969897664428,0.1097253594143795
1.2249999999999943,0.3685925940701784,-0.1800359483309711,0.1043986145372928
1.2284999999999968,0.3675279432264619,-0.2151903701246409,0.1033339636935762
1.231999999999999,0.3622011983493752,-0.2556715367953974,0.096942567972773
1.2355000000000018,0.3419606150139969,-0.2844345628682639,0.0894847760790012
1.2390000000000043,0.3068061932203271,-0.3131975889411305,0.083093380358198
1.2425000000000068,0.2716500260974053,-0.341960615013997,0.0756355884644262
1.246000000000009,0.2109282760912706,-0.3600701513326901,0.0724398906040246
1.2495000000000118,0.1576643179789077,-0.3749839897909817,0.0681795418999064
1.252999999999986,0.0798976824977963,-0.3920288752659583,0.0649838440395048
1.2564999999999884,0.0106534897541733,-0.3962909692993285,0.0649838440395048
1.259999999999991,-0.0767019846373948,-0.4069427137242498,0.0681795418999064
1.2634999999999934,-0.1395530363309626,-0.4101401569139035,0.0649838440395048
1.266999999999996,-0.2258421145495623,-0.4144005056180216,0.069244192743623
1.2704999999999984,-0.2812388650078623,-0.413335854774305,0.0671131457269379
1.274000000000001,-0.3430252658577136,-0.4090737607409349,0.0649838440395048
1.2775000000000034,-0.38350643252847,-0.4090737607409349,0.0628527970228197
1.281000000000006,-0.4133358547743052,-0.39948666715973,0.0575260521457331
1.2845000000000084,-0.4261186462159116,-0.3888331774055567,0.0521993072686464
1.288000000000011,-0.4261186462159116,-0.3760503859639502,0.0447432607041266
1.2915000000000134,-0.4186608543221398,-0.3622011983493752,0.0362208179666383
1.2949999999999875,-0.39522457312636,-0.3398295679973119,0.0255673282124649
1.29849999999999,-0.3717882919305801,-0.3217200316786187,0.0170448854749766
1.3019999999999925,-0.3259803803827369,-0.2940216564494687,0.0106534897541733
1.305499999999995,-0.2972173543098704,-0.2673896773932872,0.0063913957208032
1.3089999999999975,-0.2418223491808223,-0.2290395577392158,-0.0053267448770866
1.3125,-0.2077325782308691,-0.2013411825100658,-0.013849187614575
1.3160000000000025,-0.1534022239455376,-0.166186760716396,-0.01598023463126
1.319500000000005,-0.1075943123976944,-0.138488385487246,-0.0181095363186931
1.3230000000000075,-0.0575260521457331,-0.1033339636935762,-0.0255673282124649
1.32650000000001,-0.0095870935812048,-0.0777666354811113,-0.0287630260728665
1.3300000000000125,0.0447432607041266,-0.0479389585645282,-0.0340897709499532
1.3334999999999866,0.0905494269227178,-0.0266319790561814,-0.0340897709499532
1.336999999999989,0.1427504795206162,0.0042603487041181,-0.0394165158270399
1.3404999999999916,0.1896230419121759,0.0287630260728665,-0.0383501196540714
1.343999999999994,0.2375620004767041,0.057526052145733,-0.0340897709499532
1.3474999999999966,0.2737810731140905,0.0841580312019145,-0.0372854688103548
1.350999999999999,0.3100018910807288,0.1139874534477496,-0.0340897709499532
1.3545000000000016,0.3355692192931938,0.1352926876268444,-0.0330233747769847
1.358000000000004,0.3622011983493752,0.1640557136997109,-0.0308940730895516
1.3615000000000066,0.3717882919305801,0.1779049013142859,-0.02769837522915
1.365000000000009,0.38350643252847,0.2066679273871525,-0.0287630260728665
1.3685000000000116,0.3909642244222419,0.2301042085829323,-0.029827676916583
1.3719999999999857,0.3824417816847535,0.2556715367953973,-0.0255673282124649
1.3754999999999882,0.3771150368076668,0.2823035158515787,-0.0223716303520633
1.378999999999991,0.3707236410868636,0.3078708440640437,-0.0106534897541733
1.3824999999999932,0.3611348021764067,0.3291760782431384,-0.0063913957208032
1.3859999999999957,0.341960615013997,0.3462209637181151,0.0010646508437165
1.3894999999999982,0.3270467765557054,0.3653968962097768,0.0053267448770866
1.393000000000001,0.3036087500306736,0.3877685265618401,0.0085224427374883
1.3965000000000032,0.2844345628682639,0.4016177141764151,0.0085224427374883
1.4000000000000057,0.2503447919183107,0.4207919013388248,0.0074577918937717
1.4035000000000082,0.2247774637058457,0.43890318298677,0.0085224427374883
1.407000000000011,0.1906876927558925,0.4687308599033531,0.0031956978604016
1.4105000000000132,0.1608600158393094,0.4847093492053612,0.002131047016685
1.4139999999999873,0.1193124529955844,0.5017542346803379,0.0031956978604016
1.4174999999999898,0.0873537290623162,0.5092120265741096,0.0031956978604016
1.4209999999999925,0.0340897709499533,0.5092120265741096,0.0127827914416064
1.4244999999999948,0.0010646508437166,0.4974938859762197,0.0170448854749766
1.4279999999999973,-0.0500682602519612,0.4783179534845579,0.0266319790561814
1.4314999999999998,-0.0873537290623161,0.4538170214450616,0.0330233747769847
1.4350000000000025,-0.1395530363309625,0.4175962034784233,0.0351544217936697
1.4385000000000048,-0.1704471094205141,0.3898978282492732,0.0372854688103548
1.4420000000000073,-0.2098636252475541,0.341960615013997,0.041545817514473
1.4455000000000098,-0.2322352555996174,0.3100018910807289,0.0436768645311581
1.4490000000000125,-0.2524758389349956,0.2535404897787123,0.0490036094082447
1.4524999999999864,-0.2652586303766022,0.2141239739516723,0.0532657034416149
1.4559999999999889,-0.2695207244099723,0.1587289688226243,0.0585907029894496
1.4594999999999914,-0.2684543282370038,0.1150521042914662,0.0628527970228197
1.462999999999994,-0.258867234655799,0.0575260521457331,0.0660484948832214
1.4664999999999964,-0.2546051406224288,0.0191759324916617,0.0703088435873395
1.4699999999999989,-0.2482137449016255,-0.0319587239332681,0.0745709376207097
1.4735000000000014,-0.2364956043037356,-0.0660484948832213,0.0735062867769931
1.477000000000004,-0.2269085107225308,-0.1054650107102613,0.0788312863248278
1.4805000000000064,-0.2173214171413259,-0.1278348957330726,0.0777666354811113
1.4840000000000089,-0.205601531214184,-0.1565979218059392,0.0798976824977964
1.4875000000000114,-0.2002765316663493,-0.1640557136997109,0.083093380358198
1.4909999999999854,-0.191754088928861,-0.1736428072809158,0.0916158230956863
1.494499999999988,-0.1800359483309711,-0.1779049013142859,0.0937468701123714
1.4979999999999905,-0.1693824585767977,-0.1715135055934827,0.1043986145372928
1.501499999999993,-0.1683160624038291,-0.1672514115601125,0.1065296615539778
1.5049999999999957,-0.164055713699711,-0.1629910628559944,0.1086607085706629
1.508499999999998,-0.1693824585767977,-0.1597953649955928,0.1129210572747811
1.5120000000000005,-0.1725781564371993,-0.1565979218059392,0.1171831513081512
1.515500000000003,-0.1725781564371993,-0.1555332709622226,0.1214435000122694
1.5190000000000057,-0.1842962970350892,-0.1512729222581045,0.1203788491685528
1.522500000000008,-0.1896230419121759,-0.1502065260851359,0.1214435000122694
1.5260000000000105,-0.191754088928861,-0.1406194325039311,0.1235745470289545
1.529500000000013,-0.1928187397725775,-0.1342280367831278,0.1182478021518678
1.532999999999987,-0.1938833906162941,-0.1267702448893561,0.124639197872671
1.5364999999999895,-0.1949497867892626,-0.1225098961852379,0.1278348957330726
1.539999999999992,-0.1992101354933808,-0.1171831513081512,0.1331616406101593
1.5434999999999943,-0.2024058333537824,-0.1193124529955843,0.1352926876268444
1.546999999999997,-0.2013411825100658,-0.1214435000122694,0.138488385487246
1.5504999999999995,-0.2045368803704675,-0.1267702448893561,0.136357338470561
1.554000000000002,-0.2024058333537824,-0.1406194325039311,0.1352926876268444
1.5575000000000043,-0.2013411825100658,-0.1512729222581045,0.1289012919060412
1.561000000000007,-0.1970790884766957,-0.1651203645434275,0.1214435000122694
1.5645000000000095,-0.191754088928861,-0.1747092034538843,0.1171831513081512
1.568000000000012,-0.1789695521580026,-0.1768385051413174,0.1129210572747811
1.571499999999986,-0.1725781564371993,-0.1789695521580025,0.1054650107102613
1.5749999999999886,-0.1576643179789078,-0.1736428072809158,0.1012029166768912
1.5784999999999911,-0.1491418752414194,-0.1651203645434275,0.0948115209560879
1.5819999999999936,-0.1331616406101594,-0.1438151303643327,0.0884201252352847
1.585499999999996,-0.1214435000122694,-0.1171831513081512,0.0820287295144815
1.5889999999999986,-0.1075943123976944,-0.0820287295144815,0.0809623333415129
1.5925000000000011,-0.1022693128498597,-0.0543303542853314,0.0713752397603081
1.5960000000000036,-0.0958761717998045,-0.0117181405978899,0.0703088435873395
1.599500000000006,-0.0905494269227178,0.0191759324916617,0.0681795418999064
1.6030000000000086,-0.0820287295144815,0.0607217500061347,0.0724398906040246
1.6065000000000111,-0.0756355884644262,0.1001382658331746,0.0777666354811113
1.6099999999999852,-0.0649838440395048,0.1416840833476476,0.0916158230956863
1.6134999999999875,-0.057526052145733,0.1725781564371993,0.0937468701123714
1.6169999999999902,-0.0447432607041266,0.2130593231079557,0.1033339636935762
1.6204999999999927,-0.0351544217936697,0.2354309534600191,0.1097253594143795
1.6239999999999952,-0.0223716303520632,0.2652586303766022,0.1182478021518678
1.6274999999999975,-0.0085224427374882,0.288694911572382,0.1299659427497577
1.6310000000000002,0.0085224427374883,0.3046751462036421,0.138488385487246
1.6345000000000027,0.0213052341790948,0.3217200316786187,0.1512729222581045
1.6380000000000052,0.0468725623915597,0.3302424744161071,0.1683160624038291
1.6415000000000075,0.0607217500061347,0.3376985209806268,0.180035948330971
1.6450000000000102,0.0745709376207097,0.341960615013997,0.2024058333537824
1.6485000000000127,0.0873537290623162,0.3376985209806268,0.2109282760912707
1.6519999999999868,0.096942567972773,0.3259803803827369,0.2205171150017275
1.655499999999989,0.0958761717998045,0.3100018910807288,0.2258421145495622
1.6589999999999918,0.094811520956088,0.2876302607286655,0.233299906443334
1.6624999999999943,0.0916158230956863,0.2673896773932873,0.2386266513204207
1.6659999999999968,0.0873537290623162,0.2407576983371057,0.2428870000245388
1.669499999999999,0.0852244273748831,0.2247774637058457,0.2460844432141925
1.6730000000000018,0.0788312863248279,0.2034722295267509,0.2524758389349957
1.6765000000000043,0.0713752397603081,0.191754088928861,0.2535404897787122
1.6800000000000068,0.0703088435873396,0.1832316461913727,0.2524758389349957
1.683500000000009,0.0617864008498512,0.1747092034538843,0.2535404897787122
1.6870000000000118,0.055395005129048,0.177904901314286,0.2567361876391139
1.690499999999986,0.0458079115478431,0.1832316461913727,0.2620629325162006
1.6939999999999884,0.0351544217936698,0.191754088928861,0.2695207244099723
1.697499999999991,0.0255673282124649,0.1981454846496642,0.2705853752536888
1.7009999999999934,0.0149138384582915,0.2141239739516723,0.2812388650078622
1.704499999999996,0.0095870935812048,0.2226464166891606,0.288694911572382
1.7079999999999984,0.0085224427374883,0.2407576983371057,0.2982837504828389
1.711500000000001,0.0042603487041181,0.2535404897787122,0.3089354949077603
1.7150000000000034,0.0085224427374883,0.2759121201307756,0.3217200316786187
1.718500000000006,0.0170448854749766,0.2940216564494687,0.3323735214327921
1.7220000000000084,0.0362208179666383,0.3217200316786187,0.3472873598910836
1.725500000000011,0.0543303542853315,0.3408942188410284,0.355809802628572
1.7290000000000134,0.083093380358198,0.3547434064556034,0.3792460838243518
1.7324999999999875,0.1043986145372928,0.3643322453660603,0.3962909692993285
1.73599999999999,0.122509896185238,0.3707236410868635,0.4144005056180216
1.7394999999999925,0.1352926876268445,0.3643322453660603,0.4271832970596281
1.742999999999995,0.1459461773810179,0.3515477085952018,0.4442281825346047
1.7464999999999975,0.1459461773810179,0.3440916620306821,0.4484902765679749
1.75,0.1342280367831279,0.3206536355056502,0.4570127193054631
1.7535000000000025,0.1235745470289545,0.3014794483432405,0.4612730680095813
1.757000000000005,0.0980072188164896,0.2759121201307756,0.464468765869983
1.7605000000000075,0.0788312863248279,0.2503447919183106,0.4634041150262664
1.76400000000001,0.0490036094082448,0.2130593231079557,0.4697955107470696
1.7675000000000125,0.0319587239332681,0.1789695521580025,0.4708619069200382
1.7709999999999866,0.0095870935812048,0.1352926876268444,0.4783179534845579
1.774499999999989,0.0095870935812048,0.1054650107102613,0.4783179534845579
1.7779999999999916,0.0095870935812048,0.0607217500061347,0.4740576047804398
1.781499999999994,0.01598023463126,0.0245026773687483,0.4676662090596366
1.7849999999999966,0.0394165158270399,-0.0181095363186931,0.4548816722887781
1.788499999999999,0.0532657034416149,-0.0521993072686464,0.4463592295512898
1.7920000000000016,0.0809623333415129,-0.0937468701123714,0.4325100419367148
1.795500000000004,0.1022693128498597,-0.1203788491685529,0.4165315526347067
1.7990000000000066,0.1289012919060412,-0.1576643179789078,0.4016177141764152
1.802500000000009,0.1448797812080492,-0.1821652500184042,0.3877685265618402
1.806000000000012,0.1651203645434275,-0.2066679273871526,0.369657244913895
1.8094999999999857,0.1651203645434275,-0.2215817658454441,0.355809802628572
1.812999999999988,0.1576643179789077,-0.2322352555996175,0.3366338701369103
1.816499999999991,0.1416840833476476,-0.233299906443334,0.3259803803827369
1.8199999999999927,0.1097253594143794,-0.2301042085829324,0.3131975889411305
1.823499999999996,0.071375239760308,-0.2279731615662473,0.3100018910807288
1.8269999999999984,0.0213052341790947,-0.2205171150017275,0.3078708440640437
1.830500000000001,-0.0170448854749766,-0.2162550209683574,0.3089354949077603
1.8340000000000032,-0.069244192743623,-0.2024058333537824,0.314262239784847
1.8375000000000057,-0.1118564064310646,-0.191754088928861,0.3185243338182171
1.841000000000008,-0.1555332709622227,-0.1779049013142859,0.3249157295390203
1.844500000000011,-0.1800359483309711,-0.1672514115601125,0.3259803803827369
1.8480000000000127,-0.2066679273871526,-0.152337573101821,0.3313071252598236
1.8514999999999875,-0.2183860679850425,-0.1470108282247343,0.3291760782431385
1.8549999999999895,-0.2215817658454441,-0.1352926876268444,0.3387649171535954
1.8584999999999925,-0.2130593231079558,-0.1267702448893561,0.3440916620306821
1.8619999999999948,-0.1842962970350892,-0.1161167551351827,0.3462209637181151
1.8654999999999973,-0.1587289688226243,-0.1118564064310645,0.3494166615785167
1.869,-0.1043986145372928,-0.1161167551351827,0.341960615013997
1.8725000000000025,-0.0617864008498512,-0.1214435000122694,0.3398295679973119
1.8760000000000048,0.01598023463126,-0.124639197872671,0.3249157295390203
1.8795000000000075,0.069244192743623,-0.1289012919060412,0.3174579376452486
1.8830000000000096,0.1459461773810178,-0.1320969897664428,0.2961527034661538
1.8865000000000125,0.2013411825100658,-0.1320969897664428,0.2812388650078622
1.8899999999999864,0.2673896773932873,-0.1331616406101594,0.2599318854995155
1.8934999999999889,0.3153286359578155,-0.1342280367831279,0.2439533961975074
1.8969999999999916,0.3632658491930918,-0.1331616406101594,0.2205171150017275
1.9004999999999936,0.3930952714389268,-0.1310323389227263,0.2002765316663493
1.9039999999999964,0.4090737607409349,-0.1267702448893561,0.1747092034538843
1.9074999999999989,0.4165315526347067,-0.1246391978726711,0.1544686201185061
1.9110000000000011,0.4133358547743051,-0.1150521042914662,0.1331616406101593
1.914500000000004,0.4048134120368167,-0.1118564064310646,0.1129210572747811
1.9180000000000064,0.3824417816847534,-0.0980072188164896,0.0894847760790012
1.9215000000000089,0.3622011983493752,-0.0905494269227178,0.0660484948832214
1.9250000000000116,0.3334381722765087,-0.0777666354811113,0.0436768645311581
1.9284999999999852,0.3089354949077603,-0.067113145726938,0.02769837522915
1.931999999999988,0.2823035158515788,-0.055395005129048,0.0095870935812048
1.9354999999999905,0.2503447919183106,-0.0426122136874415,-0.0063913957208032
1.938999999999993,0.2237128128621291,-0.0298276769165831,-0.0202405833353782
1.9424999999999957,0.1896230419121759,-0.0213052341790948,-0.0287630260728665
1.945999999999998,0.1619246666830259,-0.0106534897541734,-0.0330233747769847
1.9495000000000005,0.1257055940456395,-0.0031956978604016,-0.0458079115478431
1.953000000000003,0.0958761717998045,-1.1741444690913233e-17,-0.0511346564249298
1.9565000000000052,0.0596570991624181,-7.305887553567168e-18,-0.0521993072686464
1.960000000000008,0.0308940730895516,0.002131047016685,-0.0521993072686464
1.9635000000000105,-0.0063913957208032,7.827202311565772e-19,-0.0511346564249298
1.967000000000013,-0.0372854688103548,0.0042603487041181,-0.0468725623915597
1.970499999999987,-0.0756355884644262,0.0042603487041181,-0.0383501196540714
1.973999999999989,-0.1001382658331746,0.0031956978604016,-0.0340897709499532
1.977499999999992,-0.1310323389227262,0.0074577918937717,-0.0234362811957798
1.9809999999999943,-0.152337573101821,0.0074577918937717,-0.0202405833353782
1.984499999999997,-0.1704471094205142,0.0149138384582915,-0.0074577918937717
1.9879999999999995,-0.1768385051413174,0.013849187614575,-0.0042603487041181
1.991500000000002,-0.1725781564371993,0.0149138384582915,0.0
1.9950000000000043,-0.166186760716396,0.0106534897541734,-0.0053267448770866
1.998500000000007,-0.1470108282247343,0.0106534897541734,-0.0095870935812048
2.002000000000009,-0.1278348957330726,0.0074577918937717,-0.0181095363186931
2.005500000000012,-0.0990718696602061,0.0053267448770867,-0.0223716303520633
2.008999999999986,-0.0777666354811113,0.0031956978604016,-0.0255673282124649
2.0124999999999886,-0.0468725623915597,0.0042603487041181,-0.0351544217936697
2.015999999999991,-0.0266319790561814,0.0085224427374883,-0.0404811666707564
2.0194999999999936,-0.0053267448770866,0.0074577918937717,-0.0500682602519613
2.022999999999996,0.0095870935812048,0.0149138384582915,-0.0585907029894496
2.026499999999998,0.0191759324916617,0.0213052341790947,-0.0628527970228197
2.030000000000001,0.0245026773687483,0.0319587239332681,-0.0713752397603081
2.033500000000004,0.0170448854749766,0.0394165158270399,-0.0767019846373948
2.037000000000006,0.0127827914416064,0.0436768645311581,-0.0841580312019145
2.0405000000000086,0.002131047016685,0.0426122136874415,-0.0937468701123714
2.044000000000011,-0.0106534897541733,0.0404811666707564,-0.1086607085706629
2.047499999999985,-0.0234362811957798,0.0330233747769847,-0.1171831513081512
2.050999999999988,-0.0330233747769847,0.02769837522915,-0.1225098961852379
2.0544999999999902,-0.0490036094082447,0.0213052341790947,-0.1235745470289545
2.0579999999999927,-0.0532657034416149,0.013849187614575,-0.1225098961852379
2.0614999999999952,-0.0596570991624181,0.0074577918937717,-0.1118564064310645
2.0649999999999977,-0.0596570991624181,0.0053267448770867,-0.1086607085706629
2.0685,-0.0628527970228197,0.0053267448770867,-0.096942567972773
2.0720000000000027,-0.0671131457269379,0.0063913957208032,-0.0809623333415129
2.075500000000005,-0.0649838440395048,0.0095870935812048,-0.0649838440395048
2.079000000000008,-0.069244192743623,0.0106534897541733,-0.0532657034416149
2.0825000000000102,-0.0788312863248278,0.0117181405978899,-0.0340897709499532
2.0860000000000127,-0.0937468701123714,0.0127827914416064,-0.0149138384582915
2.089499999999987,-0.1139874534477496,0.0117181405978899,0.0
2.0929999999999893,-0.136357338470561,0.0127827914416064,0.0085224427374883
2.096499999999992,-0.166186760716396,0.0117181405978899,0.0191759324916617
2.0999999999999943,-0.1938833906162941,0.0127827914416064,0.029827676916583
2.103499999999997,-0.2311688594266489,0.0063913957208032,0.0426122136874415
2.1069999999999998,-0.2631275833599171,0.0095870935812048,0.0447432607041266
2.110500000000002,-0.3046751462036421,0.0085224427374883,0.055395005129048
2.1140000000000043,-0.3345028231202252,0.0085224427374883,0.0564614013020165
2.117500000000007,-0.3739193389472651,4.579191215810625e-17,0.0724398906040246
2.1210000000000093,-0.4069427137242498,-0.0053267448770866,0.0820287295144815
2.124500000000012,-0.452750625272093,-0.0223716303520632,0.0948115209560879
2.127999999999986,-0.4836446983616446,-0.0415458175144729,0.1001382658331746
2.1314999999999884,-0.519865516328283,-0.071375239760308,0.1129210572747811
2.134999999999991,-0.5315836569261729,-0.1001382658331745,0.1161167551351827
2.1384999999999934,-0.5262569120490862,-0.1502065260851359,0.1310323389227262
2.141999999999996,-0.5113430735907947,-0.193883390616294,0.1320969897664428
2.1454999999999984,-0.4740576047804399,-0.2588672346557989,0.1289012919060412
2.149000000000001,-0.4239875991992266,-0.3100018910807288,0.1257055940456395
2.1525000000000034,-0.3526141047681704,-0.3739193389472651,0.1225098961852379
2.156000000000006,-0.2844345628682639,-0.4229229483555099,0.1225098961852379
2.1595000000000084,-0.1970790884766957,-0.4761869064678729,0.124639197872671
2.163000000000011,-0.1246391978726711,-0.508147375730393,0.1320969897664428
2.1665000000000134,-0.0404811666707565,-0.5464974953844645,0.1352926876268444
2.1699999999999875,0.0149138384582914,-0.5656734278761262,0.1438151303643327
2.17349999999999,0.0756355884644262,-0.5784562193177326,0.1491418752414194
2.1769999999999925,0.1086607085706628,-0.586978662055221,0.1544686201185061
2.180499999999995,0.1395530363309625,-0.5848476150385359,0.1619246666830259
2.183999999999997,0.1502065260851359,-0.5795208701614492,0.1587289688226243
2.1875,0.1491418752414194,-0.5624759846864725,0.1544686201185061
2.1910000000000025,0.1427504795206161,-0.5433017975240628,0.1512729222581045
2.194500000000005,0.1289012919060411,-0.5156034222949128,0.1448797812080492
2.1980000000000075,0.1203788491685528,-0.4889714432387313,0.1427504795206162
2.20150000000001,0.1086607085706629,-0.4506213235846599,0.1480754790684509
2.2050000000000125,0.0916158230956862,-0.41120480775762,0.1565979218059392
2.2084999999999866,0.0798976824977963,-0.3600701513326901,0.1736428072809158
2.211999999999989,0.0692441927436229,-0.3195889846619337,0.1885583910684593
2.215499999999992,0.0607217500061346,-0.2631275833599171,0.2034722295267509
2.218999999999994,0.0607217500061346,-0.219450718828759,0.2205171150017275
2.2224999999999966,0.0458079115478431,-0.1544686201185061,0.2205171150017275
2.225999999999999,0.0394165158270399,-0.1001382658331746,0.2173214171413259
2.2295000000000016,0.0458079115478431,-0.0298276769165831,0.1960144376329791
2.233000000000004,0.0756355884644262,0.0010646508437165,0.1789695521580025
2.2365000000000066,0.1512729222581045,0.0245026773687483,0.138488385487246
2.240000000000009,0.2205171150017275,0.01598023463126,0.1065296615539778
2.243500000000012,0.3153286359578155,-0.0021310470166851,0.0564614013020165
2.2469999999999857,0.3824417816847534,-0.0287630260728665,0.0181095363186931
2.250499999999988,0.4570127193054631,-0.0735062867769932,-0.029827676916583
2.2539999999999907,0.492167141099133,-0.1054650107102614,-0.0585907029894496
2.257499999999993,0.5049499325407395,-0.136357338470561,-0.0884201252352847
2.260999999999996,0.4900360940824479,-0.1608600158393094,-0.0958761717998045
2.264499999999998,0.4420988808471717,-0.1853609478788058,-0.1022693128498597
2.2680000000000007,0.3803107346680683,-0.1960144376329792,-0.0948115209560879
2.271500000000003,0.2876302607286655,-0.2109282760912707,-0.0703088435873395
2.2750000000000057,0.2034722295267509,-0.2130593231079558,-0.0479389585645282
2.278500000000008,0.096942567972773,-0.2130593231079557,-0.0149138384582915
2.2820000000000107,0.0276983752291499,-0.2087989744038376,0.0095870935812048
2.285500000000013,-0.0521993072686464,-0.2013411825100658,0.0383501196540714
2.2889999999999877,-0.1012029166768912,-0.1864273440517743,0.0639174478665363
2.2924999999999898,-0.1565979218059392,-0.1757738542976009,0.0873537290623162
2.2959999999999923,-0.1853609478788058,-0.1693824585767976,0.1033339636935762
2.2994999999999948,-0.2215817658454441,-0.1597953649955928,0.1193124529955843
2.3029999999999973,-0.2418223491808223,-0.1555332709622226,0.1289012919060412
2.3065,-0.2791078179911772,-0.1555332709622226,0.1320969897664428
2.3100000000000023,-0.2993484013265554,-0.1619246666830258,0.1374237346435295
2.3135000000000048,-0.3302424744161071,-0.166186760716396,0.136357338470561
2.3170000000000077,-0.3398295679973119,-0.1725781564371993,0.1352926876268444
2.3205000000000098,-0.3483520107348002,-0.1864273440517742,0.1299659427497577
2.3240000000000123,-0.3472873598910836,-0.193883390616294,0.1289012919060412
2.3274999999999864,-0.3366338701369103,-0.2013411825100658,0.1320969897664428
2.330999999999989,-0.316393286801532,-0.2109282760912706,0.1257055940456395
2.334499999999992,-0.2812388650078622,-0.2205171150017275,0.1171831513081512
2.337999999999994,-0.2567361876391139,-0.2301042085829323,0.1129210572747811
2.3414999999999964,-0.2173214171413259,-0.2418223491808223,0.1022693128498597
2.344999999999999,-0.1885583910684594,-0.2396913021641372,0.1001382658331746
2.3485000000000014,-0.1523375731018211,-0.2460844432141924,0.096942567972773
2.352000000000004,-0.1235745470289545,-0.2460844432141924,0.0905494269227178
2.3555000000000064,-0.0905494269227178,-0.2418223491808223,0.0916158230956863
2.359000000000009,-0.069244192743623,-0.2396913021641372,0.0926804739394028
2.362500000000012,-0.0383501196540714,-0.233299906443334,0.1022693128498597
2.365999999999985,-0.0223716303520633,-0.2290395577392158,0.1161167551351827
2.369499999999988,0.0042603487041181,-0.2258421145495622,0.1352926876268444
2.3729999999999905,0.0213052341790947,-0.2226464166891606,0.1608600158393093
2.376499999999993,0.0490036094082447,-0.2215817658454441,0.1864273440517743
2.3799999999999955,0.0681795418999064,-0.2119946722642392,0.2183860679850424
2.383499999999998,0.0873537290623161,-0.2013411825100658,0.2620629325162006
2.3870000000000005,0.1001382658331746,-0.1928187397725775,0.288694911572382
2.390500000000003,0.1054650107102613,-0.2002765316663493,0.3291760782431385
2.394000000000005,0.1075943123976944,-0.1981454846496642,0.3483520107348002
2.397500000000008,0.1001382658331746,-0.1981454846496642,0.3888331774055567
2.4010000000000105,0.0937468701123713,-0.1906876927558924,0.4207919013388249
2.404500000000013,0.069244192743623,-0.191754088928861,0.452750625272093
2.407999999999987,0.0521993072686463,-0.1906876927558924,0.480449000501243
2.411499999999989,0.0181095363186931,-0.1832316461913727,0.5156034222949128
2.414999999999992,-0.0074577918937717,-0.180035948330971,0.5401060996636612
2.4184999999999945,-0.0479389585645282,-0.1928187397725775,0.5656734278761262
2.421999999999997,-0.0745709376207097,-0.2077325782308691,0.5816519171781342
2.4254999999999995,-0.1012029166768912,-0.2290395577392158,0.6040235475301975
2.429000000000002,-0.1182478021518678,-0.2492801410745941,0.6189373859884891
2.4325000000000045,-0.1352926876268444,-0.2737810731140905,0.644504714200954
2.436000000000007,-0.1427504795206162,-0.288694911572382,0.6679409953967339
2.439500000000009,-0.1480754790684509,-0.2972173543098703,0.7041618133633722
2.443000000000012,-0.1374237346435295,-0.2972173543098703,0.7350541411236718
2.446499999999986,-0.122509896185238,-0.2876302607286655,0.7840577505319166
2.4499999999999886,-0.1054650107102613,-0.2801724688348938,0.8234742663589566
2.453499999999991,-0.0798976824977964,-0.2791078179911772,0.8671511308901148
2.4569999999999936,-0.0575260521457331,-0.2737810731140905,0.8810003185046897
2.460499999999996,-0.0266319790561815,-0.2546051406224288,0.905502995873438
2.463999999999998,-2.6874962038422557e-17,-0.219450718828759,0.9342660219463046
2.467500000000001,0.0319587239332681,-0.1534022239455376,0.9790075373211792
2.471000000000004,0.0532657034416149,-0.1043986145372928,1.0067059125503293
2.474500000000006,0.0788312863248278,-0.041545817514473,1.0386646364835974
2.4780000000000086,0.0948115209560879,0.0063913957208032,1.063165568523094
2.481500000000011,0.1150521042914662,0.0745709376207097,1.081276850171039
2.484999999999985,0.1331616406101594,0.124639197872671,1.0908639437522438
2.488499999999988,0.1544686201185061,0.1757738542976009,1.0897992929085274
2.4919999999999902,0.1757738542976009,0.2098636252475541,1.0940596416126456
2.4954999999999927,0.1949497867892626,0.2450180470412239,1.0940596416126456
2.4989999999999952,0.2034722295267509,0.274847469287059,1.0919285945959605
2.5024999999999977,0.2109282760912707,0.3100018910807288,1.0876682458918423
2.506,0.205601531214184,0.3334381722765087,1.083406151858472
2.5095000000000027,0.2034722295267509,0.3579391043160051,1.083406151858472
2.513000000000005,0.1960144376329792,0.3739193389472651,1.0866035950481256
2.516500000000008,0.177904901314286,0.3856374795451551,1.0844725480314406
2.5200000000000102,0.1672514115601126,0.3994866671597301,1.0855371988751572
2.5235000000000127,0.1544686201185062,0.4175962034784233,1.081276850171039
2.526999999999987,0.1384883854872461,0.4218582975117934,1.0802104539980706
2.5304999999999893,0.1214435000122694,0.4346410889533998,1.0727544074335509
2.533999999999992,0.1182478021518678,0.4399678338304866,1.0706233604168656
2.5374999999999943,0.108660708570663,0.4506213235846599,1.0599698706626923
2.540999999999997,0.1022693128498598,0.4580773701491797,1.0503827770814873
2.5444999999999998,0.1054650107102614,0.4612730680095813,1.0386646364835974
2.548000000000002,0.0980072188164896,0.4729912086074713,1.0280111467294242
2.5515000000000043,0.0926804739394029,0.4772533026408414,1.0152283552878176
2.555000000000007,0.0894847760790013,0.4836446983616446,1.000314516829526
2.5585000000000093,0.0777666354811114,0.4847093492053612,0.9875299800586675
2.562000000000012,0.069244192743623,0.4942981881158181,0.9736807924440926
2.565499999999986,0.0575260521457331,0.4911024902554164,0.9619626518462028
2.5689999999999884,0.0490036094082448,0.4911024902554164,0.9491798604045962
2.572499999999991,0.041545817514473,0.4879067923950148,0.9417220685108244
2.5759999999999934,0.0362208179666383,0.4815136513449596,0.9321349749296196
2.579499999999996,0.0394165158270399,0.4708619069200382,0.9300039279129344
2.5829999999999984,0.0426122136874416,0.4655351620429515,0.928939277069218
2.586500000000001,0.0468725623915597,0.452750625272093,0.9257435792088164
2.5900000000000034,0.0543303542853315,0.4420988808471717,0.9300039279129344
2.593500000000006,0.0735062867769932,0.4271832970596281,0.9385263706504228
2.5970000000000084,0.0884201252352847,0.4101401569139035,0.9513109074212812
2.600500000000011,0.1182478021518678,0.3930952714389268,0.9736807924440926
2.6040000000000134,0.1448797812080493,0.3771150368076668,0.9885963762316362
2.6074999999999875,0.1757738542976009,0.3515477085952018,1.022684401852337
2.61099999999999,0.205601531214184,0.3291760782431385,1.0471870792210858
2.6144999999999925,0.2322352555996175,0.3025440991869569,1.079145803154354
2.617999999999995,0.2535404897787123,0.2801724688348937,1.1047131313668188
2.621499999999997,0.2759121201307756,0.2524758389349956,1.134540808283402
2.625,0.2823035158515788,0.2311688594266489,1.1537167407750637
2.6285000000000025,0.2833681666952953,0.2002765316663493,1.1696952300770718
2.632000000000005,0.2780431671474606,0.1821652500184041,1.17821767281456
2.6355000000000075,0.258867234655799,0.1597953649955928,1.1910022095854185
2.63900000000001,0.2428870000245389,0.1459461773810178,1.1941979074458202
2.6425000000000125,0.219450718828759,0.1267702448893561,1.196328954462505
2.6459999999999866,0.1949497867892626,0.1150521042914661,1.196328954462505
2.649499999999989,0.1672514115601126,0.110790010258096,1.1995246523229068
2.652999999999992,0.1448797812080492,0.1012029166768911,1.1941979074458202
2.656499999999994,0.1182478021518678,0.1043986145372928,1.1995246523229068
2.6599999999999966,0.1075943123976944,0.1022693128498597,1.1973936053062215
2.663499999999999,0.0916158230956863,0.1118564064310645,1.20591604804371
2.6670000000000016,0.083093380358198,0.1193124529955843,1.2208298865020015
2.670500000000004,0.0745709376207097,0.1257055940456395,1.2389411681499467
2.6740000000000066,0.0713752397603081,0.1299659427497577,1.2517239595915532
2.677500000000009,0.0713752397603081,0.138488385487246,1.273029193770648
2.681000000000012,0.069244192743623,0.1470108282247343,1.2911404754185931
2.6844999999999857,0.0767019846373948,0.1491418752414194,1.3156414074580896
2.687999999999988,0.0756355884644262,0.1491418752414194,1.338013037810153
2.6914999999999907,0.0798976824977964,0.1459461773810178,1.3657114130393029
2.694999999999993,0.0841580312019145,0.1480754790684509,1.3859519963746811
2.698499999999996,0.0852244273748831,0.1395530363309626,1.409388277570461
2.701999999999998,0.0852244273748831,0.1310323389227262,1.4296288609058392
2.7055000000000007,0.0841580312019145,0.1150521042914661,1.4434780485204144
2.709000000000003,0.0777666354811113,0.1043986145372928,1.455196189118304
2.7125000000000057,0.0713752397603081,0.0777666354811113,1.4658479335432255
2.716000000000008,0.0660484948832214,0.0564614013020165,1.474370376280714
2.7195000000000107,0.0596570991624181,0.0287630260728665,1.490350610911974
2.723000000000013,0.0617864008498512,0.0031956978604016,1.4978066574764937
2.7264999999999877,0.0596570991624181,-0.0319587239332681,1.512722241264037
2.7299999999999898,0.057526052145733,-0.0649838440395048,1.520178287828557
2.7334999999999923,0.055395005129048,-0.1022693128498597,1.5372231733035338
2.7369999999999948,0.0458079115478431,-0.138488385487246,1.5478766630577072
2.7404999999999973,0.0340897709499532,-0.1842962970350892,1.5606594544993135
2.744,0.0234362811957798,-0.2162550209683574,1.5723775950972034
2.7475000000000023,0.0095870935812048,-0.2556715367953973,1.5862267827117784
2.7510000000000048,-0.0074577918937718,-0.2833681666952953,1.5947492254492668
2.7545000000000077,-0.0245026773687484,-0.3185243338182171,1.61285876176796
2.7580000000000098,-0.0340897709499532,-0.3334381722765087,1.6213812045054483
2.7615000000000123,-0.0490036094082448,-0.3536787556118869,1.6330993451033382
2.7649999999999864,-0.0490036094082448,-0.3622011983493752,1.6437528348575114
2.768499999999989,-0.0521993072686464,-0.3664615470534934,1.654406324611685
2.771999999999992,-0.0500682602519613,-0.3643322453660603,1.6618641165054566
2.775499999999994,-0.0458079115478432,-0.3590055004889736,1.6725158609303783
2.7789999999999964,-0.0298276769165831,-0.3536787556118869,1.6725158609303783
2.782499999999999,-0.0191759324916617,-0.3366338701369103,1.6735822571033467
2.7860000000000014,-0.0085224427374883,-0.3174579376452486,1.6703848139136932
2.789500000000004,0.0053267448770866,-0.2897613077453506,1.6714512100866616
2.7930000000000064,0.0127827914416064,-0.2716500260974054,1.6597330694887715
2.796500000000009,0.0181095363186931,-0.2375620004767041,1.649079579734598
2.800000000000012,0.0255673282124649,-0.2087989744038376,1.6384260899804248
2.803499999999985,0.0351544217936697,-0.1672514115601126,1.6192519028180152
2.806999999999988,0.041545817514473,-0.1331616406101593,1.60540271520344
2.8104999999999905,0.0585907029894496,-0.0862890782185996,1.5883578297284635
2.813999999999993,0.0660484948832214,-0.0521993072686464,1.5787707361472587
2.8174999999999955,0.0788312863248278,-0.0085224427374883,1.5627905015159986
2.820999999999998,0.0905494269227178,0.0202405833353782,1.5532034079347938
2.8245000000000005,0.1043986145372928,0.0660484948832214,1.5468120122139906
2.828000000000003,0.1193124529955843,0.0958761717998044,1.5393542203202186
2.831500000000005,0.1310323389227263,0.1289012919060412,1.5350921262868489
2.835000000000008,0.1470108282247344,0.1565979218059392,1.531896428426447
2.8385000000000105,0.1608600158393094,0.1821652500184041,1.52656968354936
2.842000000000013,0.1736428072809158,0.2034722295267509,1.5297671267390138
2.845499999999987,0.1842962970350892,0.2237128128621291,1.5244403818619272
2.848999999999989,0.1928187397725775,0.235430953460019,1.5244403818619272
2.852499999999992,0.2013411825100658,0.2439533961975073,1.520178287828557
2.8559999999999945,0.2045368803704675,0.2503447919183106,1.5169825899681555
2.859499999999997,0.2013411825100658,0.2503447919183106,1.5095265434036358
2.8629999999999995,0.1992101354933808,0.2482137449016255,1.5052644493702656
2.866500000000002,0.1992101354933808,0.2482137449016255,1.5031334023535805
2.8700000000000045,0.1896230419121759,0.2407576983371057,1.4999377044931788
2.873500000000007,0.1906876927558924,0.2290395577392158,1.502068751509864
2.877000000000009,0.1821652500184042,0.2183860679850424,1.5073954963869507
2.880500000000012,0.177904901314286,0.2034722295267509,1.512722241264037
2.883999999999986,0.1693824585767977,0.1896230419121758,1.5233739856889583
2.8874999999999886,0.1597953649955928,0.1715135055934827,1.531896428426447
2.890999999999991,0.150206526085136,0.1544686201185061,1.5414852673369035
2.8944999999999936,0.1395530363309626,0.1395530363309625,1.555332709622227
2.897999999999996,0.1289012919060412,0.1203788491685528,1.563855152359715
2.901499999999998,0.1203788491685529,0.1012029166768911,1.5723775950972034
2.905000000000001,0.1171831513081513,0.0862890782185996,1.583031084851377
2.908500000000004,0.1139874534477496,0.0703088435873395,1.5947492254492668
2.912000000000006,0.1129210572747811,0.0511346564249298,1.6000759703263534
2.9155000000000086,0.1065296615539778,0.0308940730895516,1.606467366047157
2.919000000000011,0.0990718696602061,0.0170448854749766,1.61285876176796
2.922499999999985,0.096942567972773,0.0042603487041181,1.6235122515221332
2.925999999999988,0.0916158230956863,-0.0085224427374883,1.6288389963992198
2.9294999999999902,0.0948115209560879,-0.0191759324916617,1.6362967882929915
2.9329999999999927,0.0980072188164895,-0.0340897709499532,1.642688184013795
2.9364999999999952,0.1033339636935762,-0.0479389585645282,1.6512106267512834
2.9399999999999977,0.1171831513081512,-0.0607217500061347,1.6533416737679685
2.9435,0.1267702448893561,-0.0713752397603081,1.65653737162837
2.9470000000000027,0.1395530363309626,-0.0809623333415129,1.6607977203324882
2.950500000000005,0.1470108282247343,-0.0884201252352847,1.6607977203324882
2.954000000000008,0.1565979218059392,-0.0937468701123714,1.65653737162837
2.9575000000000102,0.1768385051413174,-0.1022693128498597,1.6512106267512834
2.9610000000000127,0.1885583910684593,-0.1033339636935763,1.64481923103048
2.964499999999987,0.2119946722642392,-0.1097253594143795,1.6384260899804248
2.9679999999999893,0.2290395577392158,-0.110790010258096,1.6384260899804248
2.971499999999992,0.247149094057909,-0.1214435000122694,1.6362967882929915
2.9749999999999943,0.2631275833599171,-0.122509896185238,1.6352303921200233
2.978499999999997,0.2737810731140905,-0.1278348957330727,1.6437528348575114
2.9819999999999998,0.2823035158515788,-0.1320969897664428,1.650144230578315
2.985500000000002,0.2759121201307756,-0.1352926876268444,1.665059814365858
2.9890000000000043,0.2684543282370038,-0.1384883854872461,1.6767779549637485
2.992500000000007,0.2524758389349957,-0.1448797812080493,1.6895607464053546
2.9960000000000093,0.2322352555996174,-0.1438151303643328,1.7108677259137015
2.999500000000012,0.2056015312141839,-0.1491418752414194,1.7268462152157096
3.002999999999986,0.1789695521580025,-0.1544686201185061,1.7417600536740012
3.0064999999999884,0.1352926876268444,-0.1544686201185061,1.765196334869781
3.009999999999991,0.1043986145372928,-0.1565979218059392,1.7779808716406396
3.0134999999999934,0.0628527970228197,-0.1565979218059392,1.790763663082246
3.016999999999996,0.0351544217936697,-0.1565979218059392,1.800352501992703
3.0204999999999984,-0.0053267448770867,-0.1544686201185061,1.808874944730191
3.024000000000001,-0.0330233747769847,-0.1512729222581045,1.811004246417624
3.0275000000000034,-0.0543303542853315,-0.1416840833476476,1.8141999442780257
3.031000000000006,-0.0724398906040246,-0.1342280367831279,1.8141999442780257
3.0345000000000084,-0.0798976824977964,-0.1214435000122694,1.806743897713506
3.038000000000011,-0.083093380358198,-0.1086607085706629,1.8035481998531044
3.0415000000000134,-0.0756355884644262,-0.0948115209560879,1.7971568041323012
3.0449999999999875,-0.0649838440395048,-0.0862890782185996,1.7896990122385292
3.04849999999999,-0.0458079115478431,-0.069244192743623,1.781176569501041
3.0519999999999925,-0.0308940730895516,-0.057526052145733,1.7779808716406396
3.055499999999995,-0.0202405833353782,-0.0394165158270399,1.767327381886466
3.058999999999997,-0.0074577918937717,-0.0308940730895516,1.7609359861656628
3.0625,0.0095870935812048,-0.0117181405978899,1.7556092412885762
3.0660000000000025,0.0223716303520633,-2.739734550236212e-18,1.7481531947240565
3.069500000000005,0.0351544217936697,0.0170448854749766,1.739630751986568
3.0730000000000075,0.0532657034416149,0.02769837522915,1.7417600536740012
3.07650000000001,0.0681795418999064,0.0362208179666383,1.7406954028302846
3.0800000000000125,0.0788312863248278,0.043676864531158,1.749217845567773
3.0834999999999866,0.0916158230956863,0.0490036094082447,1.7641316840260644
3.086999999999989,0.1033339636935762,0.0500682602519613,1.7758498246239545
3.090499999999992,0.1129210572747811,0.0468725623915597,1.7982214549760178
3.093999999999994,0.1171831513081512,0.0404811666707564,1.8173973874676796
3.0974999999999966,0.1257055940456395,0.0372854688103548,1.8408336686634592
3.100999999999999,0.1257055940456395,0.0266319790561814,1.8557475071217504
3.1045000000000016,0.1278348957330726,0.0202405833353782,1.874923439613413
3.108000000000004,0.1278348957330726,0.0149138384582915,1.887706231055019
3.1115000000000066,0.1257055940456395,0.0095870935812048,1.901555418669594
3.115000000000009,0.1289012919060412,0.0053267448770866,1.9068821635466808
3.118500000000012,0.1257055940456395,0.0042603487041181,1.9111425122507988
3.1219999999999857,0.1225098961852379,0.0042603487041181,1.9122071630945157
3.125499999999988,0.1118564064310645,0.0031956978604016,1.9111425122507988
3.1289999999999907,0.0990718696602061,-1.213280480649152e-17,1.905815767373712
3.132499999999993,0.0926804739394028,-1.1350084575334945e-17,1.903686465686279
3.135999999999996,0.0777666354811113,-9.5236661222402e-18,1.901555418669594
3.139499999999998,0.0628527970228197,0.0010646508437165,1.897293324636224
3.1430000000000007,0.0543303542853314,0.002131047016685,1.900489022496625
3.146500000000003,0.0490036094082447,-0.0010646508437165,1.8983597208091925
3.1500000000000057,0.0458079115478431,0.002131047016685,1.897293324636224
3.153500000000008,0.0500682602519613,0.0042603487041181,1.9068821635466808
3.1570000000000107,0.0596570991624181,0.0063913957208032,1.9090114652341137
3.160500000000013,0.0809623333415129,0.0074577918937717,1.920729605832004
3.1639999999999877,0.1065296615539778,0.0063913957208032,1.9281873977257755
3.1674999999999898,0.138488385487246,-0.002131047016685,1.947363330217437
3.1709999999999923,0.1693824585767977,-0.0053267448770867,1.9537547259382404
3.1744999999999948,0.2045368803704674,-0.0127827914416064,1.9697332152402485
3.1779999999999973,0.233299906443334,-0.0149138384582915,1.9814531011673904
3.1815,0.2641939795328856,-0.0234362811957798,1.9995626374860835
3.1850000000000023,0.2769767709744921,-0.0298276769165831,2.011280778083973
3.1885000000000048,0.2897613077453506,-0.0372854688103548,2.0229989186818638
3.1920000000000077,0.2950880526224372,-0.0372854688103548,2.027261012715233
3.1955000000000098,0.2876302607286655,-0.0394165158270399,2.032586012263068
3.1990000000000123,0.2854992137119804,-0.0404811666707565,2.0293903144026664
3.2024999999999864,0.2727164222703739,-0.0362208179666383,2.0219342678381467
3.205999999999989,0.2556715367953973,-0.0362208179666383,2.0134118251006585
3.209499999999992,0.233299906443334,-0.0298276769165831,2.0006272883298
3.212999999999994,0.2098636252475541,-0.0234362811957798,1.992104845592312
3.2164999999999964,0.1757738542976009,-0.0117181405978899,1.97719100713402
3.219999999999999,0.1459461773810178,-0.002131047016685,1.970799611413217
3.2235000000000014,0.110790010258096,0.0106534897541733,1.9633418195194452
3.227000000000004,0.0798976824977964,0.0245026773687483,1.9558857729549253
3.2305000000000064,0.0521993072686464,0.0447432607041266,1.9548193767819568
3.234000000000009,0.0287630260728665,0.0543303542853314,1.952690075094524
3.237500000000012,0.0117181405978899,0.0788312863248278,1.946296934044469
3.240999999999985,0.0031956978604016,0.0958761717998045,1.9484279810611536
3.244499999999988,1.4481179241149444e-17,0.1182478021518678,1.946296934044469
3.2479999999999905,0.0063913957208032,0.1395530363309626,1.946296934044469
3.251499999999993,0.0255673282124649,0.1619246666830259,1.936709840463264
3.2549999999999955,0.0500682602519613,0.177904901314286,1.9281873977257755
3.258499999999998,0.0894847760790013,0.1960144376329791,1.917533907971602
3.2620000000000005,0.124639197872671,0.2141239739516723,1.9111425122507988
3.265500000000003,0.1789695521580026,0.2226464166891606,1.9026200695133104
3.269000000000005,0.2141239739516723,0.2322352555996174,1.894097626775822
3.272500000000008,0.2546051406224288,0.2396913021641372,1.889837278071704
3.2760000000000105,0.2748474692870591,0.2407576983371057,1.887706231055019
3.279500000000013,0.2908259585890672,0.2396913021641372,1.8919665797591367
3.282999999999987,0.2908259585890672,0.2386266513204206,1.8919665797591367
3.286499999999989,0.2812388650078623,0.2322352555996174,1.894097626775822
3.289999999999992,0.2641939795328856,0.219450718828759,1.9026200695133104
3.2934999999999945,0.2375620004767042,0.1970790884766956,1.9122071630945157
3.296999999999997,0.2119946722642392,0.1789695521580025,1.921796002004972
3.3004999999999995,0.177904901314286,0.1512729222581045,1.9431012361840672
3.304000000000002,0.1523375731018211,0.1257055940456395,1.9601461216590437
3.3075000000000045,0.1235745470289545,0.0862890782185996,1.982517752011107
3.311000000000007,0.1012029166768912,0.0607217500061347,2.0027583353464853
3.314500000000009,0.083093380358198,0.0213052341790947,2.027261012715233
3.318000000000012,0.0660484948832214,-0.0063913957208032,2.043239502017242
3.321499999999986,0.0543303542853314,-0.0458079115478431,2.06774217938599
3.3249999999999886,0.043676864531158,-0.0703088435873395,2.087982762721368
3.328499999999991,0.0394165158270399,-0.1054650107102613,2.11461474177755
3.3319999999999936,0.0362208179666383,-0.1257055940456395,2.133788928939959
3.335499999999996,0.0372854688103548,-0.1565979218059392,2.1593562571524245
3.338999999999998,0.043676864531158,-0.1768385051413174,2.1753364917836846
3.342500000000001,0.0628527970228197,-0.1970790884766957,2.200903819996149
3.346000000000004,0.0777666354811113,-0.2119946722642392,2.227535799052331
3.349500000000006,0.1086607085706629,-0.2279731615662473,2.248842778560677
3.3530000000000086,0.1363573384705609,-0.2396913021641372,2.275474757616859
3.356500000000011,0.1704471094205142,-0.2460844432141925,2.308498132393844
3.359999999999985,0.1864273440517742,-0.2514094427620272,2.3372611584667102
3.363499999999988,0.1981454846496642,-0.2546051406224288,2.3670905807125457
3.3669999999999902,0.1992101354933807,-0.2439533961975074,2.3915915127520417
3.3704999999999927,0.1811005991746876,-0.233299906443334,2.4246166328582786
3.3739999999999952,0.1544686201185061,-0.219450718828759,2.43953047131657
3.3774999999999977,0.1054650107102613,-0.1981454846496642,2.468293497389437
3.381,0.0607217500061346,-0.1853609478788057,2.48214093967476
3.3845000000000027,-0.0042603487041181,-0.1587289688226243,2.5045125700268227
3.388000000000005,-0.0532657034416149,-0.1427504795206162,2.51410140893728
3.391500000000008,-0.1150521042914662,-0.1257055940456395,2.5194281538143666
3.3950000000000102,-0.152337573101821,-0.110790010258096,2.5268842003788863
3.3985000000000127,-0.1970790884766957,-0.1012029166768911,2.530079898239288
3.401999999999987,-0.2183860679850424,-0.0894847760790012,2.527950596551855
3.4054999999999893,-0.2290395577392158,-0.0841580312019145,2.5268842003788863
3.408999999999992,-0.2311688594266489,-0.0862890782185996,2.524753153362201
3.4124999999999943,-0.2066679273871525,-0.0905494269227178,2.518361757641398
3.415999999999997,-0.177904901314286,-0.1022693128498597,2.5130350127643117
3.4194999999999998,-0.1299659427497577,-0.1139874534477496,2.5045125700268227
3.423000000000002,-0.0852244273748831,-0.1289012919060412,2.4927944294289333
3.4265000000000043,-0.0181095363186931,-0.1491418752414194,2.483207335847728
3.430000000000007,0.0351544217936697,-0.1640557136997109,2.47042279907687
3.4335000000000093,0.1075943123976944,-0.1842962970350892,2.4565753567915465
3.437000000000012,0.1587289688226242,-0.1949497867892626,2.43953047131657
3.440499999999986,0.2226464166891606,-0.2087989744038376,2.422485585841593
3.4439999999999884,0.2673896773932873,-0.2205171150017276,2.4075717473833023
3.447499999999991,0.3121311927681618,-0.2311688594266489,2.3926561635957584
3.4509999999999934,0.3408942188410284,-0.2322352555996175,2.378808721310436
3.454499999999996,0.3632658491930917,-0.2407576983371058,2.3670905807125457
3.4579999999999984,0.3739193389472651,-0.2428870000245389,2.356437090958372
3.461500000000001,0.3781796876513832,-0.2460844432141925,2.354306043941687
3.4650000000000034,0.3760503859639502,-0.2439533961975074,2.348979299064601
3.468500000000006,0.3664615470534933,-0.2460844432141925,2.344718950360482
3.4720000000000084,0.3504830577514852,-0.2439533961975074,2.340456856327112
3.475500000000011,0.3281114273994219,-0.2396913021641372,2.330869762745907
3.4790000000000134,0.3068061932203271,-0.2354309534600191,2.3180869713043006
3.4824999999999875,0.2631275833599171,-0.2258421145495623,2.306367085377159
3.48599999999999,0.2247774637058457,-0.2173214171413259,2.2903885960751507
3.4894999999999925,0.166186760716396,-0.2045368803704675,2.271212663583489
3.492999999999995,0.1161167551351827,-0.1960144376329791,2.260560919158568
3.496499999999997,0.0447432607041266,-0.1811005991746876,2.240320335823189
3.5,-0.0074577918937717,-0.1725781564371993,2.2264711482086144
3.5035000000000025,-0.0798976824977964,-0.1608600158393093,2.213686611437756
3.507000000000005,-0.1310323389227263,-0.1480754790684509,2.201968470839866
3.5105000000000075,-0.1938833906162941,-0.1470108282247343,2.192381377258661
3.51400000000001,-0.2311688594266489,-0.1438151303643327,2.1838589345211727
3.5175000000000125,-0.2716500260974054,-0.1448797812080492,2.1785321896440863
3.5209999999999866,-0.2908259585890671,-0.1470108282247343,2.174271840939968
3.524499999999989,-0.3110665419244454,-0.1512729222581045,2.176401142627401
3.527999999999992,-0.3185243338182171,-0.1565979218059392,2.174271840939968
3.531499999999994,-0.3227846825223353,-0.1597953649955928,2.1774675388003697
3.5349999999999966,-0.3259803803827369,-0.1651203645434275,2.174271840939968
3.538499999999999,-0.3238510786953038,-0.1725781564371993,2.176401142627401
3.5420000000000016,-0.3227846825223353,-0.1725781564371993,2.181727887504488
3.545500000000004,-0.3206536355056502,-0.1789695521580025,2.195577075119062
3.5490000000000066,-0.3206536355056502,-0.1811005991746876,2.2072952157169525
3.552500000000009,-0.3153286359578155,-0.1874919948954908,2.222209054175244
3.556000000000012,-0.3068061932203272,-0.1949497867892626,2.240320335823189
3.5594999999999857,-0.2972173543098703,-0.2087989744038376,2.269083361896056
3.562999999999988,-0.2801724688348938,-0.219450718828759,2.289322199902182
3.5664999999999907,-0.258867234655799,-0.235430953460019,2.3223473200084186
3.569999999999993,-0.2343645572870506,-0.2428870000245388,2.345783601204199
3.573499999999996,-0.1896230419121759,-0.2578025838120824,2.370286278572947
3.576999999999998,-0.1544686201185061,-0.2663250265495707,2.3937225597687277
3.5805000000000007,-0.1075943123976944,-0.2727164222703739,2.421419189668625
3.584000000000003,-0.0703088435873396,-0.2791078179911772,2.4352683772832
3.5875000000000057,-0.0223716303520633,-0.2780431671474606,2.45870465847898
3.591000000000008,0.0106534897541733,-0.2780431671474606,2.478945241814358
3.5945000000000107,0.0532657034416149,-0.2780431671474606,2.495990127289335
3.598000000000013,0.0767019846373947,-0.2780431671474606,2.511970361920594
3.6014999999999877,0.110790010258096,-0.2801724688348938,2.5268842003788863
3.6049999999999898,0.1352926876268444,-0.2801724688348938,2.5407333879934613
3.608499999999992,0.1736428072809158,-0.2897613077453506,2.559909320485123
3.6119999999999943,0.1960144376329791,-0.2940216564494687,2.570561064910044
3.615499999999997,0.2301042085829323,-0.3014794483432405,2.5801499038205016
3.619,0.2524758389349956,-0.3078708440640438,2.5908016482454226
3.6225000000000014,0.2823035158515787,-0.3174579376452486,2.602519788843313
3.6260000000000048,0.3025440991869569,-0.3291760782431385,2.6067818828766827
3.6295000000000073,0.3206536355056502,-0.3334381722765087,2.6142396747704546
3.6330000000000098,0.3334381722765086,-0.3440916620306821,2.612108627753769
3.636500000000012,0.3408942188410284,-0.3547434064556035,2.612108627753769
3.6399999999999855,0.3366338701369102,-0.367527943226462,2.6078465337203998
3.643499999999989,0.3142622397848469,-0.3717882919305801,2.5908016482454226
3.646999999999992,0.2918906094327836,-0.3771150368076668,2.573756762770446
3.650499999999994,0.2599318854995154,-0.3771150368076668,2.5449937366975792
3.653999999999997,0.2322352555996174,-0.3739193389472652,2.522623851674768
3.657499999999999,0.1874919948954908,-0.3739193389472651,2.4874676845518464
3.661000000000002,0.1619246666830258,-0.369657244913895,2.45870465847898
3.664500000000004,0.126770244889356,-0.3685925940701784,2.4203545388249084
3.6680000000000064,0.1022693128498597,-0.3632658491930918,2.390526861908325
3.671500000000009,0.0681795418999064,-0.3611348021764067,2.348979299064601
3.6750000000000114,0.0426122136874415,-0.3579391043160051,2.3180869713043006
3.6784999999999854,0.0074577918937717,-0.3536787556118869,2.2744083614438906
3.681999999999988,-0.0149138384582915,-0.3462209637181151,2.2445806845273077
3.6854999999999913,-0.0490036094082448,-0.3355692192931938,2.2040995178565512
3.688999999999993,-0.069244192743623,-0.3217200316786187,2.1700097469065978
3.692499999999996,-0.0937468701123714,-0.2993484013265554,2.1263328823754395
3.695999999999998,-0.1022693128498597,-0.2780431671474606,2.09863450714629
3.699500000000001,-0.1043986145372928,-0.2492801410745941,2.0560222934588483
3.703000000000003,-0.1001382658331746,-0.2269085107225308,2.0219342678381467
3.7065000000000055,-0.0937468701123714,-0.180035948330971,1.9835824028548237
3.710000000000008,-0.0884201252352847,-0.1480754790684509,1.956950423798642
3.7135000000000105,-0.0798976824977964,-0.0948115209560879,1.9271227468820589
3.717000000000013,-0.0777666354811113,-0.0500682602519613,1.9068821635466808
3.720499999999987,-0.0681795418999064,-0.002131047016685,1.8919665797591367
3.7239999999999895,-0.0532657034416149,0.0351544217936697,1.8845105331946173
3.727499999999992,-0.0287630260728665,0.0724398906040246,1.881314835334216
3.7309999999999945,0.002131047016685,0.096942567972773,1.8823794861779324
3.734499999999997,0.041545817514473,0.1225098961852379,1.8962286737925071
3.738,0.0745709376207097,0.1320969897664428,1.9026200695133104
3.741500000000002,0.1097253594143795,0.1374237346435295,1.9281873977257755
3.745000000000005,0.1299659427497577,0.1427504795206162,1.944167632357036
3.748500000000007,0.1491418752414194,0.1416840833476476,1.9718642622569336
3.7520000000000095,0.1512729222581045,0.138488385487246,1.992104845592312
3.755500000000012,0.1512729222581045,0.1342280367831278,2.015541126788092
3.758999999999986,0.1448797812080493,0.1320969897664428,2.0315213614193515
3.7624999999999886,0.122509896185238,0.1352926876268444,2.043239502017242
3.765999999999991,0.1054650107102613,0.138488385487246,2.053892991771415
3.7694999999999936,0.0809623333415129,0.1459461773810178,2.059219736648502
3.772999999999996,0.0585907029894496,0.1565979218059392,2.062415434508903
3.776499999999999,0.0340897709499532,0.180035948330971,2.060284387492218
3.780000000000001,0.0191759324916617,0.205601531214184,2.05176194475473
3.783500000000004,0.0021310470166851,0.2364956043037356,2.034717059279753
3.787000000000006,-0.0063913957208032,0.2641939795328856,2.01234542892769
3.7905000000000086,-0.0095870935812048,0.3068061932203272,1.984648799027792
3.794000000000011,-0.0149138384582915,0.3376985209806268,1.9612107725027603
3.797499999999985,-0.0138491876145749,0.38350643252847,1.9239270490216571
3.800999999999988,-0.0095870935812048,0.4154651564617382,1.900489022496625
3.8044999999999902,-0.0053267448770866,0.4559463231324946,1.873857043440444
3.8079999999999927,5.935977530211422e-17,0.4847093492053612,1.850420762244664
3.8114999999999952,0.0031956978604016,0.5060163287137079,1.829115528065569
3.8149999999999977,0.0117181405978899,0.5326483077698895,1.806743897713506
3.8185,0.0170448854749766,0.5550199381219528,1.7918300592552143
3.8220000000000023,0.0266319790561815,0.5741958706136145,1.769458428903151
3.825500000000005,0.02769837522915,0.5901743599156226,1.7534781942718909
3.829000000000008,0.0298276769165831,0.5986968026531109,1.7428264498469697
3.83250000000001,0.0287630260728666,0.602958896686481,1.7343040071094815
3.8360000000000127,0.0245026773687484,0.6040235475301975,1.728977262232395
3.839499999999987,0.0202405833353783,0.5976321518093943,1.721519470338623
3.842999999999989,0.013849187614575,0.5837829641948193,1.7119323767574182
3.846499999999992,0.0127827914416065,0.5678027295635593,1.7044745848636462
3.8499999999999934,0.0063913957208033,0.5422354013510943,1.6884960955616382
3.853499999999997,0.0010646508437166,0.5262569120490862,1.6714512100866616
3.8569999999999993,-0.0053267448770866,0.503885281697023,1.6469485327179132
3.860500000000002,-0.0063913957208031,0.4868403962220463,1.6203165536617317
3.864000000000004,-0.0074577918937717,0.4687308599033531,1.584095735695093
3.867500000000007,0.0031956978604016,0.4570127193054631,1.555332709622227
3.871000000000009,0.0159802346312601,0.4410324846742031,1.518048986141124
3.874500000000012,0.0362208179666383,0.4335764381096833,1.490350610911974
3.877999999999986,0.0681795418999065,0.4218582975117934,1.4541297929453356
3.881499999999989,0.0958761717998045,0.4207919013388249,1.4306935117495558
3.884999999999991,0.1289012919060412,0.4122694586013365,1.4019304856766894
3.8884999999999934,0.1491418752414195,0.4069427137242498,1.383820949357996
3.891999999999996,0.1619246666830259,0.3952245731263599,1.3689071108997044
3.8954999999999984,0.1629910628559945,0.3930952714389268,1.356122574128846
3.899000000000001,0.1608600158393094,0.38350643252847,1.353991527112161
3.9025000000000034,0.1470108282247344,0.3781796876513833,1.3529268762684443
3.906000000000006,0.1331616406101594,0.369657244913895,1.3571889703018147
3.909500000000008,0.1193124529955844,0.3622011983493752,1.367840714726736
3.913000000000011,0.1065296615539779,0.3494166615785167,1.379558855324626
3.916500000000013,0.0980072188164896,0.3408942188410284,1.3870166472183978
3.919999999999988,0.096942567972773,0.3281114273994219,1.395539089955886
3.92349999999999,0.0916158230956863,0.3110665419244454,1.4061925797100594
3.926999999999993,0.0937468701123714,0.2929570056057522,1.413648626274579
3.930499999999995,0.0958761717998045,0.2780431671474606,1.4200400219953824
3.9339999999999975,0.1001382658331746,0.2524758389349957,1.4285624647328707
3.9375,0.1086607085706629,0.2375620004767041,1.4349556057829258
3.9410000000000025,0.1203788491685529,0.2056015312141839,1.4424116523474455
3.944500000000005,0.1384883854872461,0.1853609478788057,1.4498694442412174
3.948000000000008,0.1534022239455376,0.152337573101821,1.450934095084934
3.95150000000001,0.1651203645434275,0.1257055940456395,1.448803048068249
3.955000000000013,0.1896230419121759,0.0894847760790012,1.4413470015037293
3.9584999999999866,0.2024058333537824,0.0681795418999064,1.432824558766241
3.961999999999989,0.2034722295267509,0.0287630260728665,1.412583975430863
3.965499999999992,0.2066679273871525,0.0074577918937717,1.399799438660004
3.968999999999994,0.1832316461913727,-0.0149138384582915,1.3752985066205077
3.9724999999999966,0.152337573101821,-0.0298276769165831,1.353991527112161
3.975999999999999,0.0980072188164895,-0.0468725623915597,1.324163850195578
3.9795000000000016,0.057526052145733,-0.0479389585645282,1.3028586160164832
3.983000000000004,-0.0063913957208032,-0.0500682602519613,1.2719645429269315
3.986500000000007,-0.0468725623915597,-0.0479389585645282,1.2527886104352697
3.990000000000009,-0.0905494269227178,-0.043676864531158,1.2240255843624033
3.993500000000012,-0.1086607085706629,-0.0372854688103548,1.2123074437645132
3.9969999999999857,-0.1289012919060412,-0.0266319790561814,1.1931332566021038
4.000499999999988,-0.138488385487246,-0.0170448854749766,1.192066860429135
4.003999999999991,-0.1395530363309626,-0.0053267448770866,1.1931332566021038
4.007499999999993,-0.1310323389227262,0.0042603487041181,1.201655699339592
4.010999999999996,-0.1139874534477496,0.0213052341790947,1.2240255843624033
4.014499999999998,-0.1012029166768912,0.0319587239332681,1.2400058189936634
4.018000000000001,-0.0745709376207097,0.0436768645311581,1.2762248916310497
4.021500000000003,-0.0458079115478431,0.0500682602519613,1.3039232668601997
4.025000000000006,-0.0063913957208032,0.0575260521457331,1.342273386514271
4.028500000000008,0.0202405833353782,0.0660484948832214,1.367840714726736
4.032000000000011,0.0575260521457331,0.0809623333415129,1.399799438660004
4.035500000000013,0.0798976824977964,0.0958761717998044,1.4253667668724692
4.038999999999987,0.1129210572747811,0.1171831513081512,1.4434780485204144
4.04249999999999,0.1384883854872461,0.1331616406101593,1.4498694442412174
4.045999999999992,0.1715135055934828,0.1534022239455376,1.460522933995391
4.049499999999995,0.1928187397725775,0.1693824585767976,1.4594565378224222
4.052999999999997,0.219450718828759,0.1885583910684593,1.4573254908057371
4.0565,0.2290395577392159,0.2098636252475541,1.453065142101619
4.060000000000002,0.2343645572870506,0.2375620004767041,1.4381513036433275
4.063500000000005,0.2290395577392159,0.263127583359917,1.4264331630454377
4.067000000000007,0.2119946722642392,0.302544099186957,1.4104529284141776
4.07050000000001,0.1896230419121759,0.3313071252598236,1.3966037407996024
4.074000000000012,0.1523375731018211,0.369657244913895,1.3806252514975943
4.077499999999986,0.1267702448893561,0.3930952714389268,1.377429553637193
4.080999999999989,0.0894847760790013,0.4197272504951083,1.3816899023413112
4.084499999999991,0.0681795418999065,0.4378367868138015,1.3870166472183978
4.087999999999994,0.0468725623915597,0.4506213235846599,1.405126183537091
4.091499999999996,0.0372854688103549,0.4612730680095813,1.4168443241349806
4.094999999999999,0.0191759324916617,0.4665998128866681,1.4349556057829258
4.098500000000001,0.0106534897541734,0.4740576047804398,1.4477383972245323
4.102000000000004,-0.002131047016685,0.4719265577637547,1.4679789805599106
4.105500000000006,-0.0127827914416064,0.4687308599033531,1.4754367724536823
4.109000000000009,-0.0276983752291499,0.464468765869983,1.486088516878604
4.112500000000011,-0.0351544217936697,0.4570127193054631,1.4967420066327772
4.1159999999999854,-0.0340897709499531,0.4474238803950063,1.4999377044931788
4.119499999999988,-0.0266319790561814,0.4293143440763132,1.504199798526549
4.122999999999991,-0.0106534897541733,0.4165315526347067,1.498873053649462
4.126499999999993,0.0095870935812049,0.4026823650201317,1.4935463087723757
4.129999999999996,0.0394165158270399,0.3803107346680683,1.476501423297399
4.133499999999998,0.0703088435873396,0.3717882919305801,1.460522933995391
4.1370000000000005,0.1097253594143795,0.3568744534722885,1.4317599079225245
4.140500000000003,0.136357338470561,0.3451563128743986,1.409388277570461
4.1440000000000055,0.1619246666830259,0.3323735214327921,1.377429553637193
4.147500000000008,0.1704471094205142,0.3195889846619337,1.3486665275643264
4.1510000000000105,0.1757738542976009,0.302544099186957,1.3230991993518617
4.154500000000013,0.1683160624038291,0.2876302607286655,1.298596521983113
4.157999999999987,0.1608600158393094,0.258867234655799,1.2794223348207032
4.1614999999999895,0.150206526085136,0.2364956043037356,1.2687688450665298
4.164999999999992,0.1384883854872461,0.2045368803704674,1.2581153553123563
4.1684999999999945,0.1320969897664428,0.1757738542976009,1.253855006608238
4.171999999999997,0.1214435000122694,0.1395530363309625,1.2517239595915532
4.1755,0.1171831513081513,0.1139874534477496,1.2602464023290416
4.179000000000002,0.1139874534477496,0.0713752397603081,1.267704194222813
4.1825000000000045,0.1097253594143795,0.041545817514473,1.2783559386477348
4.186000000000007,0.1075943123976944,0.002131047016685,1.2943361732789946
4.1895000000000095,0.1129210572747811,-0.0287630260728665,1.3081853608935698
4.193000000000012,0.1203788491685528,-0.0724398906040246,1.3369483869664365
4.196499999999986,0.1278348957330726,-0.1022693128498597,1.3465354805476413
4.199999999999989,0.1395530363309625,-0.1395530363309626,1.3646450168663344
4.203499999999991,0.1448797812080492,-0.164055713699711,1.3710364125871377
4.206999999999994,0.1438151303643327,-0.1896230419121759,1.3721028087601062
4.210499999999996,0.1395530363309625,-0.2109282760912707,1.3721028087601062
4.213999999999999,0.1257055940456395,-0.233299906443334,1.3657114130393029
4.217500000000001,0.1086607085706629,-0.2492801410745941,1.361449319005933
4.221000000000004,0.0798976824977963,-0.2652586303766022,1.3529268762684443
4.224500000000006,0.0617864008498512,-0.2769767709744921,1.3454708297039246
4.228000000000009,0.0319587239332681,-0.2982837504828389,1.3294905950726643
4.231500000000011,0.0117181405978898,-0.3046751462036421,1.326294897212263
4.234999999999985,-0.0127827914416065,-0.3174579376452486,1.3177724544747746
4.238499999999988,-0.0351544217936698,-0.3227846825223353,1.314576756614373
4.24199999999999,-0.055395005129048,-0.3334381722765087,1.314576756614373
4.245499999999993,-0.0639174478665363,-0.3387649171535954,1.3199035014914595
4.248999999999995,-0.069244192743623,-0.3430252658577135,1.3294905950726643
4.252499999999998,-0.0660484948832214,-0.3440916620306821,1.3390776886538696
4.256,-0.055395005129048,-0.3483520107348002,1.361449319005933
4.259500000000003,-0.0436768645311581,-0.3494166615785167,1.377429553637193
4.263000000000005,-0.0287630260728665,-0.3515477085952018,1.4019304856766894
4.266500000000008,-0.0181095363186932,-0.3526141047681703,1.4200400219953824
4.27000000000001,0.0053267448770866,-0.355809802628572,1.4445426993641308
4.273500000000013,0.0191759324916616,-0.3590055004889736,1.4583918869787058
4.276999999999987,0.0372854688103548,-0.3622011983493752,1.4711746784203124
4.280499999999989,0.0511346564249298,-0.3622011983493752,1.486088516878604
4.283999999999992,0.0543303542853314,-0.355809802628572,1.490350610911974
4.287499999999994,0.0479389585645282,-0.3462209637181151,1.4914152617556906
4.290999999999997,0.0319587239332681,-0.3323735214327921,1.4999377044931788
4.294499999999999,0.0234362811957798,-0.3206536355056502,1.504199798526549
4.298000000000002,0.0106534897541733,-0.3100018910807288,1.512722241264037
4.301500000000004,0.0042603487041181,-0.3068061932203272,1.520178287828557
4.305000000000007,0.0202405833353782,-0.300413052170272,1.5297671267390138
4.308500000000009,0.0308940730895515,-0.3014794483432405,1.536158522459817
4.312000000000012,0.0543303542853314,-0.3046751462036421,1.5468120122139906
4.315499999999986,0.0745709376207096,-0.300413052170272,1.5510723609181087
4.318999999999988,0.0948115209560879,-0.2982837504828389,1.5595948036555969
4.322499999999991,0.1054650107102613,-0.2982837504828389,1.5574637566389118
4.325999999999993,0.1235745470289544,-0.3036087500306735,1.5649215485326835
4.329499999999996,0.1278348957330726,-0.3046751462036421,1.563855152359715
4.332999999999998,0.1374237346435295,-0.3078708440640437,1.561725850672282
4.336500000000001,0.1459461773810178,-0.3100018910807288,1.5606594544993135
4.340000000000003,0.1502065260851359,-0.3217200316786187,1.5542680587785105
4.343500000000006,0.1534022239455376,-0.3281114273994219,1.545745616041022
4.347000000000008,0.1587289688226242,-0.3398295679973119,1.534027475443132
4.350500000000011,0.1651203645434274,-0.3526141047681703,1.518048986141124
4.354000000000013,0.1651203645434274,-0.3685925940701784,1.492481657928659
4.357499999999988,0.1587289688226242,-0.3771150368076668,1.4679789805599106
4.36099999999999,0.1395530363309625,-0.3877685265618402,1.4413470015037293
4.3644999999999925,0.1257055940456395,-0.3941599222826434,1.413648626274579
4.367999999999995,0.0958761717998044,-0.3920288752659583,1.374233855776791
4.3714999999999975,0.0692441927436229,-0.3930952714389268,1.3433397826872395
4.375,0.0362208179666382,-0.3909642244222418,1.300727568999798
4.3785000000000025,0.0117181405978898,-0.3867021303888716,1.267704194222813
4.382000000000005,-0.0074577918937718,-0.3760503859639502,1.2250919805353715
4.385500000000008,-0.0245026773687484,-0.3664615470534934,1.1910022095854185
4.38900000000001,-0.0372854688103549,-0.3494166615785167,1.1409322040042051
4.3925000000000125,-0.0468725623915597,-0.3291760782431385,1.1015174335064173
4.395999999999987,-0.0564614013020165,-0.2940216564494687,1.0461224283773694
4.399499999999989,-0.0585907029894496,-0.2663250265495707,1.0035102146899275
4.402999999999992,-0.0617864008498512,-0.219450718828759,0.9459841625441944
4.406499999999994,-0.0521993072686464,-0.1853609478788057,0.9044365997004696
4.409999999999997,-0.0383501196540714,-0.1427504795206162,0.8490415945714216
4.413499999999999,-0.0213052341790947,-0.1097253594143795,0.81069147491735
4.417000000000002,0.0085224427374883,-0.0639174478665363,0.7606214693361367
4.420500000000004,0.0372854688103548,-0.0319587239332681,0.7222713496820654
4.424000000000007,0.0681795418999064,0.0063913957208032,0.6817901830113089
4.427500000000009,0.0884201252352847,0.0351544217936697,0.6562228547988439
4.431000000000012,0.1139874534477496,0.0703088435873395,0.6221330838488908
4.434499999999986,0.1342280367831279,0.0937468701123714,0.6082838962343158
4.437999999999988,0.1576643179789078,0.1235745470289545,0.5816519171781342
4.441499999999991,0.1757738542976009,0.1395530363309625,0.561411333842756
4.444999999999993,0.1949497867892626,0.1544686201185061,0.5326483077698895
4.448499999999996,0.2098636252475542,0.1651203645434275,0.5124077244345112
4.451999999999998,0.2258421145495623,0.1757738542976009,0.4761869064678729
4.455500000000001,0.2322352555996175,0.1832316461913726,0.4484902765679749
4.459000000000003,0.233299906443334,0.1789695521580025,0.4090737607409349
4.462500000000006,0.233299906443334,0.180035948330971,0.3760503859639502
4.466000000000008,0.2386266513204207,0.1640557136997109,0.3387649171535954
4.469500000000011,0.2439533961975074,0.1534022239455376,0.3057397970473587
4.473000000000013,0.2578025838120824,0.1278348957330726,0.2695207244099723
4.476499999999987,0.2684543282370038,0.1086607085706629,0.2386266513204207
4.47999999999999,0.2844345628682639,0.0745709376207096,0.2066679273871525
4.483499999999992,0.3014794483432405,0.0458079115478431,0.177904901314286
4.486999999999995,0.3131975889411305,0.0117181405978898,0.138488385487246
4.490499999999997,0.3238510786953038,-0.0149138384582915,0.1086607085706629
4.494,0.3345028231202252,-0.0521993072686464,0.0660484948832214
4.497500000000002,0.3355692192931938,-0.0756355884644263,0.0362208179666383
4.501000000000005,0.3259803803827369,-0.1065296615539779,-0.0117181405978899
4.504500000000007,0.316393286801532,-0.1257055940456396,-0.041545817514473
4.50800000000001,0.3014794483432405,-0.1523375731018211,-0.0884201252352847
4.511500000000012,0.286565609884949,-0.1683160624038291,-0.1235745470289545
4.514999999999986,0.2716500260974054,-0.1864273440517743,-0.1683160624038291
4.518499999999989,0.2556715367953973,-0.2002765316663493,-0.2066679273871525
4.521999999999991,0.2386266513204206,-0.2162550209683574,-0.2620629325162006
4.525499999999994,0.2311688594266489,-0.2151903701246408,-0.3078708440640437
4.528999999999996,0.2066679273871525,-0.2205171150017276,-0.3771150368076668
4.532499999999999,0.1864273440517742,-0.2162550209683574,-0.4325100419367148
4.536000000000001,0.1640557136997109,-0.2130593231079558,-0.5145387714511963
4.539500000000004,0.1448797812080492,-0.2087989744038376,-0.5784562193177326
4.543000000000006,0.1257055940456395,-0.2002765316663493,-0.6764634381342222
4.546500000000009,0.1171831513081512,-0.1992101354933808,-0.7457076308778453
4.550000000000011,0.1214435000122694,-0.2013411825100658,-0.8554329902922247
4.5534999999999854,0.1416840833476476,-0.2002765316663493,-0.940657417667108
4.556999999999988,0.1565979218059392,-0.2077325782308691,-1.0599698706626923
4.560499999999991,0.1704471094205142,-0.2119946722642392,-1.1526520899313473
4.563999999999993,0.1853609478788057,-0.2247774637058457,-1.2794223348207032
4.567499999999996,0.1842962970350892,-0.233299906443334,-1.3710364125871377
4.570999999999998,0.1811005991746876,-0.2482137449016256,-1.4935463087723757
4.5745000000000005,0.1725781564371993,-0.2578025838120824,-1.5809000378346918
4.578000000000003,0.1534022239455376,-0.274847469287059,-1.6970185382991263
4.5815000000000055,0.1352926876268444,-0.2876302607286655,-1.772654126763553
4.585000000000008,0.1012029166768911,-0.2950880526224372,-1.8695966947363256
4.5885000000000105,0.0735062867769931,-0.300413052170272,-1.9420365853403505
4.592000000000013,0.0404811666707564,-0.2961527034661538,-2.033652408436037
4.595499999999987,0.0191759324916616,-0.2854992137119804,-2.09863450714629
4.5989999999999895,-0.0053267448770867,-0.2652586303766022,-2.1806632366607714
4.602499999999992,-0.0191759324916617,-0.2492801410745941,-2.2424496375106227
4.6059999999999945,-0.0287630260728665,-0.219450718828759,-2.3138248772709304
4.609499999999997,-0.02769837522915,-0.1928187397725775,-2.363893137522892
4.613,-0.0223716303520633,-0.1597953649955928,-2.4235502366853097
4.616500000000002,-0.0085224427374883,-0.1299659427497577,-2.45870465847898
4.6200000000000045,0.0181095363186931,-0.096942567972773,-2.50238326833939
4.623500000000007,0.0490036094082447,-0.0767019846373948,-2.530079898239288
4.6270000000000095,0.0767019846373948,-0.0479389585645282,-2.5545825756080367
4.630500000000012,0.1054650107102613,-0.02769837522915,-2.571627461083013
4.633999999999986,0.136357338470561,-0.0074577918937717,-2.5876059503850213
4.637499999999989,0.1597953649955928,0.0106534897541733,-2.5908016482454226
4.640999999999991,0.180035948330971,0.0255673282124649,-2.5908016482454226
4.644499999999994,0.1981454846496642,0.0383501196540713,-2.5865412995413046
4.647999999999996,0.2205171150017275,0.0564614013020165,-2.5748231589434147
4.651499999999999,0.2279731615662473,0.0660484948832213,-2.5631050183455244
4.655000000000001,0.2396913021641372,0.085224427374883,-2.5332755960996893
4.658500000000004,0.2343645572870505,0.0948115209560879,-2.51410140893728
4.662000000000006,0.2343645572870506,0.1139874534477496,-2.471489195249838
4.665500000000009,0.2301042085829324,0.1225098961852379,-2.434203726439484
4.669000000000011,0.2215817658454441,0.1352926876268444,-2.378808721310436
4.672499999999985,0.2205171150017276,0.1416840833476476,-2.3351318567792774
4.675999999999988,0.2141239739516723,0.1502065260851359,-2.269083361896056
4.67949999999999,0.2098636252475542,0.1587289688226242,-2.21262196059404
4.682999999999993,0.205601531214184,0.1672514115601125,-2.148704512727503
4.686499999999995,0.2013411825100658,0.1736428072809158,-2.095438809285888
4.689999999999998,0.1938833906162941,0.1811005991746876,-2.0251299656985484
4.6935,0.191754088928861,0.1917540889288609,-1.972930658429902
4.697000000000003,0.1832316461913727,0.2045368803704674,-1.9079468143903973
4.700500000000005,0.1789695521580026,0.2130593231079557,-1.8568121579654675
4.704000000000008,0.1715135055934828,0.2322352555996174,-1.7982214549760178
4.70750000000001,0.1757738542976009,0.2450180470412239,-1.749217845567773
4.711000000000013,0.177904901314286,0.2599318854995155,-1.6927564442657563
4.714499999999987,0.1874919948954908,0.2663250265495707,-1.650144230578315
4.717999999999989,0.1992101354933808,0.2791078179911772,-1.596880272465952
4.721499999999992,0.2119946722642392,0.2897613077453506,-1.5606594544993135
4.724999999999994,0.2205171150017276,0.3014794483432405,-1.525505032705644
4.728499999999997,0.2269085107225308,0.3142622397848469,-1.5052644493702656
4.731999999999999,0.233299906443334,0.330242474416107,-1.486088516878604
4.735500000000002,0.2322352555996175,0.3376985209806268,-1.4722410745932808
4.739000000000004,0.2343645572870506,0.3558098026285719,-1.464783282699509
4.742500000000007,0.2396913021641373,0.3590055004889735,-1.4583918869787058
4.746000000000009,0.2439533961975074,0.3611348021764066,-1.4541297929453356
4.749500000000012,0.2439533961975074,0.3664615470534933,-1.4498694442412174
4.752999999999986,0.2407576983371058,0.3675279432264619,-1.4456073502078477
4.756499999999988,0.2354309534600191,0.3707236410868635,-1.4424116523474455
4.759999999999991,0.2247774637058457,0.3760503859639502,-1.4360202566266425
4.763499999999993,0.219450718828759,0.3739193389472651,-1.4370849074703589
4.766999999999996,0.2066679273871526,0.3749839897909817,-1.4360202566266425
4.770499999999998,0.2024058333537824,0.3632658491930918,-1.4296288609058392
4.774000000000001,0.2002765316663493,0.355809802628572,-1.4370849074703589
4.777500000000003,0.1992101354933808,0.3494166615785167,-1.4413470015037293
4.781000000000006,0.2077325782308691,0.3345028231202252,-1.4541297929453356
4.784500000000008,0.2141239739516723,0.3270467765557054,-1.4637186318557929
4.788000000000011,0.2226464166891606,0.3195889846619337,-1.492481657928659
4.791500000000013,0.2301042085829324,0.3131975889411304,-1.5233739856889583
4.794999999999988,0.2375620004767042,0.3089354949077602,-1.5595948036555969
4.79849999999999,0.2396913021641372,0.3078708440640437,-1.5904888767451486
4.8019999999999925,0.233299906443334,0.3100018910807288,-1.6362967882929915
4.805499999999995,0.2290395577392159,0.3142622397848469,-1.6703848139136932
4.8089999999999975,0.2173214171413259,0.3195889846619337,-1.7183237724782212
4.8125,0.2034722295267509,0.3227846825223353,-1.743891100690686
4.8160000000000025,0.1928187397725775,0.3238510786953038,-1.7758498246239545
4.819500000000005,0.1842962970350892,0.3259803803827369,-1.7939593609426474
4.823000000000008,0.1736428072809158,0.3281114273994219,-1.806743897713506
4.82650000000001,0.164055713699711,0.3249157295390203,-1.8141999442780257
4.8300000000000125,0.1619246666830259,0.3195889846619337,-1.8078085485572224
4.833499999999987,0.1523375731018211,0.3174579376452486,-1.7971568041323012
4.836999999999989,0.1427504795206162,0.3036087500306735,-1.771589475919836
4.840499999999992,0.1427504795206162,0.2897613077453506,-1.7449557515344027
4.843999999999994,0.1416840833476477,0.2705853752536888,-1.7044745848636462
4.847499999999997,0.1406194325039311,0.2460844432141924,-1.6703848139136932
4.850999999999999,0.1416840833476477,0.219450718828759,-1.6224476006784168
4.854500000000002,0.1331616406101594,0.1992101354933807,-1.5809000378346918
4.858000000000004,0.1182478021518678,0.1651203645434275,-1.52656968354936
4.861500000000007,0.1022693128498597,0.1352926876268444,-1.4892859600682575
4.865000000000009,0.0735062867769932,0.0990718696602061,-1.4317599079225245
4.868500000000012,0.0426122136874415,0.0724398906040246,-1.3934080429392008
4.871999999999986,0.0010646508437165,0.0330233747769847,-1.3476001313913577
4.875499999999988,-0.0308940730895516,0.0085224427374883,-1.3156414074580896
4.878999999999991,-0.083093380358198,-0.0202405833353782,-1.2922051262623095
4.882499999999993,-0.1235745470289545,-0.041545817514473,-1.2762248916310497
4.885999999999996,-0.1725781564371993,-0.0639174478665363,-1.267704194222813
4.889499999999998,-0.2034722295267509,-0.0862890782185996,-1.2655731472061282
4.893000000000001,-0.2343645572870505,-0.1065296615539778,-1.2687688450665298
4.896500000000003,-0.2514094427620272,-0.1171831513081512,-1.2719645429269315
4.900000000000006,-0.2514094427620272,-0.1352926876268444,-1.2740955899436164
4.903500000000008,-0.2482137449016256,-0.1448797812080492,-1.2772912878040183
4.907000000000011,-0.2311688594266489,-0.1534022239455376,-1.2858137305415065
4.910500000000013,-0.2077325782308691,-0.1502065260851359,-1.2879447775581916
4.913999999999987,-0.1811005991746876,-0.1512729222581045,-1.2932697771060262
4.91749999999999,-0.1534022239455376,-0.1427504795206162,-1.2996629181560817
4.920999999999992,-0.1139874534477496,-0.1406194325039311,-1.3124457095976878
4.924499999999995,-0.0767019846373948,-0.1352926876268444,-1.3199035014914595
4.927999999999997,-0.0351544217936698,-0.1374237346435295,-1.328425944228948
4.9315,-0.002131047016685,-0.1427504795206162,-1.3390776886538696
4.935000000000002,0.0308940730895516,-0.1427504795206162,-1.3550579232851294
4.938500000000005,0.0500682602519613,-0.1512729222581045,-1.3657114130393029
4.942000000000007,0.0607217500061346,-0.1629910628559944,-1.379558855324626
4.94550000000001,0.0596570991624181,-0.1683160624038291,-1.3944744391121693
4.949000000000012,0.055395005129048,-0.177904901314286,-1.413648626274579
4.952499999999986,0.0479389585645282,-0.1832316461913727,-1.4285624647328707
4.955999999999989,0.0276983752291499,-0.1938833906162941,-1.450934095084934
4.959499999999991,0.0149138384582915,-0.2002765316663493,-1.4711746784203124
4.962999999999994,-2.517892571012451e-17,-0.205601531214184,-1.506329100213982
4.966499999999996,-0.0159802346312601,-0.2119946722642392,-1.5350921262868489
4.969999999999999,-0.0426122136874415,-0.2130593231079557,-1.587293178884747
4.973500000000001,-0.069244192743623,-0.2151903701246408,-1.6256432985388185
4.977000000000004,-0.1001382658331746,-0.2141239739516723,-1.6853003977012364
4.980500000000006,-0.1129210572747811,-0.2141239739516723,-1.730041913076111
4.984000000000009,-0.1203788491685529,-0.2151903701246408,-1.7865033143781277
4.987500000000011,-0.1150521042914662,-0.2109282760912706,-1.8333758767696875
4.9909999999999854,-0.0948115209560879,-0.2098636252475541,-1.889837278071704
4.994499999999988,-0.069244192743623,-0.2066679273871525,-1.931383095586177
4.997999999999991,-0.013849187614575,-0.2024058333537824,-1.9857134498715088
5.001499999999993,0.0372854688103548,-0.2077325782308691,-2.0208678716651782
5.004999999999996,0.1182478021518678,-0.2013411825100658,-2.0666757832130216
5.008499999999998,0.1842962970350892,-0.2002765316663493,-2.0869163665484
5.0120000000000005,0.2769767709744921,-0.2002765316663493,-2.121006137498353
5.015500000000003,0.3462209637181151,-0.2002765316663493,-2.130593231079558
5.0190000000000055,0.4367721359700849,-0.2066679273871526,-2.147638116554534
5.022500000000008,0.4900360940824479,-0.2077325782308691,-2.146573465710818
5.0260000000000105,0.5496931932448661,-0.2162550209683574,-2.139115673817046
5.029500000000013,0.5837829641948193,-0.2215817658454442,-2.132724278096243
5.032999999999987,0.6072192453905992,-0.2205171150017276,-2.109287996900463
5.0364999999999895,0.6136106411114024,-0.2183860679850425,-2.0901120644088014
5.039999999999992,0.6061545945468827,-0.2141239739516724,-2.053892991771415
5.0434999999999945,0.5901743599156226,-0.2077325782308691,-2.026194616542265
5.046999999999997,0.5560845889656694,-0.1928187397725776,-1.982517752011107
5.0505,0.519865516328283,-0.1853609478788058,-1.945232283200752
5.054000000000002,0.4570127193054631,-0.1672514115601126,-1.8866415802113023
5.0575000000000045,0.4090737607409349,-0.1565979218059393,-1.8397672724904908
5.061000000000007,0.3355692192931938,-0.1352926876268444,-1.7896990122385292
5.0645000000000095,0.2823035158515788,-0.1150521042914662,-1.7534781942718909
5.068000000000012,0.2098636252475541,-0.0884201252352847,-1.7140634237741033
5.071499999999986,0.1555332709622227,-0.0671131457269379,-1.6906253972490712
5.074999999999989,0.0905494269227178,-0.0372854688103548,-1.6671891160532917
5.078499999999991,0.0532657034416149,-0.013849187614575,-1.6437528348575114
5.081999999999994,0.0213052341790947,0.0106534897541733,-1.6213812045054483
5.085499999999996,0.0074577918937717,0.029827676916583,-1.606467366047157
5.088999999999999,0.013849187614575,0.0500682602519613,-1.5798353869909751
5.092500000000001,0.0298276769165831,0.0585907029894496,-1.561725850672282
5.096000000000004,0.0575260521457331,0.0703088435873395,-1.5393542203202186
5.099500000000006,0.0756355884644262,0.0788312863248278,-1.52656968354936
5.103000000000009,0.1043986145372928,0.0841580312019145,-1.5095265434036358
5.106500000000011,0.1214435000122694,0.0873537290623161,-1.4956773557890606
5.109999999999985,0.150206526085136,0.0905494269227178,-1.480763517330769
5.113499999999988,0.1683160624038291,0.0916158230956863,-1.4701100275765957
5.11699999999999,0.2013411825100658,0.083093380358198,-1.455196189118304
5.120499999999993,0.2173214171413259,0.0767019846373947,-1.4520004912579023
5.123999999999995,0.2407576983371057,0.0639174478665363,-1.4381513036433275
5.127499999999998,0.2556715367953973,0.0511346564249298,-1.432824558766241
5.131,0.2663250265495707,0.0351544217936697,-1.4253667668724692
5.134500000000003,0.2684543282370038,0.0245026773687483,-1.4189753711516655
5.138000000000005,0.2535404897787122,0.0074577918937717,-1.4147150224475475
5.141500000000008,0.2343645572870505,-2.8701380491517303e-17,-1.409388277570461
5.14500000000001,0.2098636252475541,-0.0031956978604016,-1.413648626274579
5.148500000000013,0.1885583910684593,-0.0031956978604016,-1.4157796732912642
5.151999999999987,0.1715135055934827,-0.0031956978604016,-1.4285624647328707
5.155499999999989,0.1608600158393093,-0.002131047016685,-1.4424116523474455
5.158999999999992,0.1565979218059392,0.0010646508437165,-1.4583918869787058
5.162499999999994,0.1544686201185061,0.0085224427374882,-1.474370376280714
5.165999999999997,0.1576643179789077,0.0127827914416064,-1.4956773557890606
5.169499999999999,0.1619246666830259,0.0149138384582915,-1.518048986141124
5.173000000000002,0.166186760716396,0.0234362811957798,-1.5468120122139906
5.176500000000004,0.1640557136997109,0.0245026773687483,-1.569181897236802
5.180000000000007,0.1629910628559944,0.0308940730895516,-1.60114062117007
5.183500000000009,0.1565979218059392,0.0383501196540713,-1.6235122515221332
5.187000000000012,0.1459461773810178,0.0447432607041266,-1.6597330694887715
5.190499999999986,0.1395530363309626,0.0458079115478431,-1.684234001528268
5.193999999999988,0.1267702448893561,0.0500682602519613,-1.7151280746178197
5.197499999999991,0.1225098961852379,0.0511346564249298,-1.7470867985510878
5.200999999999993,0.1161167551351827,0.0490036094082447,-1.781176569501041
5.204499999999996,0.1139874534477496,0.0479389585645282,-1.8173973874676796
5.207999999999998,0.1214435000122694,0.0404811666707564,-1.8642699498592392
5.211500000000001,0.1310323389227262,0.0351544217936697,-1.899424371652909
5.215000000000003,0.1512729222581045,0.01598023463126,-1.9494926319048704
5.218500000000006,0.1747092034538843,-2.139570667913832e-17,-1.9889091477319103
5.222000000000008,0.2183860679850424,-0.0170448854749766,-2.044304152860958
5.225500000000011,0.2524758389349957,-0.0372854688103548,-2.085851715704683
5.229000000000013,0.3078708440640437,-0.0585907029894496,-2.140182069990015
5.232499999999988,0.341960615013997,-0.0841580312019146,-2.1732054447669995
5.23599999999999,0.4037470158638482,-0.1171831513081513,-2.2158176584544407
5.2394999999999925,0.4484902765679749,-0.1406194325039312,-2.240320335823189
5.242999999999995,0.5102766774178261,-0.1811005991746876,-2.2552341742814805
5.2464999999999975,0.5454328445407479,-0.2087989744038376,-2.2616255700022845
5.25,0.5827165680218508,-0.2514094427620272,-2.2541677781085125
5.2535000000000025,0.6082838962343158,-0.2769767709744922,-2.241384986666906
5.257000000000005,0.6125459902676859,-0.312131192768162,-2.221144403331528
5.260500000000008,0.605088198373914,-0.3345028231202253,-2.190250330241976
5.26400000000001,0.5731294744406459,-0.3536787556118869,-2.162553700342078
5.2675000000000125,0.5379750526469761,-0.3664615470534934,-2.133788928939959
5.270999999999987,0.4847093492053611,-0.3781796876513834,-2.0975698563025733
5.274499999999989,0.4442281825346046,-0.3792460838243519,-2.0666757832130216
5.277999999999992,0.3888331774055567,-0.3856374795451551,-2.015541126788092
5.281499999999994,0.3462209637181151,-0.3867021303888717,-1.97719100713402
5.284999999999997,0.2950880526224372,-0.38350643252847,-1.9271227468820589
5.288499999999999,0.2578025838120824,-0.3824417816847535,-1.8887708818987357
5.292000000000002,0.2109282760912706,-0.369657244913895,-1.8312448297530024
5.295500000000004,0.1789695521580025,-0.3622011983493752,-1.7982214549760178
5.299000000000007,0.1299659427497577,-0.3430252658577135,-1.7566738921322929
5.302500000000009,0.0884201252352846,-0.3227846825223353,-1.723650517355308
5.306000000000012,0.0394165158270399,-0.2961527034661538,-1.695952142126158
5.309499999999986,0.0053267448770866,-0.274847469287059,-1.677842605807465
5.312999999999988,-0.0447432607041266,-0.2439533961975074,-1.6639934181928897
5.316499999999991,-0.0798976824977964,-0.2162550209683574,-1.658666673315803
5.319999999999993,-0.124639197872671,-0.1768385051413174,-1.6597330694887715
5.323499999999996,-0.1544686201185061,-0.1502065260851359,-1.6629287673491733
5.326999999999998,-0.1960144376329791,-0.1086607085706629,-1.6757115587907798
5.330500000000001,-0.2247774637058457,-0.0767019846373947,-1.6799736528241498
5.334000000000003,-0.2546051406224288,-0.0404811666707564,-1.6991478399865596
5.337500000000006,-0.2716500260974054,-0.0149138384582915,-1.7151280746178197
5.341000000000008,-0.2897613077453506,0.0127827914416065,-1.7417600536740012
5.344500000000011,-0.2940216564494687,0.0319587239332682,-1.7705230797468676
5.348000000000013,-0.2929570056057522,0.0521993072686464,-1.8131352934343088
5.351499999999987,-0.288694911572382,0.0639174478665363,-1.8568121579654675
5.35499999999999,-0.2620629325162006,0.0671131457269379,-1.9143382101112003
5.358499999999992,-0.2364956043037356,0.0703088435873396,-1.9654728665361303
5.361999999999995,-0.1874919948954908,0.0596570991624181,-2.0293903144026664
5.365499999999997,-0.138488385487246,0.0436768645311581,-2.0826560178442817
5.369,-0.0617864008498512,0.0234362811957798,-2.14976916357122
5.372500000000002,2.6097799078158957e-19,0.002131047016685,-2.197708122135748
5.376000000000005,0.0894847760790012,-0.0319587239332681,-2.250972080248111
5.379500000000007,0.1512729222581045,-0.0564614013020165,-2.2882575490584656
5.38300000000001,0.2322352555996175,-0.1001382658331746,-2.3255430178688203
5.386500000000012,0.2844345628682639,-0.1352926876268444,-2.350045695237569
5.389999999999986,0.3387649171535954,-0.1768385051413175,-2.374546627277065
5.393499999999989,0.3739193389472651,-0.2109282760912707,-2.383069070014554
5.396999999999991,0.4005513180034465,-0.2514094427620272,-2.3937225597687277
5.400499999999994,0.4101401569139034,-0.2673896773932873,-2.3937225597687277
5.403999999999996,0.4005513180034465,-0.2918906094327837,-2.38413372085827
5.407499999999999,0.3813771308410368,-0.3078708440640438,-2.37667767429375
5.411000000000001,0.3451563128743986,-0.3131975889411305,-2.36495953369586
5.414500000000004,0.3078708440640437,-0.312131192768162,-2.352174996925002
5.418000000000006,0.247149094057909,-0.300413052170272,-2.338327554639679
5.421500000000009,0.1960144376329791,-0.2844345628682639,-2.327674064885506
5.425000000000011,0.1257055940456395,-0.2556715367953973,-2.3138248772709304
5.4284999999999854,0.0660484948832213,-0.2258421145495622,-2.3053024345334423
5.431999999999988,-0.0159802346312601,-0.1821652500184041,-2.2967799917959537
5.435499999999991,-0.0820287295144815,-0.1459461773810178,-2.2903885960751507
5.438999999999993,-0.1683160624038291,-0.0937468701123714,-2.292519643091836
5.442499999999996,-0.2386266513204207,-0.0500682602519613,-2.2978446426396704
5.445999999999998,-0.3227846825223353,0.0170448854749766,-2.314889528114647
5.4495000000000005,-0.3824417816847534,0.0681795418999065,-2.3393922054833958
5.453000000000003,-0.4548816722887781,0.1331616406101594,-2.378808721310436
5.4565000000000055,-0.492167141099133,0.1885583910684594,-2.410767445243704
5.460000000000008,-0.5049499325407395,0.245018047041224,-2.45124861191446
5.4635000000000105,-0.4847093492053611,0.2812388650078623,-2.48214093967476
5.467000000000013,-0.4186608543221397,0.3110665419244454,-2.5151660597809964
5.470499999999987,-0.3494166615785167,0.3174579376452486,-2.530079898239288
5.4739999999999895,-0.2301042085829323,0.3142622397848471,-2.538602340976776
5.477499999999992,-0.1342280367831278,0.3014794483432405,-2.5407333879934613
5.4809999999999945,-0.0106534897541733,0.2641939795328856,-2.5215574555018
5.484499999999997,0.0617864008498512,0.2322352555996175,-2.495990127289335
5.488,0.1470108282247344,0.1768385051413174,-2.457640007635263
5.491500000000002,0.1864273440517743,0.1331616406101593,-2.4171588409645066
5.4950000000000045,0.2173214171413259,0.071375239760308,-2.363893137522892
5.498500000000007,0.2258421145495622,0.0255673282124649,-2.314889528114647
5.5020000000000095,0.2151903701246408,-0.0319587239332681,-2.253103127264796
5.505500000000012,0.2013411825100658,-0.0703088435873396,-2.2030348670128346
5.508999999999986,0.166186760716396,-0.1150521042914662,-2.142311371677448
5.512499999999989,0.138488385487246,-0.1438151303643328,-2.087982762721368
5.515999999999991,0.0937468701123713,-0.1725781564371993,-2.0251299656985484
5.519499999999994,0.0671131457269379,-0.1949497867892626,-1.9793220541507053
5.522999999999996,0.029827676916583,-0.2087989744038376,-1.9186003041445707
5.526499999999999,0.0085224427374882,-0.2130593231079557,-1.8834458823509008
5.530000000000001,-0.02769837522915,-0.2173214171413259,-1.8355069237863724
5.533500000000004,-0.0585907029894496,-0.2173214171413259,-1.8014171528364191
