time,Gyr_X,Gyr_Y,Gyr_Z
0.0,0.0031956978604016,0.0010646508437165,-0.0042603487041181
0.0034999999999989,5.217422403749877e-19,0.0042603487041181,-0.0031956978604016
0.0069999999999978,0.002131047016685,0.002131047016685,-0.0010646508437165
0.0104999999999968,0.0063913957208032,0.0053267448770866,-0.0031956978604016
0.0139999999999993,0.0010646508437165,0.0010646508437165,-0.0031956978604016
0.0174999999999982,0.0063913957208032,-7.827202311565772e-19,-0.0010646508437165
0.0209999999999972,0.0010646508437165,0.0031956978604016,-0.0063913957208032
0.0244999999999997,0.0042603487041181,-5.217422403749877e-19,-0.0042603487041181
0.0279999999999986,0.002131047016685,0.0010646508437165,-0.002131047016685
0.0314999999999976,3.913601155782886e-19,0.0031956978604016,-0.0042603487041181
0.0350000000000001,0.0031956978604016,0.002131047016685,-0.0053267448770866
0.038499999999999,0.002131047016685,0.0031956978604016,-0.002131047016685
0.041999999999998,0.0031956978604016,0.0053267448770866,0.0
0.0454999999999969,0.002131047016685,0.0031956978604016,-0.002131047016685
0.0489999999999994,0.0031956978604016,0.0042603487041181,-0.0031956978604016
0.0524999999999984,0.002131047016685,0.002131047016685,-0.0053267448770866
0.0559999999999973,0.0031956978604016,0.0010646508437165,-0.002131047016685
0.0594999999999998,0.0063913957208032,0.0031956978604016,-0.0042603487041181
0.0629999999999988,0.0053267448770866,0.002131047016685,-0.0053267448770866
0.0664999999999977,6.523381063598781e-19,0.0053267448770866,-0.0042603487041181
0.0700000000000002,0.0031956978604016,-3.913601155782886e-19,-0.0031956978604016
0.0734999999999992,-0.002131047016685,2.6097799078158957e-19,-0.0010646508437165
0.0769999999999981,0.0010646508437165,0.002131047016685,-0.0031956978604016
0.0804999999999971,0.0031956978604016,0.0031956978604016,-0.0042603487041181
0.0839999999999996,0.002131047016685,0.0031956978604016,-0.0042603487041181
0.0874999999999985,0.0010646508437165,0.002131047016685,-0.0042603487041181
0.0909999999999975,0.0053267448770866,0.002131047016685,-0.0063913957208032
0.0945,0.002131047016685,0.002131047016685,-0.0042603487041181
0.0979999999999989,6.523381063598781e-19,0.0053267448770866,-0.002131047016685
0.1014999999999979,0.0042603487041181,0.0031956978604016,-0.0042603487041181
0.1049999999999968,0.0031956978604016,0.0042603487041181,-0.0010646508437165
0.1084999999999993,0.0053267448770866,-6.523381063598781e-19,-0.0010646508437165
0.1119999999999983,0.002131047016685,0.002131047016685,-0.002131047016685
0.1154999999999972,5.217422403749877e-19,0.0042603487041181,-0.002131047016685
0.1189999999999997,0.002131047016685,0.0042603487041181,-0.0063913957208032
0.1224999999999987,0.0010646508437165,0.002131047016685,-0.0010646508437165
0.1259999999999976,0.0042603487041181,-5.217422403749877e-19,-0.0053267448770866
0.1295000000000001,0.002131047016685,0.0010646508437165,-0.0031956978604016
0.1329999999999991,0.002131047016685,0.002131047016685,-0.0042603487041181
0.136499999999998,0.0031956978604016,0.0031956978604016,-0.0010646508437165
0.139999999999997,0.0031956978604016,0.0031956978604016,-0.002131047016685
0.1434999999999995,0.0031956978604016,0.0010646508437165,-0.0042603487041181
0.1469999999999984,0.0010646508437165,0.0031956978604016,-0.0042603487041181
0.1504999999999974,0.0010646508437165,0.0010646508437165,-0.002131047016685
0.1539999999999999,0.0031956978604016,0.002131047016685,-0.0053267448770866
0.1574999999999988,0.002131047016685,0.0031956978604016,-0.0042603487041181
0.1609999999999978,0.0010646508437165,0.0010646508437165,-0.002131047016685
0.1645000000000003,0.0010646508437165,0.002131047016685,-0.0031956978604016
0.1679999999999992,0.0031956978604016,-3.913601155782886e-19,-0.002131047016685
0.1714999999999982,-0.0010646508437165,0.002131047016685,-0.0031956978604016
0.1749999999999971,0.002131047016685,0.002131047016685,-0.0042603487041181
0.1784999999999996,0.0010646508437165,0.0031956978604016,-0.0053267448770866
0.1819999999999986,0.0053267448770866,0.0010646508437165,-0.0042603487041181
0.1854999999999975,0.0031956978604016,0.0031956978604016,-0.0053267448770866
0.189,0.0010646508437165,0.0031956978604016,-0.0053267448770866
0.192499999999999,0.0053267448770866,-6.523381063598781e-19,-0.0053267448770866
0.1959999999999979,-2.6097799078158957e-19,-0.002131047016685,-0.0085224427374883
0.1994999999999969,0.0031956978604016,0.0010646508437165,-0.0042603487041181
0.2029999999999994,0.0031956978604016,0.0010646508437165,-0.0042603487041181
0.2064999999999983,0.0074577918937717,0.0010646508437165,-0.0031956978604016
0.2099999999999973,0.0053267448770866,0.0063913957208032,-0.0063913957208032
0.2134999999999998,0.0053267448770866,0.0063913957208032,-0.0010646508437165
0.2169999999999987,0.0010646508437165,0.0010646508437165,-0.0053267448770866
0.2204999999999977,0.002131047016685,-0.0010646508437165,-0.0010646508437165
0.2240000000000002,0.0010646508437165,0.0010646508437165,-0.0053267448770866
0.2274999999999991,0.0053267448770866,0.002131047016685,-0.0053267448770866
0.2309999999999981,0.0031956978604016,0.0010646508437165,-0.0042603487041181
0.234499999999997,0.0010646508437165,-0.0042603487041181,-0.0010646508437165
0.2379999999999995,-0.0,0.0,-0.0031956978604016
0.2414999999999985,6.523381063598781e-19,0.0053267448770866,-0.0042603487041181
0.2449999999999974,0.0042603487041181,0.002131047016685,-0.0053267448770866
0.2484999999999999,0.0031956978604016,-0.0010646508437165,-0.002131047016685
0.2519999999999989,0.0031956978604016,-0.0031956978604016,-0.0053267448770866
0.2554999999999978,0.0042603487041181,-0.002131047016685,-0.0042603487041181
0.2590000000000003,0.002131047016685,-2.6097799078158957e-19,-0.0063913957208032
0.2624999999999993,0.0063913957208032,0.0010646508437165,-0.002131047016685
0.2659999999999982,0.0042603487041181,0.002131047016685,-0.0031956978604016
0.2694999999999972,6.523381063598781e-19,0.0053267448770866,-0.0031956978604016
0.2729999999999997,0.002131047016685,0.0106534897541733,-0.0063913957208032
0.2764999999999986,0.0031956978604016,0.0127827914416064,-0.0042603487041181
0.2799999999999976,1.6960363282980449e-18,0.013849187614575,-0.0031956978604016
0.2835000000000001,-0.0042603487041181,0.0085224427374883,-0.0063913957208032
0.286999999999999,-0.002131047016685,0.0031956978604016,-0.0031956978604016
0.290499999999998,-3.913601155782886e-19,-0.0031956978604016,-0.0010646508437165
0.2939999999999969,0.002131047016685,-0.0085224427374883,0.002131047016685
0.2974999999999994,0.0074577918937717,-0.0031956978604016,-0.002131047016685
0.3009999999999984,0.0085224427374883,0.0042603487041181,-0.0074577918937717
0.3044999999999973,0.0063913957208032,0.0095870935812048,-0.0042603487041181
0.3079999999999998,0.0095870935812048,0.0085224427374883,0.0
0.3114999999999988,0.0117181405978899,0.0053267448770866,0.0
0.3149999999999977,0.0117181405978899,0.0074577918937717,-0.0053267448770866
0.3185000000000002,0.0106534897541733,0.0085224427374883,-0.002131047016685
0.3219999999999992,0.0031956978604016,-3.913601155782886e-19,-0.0031956978604016
0.3254999999999981,-9.133160971414677e-19,-0.0074577918937717,-0.0053267448770866
0.3289999999999971,-0.0010646508437165,-0.0095870935812048,-0.0063913957208032
0.3324999999999996,-0.0010646508437165,-0.002131047016685,-0.0031956978604016
0.3359999999999985,0.002131047016685,0.0053267448770866,-0.0053267448770866
0.3394999999999974,0.002131047016685,0.0074577918937717,-0.0063913957208032
0.3429999999999999,0.0010646508437165,0.0095870935812048,-0.0085224427374883
0.3464999999999989,-0.0063913957208032,0.0053267448770866,-0.0063913957208032
0.3499999999999978,-0.0010646508437165,0.002131047016685,-0.0053267448770866
0.3535000000000003,-1.3038212479669908e-19,-0.0010646508437165,-0.0085224427374883
0.3569999999999993,-3.913601155782886e-19,-0.0031956978604016,-0.0095870935812048
0.3604999999999982,0.002131047016685,-0.0042603487041181,0.0
0.3639999999999972,0.0010646508437165,-0.0042603487041181,-0.002131047016685
0.3674999999999997,0.0063913957208032,-7.827202311565772e-19,-0.0095870935812048
0.3709999999999986,0.0085224427374883,0.0053267448770866,-0.002131047016685
0.3744999999999976,0.0063913957208032,0.0031956978604016,-0.002131047016685
0.3780000000000001,0.0053267448770866,-6.523381063598781e-19,-0.0074577918937717
0.381499999999999,0.0074577918937717,-0.0074577918937717,-0.0063913957208032
0.384999999999998,0.0085224427374883,-0.0106534897541733,0.0
0.3884999999999969,0.0063913957208032,-0.0095870935812048,-0.0053267448770866
0.3919999999999994,0.0031956978604016,-0.0074577918937717,-0.0042603487041181
0.3954999999999984,0.0031956978604016,-0.0031956978604016,-0.0042603487041181
0.3989999999999973,0.002131047016685,0.002131047016685,-0.0053267448770866
0.4024999999999998,5.217422403749877e-19,0.0042603487041181,-0.0010646508437165
0.4059999999999988,0.0053267448770866,0.0106534897541733,-0.0053267448770866
0.4094999999999977,0.0063913957208032,0.0170448854749766,-0.0053267448770866
0.4130000000000002,0.0042603487041181,0.0170448854749766,-0.0074577918937717
0.4164999999999992,0.0053267448770866,0.0063913957208032,-0.0031956978604016
0.4199999999999981,0.0053267448770866,0.0042603487041181,-0.0042603487041181
0.4234999999999971,0.0074577918937717,0.0063913957208032,-0.0042603487041181
0.4269999999999996,0.0106534897541733,0.013849187614575,-0.0031956978604016
0.4304999999999985,0.0149138384582915,0.0181095363186931,-0.0053267448770866
0.4339999999999975,0.013849187614575,0.0191759324916617,-0.0074577918937717
0.4375,0.0106534897541733,0.0149138384582915,-0.0053267448770866
0.4409999999999989,0.0053267448770866,0.0117181405978899,-0.0042603487041181
0.4444999999999979,0.0063913957208032,0.0042603487041181,-0.0042603487041181
0.4479999999999968,0.0095870935812048,-0.0010646508437165,-0.0074577918937717
0.4514999999999993,0.0095870935812048,-0.0149138384582915,-0.0031956978604016
0.4549999999999983,0.0106534897541733,-0.0234362811957798,-0.0010646508437165
0.4584999999999972,0.0170448854749766,-0.0308940730895516,0.0010646508437165
0.4619999999999997,0.0245026773687483,-0.0362208179666383,0.0010646508437165
0.4654999999999987,0.0372854688103548,-0.0255673282124649,0.0
0.4689999999999976,0.0426122136874415,-0.0223716303520633,0.0
0.4725000000000001,0.0447432607041266,-0.0106534897541733,0.0
0.4759999999999991,0.0479389585645282,-0.0063913957208032,0.002131047016685
0.479499999999998,0.0532657034416149,-0.0095870935812048,0.0031956978604016
0.482999999999997,0.0671131457269379,-0.0106534897541733,0.0063913957208032
0.4864999999999995,0.0841580312019145,-0.0095870935812048,0.0063913957208032
0.4899999999999984,0.0937468701123714,-0.0106534897541734,0.0042603487041181
0.4934999999999974,0.1086607085706629,-0.0127827914416064,0.0031956978604016
0.4969999999999999,0.1161167551351827,-0.0149138384582915,0.002131047016685
0.5004999999999988,0.1235745470289545,-0.0191759324916617,0.0010646508437165
0.5039999999999978,0.1331616406101593,-0.013849187614575,-0.0063913957208032
0.5075000000000003,0.1352926876268444,-0.0053267448770867,-0.0085224427374883
0.5109999999999992,0.138488385487246,-1.6959935800604066e-17,-0.0095870935812048
0.5144999999999982,0.1374237346435295,0.0063913957208032,-0.0095870935812048
0.5179999999999971,0.1235745470289545,0.0181095363186931,-0.013849187614575
0.5214999999999996,0.1214435000122694,0.0223716303520633,-0.0181095363186931
0.5249999999999986,0.1001382658331746,0.029827676916583,-0.0213052341790947
0.5284999999999975,0.0873537290623162,0.0308940730895516,-0.0191759324916617
0.532,0.0617864008498512,0.0245026773687483,-0.0170448854749766
0.535499999999999,0.0372854688103548,0.0106534897541733,-0.0181095363186931
0.5389999999999979,0.0031956978604016,-0.013849187614575,-0.01598023463126
0.5424999999999969,-0.0287630260728665,-0.029827676916583,-0.0149138384582915
0.5459999999999994,-0.0585907029894496,-0.0479389585645282,-0.0127827914416064
0.5494999999999983,-0.0745709376207097,-0.0447432607041266,-0.0117181405978899
0.5529999999999973,-0.0958761717998045,-0.043676864531158,-0.0127827914416064
0.5564999999999998,-0.1054650107102613,-0.0394165158270399,-0.0042603487041181
0.5599999999999987,-0.1235745470289545,-0.0245026773687483,-0.0085224427374883
0.5634999999999977,-0.1320969897664428,-0.01598023463126,-0.0053267448770866
0.5670000000000002,-0.1470108282247343,-0.0031956978604015,0.0031956978604016
0.5704999999999991,-0.1544686201185061,-0.0010646508437165,0.0053267448770866
0.5739999999999981,-0.150206526085136,-0.0042603487041181,0.0202405833353782
0.577499999999997,-0.1342280367831279,-0.0138491876145749,0.0340897709499532
0.5809999999999995,-0.0980072188164895,-0.02769837522915,0.0362208179666383
0.5844999999999985,-0.0575260521457331,-0.0319587239332681,0.0340897709499532
0.5879999999999974,0.0127827914416064,-0.0319587239332681,0.0362208179666383
0.5914999999999999,0.0639174478665363,-0.0308940730895516,0.0394165158270399
0.5949999999999989,0.1267702448893561,-0.0202405833353782,0.0372854688103548
0.5984999999999978,0.1597953649955928,-0.0010646508437165,0.0330233747769847
0.6020000000000003,0.1970790884766957,0.0149138384582915,0.0234362811957798
0.6054999999999993,0.2034722295267509,0.0266319790561814,0.0170448854749766
0.6089999999999982,0.1992101354933808,0.0415458175144729,0.0031956978604016
0.6124999999999972,0.1853609478788057,0.0362208179666383,-0.0010646508437165
0.6159999999999997,0.1704471094205142,0.0266319790561814,-0.0042603487041181
0.6194999999999986,0.1640557136997109,0.0223716303520632,-0.0063913957208032
0.6229999999999976,0.1565979218059392,0.0181095363186931,-0.0181095363186931
0.6265000000000001,0.1470108282247343,0.0127827914416064,-0.0181095363186931
0.629999999999999,0.1235745470289545,0.0170448854749766,-0.0255673282124649
0.633499999999998,0.1001382658331746,0.0266319790561814,-0.0255673282124649
0.6369999999999969,0.0681795418999064,0.0319587239332681,-0.0255673282124649
0.6404999999999994,0.041545817514473,0.0362208179666383,-0.0255673282124649
0.6439999999999984,0.0117181405978899,0.0287630260728665,-0.0213052341790947
0.6474999999999973,-0.0106534897541733,0.0223716303520633,-0.0149138384582915
0.6509999999999998,-0.041545817514473,0.002131047016685,-0.013849187614575
0.6544999999999987,-0.069244192743623,-0.0031956978604016,-0.0202405833353782
0.6579999999999977,-0.0990718696602061,-0.0085224427374883,-0.0287630260728665
0.6615000000000002,-0.1225098961852379,-0.0074577918937717,-0.0340897709499532
0.6649999999999991,-0.1534022239455376,0.0095870935812048,-0.0372854688103548
0.6684999999999981,-0.1768385051413174,0.0308940730895516,-0.0351544217936697
0.671999999999997,-0.205601531214184,0.0649838440395049,-0.0213052341790947
0.6754999999999995,-0.2258421145495622,0.0852244273748831,-0.0149138384582915
0.6789999999999985,-0.2620629325162006,0.1043986145372928,0.002131047016685
0.6824999999999974,-0.2833681666952953,0.1075943123976944,0.0095870935812048
0.6859999999999999,-0.3036087500306735,0.1001382658331747,0.0106534897541733
0.6894999999999989,-0.2950880526224372,0.0873537290623162,0.0095870935812048
0.6929999999999978,-0.2567361876391139,0.0724398906040246,0.0
0.6965000000000003,-0.205601531214184,0.055395005129048,-0.0127827914416064
0.6999999999999993,-0.1150521042914662,0.055395005129048,-0.0202405833353782
0.7034999999999982,-0.0511346564249298,0.0628527970228197,-0.0181095363186931
0.7069999999999972,0.0191759324916617,0.0809623333415129,-0.0170448854749766
0.7104999999999997,0.0532657034416149,0.1033339636935762,-0.0245026773687483
0.7139999999999986,0.083093380358198,0.1342280367831279,-0.0351544217936697
0.7174999999999976,0.0990718696602061,0.152337573101821,-0.0447432607041266
0.7210000000000001,0.1054650107102613,0.1704471094205142,-0.0575260521457331
0.724499999999999,0.0980072188164896,0.1736428072809158,-0.069244192743623
0.727999999999998,0.0671131457269379,0.1672514115601126,-0.0777666354811113
0.7314999999999969,0.0319587239332681,0.1406194325039311,-0.0905494269227178
0.7349999999999994,-0.0117181405978899,0.1054650107102613,-0.1075943123976944
0.7384999999999984,-0.0202405833353782,0.0820287295144815,-0.1129210572747811
0.7419999999999973,-0.0191759324916616,0.0628527970228197,-0.1129210572747811
0.7454999999999998,-0.0117181405978899,0.055395005129048,-0.1022693128498597
0.7489999999999988,-0.0181095363186931,0.0500682602519613,-0.0905494269227178
0.7524999999999977,-0.043676864531158,0.0468725623915597,-0.0777666354811113
0.7560000000000002,-0.0809623333415129,0.0543303542853314,-0.0713752397603081
0.7594999999999992,-0.1054650107102613,0.0585907029894496,-0.0660484948832214
0.7629999999999981,-0.1235745470289545,0.0607217500061347,-0.0585907029894496
0.7664999999999971,-0.1203788491685528,0.0639174478665363,-0.055395005129048
0.7699999999999996,-0.1033339636935762,0.0617864008498512,-0.0511346564249298
0.7734999999999985,-0.0873537290623161,0.0649838440395048,-0.0511346564249298
0.7769999999999975,-0.069244192743623,0.0767019846373948,-0.0511346564249298
0.7805,-0.0639174478665363,0.0777666354811113,-0.0607217500061347
0.7839999999999989,-0.0521993072686464,0.0894847760790012,-0.0788312863248278
0.7874999999999979,-0.0490036094082447,0.1043986145372928,-0.083093380358198
0.7909999999999968,-0.0458079115478431,0.1214435000122694,-0.0777666354811113
0.7944999999999993,-0.0426122136874415,0.1310323389227262,-0.0788312863248278
0.7979999999999983,-0.0372854688103548,0.1480754790684509,-0.0777666354811113
0.8014999999999972,-0.0266319790561814,0.1565979218059392,-0.0788312863248278
0.8049999999999997,-0.0127827914416064,0.1693824585767977,-0.0724398906040246
0.8084999999999987,-0.0053267448770866,0.1768385051413174,-0.083093380358198
0.8119999999999976,0.0063913957208032,0.1811005991746876,-0.1054650107102613
0.8155000000000001,0.0085224427374883,0.1811005991746876,-0.1129210572747811
0.8189999999999991,0.0042603487041181,0.1725781564371993,-0.1065296615539778
0.822499999999998,-0.0042603487041181,0.1608600158393093,-0.0980072188164895
0.825999999999997,-0.0042603487041181,0.1491418752414194,-0.0990718696602061
0.8294999999999995,-0.0042603487041181,0.1416840833476476,-0.0980072188164895
0.8329999999999984,-0.0053267448770866,0.1289012919060412,-0.0767019846373948
0.8364999999999974,1.565525958788431e-17,0.1278348957330726,-0.0671131457269379
0.8399999999999999,0.002131047016685,0.1182478021518678,-0.0703088435873395
0.8434999999999988,1.4481179241149444e-17,0.1182478021518678,-0.069244192743623
0.8469999999999978,-0.0106534897541733,0.1225098961852379,-0.0596570991624181
0.8505000000000003,-0.0276983752291499,0.1267702448893561,-0.0628527970228197
0.8539999999999992,-0.0447432607041266,0.1278348957330726,-0.069244192743623
0.8574999999999982,-0.0628527970228197,0.122509896185238,-0.0745709376207097
0.8609999999999971,-0.0767019846373947,0.1139874534477496,-0.0628527970228197
0.8644999999999996,-0.0798976824977964,0.1054650107102613,-0.0490036094082447
0.8679999999999986,-0.0820287295144815,0.0916158230956863,-0.0287630260728665
0.8714999999999975,-0.0926804739394028,0.0767019846373948,-0.0202405833353782
0.875,-0.1129210572747811,0.0649838440395048,-0.0149138384582915
0.878499999999999,-0.1267702448893561,0.0607217500061347,-0.0117181405978899
0.8819999999999979,-0.1470108282247343,0.0575260521457331,-0.0063913957208032
0.8854999999999968,-0.1608600158393093,0.0607217500061347,-0.0053267448770866
0.8889999999999993,-0.1683160624038291,0.0660484948832214,0.0031956978604016
0.8924999999999983,-0.1715135055934827,0.0777666354811113,0.0074577918937717
0.8959999999999972,-0.1821652500184041,0.0894847760790013,0.0149138384582915
0.8994999999999997,-0.191754088928861,0.1001382658331746,0.01598023463126
0.9029999999999988,-0.2013411825100658,0.1086607085706629,0.0149138384582915
0.9064999999999976,-0.2034722295267509,0.110790010258096,0.0095870935812048
0.91,-0.1906876927558924,0.1203788491685529,-0.0010646508437165
0.9134999999999992,-0.1757738542976009,0.1320969897664428,-0.0063913957208032
0.916999999999998,-0.124639197872671,0.1512729222581045,-0.01598023463126
0.920499999999997,-0.0767019846373947,0.1651203645434275,-0.0245026773687483
0.9239999999999996,-0.0063913957208032,0.1821652500184041,-0.0308940730895516
0.9274999999999984,0.0372854688103548,0.180035948330971,-0.0266319790561814
0.9309999999999974,0.0980072188164896,0.177904901314286,-0.0245026773687483
0.9345,0.1374237346435295,0.1725781564371993,-0.0266319790561814
0.9379999999999988,0.1789695521580026,0.1640557136997109,-0.0458079115478431
0.9414999999999978,0.2002765316663493,0.1608600158393093,-0.0532657034416149
0.9450000000000004,0.2215817658454441,0.152337573101821,-0.0681795418999064
0.9484999999999992,0.2258421145495623,0.1448797812080492,-0.0724398906040246
0.9519999999999982,0.2311688594266489,0.1342280367831278,-0.0745709376207097
0.9554999999999972,0.2290395577392159,0.1278348957330726,-0.0767019846373948
0.9589999999999996,0.2279731615662473,0.1289012919060412,-0.0767019846373948
0.9624999999999986,0.2226464166891606,0.1310323389227262,-0.0724398906040246
0.9659999999999976,0.2247774637058457,0.1342280367831278,-0.0639174478665363
0.9695,0.2205171150017276,0.1363573384705609,-0.0521993072686464
0.972999999999999,0.2034722295267509,0.1406194325039311,-0.041545817514473
0.976499999999998,0.1896230419121759,0.1427504795206162,-0.0383501196540714
0.9799999999999968,0.1608600158393094,0.1395530363309625,-0.0351544217936697
0.9834999999999994,0.1406194325039311,0.138488385487246,-0.0330233747769847
0.9869999999999984,0.1097253594143795,0.136357338470561,-0.0266319790561814
0.9904999999999972,0.0905494269227178,0.136357338470561,-0.0266319790561814
0.9939999999999998,0.0745709376207097,0.1438151303643327,-0.0127827914416064
0.9974999999999988,0.0671131457269379,0.1544686201185061,-0.002131047016685
1.0009999999999977,0.0585907029894496,0.1736428072809158,0.0031956978604016
1.0045000000000002,0.0607217500061347,0.180035948330971,0.0170448854749766
1.0079999999999991,0.0617864008498512,0.1842962970350892,0.029827676916583
1.011499999999998,0.0575260521457331,0.1725781564371993,0.041545817514473
1.014999999999997,0.0468725623915597,0.1427504795206162,0.0447432607041266
1.0184999999999995,0.0404811666707564,0.1182478021518678,0.0394165158270399
1.0219999999999985,0.0308940730895516,0.0894847760790012,0.029827676916583
1.0254999999999974,0.0234362811957798,0.0607217500061347,0.02769837522915
1.029,0.0223716303520633,0.0202405833353782,0.0266319790561814
1.0324999999999989,0.0170448854749766,-0.013849187614575,0.0319587239332681
1.0359999999999978,0.01598023463126,-0.055395005129048,0.0383501196540714
1.0395000000000003,0.0063913957208032,-0.0873537290623162,0.0436768645311581
1.0429999999999993,0.0287630260728665,-0.1161167551351827,0.0394165158270399
1.0464999999999982,0.0703088435873395,-0.1278348957330726,0.0394165158270399
1.0499999999999972,0.138488385487246,-0.122509896185238,0.0447432607041266
1.0534999999999997,0.1779049013142859,-0.1139874534477496,0.0500682602519613
1.0569999999999986,0.1992101354933807,-0.1150521042914662,0.0511346564249298
1.0604999999999976,0.1960144376329791,-0.1139874534477496,0.0458079115478431
1.064,0.177904901314286,-0.1065296615539779,0.0372854688103548
1.067499999999999,0.1651203645434275,-0.0980072188164895,0.0351544217936697
1.070999999999998,0.1555332709622227,-0.0809623333415129,0.02769837522915
1.074499999999997,0.152337573101821,-0.0703088435873395,0.02769837522915
1.0779999999999994,0.1352926876268444,-0.055395005129048,0.0340897709499532
1.0814999999999984,0.1171831513081512,-0.0404811666707564,0.041545817514473
1.0849999999999973,0.0820287295144815,-0.0223716303520633,0.0617864008498512
1.0884999999999998,0.0607217500061347,-0.0085224427374883,0.0745709376207097
1.0919999999999987,0.0245026773687483,0.0010646508437165,0.0926804739394028
1.0954999999999977,0.0063913957208032,0.0106534897541733,0.0926804739394028
1.0990000000000002,-0.01598023463126,0.0117181405978899,0.0862890782185996
1.1024999999999991,-0.0362208179666383,0.0106534897541733,0.0681795418999064
1.105999999999998,-0.0617864008498512,0.0127827914416064,0.0394165158270399
1.109499999999997,-0.0735062867769931,0.0191759324916617,0.01598023463126
1.1129999999999995,-0.0948115209560879,0.0319587239332681,-0.0053267448770866
1.1164999999999985,-0.1129210572747811,0.0383501196540714,-0.0127827914416064
1.1199999999999974,-0.1374237346435295,0.041545817514473,-0.0074577918937717
1.1235,-0.1555332709622227,0.0330233747769847,0.002131047016685
1.126999999999999,-0.1789695521580025,0.0319587239332681,0.01598023463126
1.1304999999999978,-0.1832316461913727,0.0213052341790948,0.0245026773687483
1.1340000000000003,-0.1842962970350892,0.0063913957208032,0.0202405833353782
1.1374999999999993,-0.1789695521580025,0.002131047016685,0.0117181405978899
1.1409999999999982,-0.1672514115601126,-0.0138491876145749,-0.0031956978604016
1.1444999999999972,-0.1597953649955928,-0.0266319790561814,-0.0202405833353782
1.1479999999999997,-0.1416840833476476,-0.0383501196540713,-0.0351544217936697
1.1514999999999986,-0.1299659427497577,-0.0500682602519613,-0.0447432607041266
1.1549999999999976,-0.110790010258096,-0.0617864008498512,-0.0564614013020165
1.1585,-0.1001382658331746,-0.0639174478665363,-0.0607217500061347
1.161999999999999,-0.083093380358198,-0.0596570991624181,-0.0628527970228197
1.165499999999998,-0.0713752397603081,-0.0500682602519613,-0.0617864008498512
1.168999999999997,-0.0543303542853314,-0.0362208179666383,-0.0468725623915597
1.1724999999999994,-0.0521993072686464,-0.0223716303520633,-0.0351544217936697
1.1759999999999984,-0.0500682602519613,-0.0127827914416064,-0.013849187614575
1.179499999999997,-0.0575260521457331,-0.0106534897541733,-0.0053267448770866
1.1829999999999998,-0.0788312863248278,-0.0085224427374883,0.0010646508437165
1.1864999999999988,-0.0937468701123714,-0.002131047016685,0.0042603487041181
1.1899999999999975,-0.1193124529955843,-0.01598023463126,0.0085224427374883
1.1935000000000002,-0.1374237346435295,-0.0287630260728665,0.0010646508437165
1.1969999999999992,-0.1512729222581045,-0.0543303542853314,-0.01598023463126
1.200499999999998,-0.1736428072809158,-0.0745709376207097,-0.0223716303520633
1.203999999999997,-0.2066679273871525,-0.1043986145372928,-0.0468725623915597
1.2074999999999996,-0.2279731615662473,-0.1352926876268444,-0.0649838440395048
1.2109999999999983,-0.258867234655799,-0.1640557136997109,-0.0916158230956863
1.2144999999999977,-0.2673896773932873,-0.1789695521580025,-0.1086607085706629
1.218,-0.2684543282370038,-0.2002765316663493,-0.1299659427497577
1.221499999999999,-0.2663250265495707,-0.2162550209683573,-0.1395530363309626
1.224999999999998,-0.2450180470412239,-0.233299906443334,-0.1576643179789077
1.2284999999999968,-0.2311688594266489,-0.2482137449016255,-0.1747092034538843
1.231999999999999,-0.2109282760912707,-0.2759121201307756,-0.2098636252475541
1.2354999999999985,-0.1938833906162941,-0.2897613077453506,-0.2301042085829324
1.2389999999999972,-0.1747092034538844,-0.3089354949077603,-0.258867234655799
1.2424999999999995,-0.1565979218059392,-0.3185243338182171,-0.2705853752536888
1.2459999999999989,-0.1331616406101594,-0.3217200316786187,-0.2876302607286655
1.2494999999999976,-0.1267702448893561,-0.316393286801532,-0.288694911572382
1.253,-0.1374237346435295,-0.2833681666952953,-0.2396913021641372
1.256499999999999,-0.1661867607163961,-0.2396913021641372,-0.1491418752414194
1.259999999999998,-0.2396913021641372,-0.1544686201185061,-0.0245026773687483
1.263499999999997,-0.2737810731140905,-0.1097253594143794,0.0127827914416064
1.2669999999999997,-0.258867234655799,-0.071375239760308,0.0170448854749766
1.2704999999999984,-0.2279731615662473,-0.0585907029894496,0.0042603487041181
1.2739999999999974,-0.1928187397725775,-0.0607217500061346,0.0
1.2775,-0.1672514115601126,-0.0649838440395048,-0.01598023463126
1.2809999999999988,-0.1480754790684509,-0.0788312863248278,-0.0330233747769847
1.2844999999999978,-0.1416840833476476,-0.0905494269227178,-0.0500682602519613
1.2880000000000005,-0.1406194325039311,-0.0948115209560879,-0.0628527970228197
1.2914999999999992,-0.1470108282247343,-0.1022693128498597,-0.0671131457269379
1.2949999999999982,-0.1597953649955928,-0.1257055940456395,-0.0724398906040246
1.298499999999997,-0.1608600158393094,-0.1502065260851359,-0.0745709376207097
1.3019999999999996,-0.1534022239455376,-0.1906876927558924,-0.0809623333415129
1.3054999999999986,-0.1427504795206162,-0.2258421145495622,-0.0926804739394028
1.3089999999999975,-0.1129210572747811,-0.2823035158515788,-0.110790010258096
1.3125,-0.0980072188164896,-0.3195889846619337,-0.1257055940456395
1.315999999999999,-0.0564614013020166,-0.369657244913895,-0.1512729222581045
1.319499999999998,-0.0234362811957799,-0.4037470158638482,-0.1672514115601126
1.3229999999999968,0.01598023463126,-0.4495549274116914,-0.1928187397725775
1.3264999999999991,0.0532657034416148,-0.4740576047804398,-0.205601531214184
1.3299999999999983,0.0937468701123713,-0.5049499325407395,-0.2247774637058457
1.3334999999999972,0.1225098961852379,-0.5230612141886847,-0.2386266513204207
1.3369999999999995,0.1576643179789077,-0.5347793547865746,-0.2524758389349957
1.3404999999999987,0.1832316461913726,-0.5347793547865746,-0.2578025838120824
1.3439999999999976,0.2045368803704674,-0.5326483077698895,-0.260998281672484
1.3475,0.2141239739516722,-0.5166698184678814,-0.2641939795328856
1.350999999999999,0.2151903701246408,-0.4985585368199362,-0.2673896773932873
1.354499999999998,0.2119946722642391,-0.4825800475179281,-0.2737810731140905
1.357999999999997,0.1981454846496642,-0.4591437663221482,-0.2780431671474606
1.3614999999999997,0.180035948330971,-0.4357057397971164,-0.2844345628682639
1.3649999999999984,0.1512729222581044,-0.3909642244222418,-0.2833681666952953
1.3684999999999974,0.1235745470289544,-0.355809802628572,-0.2833681666952953
1.372,0.0809623333415129,-0.3068061932203272,-0.2769767709744921
1.3754999999999988,0.043676864531158,-0.2801724688348938,-0.2673896773932873
1.3789999999999978,-0.0021310470166851,-0.2546051406224288,-0.2503447919183106
1.3825000000000005,-0.0468725623915597,-0.2364956043037356,-0.2418223491808223
1.3859999999999992,-0.0990718696602061,-0.2162550209683574,-0.2311688594266489
1.3894999999999982,-0.1406194325039311,-0.2130593231079557,-0.2162550209683574
1.3929999999999971,-0.1885583910684594,-0.2002765316663493,-0.2013411825100658
1.3964999999999996,-0.2173214171413259,-0.1960144376329791,-0.1885583910684593
1.3999999999999986,-0.2524758389349957,-0.1874919948954908,-0.1629910628559944
1.4034999999999975,-0.2673896773932873,-0.1885583910684593,-0.1480754790684509
1.407,-0.2823035158515788,-0.1832316461913726,-0.1214435000122694
1.410499999999999,-0.2823035158515788,-0.180035948330971,-0.1043986145372928
1.413999999999998,-0.2801724688348938,-0.1715135055934827,-0.083093380358198
1.4174999999999969,-0.2684543282370038,-0.166186760716396,-0.0703088435873395
1.4209999999999994,-0.2524758389349957,-0.1491418752414194,-0.0458079115478431
1.4244999999999983,-0.2364956043037356,-0.1342280367831278,-0.0308940730895516
1.4279999999999973,-0.2130593231079558,-0.1161167551351827,-0.0127827914416064
1.4314999999999998,-0.1896230419121759,-0.0958761717998044,0.002131047016685
1.4349999999999987,-0.1576643179789077,-0.0681795418999064,0.0149138384582915
1.4384999999999977,-0.1278348957330726,-0.0383501196540713,0.0202405833353782
1.4420000000000002,-0.0841580312019145,0.002131047016685,0.0319587239332681
1.4454999999999991,-0.057526052145733,0.0298276769165831,0.0319587239332681
1.448999999999998,-0.0063913957208032,0.0735062867769931,0.0383501196540714
1.452499999999997,0.02769837522915,0.1118564064310645,0.0468725623915597
1.4559999999999995,0.0777666354811113,0.1459461773810178,0.0521993072686464
1.4594999999999985,0.1214435000122694,0.1715135055934827,0.0596570991624181
1.4629999999999974,0.164055713699711,0.1928187397725775,0.0596570991624181
1.4665,0.191754088928861,0.2013411825100658,0.0639174478665363
1.4699999999999989,0.2247774637058457,0.2119946722642392,0.0639174478665363
1.4734999999999978,0.2428870000245389,0.2141239739516723,0.0660484948832214
1.4770000000000003,0.260998281672484,0.219450718828759,0.0713752397603081
1.4804999999999993,0.2705853752536888,0.2205171150017275,0.0777666354811113
1.4839999999999982,0.2791078179911772,0.2151903701246408,0.083093380358198
1.4874999999999972,0.2823035158515788,0.2130593231079557,0.0937468701123714
1.4909999999999997,0.2812388650078622,0.2087989744038376,0.1043986145372928
1.4944999999999986,0.2801724688348938,0.2087989744038376,0.1129210572747811
1.4979999999999976,0.274847469287059,0.2002765316663493,0.1214435000122694
1.5015,0.2684543282370038,0.1981454846496642,0.1310323389227262
1.504999999999999,0.258867234655799,0.1928187397725775,0.1406194325039311
1.508499999999998,0.2482137449016256,0.1906876927558924,0.1448797812080492
1.511999999999997,0.2322352555996175,0.1885583910684593,0.1512729222581045
1.5154999999999994,0.2226464166891606,0.1853609478788057,0.1565979218059392
1.5189999999999984,0.2066679273871526,0.1853609478788057,0.1597953649955928
1.5224999999999973,0.1906876927558924,0.1928187397725775,0.1608600158393093
1.5259999999999998,0.1747092034538844,0.1949497867892626,0.1629910628559944
1.5294999999999987,0.1597953649955928,0.2002765316663493,0.1629910628559944
1.5329999999999977,0.1289012919060412,0.1981454846496642,0.1587289688226243
1.5365000000000002,0.1086607085706629,0.1896230419121759,0.1544686201185061
1.5399999999999991,0.0788312863248279,0.1619246666830259,0.150206526085136
1.543499999999998,0.0564614013020165,0.1459461773810178,0.1459461773810178
1.546999999999997,0.0213052341790947,0.1118564064310645,0.1427504795206162
1.5504999999999995,0.0042603487041181,0.0777666354811113,0.138488385487246
1.5539999999999985,-0.013849187614575,0.0319587239332681,0.1310323389227262
1.5574999999999974,-0.0202405833353782,-0.0010646508437165,0.1278348957330726
1.561,-0.0202405833353782,-0.0500682602519613,0.1214435000122694
1.564499999999999,-0.0106534897541734,-0.083093380358198,0.1171831513081512
1.5679999999999978,0.0095870935812048,-0.1267702448893561,0.1139874534477496
1.5715000000000003,0.0362208179666383,-0.152337573101821,0.1086607085706629
1.5749999999999993,0.0724398906040246,-0.1938833906162941,0.1129210572747811
1.5784999999999982,0.1097253594143794,-0.2173214171413259,0.1171831513081512
1.5819999999999972,0.1640557136997109,-0.2514094427620272,0.1278348957330726
1.5854999999999997,0.2066679273871525,-0.2705853752536888,0.1331616406101593
1.5889999999999986,0.2641939795328856,-0.2993484013265555,0.1395530363309626
1.5924999999999976,0.3025440991869569,-0.3142622397848471,0.1438151303643327
1.596,0.3632658491930917,-0.3334381722765087,0.1395530363309626
1.599499999999999,0.3984202709867615,-0.3462209637181152,0.1427504795206162
1.602999999999998,0.4442281825346046,-0.3483520107348002,0.1406194325039311
1.606499999999997,0.4708619069200381,-0.3526141047681704,0.1352926876268444
1.6099999999999994,0.4996249329929047,-0.3590055004889737,0.1342280367831279
1.6134999999999984,0.5060163287137079,-0.3653968962097769,0.1342280367831279
1.616999999999997,0.5145387714511963,-0.3781796876513834,0.1299659427497577
1.6204999999999998,0.5092120265741096,-0.3994866671597301,0.1289012919060412
1.6239999999999988,0.4847093492053611,-0.4239875991992266,0.1225098961852379
1.6274999999999975,0.4644687658699829,-0.4463592295512898,0.1182478021518678
1.6310000000000002,0.4144005056180216,-0.4751222556241564,0.1214435000122694
1.6344999999999992,0.3867021303888716,-0.5006895838366213,0.1214435000122694
1.637999999999998,0.3387649171535953,-0.5305172607532044,0.1299659427497577
1.641499999999997,0.3025440991869569,-0.5624759846864725,0.1342280367831279
1.6449999999999996,0.2780431671474606,-0.5848476150385359,0.1374237346435295
1.6484999999999983,0.2641939795328856,-0.600827849669796,0.1374237346435295
1.6519999999999977,0.249280141074594,-0.6231994800218592,0.1491418752414194
1.6555,0.2503447919183106,-0.6338512244467807,0.1448797812080492
1.658999999999999,0.2535404897787122,-0.6466357612176391,0.1512729222581045
1.662499999999998,0.2567361876391138,-0.6551582039551274,0.1587289688226243
1.6659999999999968,0.2684543282370037,-0.6626142505196473,0.1597953649955928
1.669499999999999,0.2812388650078622,-0.6690056462404504,0.1704471094205142
1.6729999999999985,0.2844345628682638,-0.670072042413419,0.1715135055934827
1.6764999999999972,0.2812388650078622,-0.6711366932571355,0.1757738542976009
1.6799999999999995,0.2695207244099722,-0.6690056462404504,0.1715135055934827
1.6834999999999989,0.2535404897787122,-0.6615495996759307,0.1651203645434275
1.6869999999999976,0.2269085107225307,-0.6477004120613556,0.1555332709622227
1.6905,0.2034722295267508,-0.6402426201675839,0.1459461773810178
1.693999999999999,0.1640557136997109,-0.630655526586379,0.1395530363309626
1.697499999999998,0.1395530363309625,-0.6200020368322057,0.1310323389227262
1.700999999999997,0.099071869660206,-0.605088198373914,0.1214435000122694
1.7044999999999997,0.0671131457269378,-0.5997614534968274,0.1054650107102613
1.7079999999999984,0.0266319790561814,-0.5944364539489927,0.0841580312019145
1.7114999999999974,-0.0021310470166851,-0.586978662055221,0.0703088435873395
1.715,-0.0287630260728666,-0.5752605214573311,0.0447432607041266
1.7184999999999988,-0.0468725623915597,-0.5656734278761262,0.0287630260728665
1.7219999999999978,-0.0639174478665364,-0.5571509851386378,0.01598023463126
1.7255000000000005,-0.0713752397603081,-0.5464974953844645,0.0074577918937717
1.7289999999999992,-0.067113145726938,-0.5305172607532044,-0.002131047016685
1.7324999999999982,-0.0649838440395049,-0.5134723752782278,-0.0053267448770866
1.735999999999997,-0.0543303542853315,-0.4953628389595346,-0.0127827914416064
1.7394999999999996,-0.041545817514473,-0.4783179534845579,-0.0170448854749766
1.7429999999999986,-0.0223716303520633,-0.4623394641825499,-0.0191759324916617
1.7464999999999975,-0.0053267448770867,-0.452750625272093,-0.0223716303520633
1.75,0.0213052341790947,-0.4335764381096833,-0.0191759324916617
1.753499999999999,0.0468725623915596,-0.4218582975117934,-0.0181095363186931
1.756999999999998,0.0756355884644262,-0.4090737607409349,-0.0202405833353782
1.7604999999999968,0.1012029166768911,-0.3962909692993285,-0.013849187614575
1.7639999999999991,0.1299659427497577,-0.3952245731263599,-0.0095870935812048
1.7674999999999983,0.1512729222581044,-0.3920288752659583,-0.0031956978604016
1.7709999999999972,0.1768385051413174,-0.3824417816847534,-0.0117181405978899
1.7744999999999995,0.1885583910684593,-0.3781796876513833,-0.013849187614575
1.7779999999999987,0.2002765316663492,-0.3771150368076668,-0.0245026773687483
1.7814999999999976,0.1949497867892625,-0.3781796876513833,-0.0372854688103548
1.785,0.1896230419121758,-0.3856374795451551,-0.0479389585645282
1.788499999999999,0.1779049013142859,-0.3824417816847534,-0.0607217500061347
1.791999999999998,0.1608600158393093,-0.38350643252847,-0.0788312863248278
1.795499999999997,0.1448797812080492,-0.3781796876513833,-0.0937468701123714
1.7989999999999997,0.1225098961852379,-0.3781796876513833,-0.1150521042914662
1.8024999999999984,0.1043986145372927,-0.3739193389472651,-0.1342280367831279
1.8059999999999972,0.0841580312019145,-0.3611348021764067,-0.1587289688226243
1.8095,0.0628527970228197,-0.3504830577514853,-0.180035948330971
1.8129999999999988,0.0458079115478431,-0.3281114273994219,-0.2034722295267509
1.8164999999999976,0.0276983752291499,-0.314262239784847,-0.219450718828759
1.8200000000000005,0.0063913957208031,-0.288694911572382,-0.2364956043037356
1.8234999999999992,-0.0127827914416065,-0.2759121201307756,-0.2450180470412239
1.8269999999999984,-0.0351544217936698,-0.2599318854995155,-0.2546051406224288
1.830499999999997,-0.0511346564249299,-0.2482137449016255,-0.2631275833599171
1.834,-0.0703088435873396,-0.2364956043037356,-0.2727164222703739
1.8374999999999984,-0.0809623333415129,-0.2311688594266489,-0.2769767709744921
1.8409999999999973,-0.0905494269227178,-0.2301042085829324,-0.2876302607286655
1.8445,-0.1033339636935763,-0.2301042085829324,-0.2929570056057522
1.847999999999999,-0.1086607085706629,-0.2354309534600191,-0.3036087500306735
1.851499999999998,-0.1118564064310646,-0.2375620004767041,-0.3036087500306735
1.8549999999999969,-0.1139874534477496,-0.233299906443334,-0.302544099186957
1.8584999999999996,-0.1171831513081513,-0.2364956043037356,-0.2940216564494687
1.8619999999999983,-0.1235745470289545,-0.2396913021641372,-0.2759121201307756
1.8654999999999973,-0.1342280367831279,-0.2407576983371057,-0.2556715367953973
1.869,-0.1576643179789078,-0.2439533961975073,-0.2301042085829324
1.8724999999999987,-0.1864273440517743,-0.2514094427620272,-0.2162550209683574
1.8759999999999977,-0.2301042085829324,-0.2705853752536888,-0.1896230419121759
1.8795,-0.2684543282370039,-0.2972173543098703,-0.1715135055934827
1.8829999999999991,-0.328111427399422,-0.3313071252598236,-0.1480754790684509
1.886499999999998,-0.369657244913895,-0.3675279432264619,-0.136357338470561
1.889999999999997,-0.4207919013388249,-0.4165315526347067,-0.1235745470289545
1.8934999999999995,-0.4548816722887782,-0.4538170214450615,-0.1214435000122694
1.8969999999999985,-0.4804490005012431,-0.5038852816970228,-0.1203788491685528
1.9004999999999972,-0.4911024902554165,-0.5443664483677793,-0.1203788491685528
1.904,-0.4889714432387314,-0.5923054069323075,-0.1289012919060412
1.9074999999999989,-0.4729912086074713,-0.6274598287259774,-0.1331616406101593
1.9109999999999976,-0.4420988808471717,-0.6679409953967339,-0.1480754790684509
1.9145000000000003,-0.4101401569139036,-0.6967040214696004,-0.1629910628559944
1.9179999999999997,-0.3622011983493753,-0.7318584432632703,-0.1811005991746876
1.9214999999999984,-0.3217200316786188,-0.7595568184924202,-0.1960144376329791
1.9249999999999967,-0.2631275833599172,-0.7936465894423735,-0.2215817658454441
1.9285,-0.2151903701246409,-0.81069147491735,-0.2450180470412239
1.9319999999999984,-0.1512729222581046,-0.8373234539735316,-0.2716500260974054
1.9354999999999976,-0.1001382658331747,-0.8437148496943347,-0.2972173543098703
1.939,-0.0191759324916618,-0.8511726415881066,-0.3376985209806268
1.942499999999999,0.0362208179666382,-0.8575640373089098,-0.3611348021764067
1.945999999999998,0.1171831513081511,-0.8522372924318231,-0.3962909692993285
1.949499999999997,0.1779049013142858,-0.8415838026776498,-0.4207919013388249
1.9529999999999996,0.2556715367953972,-0.8234742663589566,-0.4612730680095813
1.9564999999999984,0.3142622397848469,-0.8043000791965469,-0.4868403962220463
1.9599999999999973,0.3771150368076666,-0.7723396099340267,-0.5262569120490862
1.9635,0.4186608543221397,-0.7446429800341288,-0.5518242402615512
1.9669999999999987,0.4580773701491796,-0.7030954171904038,-0.5837829641948193
1.9704999999999977,0.4847093492053611,-0.6700720424134191,-0.6061545945468827
1.974,0.4953628389595345,-0.6200020368322058,-0.6317219227593476
1.9774999999999991,0.4953628389595345,-0.5795208701614493,-0.6530271569384424
1.980999999999998,0.4783179534845579,-0.5273215628928029,-0.6732677402738206
1.984499999999997,0.4559463231324946,-0.4868403962220463,-0.6881815787321122
1.9879999999999995,0.4005513180034465,-0.4389031829867701,-0.7073575112237738
1.9914999999999985,0.344091662030682,-0.4058780628805333,-0.7169446048049787
1.9949999999999972,0.2407576983371057,-0.3707236410868636,-0.7361205372966404
1.9985,0.1438151303643327,-0.3568744534722885,-0.7520990265986485
2.001999999999999,-0.0053267448770867,-0.3259803803827369,-0.7702103082465936
2.005499999999998,-0.1289012919060412,-0.3110665419244454,-0.7851241467048852
2.008999999999997,-0.3110665419244454,-0.2844345628682638,-0.8085604279006651
2.0124999999999997,-0.4442281825346048,-0.2567361876391138,-0.8234742663589566
2.0159999999999982,-0.628524479569694,-0.2173214171413258,-0.8469105475547365
2.019499999999997,-0.7606214693361367,-0.1832316461913726,-0.8650218292026817
2.023,-0.9182857873150446,-0.1310323389227261,-0.8863270633817765
2.026499999999998,-1.0269464958857075,-0.0841580312019144,-0.9065676467171546
2.0299999999999976,-1.1494546467416935,-0.0287630260728664,-0.9417220685108244
2.0335,-1.2250919805353715,0.01171814059789,-0.9694204437399744
2.036999999999999,-1.2954008241227113,0.0703088435873397,-1.0109662612544474
2.040499999999998,-1.3358819907934678,0.1097253594143796,-1.0471870792210858
2.043999999999997,-1.3646450168663344,0.161924666683026,-1.0940596416126456
2.0474999999999994,-1.3806252514975943,0.1970790884766958,-1.1334761574396854
2.0509999999999984,-1.3966037407996024,0.2439533961975075,-1.1846108138646152
2.0544999999999973,-1.4083218813974925,0.2695207244099725,-1.2282876783957732
2.058,-1.432824558766241,0.3014794483432406,-1.275160240787333
2.0614999999999988,-1.4615875848391076,0.3185243338182173,-1.3092500117372865
2.0649999999999977,-1.522309334845242,0.3483520107348004,-1.351862225424728
2.0685,-1.5723775950972034,0.3717882919305803,-1.3763631574642243
2.071999999999999,-1.65653737162837,0.4133358547743053,-1.405126183537091
2.075499999999998,-1.721519470338623,0.4527506252720932,-1.421106418168351
2.078999999999997,-1.8131352934343088,0.5187991201553147,-1.4338892096099574
2.0825,-1.8759880904571289,0.5731294744406461,-1.4306935117495558
2.0859999999999985,-1.956950423798642,0.6391779693238676,-1.4296288609058392
2.089499999999997,-2.017672173804777,0.6881815787321124,-1.427497813889154
2.093,-2.085851715704683,0.730793792419554,-1.4338892096099574
2.096499999999999,-2.1359199759566443,0.7531654227716172,-1.4381513036433275
2.099999999999998,-2.1827925383482043,0.7712749590903104,-1.4541297929453356
2.103499999999997,-2.213686611437756,0.7755353077944286,-1.4733057254369972
2.1069999999999998,-2.2381892888065043,0.774470656950712,-1.5073954963869507
2.1104999999999983,-2.249907429404394,0.7680792612299088,-1.527636079722329
2.113999999999997,-2.256298825125197,0.7467722817215621,-1.5595948036555969
2.1175,-2.240320335823189,0.719075651821664,-1.5766396891305736
2.1209999999999987,-2.2232754503482126,0.6785944851509076,-1.5947492254492668
2.1244999999999976,-2.1987727729794644,0.6423736671842692,-1.6096630639075584
2.128,-2.162553700342078,0.5891097090719063,-1.6320346942596218
2.131499999999999,-2.148704512727503,0.5422354013510945,-1.6554709754554016
2.134999999999998,-2.144442418694133,0.4868403962220465,-1.693822840438725
2.138499999999997,-2.1636183511857947,0.4420988808471719,-1.728977262232395
2.1419999999999995,-2.2179487054711258,0.3856374795451553,-1.790763663082246
2.1454999999999984,-2.2871928982147494,0.3419606150139972,-1.8355069237863724
2.1489999999999974,-2.409701049070735,0.2737810731140908,-1.915404606284169
2.1525,-2.5332755960996893,0.2290395577392161,-1.97719100713402
2.155999999999999,-2.735683174782724,0.1661867607163964,-2.065611132369305
2.1594999999999978,-2.930631216242735,0.1374237346435299,-2.141246720833731
2.1630000000000003,-3.260873690658842,0.1171831513081516,-2.250972080248111
2.166499999999999,-3.567679883879169,0.100138265833175,-2.3361965076229936
2.169999999999998,-4.071565165576192,0.0862890782186001,-2.45870465847898
2.173499999999997,-4.5168597442837655,0.0756355884644268,-2.555647226451753
2.177,-5.193323182417987,0.0436768645311587,-2.689875263234881
2.1804999999999986,-5.748341375210688,0.0159802346312607,-2.7921428307554885
2.183999999999997,-6.514291334753164,-0.0404811666707556,-2.915717377784443
2.1875,-7.089551856210494,-0.0894847760790004,-2.997746107298924
2.190999999999999,-7.806496461015473,-0.1512729222581035,-3.087230883377926
2.194499999999998,-8.28161871663963,-0.2013411825100648,-3.1330387949257688
2.197999999999997,-8.818527373113637,-0.2599318854995144,-3.161801820998636
2.2015,-9.144509498825624,-0.3131975889411293,-3.160735424825667
2.205000000000002,-9.453444993733386,-0.3909642244222406,-3.138365539802856
2.208499999999997,-9.586608379672798,-0.4634041150262653,-3.098949023975816
2.212,-9.651590478383053,-0.5752605214573299,-3.0371608777967127
2.215499999999995,-9.616434311260129,-0.6700720424134178,-2.987092617544751
2.2189999999999976,-9.474750227912482,-0.8021690321798607,-2.9008035393261515
2.2225,-9.301107420631569,-0.905502995873437,-2.8315593465825284
2.2259999999999955,-9.010281462042498,-1.03759998563988,-2.726094335872267
2.229499999999998,-8.747153878682582,-1.131345110422999,-2.647263049547439
2.2330000000000005,-8.377494888439434,-1.2506593087478357,-2.5492558307309494
2.236499999999996,-8.097322419604541,-1.3305552459163803,-2.490663382412248
2.2399999999999984,-7.745774711009338,-1.42110641816835,-2.433139075595767
2.243500000000001,-7.519930851130524,-1.4796971211577996,-2.4075717473833023
2.2469999999999963,-7.269586059212213,-1.5489413139014228,-2.408636398227019
2.250499999999999,-7.134293371585369,-1.596880272465951,-2.425681283701995
2.2540000000000013,-7.0171102202772175,-1.650144230578314,-2.466162450372752
2.2574999999999967,-6.959585913460737,-1.6906253972490703,-2.495990127289335
2.2609999999999992,-6.931887538231586,-1.751348892584457,-2.5364712939600915
2.2645000000000017,-6.926560793354501,-1.7971568041323005,-2.56097397132884
2.267999999999997,-6.912711605739926,-1.8557475071217495,-2.5886723465579893
2.2715,-6.8977977672816335,-1.8887708818987343,-2.6110422315808006
2.274999999999995,-6.860512298471279,-1.9281873977257744,-2.6323492110891475
2.278499999999997,-6.832813923242129,-1.9676039135528145,-2.648327700391156
2.282,-6.784876710006852,-2.0304567105756344,-2.644067351687037
2.2854999999999954,-6.747591241196497,-2.0869163665483987,-2.617435372630856
2.288999999999998,-6.7081747253694575,-2.1870546323815736,-2.555647226451753
2.2925000000000004,-6.685803095017395,-2.2744083614438897,-2.483207335847728
2.295999999999996,-6.660237512134182,-2.396918257629128,-2.356437090958372
2.2994999999999983,-6.64851762620704,-2.497056523462302,-2.2445806845273077
2.303000000000001,-6.635734834765432,-2.6195646743182883,-2.0645447361963365
2.306499999999996,-6.632539136905032,-2.703724450849455,-1.9186003041445707
2.3099999999999987,-6.622950297994575,-2.804927367526346,-1.6980831891428432
2.313500000000001,-6.6133632044133694,-2.878431908974087,-1.522309334845242
2.3169999999999966,-6.595253668094677,-2.9711123829134904,-1.275160240787333
2.320499999999999,-6.5782087826197,-3.047814367550885,-1.0844725480314406
2.3240000000000016,-6.54305436082603,-3.1479526333840595,-0.8383881048172481
2.327499999999997,-6.497246449278187,-3.2182614769713997,-0.6594185526592456
2.3309999999999995,-6.412022021903304,-3.299223810312912,-0.4420988808471717
2.334500000000002,-6.32786399070139,-3.3514248629108105,-0.2940216564494687
2.3379999999999974,-6.185113511180773,-3.3993620761460868,-0.1257055940456395
2.3415,-6.044494078676842,-3.4238647535148354,-0.0213052341790947
2.3449999999999958,-5.805869172685672,-3.4227983573418665,0.0873537290623162
2.348499999999998,-5.590678802561032,-3.415342310777347,0.1438151303643327
2.3520000000000003,-5.272154468742816,-3.3876439355481973,0.1864273440517743
2.355499999999996,-5.005831187522496,-3.352489513754527,0.1960144376329791
2.358999999999998,-4.651086035737641,-3.307746253050401,0.180035948330971
2.3625000000000007,-4.3815670566569205,-3.257677992798439,0.1565979218059392
2.365999999999996,-4.036410743782522,-3.1820424043340134,0.1001382658331746
2.3694999999999986,-3.8063065351995897,-3.114927513277823,0.041545817514473
2.373000000000001,-3.539981508650019,-3.0105288987405308,-0.0521993072686464
2.3764999999999965,-3.3801878889836785,-2.9253062166948998,-0.1352926876268444
2.379999999999999,-3.2235882218484875,-2.79960062264926,-0.2460844432141925
2.383500000000001,-3.147952633384061,-2.700527007659802,-0.3302424744161071
2.386999999999997,-3.0861644872049574,-2.582279205507934,-0.4293143440763132
2.3904999999999994,-3.0605989043217448,-2.492794429428933,-0.4911024902554164
2.394000000000002,-3.054205763271689,-2.3734819764333484,-0.5603466829990394
2.3974999999999973,-3.0424876226738,-2.29038859607515,-0.5933700577760241
2.401,-3.006268550036413,-2.187054632381574,-0.6274598287259775
2.404499999999995,-2.9455468000302787,-2.118875090481668,-0.6402426201675839
2.4079999999999977,-2.8187765551409223,-2.0453705490339265,-0.6498314590780407
2.4115,-2.689875263234881,-2.0198032208214616,-0.6455693650446706
2.414999999999996,-2.477880590970642,-1.9984962413131149,-0.6274598287259775
2.418499999999998,-2.297844642639671,-1.9963669396256816,-0.6061545945468827
2.4220000000000006,-2.046435199877644,-2.01660752296106,-0.5720648235969293
2.425499999999996,-1.8664009968759243,-2.04004380415684,-0.5326483077698895
2.4289999999999985,-1.6501442305783152,-2.07946031998388,-0.4751222556241564
2.432500000000001,-1.507395496386951,-2.106092299040061,-0.4239875991992265
2.4359999999999964,-1.3561225741288463,-2.129528580235841,-0.355809802628572
2.439499999999999,-1.2677041942228136,-2.141246720833731,-0.2854992137119804
2.4430000000000014,-1.1750219749541588,-2.1519002105879044,-0.1651203645434275
2.446499999999997,-1.1238890638584806,-2.1678786998899127,-0.0500682602519613
2.4499999999999997,-1.061036266835661,-2.1827925383482043,0.1161167551351827
2.453500000000002,-1.0280111467294244,-2.2062305648732363,0.2524758389349957
2.456999999999997,-0.9811385843378646,-2.241384986666906,0.4399678338304866
2.4605,-0.9459841625441948,-2.276539408460576,0.5741958706136145
2.463999999999995,-0.8895227612421783,-2.334065460606309,0.7425119330174437
2.4674999999999976,-0.8319967090964452,-2.3809380229978685,0.8501062454151381
2.471,-0.7403808860007588,-2.434203726439484,0.9651583497066044
2.4744999999999955,-0.659418552659246,-2.468293497389437,1.0269464958857075
2.477999999999998,-0.5219948180157165,-2.50983931490391,1.0887328967355587
2.4815000000000005,-0.4058780628805336,-2.5364712939600915,1.1121691779313387
2.484999999999996,-0.2375620004767044,-2.581214554664218,1.134540808283402
2.4884999999999984,-0.1012029166768915,-2.602519788843313,1.1409322040042051
2.492000000000001,0.0852244273748828,-2.6323492110891475,1.1419986001771738
2.4954999999999963,0.2375620004767038,-2.6536544452682427,1.1377365061438036
2.4989999999999988,0.4325100419367144,-2.6632415388494475,1.1238890638584804
2.5025000000000013,0.5827165680218505,-2.6632415388494475,1.1025820843501335
2.5059999999999967,0.791515542425688,-2.6536544452682427,1.081276850171039
2.509499999999999,0.949179860404596,-2.643000955514069,1.0589052198189757
2.5130000000000017,1.1579770894791817,-2.640871653826636,1.0280111467294242
2.516499999999997,1.3209681523351762,-2.646198398703723,1.0088369595670144
2.52,1.538289569476502,-2.658981190145329,0.986465329214951
2.523500000000002,1.7012788870032445,-2.665372585866132,0.9630290480191712
2.526999999999997,1.8557475071217504,-2.666438982039101,0.933199625773336
2.5305,2.050697293911013,-2.673895028603621,0.901240901840068
2.533999999999996,2.234993590946102,-2.677090726464023,0.8671511308901148
2.537499999999998,2.3628284866791747,-2.677090726464023,0.8415838026776498
2.5410000000000004,2.525819549535169,-2.6728303777599045,0.8234742663589566
2.544499999999996,2.635544908949549,-2.6685682837265343,0.8224096155152401
2.5479999999999983,2.745270268363928,-2.6706993307432194,0.8319967090964449
2.5515000000000008,2.8816276068344893,-2.67496142477659,0.8586286881526264
2.554999999999996,2.972178779086459,-2.681352820497393,0.8927184591025796
2.5584999999999987,3.0872308833779254,-2.689875263234881,0.9459841625441944
2.562000000000001,3.1756510086132104,-2.695202008111968,0.9853989330419826
2.565499999999997,3.2938988107650777,-2.701593403832771,1.0386646364835974
2.568999999999999,3.404688821023174,-2.713311544430661,1.0748854544502358
2.5725000000000016,3.579398024477058,-2.7239650341848343,1.1281494125625986
2.575999999999997,3.741322691160084,-2.7282253828889527,1.1633038343562685
2.5794999999999995,4.015103764274175,-2.7442056175202127,1.2176341886416
2.583000000000002,4.345346238690282,-2.762315153838906,1.2762248916310497
2.5864999999999974,4.628714405385578,-2.788947132895088,1.3188371053184913
2.59,4.935520598605905,-2.825167950861726,1.3646450168663344
2.5934999999999957,5.3765530832801085,-2.8763026072866555,1.413648626274579
2.5969999999999978,5.719580094467074,-2.9189130756448454,1.4424116523474455
2.6005000000000003,6.197898047951632,-2.980701221823949,1.4573254908057371
2.603999999999996,6.555837152267637,-3.02331343551139,1.4669143297161942
2.607499999999998,7.035221501925164,-3.073381695763352,1.4615875848391076
2.6110000000000007,7.387833861364081,-3.110667164573707,1.4498694442412174
2.614499999999996,7.833128440071655,-3.1522129820881792,1.427497813889154
2.6179999999999986,8.143130331152383,-3.180976008161046,1.405126183537091
2.621500000000001,8.479764201289294,-3.198020893636023,1.3657114130393029
2.6249999999999964,8.661929451307698,-3.204412289356826,1.3337526891060347
2.628499999999999,8.80254888381163,-3.2012165914964243,1.3071189647206012
2.632000000000001,8.83024725904078,-3.1969562427923064,1.3060543138768848
2.635499999999997,8.79402644107414,-3.1703242637361244,1.326294897212263
2.639,8.703477014151423,-3.150083680400747,1.353991527112161
2.642500000000002,8.546877347016231,-3.1117318154174227,1.4189753711516655
2.645999999999997,8.411584659389387,-3.071250648746666,1.483959215191171
2.6495,8.23155045638767,-3.0254427371988237,1.584095735695093
2.652999999999995,8.113300908906547,-2.9956150602822404,1.6639934181928897
2.6564999999999976,7.990792758050563,-2.966852034209374,1.749217845567773
2.66,7.932200309731861,-2.959394242315602,1.800352501992703
2.6634999999999955,7.903437283658994,-2.971112382913492,1.8546811109487824
2.666999999999998,7.924744263167341,-2.991354711578122,1.885575184038334
2.6705000000000005,7.998248804615082,-3.0211823884947053,1.9079468143903973
2.673999999999996,8.089864627710769,-3.0510100654112886,1.9186003041445707
2.6774999999999984,8.250724643550077,-3.0946869299424464,1.9122071630945157
2.681000000000001,8.401997565808182,-3.1277120500486832,1.9079468143903973
2.6844999999999963,8.637428519268202,-3.16819321671944,1.899424371652909
2.687999999999999,8.83024725904078,-3.2012165914964243,1.897293324636224
2.6915000000000013,9.112550774892355,-3.261940086831812,1.929252048569492
2.6949999999999967,9.340523936458606,-3.3226618368379466,1.9537547259382404
2.6984999999999992,9.659048270276822,-3.415342310777349,1.9910401947485952
2.7020000000000017,9.895542129251304,-3.4867175505376573,2.0134118251006585
2.705499999999997,10.215132859242493,-3.582593722337462,2.0389791533131234
2.709,10.452693114389945,-3.634793029606108,2.059219736648502
2.712499999999995,10.780804541789369,-3.683796639014353,2.07946031998388
2.715999999999997,11.02582433415984,-3.693383732595557,2.1007655541629746
2.7195,11.36671855300087,-3.67314314926018,2.141246720833731
2.7229999999999954,11.62878148551707,-3.6379887274665097,2.188119283225291
2.726499999999998,11.972873147547752,-3.582593722337462,2.263756617018969
2.7300000000000004,12.18912816851611,-3.517609878297957,2.3074334815501274
2.733499999999996,12.4043167933115,-3.428125102218956,2.354306043941687
2.7369999999999983,12.484214475809296,-3.378056841966994,2.389460465735357
2.740500000000001,12.494867965563468,-3.3215954406649777,2.450182215741492
2.743999999999996,12.450126450188597,-3.28218067016719,2.506643617043508
2.7474999999999987,12.339334694601249,-3.250220200904669,2.5886723465579893
2.751000000000001,12.2317386368743,-3.2299796175692914,2.648327700391156
2.7544999999999966,12.081532110789166,-3.211870081250598,2.706920148709857
2.757999999999999,11.944108376145634,-3.1916294979152195,2.735683174782724
2.7615000000000016,11.737442194087734,-3.1564750761215503,2.737812476470157
2.764999999999997,11.53929670943807,-3.13303879492577,2.721833987168149
2.7684999999999995,11.219707724776136,-3.0925576282550136,2.680286424324424
2.772000000000002,10.936337812751589,-3.063794602182147,2.641936304670353
2.7754999999999974,10.501696723798188,-3.0350315761092808,2.589736997401706
2.779,10.171454249382082,-3.017986690634304,2.5545825756080367
2.7824999999999958,9.73468385874125,-3.01585564361762,2.5045125700268227
2.785999999999998,9.43213975955429,-3.0233134355113904,2.4725538460935548
2.7895000000000003,9.077394607769437,-3.037160877796714,2.421419189668625
2.792999999999996,8.85368354023656,-3.055272159444659,2.3809380229978685
2.796499999999998,8.599076654284879,-3.073381695763352,2.3159559242876155
2.8000000000000007,8.449934779043458,-3.079773091484155,2.257363475968914
2.803499999999996,8.302923950818725,-3.0904265812383285,2.1795968404878026
2.8069999999999986,8.23474615424807,-3.1096025137299903,2.124201835358755
2.810500000000001,8.197460685437715,-3.1511483312444635,2.0613490383359347
2.8139999999999965,8.20704777901892,-3.1873691492111016,2.0229989186818638
2.817499999999999,8.25818243544385,-3.2427641543401493,1.9803867049944217
2.821000000000001,8.331686976891591,-3.280049623150504,1.956950423798642
2.824499999999997,8.464850362831003,-3.3279868363857803,1.921796002004972
2.8279999999999994,8.589489560703674,-3.358880909475332,1.901555418669594
2.831500000000002,8.79083074321374,-3.382317190671112,1.8706613455800425
2.8349999999999973,8.960213201790536,-3.389774982564884,1.8408336686634592
2.8385,9.20523124883176,-3.395101727441971,1.816330991294711
2.841999999999995,9.394854290743936,-3.413211263760664,1.800352501992703
2.8454999999999977,9.633480942064358,-3.437713941129412,1.7769144754676711
2.849,9.791143514714014,-3.454758826604389,1.7534781942718909
2.852499999999996,9.955199228413724,-3.484586503520972,1.7183237724782212
2.855999999999998,10.040423655788608,-3.50056499282298,1.6789072566511811
2.8595000000000006,10.089427265196852,-3.5112184825771537,1.6224476006784168
2.862999999999996,10.072382379721876,-3.508022784716752,1.573443991270172
2.8664999999999985,9.971179463044985,-3.4867175505376573,1.502068751509864
2.870000000000001,9.834822124574425,-3.4600838261522235,1.4338892096099574
2.8734999999999964,9.563170353147768,-3.401493123162774,1.3476001313913577
2.876999999999999,9.30323846764825,-3.3514248629108128,1.2740955899436164
2.8805000000000014,8.871793076555253,-3.266200435535929,1.1728926732667255
2.883999999999997,8.493613388903869,-3.202282987669393,1.095126037785614
2.8874999999999997,7.926875310184026,-3.1074714667133048,0.984334282198266
2.891000000000002,7.459209101124389,-3.0510100654112886,0.8916538082588631
2.894499999999997,6.801921595481829,-2.97963482565098,0.7542300736153336
2.898,6.287382824030633,-2.9285019145553024,0.6402426201675839
2.901499999999995,5.590678802561032,-2.8688448153928845,0.4676662090596366
2.9049999999999976,5.078271078126521,-2.829428299565844,0.3259803803827369
2.9085,4.409263686556819,-2.787882482051371,0.124639197872671
2.9119999999999955,3.929881082228544,-2.7580530598055355,-0.0490036094082447
2.915499999999998,3.3375756752962364,-2.7239650341848343,-0.2876302607286655
2.9190000000000005,2.921044122661529,-2.702658054676488,-0.4772533026408414
2.922499999999996,2.421419189668625,-2.688808867061913,-0.7425119330174437
2.9259999999999984,2.083720668687998,-2.690939914078597,-0.944917766371226
2.929500000000001,1.6895607464053544,-2.716507242291062,-1.2250919805353715
2.9329999999999963,1.438151303643327,-2.736747825626441,-1.4349556057829258
2.9364999999999988,1.161172787339583,-2.7868160858784017,-1.6948874912824414
2.9400000000000013,0.992856724935754,-2.824101554688757,-1.8834458823509008
2.9434999999999967,0.8394545009902163,-2.8752362111136867,-2.109287996900463
2.946999999999999,0.7659482142132231,-2.901868190169868,-2.2584298721418827
2.9505000000000017,0.7212066988383485,-2.9444804038573094,-2.4384640751436013
2.953999999999997,0.7350541411236715,-2.9721787790864598,-2.552451528591351
2.9575,0.7819284488444833,-3.0094642478968145,-2.680286424324424
2.961000000000002,0.8415838026776494,-3.031834132919626,-2.753792711101417
2.964499999999997,0.9406574176671076,-3.049945414567571,-2.818776555140922
2.968,1.023750798025305,-3.051010065411288,-2.8379507423033314
2.971499999999996,1.1398675531604885,-3.041422971830083,-2.83475504444293
2.974999999999998,1.226156631379088,-3.028638435059224,-2.814514461107552
2.9785000000000004,1.3380130378101522,-3.007333200880129,-2.7836203880180004
2.981999999999996,1.4211064181683506,-2.99561506028224,-2.749530617068047
2.9854999999999983,1.5255050327056434,-2.992419362421838,-2.703724450849456
2.9890000000000008,1.586226782711778,-3.005202153863444,-2.6760260756203054
2.992499999999996,1.6490795797345976,-3.028638435059224,-2.648327700391156
2.9959999999999987,1.6735822571033463,-3.0531411124279724,-2.6238267683516594
2.999500000000001,1.6714512100866612,-3.0765773936237526,-2.595063742278793
3.002999999999997,1.641621787840826,-3.101080070992501,-2.5790835076475327
3.006499999999999,1.560659454499313,-3.1181232111382258,-2.5620386221725564
3.0100000000000016,1.4690453767328788,-3.1255810030319973,-2.5513868777476345
3.013499999999997,1.299662918156081,-3.1202542581549104,-2.559909320485123
3.0169999999999995,1.14732534505426,-3.105340419696619,-2.573756762770446
3.020500000000002,0.8884581103984611,-3.065923903869579,-2.602519788843313
3.0239999999999974,0.6700720424134187,-3.006268550036413,-2.624891419195376
3.0275,0.3345028231202249,-2.9253062166949,-2.6493940965641243
3.0309999999999957,0.066048494883221,-2.849668882901222,-2.6738950286036207
3.0344999999999978,-0.3270467765557057,-2.7484659662243307,-2.7058537525368886
3.0380000000000003,-0.6210684330051746,-2.671763981586936,-2.7346167786097557
3.041499999999996,-1.017359402304503,-2.5748231589434147,-2.772968643593079
3.044999999999998,-1.2943361732789949,-2.51410140893728,-2.81131876324715
3.0485000000000007,-1.6341657412763069,-2.443790820020688,-2.8752362111136867
3.051999999999996,-1.8621389028425543,-2.410767445243703,-2.941284705996908
3.0554999999999986,-2.140182069990016,-2.399049304645813,-3.0392919248133974
3.059000000000001,-2.325543017868821,-2.418223491808223,-3.117058560294509
3.0624999999999964,-2.56097397132884,-2.456575356791546,-3.196956242792305
3.065999999999999,-2.7165072422910623,-2.503447919183106,-3.2427641543401484
3.069500000000001,-2.914652726940727,-2.575887809787131,-3.299223810312913
3.072999999999997,-3.0478143675508864,-2.640871653826636,-3.3279868363857794
3.0765,-3.1980208936360226,-2.7527280602577,-3.3812525398273947
3.080000000000002,-3.288572065887992,-2.8486042320575047,-3.417473357794033
3.083499999999997,-3.3791214928107096,-3.0041375030197277,-3.464345920185593
3.087,-3.4238647535148368,-3.1298430970653666,-3.495239993275144
3.090499999999995,-3.4398432428168446,-3.2917677637483926,-3.5165452274542397
3.0939999999999976,-3.4238647535148368,-3.406819868039859,-3.5144141804375537
3.0975,-3.3546205607712136,-3.553830696264593,-3.5080227847167507
3.1009999999999955,-3.274722878273417,-3.671013847572744,-3.5090874355604678
3.104499999999998,-3.1554104252778328,-3.8382652591328577,-3.512283133420869
3.1080000000000005,-3.0648592530258627,-3.9735579467597018,-3.5218719723313257
3.111499999999996,-2.9785701748072637,-4.156787847621823,-3.538916857806302
3.1149999999999984,-2.962589940176003,-4.29208228057792,-3.5463729043708225
3.118500000000001,-3.020115992321736,-4.445484504523457,-3.538916857806302
3.1219999999999963,-3.1255810030319977,-4.540296025479544,-3.510153831733436
3.125499999999999,-3.334379977435835,-4.626585103698145,-3.450496732571018
3.1290000000000013,-3.535721159945901,-4.687306853704279,-3.4089509150565447
3.1324999999999967,-3.852114446747433,-4.765073489185389,-3.358880909475331
3.1359999999999992,-4.116306680951068,-4.826859890035241,-3.3429024201733237
3.1395000000000017,-4.4912924160713015,-4.921671410991329,-3.3418360240003544
3.142999999999997,-4.768269187045793,-4.990915603734952,-3.34822916505041
3.1465,-5.127274687534767,-5.072944333249433,-3.3578162586316145
3.149999999999995,-5.380815177313479,-5.121947942657679,-3.364207654352418
3.153499999999997,-5.712122302573303,-5.149644572557577,-3.3578162586316145
3.157,-5.972054188072818,-5.143253176836772,-3.354620560771213
3.1604999999999954,-6.331059688561791,-5.0910538695681264,-3.354620560771213
3.163999999999998,-6.630408089888348,-5.028201072545307,-3.354620560771213
3.1675000000000004,-7.0597224339646605,-4.9195421093038965,-3.354620560771213
3.170999999999996,-7.389964908380767,-4.818337447297753,-3.350358466737843
3.1744999999999983,-7.818214601613364,-4.663870572508499,-3.336509279123268
3.178000000000001,-8.114367305079517,-4.542425327166977,-3.32053078982126
3.181499999999996,-8.428629544864364,-4.387958452377723,-3.2779185761338185
3.1849999999999987,-8.605468050005681,-4.278233092963343,-3.243828805183865
3.188500000000001,-8.747153878682582,-4.151462848073988,-3.182042404334014
3.1919999999999966,-8.789766092370023,-4.066238420699104,-3.130907747909084
3.195499999999999,-8.768459112861676,-3.9820803894971895,-3.049945414567571
3.1990000000000016,-8.718390852609714,-3.93094573307226,-2.975374476946861
3.202499999999997,-8.61825258677654,-3.869157586893156,-2.8571266747949933
3.2059999999999995,-8.542615252982861,-3.837198862959888,-2.747401315380614
3.209500000000002,-8.466979664518435,-3.812697930920392,-2.5908016482454226
3.2129999999999974,-8.447805477356026,-3.8233514206745656,-2.468293497389437
3.2165,-8.458457221780947,-3.8648972381890383,-2.298911038812639
3.2199999999999958,-8.505329784172506,-3.9362724779493465,-2.1849235853648894
3.223499999999998,-8.611859445726484,-4.059847024978301,-2.046435199877643
3.2270000000000003,-8.727977946190919,-4.170637035236397,-1.9537547259382404
3.230499999999996,-8.909078545365608,-4.321909957494501,-1.8568121579654675
3.233999999999998,-9.06461181632783,-4.423112874171393,-1.7982214549760178
3.2375000000000007,-9.282997884312874,-4.515793348110796,-1.725781564371993
3.240999999999996,-9.447053598012584,-4.557340910954521,-1.684234001528268
3.2444999999999986,-9.673962108735116,-4.583972890010702,-1.64481923103048
3.248000000000001,-9.844409218155628,-4.594626379764875,-1.6394924861533935
3.2514999999999965,-10.088362614353136,-4.62019370797734,-1.652275277595
3.254999999999999,-10.272658911388223,-4.667066270368901,-1.6821046998408349
3.258500000000001,-10.519806260116882,-4.76081139515202,-1.7449557515344027
3.261999999999997,-10.690255114866648,-4.841773728493533,-1.8035481998531044
3.2654999999999994,-10.890529901203744,-4.978132812293345,-1.8930329759321056
3.269000000000002,-11.004517354651494,-5.083596077674354,-1.9558857729549253
3.2724999999999973,-11.113178063222158,-5.245522489686631,-2.033652408436037
3.276,-11.148332485015828,-5.364834942682217,-2.081589621671313
3.279499999999995,-11.124896203820049,-5.52782600553821,-2.129528580235841
3.2829999999999977,-11.064174453813914,-5.650335901723449,-2.1593562571524245
3.2865,-10.93207746404747,-5.804802776512704,-2.1870546323815745
3.289999999999996,-10.818090010599722,-5.910267787222965,-2.2040995178565512
3.293499999999998,-10.64657825033549,-6.043429427833124,-2.219013356314843
3.2970000000000006,-10.511285562708643,-6.125458157347606,-2.228600449896048
3.300499999999996,-10.357883338763108,-6.207485141532835,-2.2158176584544407
3.3039999999999985,-10.263070072477769,-6.257555147114049,-2.181727887504488
3.307500000000001,-10.185305182325909,-6.2905785218910335,-2.1082233460567465
3.3109999999999964,-10.16825855152168,-6.296969917611837,-2.0304567105756357
3.314499999999999,-10.197021577594548,-6.2767293342764585,-1.9100778614070824
3.3180000000000014,-10.254549375069532,-6.2500973552202765,-1.802481803680136
3.321499999999997,-10.355752291746423,-6.210680839393237,-1.6341657412763066
3.3249999999999997,-10.444170671652454,-6.176591068443284,-1.5116558450910689
3.328500000000002,-10.564549520821007,-6.143567693666299,-1.351862225424728
3.331999999999997,-10.64551185416252,-6.131849553068409,-1.22935232923949
3.3355,-10.71688709392283,-6.122262459487205,-1.0578405689752592
3.338999999999995,-10.73180093238112,-6.126522808191323,-0.928939277069218
3.3424999999999976,-10.685993020833278,-6.124391761174637,-0.7510343757549319
3.346,-10.594378943066843,-6.114804667593433,-0.6210684330051742
3.3494999999999955,-10.424996484490046,-6.086041641520566,-0.4548816722887781
3.352999999999998,-10.276919260092344,-6.066865709028904,-0.3483520107348002
3.3565000000000005,-10.065990984001072,-6.0210577974810615,-0.2279731615662473
3.359999999999996,-9.92110945746377,-5.989099073547793,-0.1597953649955928
3.3634999999999984,-9.73787955660165,-5.949684303050005,-0.1022693128498597
3.367000000000001,-9.61217396255601,-5.932639417575029,-0.0756355884644262
3.3704999999999963,-9.456640691593789,-5.904941042345878,-0.0479389585645282
3.3739999999999988,-9.335197191581518,-5.878309063289697,-0.029827676916583
3.3775000000000013,-9.158356941110949,-5.846350339356429,-0.0074577918937717
3.3809999999999967,-9.023064253484106,-5.809064870546074,0.0074577918937717
3.384499999999999,-8.834507607744898,-5.757930214121144,0.0308940730895516
3.3880000000000017,-8.69282352439725,-5.716384396606671,0.0458079115478431
3.391499999999997,-8.497873737607987,-5.660987646148372,0.0735062867769931
3.395,-8.342340466645764,-5.614115083756811,0.1033339636935762
3.398499999999995,-8.123954398660722,-5.5629804273318815,0.1544686201185061
3.401999999999997,-7.93326670590483,-5.520368213644439,0.2141239739516723
3.4055,-7.622200163980385,-5.455386114934187,0.3398295679973119
3.408999999999996,-7.3441569968329246,-5.41064285423006,0.4772533026408414
3.412499999999998,-6.892471022404547,-5.350987500396895,0.7212066988383489
3.4160000000000004,-6.482330865490644,-5.303048541832366,0.940657417667108
3.419499999999996,-5.857002083781352,-5.229542255055373,1.2708998920832149
3.4229999999999983,-5.340334010642722,-5.165624807188837,1.5233739856889583
3.4265000000000008,-4.615931613943973,-5.046312354193252,1.8610742519988372
3.429999999999996,-4.079021212140712,-4.935520598605904,2.0997009033192584
3.4334999999999987,-3.401493123162773,-4.774660582766596,2.4001139554895303
3.437000000000001,-2.946611450873995,-4.644694640016837,2.596128393122509
3.440499999999997,-2.42355023668531,-4.46785613487552,2.830494695738812
3.443999999999999,-2.101830205006692,-4.332561701919424,2.990288315405153
3.4475000000000016,-1.768392032730183,-4.144005056180216,3.1841734513506985
3.450999999999997,-1.5713129442534874,-4.005516670692971,3.313072997927488
3.4544999999999995,-1.365711413039303,-3.814828977937078,3.461150222325191
3.458000000000002,-1.2389411681499471,-3.66888280055606,3.548503951387507
3.4614999999999974,-1.1047131313668193,-3.479259758643884,3.636924076622792
3.465,-1.0173594023045032,-3.347162768877441,3.67633884712058
3.4684999999999957,-0.930003927912935,-3.195891591948589,3.6901880347351543
3.4719999999999978,-0.8778046206442884,-3.1064050705403354,3.678469894137265
3.4755000000000003,-0.8277363603923271,-3.0243780863551057,3.6337283787623904
3.478999999999996,-0.8064293808839803,-2.987092617544751,3.5751359304436887
3.482499999999998,-0.7947112402860904,-2.96046063848857,3.464345920185593
3.4860000000000007,-0.795777636459059,-2.9466114508739945,3.366338701369103
3.489499999999996,-0.795777636459059,-2.931697612415703,3.22997961756929
3.4929999999999986,-0.8011026360068936,-2.915717377784443,3.128776700892399
3.496500000000001,-0.784057750531917,-2.876302607286655,3.0009418051593264
3.4999999999999964,-0.7648835633695072,-2.8379507423033314,2.916783773957412
3.503499999999999,-0.7137489069445774,-2.791078179911772,2.830494695738812
3.507000000000001,-0.659418552659246,-2.755923758118102,2.772968643593079
3.510499999999997,-0.5582156359823547,-2.721833987168149,2.7324874769223224
3.514,-0.4740576047804402,-2.703724450849456,2.7186382893077474
3.517500000000002,-0.3281114273994223,-2.695202008111968,2.743139221347244
3.520999999999997,-0.2002765316663496,-2.690939914078597,2.791078179911772
3.5245,0.0042603487041178,-2.6856131692015106,2.89760784146575
3.527999999999995,0.1779049013142856,-2.6760260756203054,2.996679711125956
3.5314999999999976,0.4314453910929979,-2.668568283726534,3.1639328680153205
3.535,0.6423736671842687,-2.6738950286036207,3.3034859043462834
3.5384999999999955,0.9353306727900208,-2.6888088670619124,3.4845865035209704
3.541999999999998,1.1675659283896385,-2.702658054676488,3.60603000353324
3.5455000000000005,1.4860885168786038,-2.715442591447346,3.7306692014059113
3.548999999999996,1.7268462152157091,-2.726094335872267,3.793521998428731
3.5524999999999984,2.051761944754729,-2.725029685028551,3.834003165099488
3.556000000000001,2.2946489447792686,-2.726094335872268,3.834003165099488
3.5594999999999963,2.6163689764578875,-2.738878872643126,3.7913909514120463
3.562999999999999,2.8560602786220244,-2.7516616640847325,3.741322691160085
3.5665000000000013,3.173519961596525,-2.769771200403426,3.646511170203997
3.5699999999999967,3.4174733577940324,-2.786816085878402,3.564484186018767
3.5734999999999992,3.734931295439281,-2.812383414090867,3.435582894112726
3.5770000000000017,3.9650355040222136,-2.8411464401637336,3.34396707101704
3.580499999999997,4.264383905348769,-2.898672492309467,3.227850315881857
3.584,4.46785613487552,-2.949807148734397,3.1458215863673757
3.587499999999995,4.705416390022973,-3.0520764615842566,3.0531411124279724
3.590999999999997,4.857753963124794,-3.1543440291048643,3.0020064560030426
3.5945,5.0132872340870165,-3.309877300067087,2.96046063848857
3.5979999999999954,5.100640963149332,-3.4419742898335297,2.9423493568406247
3.601499999999998,5.194387833261702,-3.635859425779076,2.933826914103136
3.605,5.24978283839075,-3.77860815997044,2.947676101717711
3.608499999999996,5.313700286257288,-3.967166551038899,2.977505523963546
3.6119999999999983,5.355247849101012,-4.105654936526146,3.008397851723846
3.615500000000001,5.41490494826343,-4.281428790823747,3.0531411124279724
3.618999999999996,5.436210182442525,-4.402872290836016,3.086164487204957
3.622499999999999,5.45432146409047,-4.55414521309412,3.1319723987528008
3.626000000000001,5.456450765777904,-4.657479176787697,3.162866471842352
3.6294999999999966,5.4436679743362975,-4.792771864414541,3.198020893636022
3.632999999999999,5.427687739705037,-4.882256640493544,3.2129347320943134
3.6365000000000016,5.41064285423006,-4.989850952891238,3.2342417116026603
3.639999999999997,5.417034249950864,-5.05909514563486,3.253417644094322
3.6435,5.459646463638306,-5.129403989222199,3.278983226977535
3.647000000000002,5.533152750415298,-5.160298062311751,3.3002902064858817
3.650499999999997,5.682294625656718,-5.175213646099295,3.3333135812628663
3.654,5.827174406864767,-5.166689458032554,3.35568521161493
3.6574999999999953,6.079650245799763,-5.132601432411853,3.3972310291294026
3.660999999999998,6.306557011193041,-5.099576312305616,3.4238647535148363
3.6645,6.654909021927842,-5.028201072545309,3.450496732571018
3.667999999999996,6.940409980969075,-4.9632189738350565,3.465410571029309
3.671499999999998,7.3409612989725215,-4.862016057158164,3.4760640607834827
3.6750000000000007,7.637114002438675,-4.768269187045793,3.479259758643884
3.678499999999996,8.017424737106744,-4.64789033787724,3.4803244094876007
3.681999999999999,8.267769529025054,-4.553078816921152,3.481390805660569
3.685500000000001,8.554335138910004,-4.4231128741713945,3.4845865035209704
3.688999999999997,8.722651201313832,-4.332561701919425,3.488846852225089
3.692499999999999,8.884575867996858,-4.236685530119621,3.494173597102176
3.6960000000000015,8.957017503930135,-4.164245639515595,3.494173597102176
3.699499999999997,9.004954717165413,-4.089674701894886,3.487782201381372
3.703,9.003890066321695,-4.045997837363728,3.486717550537656
3.706500000000002,8.988976227863404,-4.00977701939709,3.5037624360126327
3.709999999999997,8.975127040248829,-4.006581321536688,3.5229366231750423
3.7135,8.96340889965094,-4.025757254028349,3.5751359304436887
3.716999999999995,8.962344248807222,-4.061976326665736,3.615617097114445
3.7204999999999977,8.962344248807222,-4.144005056180217,3.679536290310233
3.724,8.93997261845516,-4.222836342505046,3.710428618070533
3.727499999999996,8.871793076555253,-4.335759145109079,3.7306692014059113
3.730999999999998,8.786568649180369,-4.417786129294307,3.733866644595565
3.7345000000000006,8.623579331653627,-4.558405561798239,3.745584785193455
3.737999999999996,8.484024549993412,-4.685175806687596,3.759432227478778
3.7414999999999994,8.289074763204148,-4.862016057158164,3.781803857830841
3.745000000000001,8.156977773437706,-5.00796048920993,3.800979790322503
3.748499999999997,8.017424737106744,-5.20823702087628,3.816958279624511
3.751999999999999,7.9332667059048285,-5.360574593978101,3.821220373657881
3.7555000000000014,7.833128440071654,-5.559784729471482,3.8233514206745673
3.758999999999997,7.759623898623912,-5.698273114958728,3.816958279624511
3.7624999999999993,7.63924504945536,-5.8761780162730135,3.7924573475850143
3.766000000000002,7.519930851130523,-5.99123012056448,3.776477112953754
3.769499999999997,7.332438856235032,-6.128653855208009,3.7541072279309433
3.773,7.172643491239439,-6.217072235114042,3.7285398997184784
3.776499999999995,6.956388470271083,-6.2948406159244055,3.686992336874753
3.7799999999999976,6.799790548465143,-6.328928641545107,3.650773264237367
3.7835,6.627212392027944,-6.35556236593054,3.612421399254044
3.786999999999996,6.536662965105226,-6.358758063790941,3.5719402325832874
3.790499999999998,6.473810168082407,-6.336386433438879,3.5165452274542397
3.794000000000001,6.477005865942807,-6.329995037718075,3.461150222325191
3.797499999999996,6.545183662513462,-6.345973527020083,3.379121492810709
3.8009999999999984,6.630408089888346,-6.3726055060762645,3.30881264922337
3.804500000000001,6.785941360850567,-6.432262605238683,3.190564847071502
3.807999999999996,6.930821142058618,-6.489788657384415,3.0957533261154144
3.811499999999999,7.146011512183258,-6.562228547988441,2.9498071487343966
3.815000000000001,7.321785366480859,-6.606971808692568,2.8294282995658437
3.8184999999999967,7.568934460538768,-6.6581064651174975,2.670699330743219
3.821999999999999,7.754297153746826,-6.693260886911167,2.557778273468438
3.8255000000000017,7.9993152007880495,-6.729481704877805,2.41183209608742
3.828999999999997,8.170826961052281,-6.7529179860735855,2.3053024345334423
3.8325,8.368972445701946,-6.76250507965479,2.1636183511857947
3.835999999999995,8.498938388451704,-6.764636126671475,2.062415434508903
3.8394999999999975,8.638493170111918,-6.745460194179813,1.9377744913069803
3.843,8.720520154297148,-6.728415308704837,1.8546811109487824
3.8464999999999954,8.806809232515748,-6.6826073971569935,1.7566738921322929
3.849999999999998,8.843030050482385,-6.636799485609151,1.6895607464053546
3.8535,8.869662029538567,-6.573948433915582,1.6160562049576137
3.856999999999996,8.86433528466148,-6.514291334753165,1.563855152359715
3.8604999999999983,8.827049815851126,-6.448242839869944,1.504199798526549
3.8640000000000008,8.764198764157557,-6.393912485584612,1.453065142101619
3.867499999999996,8.64168886797232,-6.340646782142997,1.3987347878162877
3.870999999999999,8.517049670099649,-6.308688058209729,1.3635803660226178
3.874500000000001,8.328491279031189,-6.257555147114051,1.3113810587539714
3.877999999999997,8.176153705929368,-6.2255946778515305,1.275160240787333
3.881499999999999,7.94818054436312,-6.17126606889545,1.2144384907811985
3.8850000000000016,7.764948898171747,-6.128653855208009,1.16649953221667
3.888499999999997,7.500756663968114,-6.0498208235539295,1.0983217356460158
3.892,7.268521408368496,-5.985903375687393,1.0290775429023926
3.895500000000002,6.895666720264948,-5.894287552591707,0.9150900894546428
3.898999999999997,6.570750990725927,-5.83782615128969,0.8138871727777518
3.9025,6.090301990224684,-5.769648354719036,0.6668763445530174
3.9059999999999953,5.6961420679420405,-5.718513698294106,0.5496931932448661
3.9094999999999978,5.167755854205521,-5.65459625042757,0.3675279432264619
3.913,4.782118374660366,-5.59600554743812,0.2226464166891606
3.916499999999996,4.2974072801257535,-5.508650073046552,0.0191759324916617
3.919999999999998,3.969295852726332,-5.438341229459212,-0.1459461773810178
3.9235000000000007,3.5666134877062,-5.32542017218443,-0.3685925940701784
3.926999999999996,3.30455055519,-5.235933650776176,-0.5326483077698895
3.930499999999999,2.989223664561436,-5.102772010166017,-0.7489033287382468
3.934000000000001,2.780424690157598,-4.995177697768323,-0.8980452039796664
3.937499999999997,2.5322109452559727,-4.8396444268061005,-1.0823415010147557
3.940999999999999,2.36495953369586,-4.734179416095839,-1.2240255843624033
3.9445000000000014,2.1604226533253925,-4.58929963488779,-1.421106418168351
3.947999999999997,2.018738569977745,-4.484901020350496,-1.5798353869909751
3.9514999999999993,1.853616460105065,-4.352804030584054,-1.8056775015405373
3.955000000000002,1.7492178455677725,-4.265448556192486,-1.970799611413217
3.958499999999997,1.6341657412763062,-4.151462848073988,-2.1913149810856924
3.962,1.574508642113888,-4.072629816419909,-2.347914648220884
3.965499999999995,1.5159179391244384,-3.969295852726332,-2.5513868777476345
3.9689999999999976,1.4914152617556902,-3.8851378215244177,-2.698397705972369
3.9725,1.4786324703140834,-3.781803857830841,-2.8826940030074586
3.975999999999996,1.4743703762807134,-3.711495014243501,-3.0094642478968145
3.979499999999998,1.4701100275765953,-3.627336983041587,-3.1692578675631555
3.983000000000001,1.462652235682823,-3.5783316283040905,-3.2779185761338185
3.986499999999996,1.4551961891183036,-3.513349529593837,-3.4291914983919227
3.9899999999999984,1.445607350207847,-3.464345920185593,-3.524003019348011
3.993500000000001,1.4306935117495554,-3.400428472319056,-3.650773264237367
3.996999999999996,1.414715022447547,-3.3492938158941263,-3.74345373817677
4.000499999999999,1.3870166472183971,-3.280049623150503,-3.8478523527140633
4.004000000000001,1.366776063883019,-3.2171968261276835,-3.916031894613969
4.007499999999997,1.3305552459163807,-3.135168096613202,-4.000189925815883
4.010999999999999,1.3039232668601992,-3.0850998363612407,-4.045997837363727
4.014500000000002,1.2591817514853243,-3.044618669690484,-4.097132493788656
4.017999999999997,1.2218962826749695,-3.028638435059224,-4.123764472844838
4.0215,1.14732534505426,-3.029704831232193,-4.156787847621823
4.024999999999995,1.0866035950481252,-3.0456833205342004,-4.168507733548965
4.0284999999999975,0.9822032351815806,-3.0744463466070675,-4.165310290359311
4.032,0.9001762509963511,-3.1096025137299894,-4.141874009163532
4.035499999999995,0.7819284488444832,-3.178846706473612,-4.096066097615688
4.038999999999998,0.6977686723133165,-3.24595985220055,-4.069434118559506
4.0425,0.5784562193177322,-3.34396707101704,-4.000189925815883
4.045999999999996,0.4932317919428491,-3.40681986803986,-3.9309457330722606
4.049499999999998,0.3717882919305796,-3.487782201381372,-3.8244160715182822
4.053000000000001,0.2823035158515783,-3.542112555666704,-3.74345373817677
4.056499999999996,0.1640557136997105,-3.6166834932874137,-3.6592957069748553
4.059999999999999,0.0788312863248274,-3.66462070652269,-3.619879191147815
4.063500000000001,-0.0340897709499537,-3.7093639672268166,-3.587920467214547
4.066999999999997,-0.1182478021518682,-3.7306692014059113,-3.577266977460374
4.070499999999999,-0.2290395577392163,-3.722148503997675,-3.577266977460374
4.074000000000002,-0.3068061932203276,-3.69231908175184,-3.5975075607957523
4.077499999999997,-0.4197272504951088,-3.622010238164501,-3.623074889008217
4.081,-0.4942981881158185,-3.5591574411416804,-3.650773264237367
4.084500000000002,-0.5955011047927097,-3.474999409939766,-3.685927686031037
4.087999999999997,-0.671136693257136,-3.4227983573418674,-3.71575536294762
4.0915,-0.754230073615334,-3.361011956492016,-3.7604986236517455
4.094999999999995,-0.8149518236214688,-3.318399742804575,-3.7945883946017
4.098499999999998,-0.8937848552755485,-3.276853925290102,-3.8393299099765743
4.102,-0.9523755582649984,-3.2395684564797467,-3.865961889032756
4.105499999999996,-1.0248154488690229,-3.185238102194415,-3.8734196809265273
4.108999999999998,-1.078081152310638,-3.1532793782611472,-3.8521144467474326
4.112500000000001,-1.1388029023167725,-3.128776700892399,-3.803110837339188
4.115999999999996,-1.1846108138646156,-3.126645653875713,-3.7604986236517455
4.119499999999999,-1.25278861043527,-3.168193216719439,-3.7093639672268166
4.123000000000001,-1.3262948972122637,-3.2310460137422585,-3.682731988170635
4.1264999999999965,-1.4551961891183045,-3.352489513754528,-3.6560982637852018
4.129999999999999,-1.592618178432582,-3.4526277795877025,-3.636924076622792
4.1335000000000015,-1.825918084875916,-3.603898956516555,-3.6092257013936417
4.136999999999997,-2.0506972939110137,-3.718951060808021,-3.5985722116394685
4.140499999999999,-2.387331164047924,-3.877680029630645,-3.5985722116394685
4.144000000000002,-2.673895028603621,-3.994863180938797,-3.6113567484103273
4.147499999999997,-3.0787084406404377,-4.123764472844838,-3.662491404835257
4.151,-3.39510172744197,-4.205793202359319,-3.714690712103903
4.154499999999995,-3.808435836887023,-4.294211582265351,-3.807371186043306
4.157999999999998,-4.106719587369862,-4.354933332271486,-3.892595613418189
4.1615,-4.4614629938254655,-4.399676592975613,-3.998058878799199
4.164999999999996,-4.689437900720965,-4.412459384417219,-4.065173769855389
4.168499999999998,-4.937651645622592,-4.395414498942243,-4.124829123688555
4.172000000000001,-5.0825314268306405,-4.378371358796518,-4.162114592498909
4.175499999999996,-5.241260395653264,-4.348541936550683,-4.179159477973887
4.178999999999999,-5.345660755519809,-4.333628098092391,-4.179159477973887
4.182500000000001,-5.488409489711173,-4.319778910477816,-4.181290524990572
4.185999999999996,-5.602396943158923,-4.333628098092391,-4.168507733548965
4.189499999999999,-5.772844052579437,-4.380500660483951,-4.132286915582326
4.193000000000001,-5.902809995329195,-4.423112874171393,-4.08008760831368
4.196499999999997,-6.068996756045591,-4.475312181440039,-4.008712368553372
4.199999999999999,-6.186179907353743,-4.521120092987882,-3.9501216655639215
4.203500000000002,-6.317210500947216,-4.575450447273214,-3.8712886339098422
4.206999999999997,-6.399239230461698,-4.6212583588210565,-3.816958279624511
4.2105,-6.49618005310522,-4.677718014793822,-3.7583675766350617
4.213999999999995,-6.543054360826031,-4.708612087883373,-3.724277805685108
4.217499999999998,-6.606971808692568,-4.734179416095838,-3.7093639672268166
4.221,-6.637865881782119,-4.744832905850012,-3.7093639672268166
4.224499999999996,-6.684738444173679,-4.722461275497948,-3.72001745698099
4.227999999999998,-6.727350657861121,-4.687306853704278,-3.735995946282998
4.2315000000000005,-6.810444038219318,-4.616998010116938,-3.7466494360371714
4.234999999999996,-6.893537418577516,-4.544556374183662,-3.748780483053857
4.238499999999998,-7.036286152768881,-4.434831014769283,-3.7274735035455095
4.242000000000001,-7.163056397658236,-4.344281587846565,-3.6997768736456114
4.245499999999996,-7.350548392553727,-4.238816577136303,-3.624139539851933
4.248999999999999,-7.481580731476454,-4.170637035236397,-3.548503951387507
4.252500000000001,-7.632851908405306,-4.110981681403231,-3.4323871962523245
4.255999999999997,-7.721272033640591,-4.085414353190766,-3.352489513754528
4.259499999999999,-7.806496461015474,-4.096066097615688,-3.2544822949380383
4.263000000000002,-7.852304372563317,-4.126960170705239,-3.19908728980899
4.266499999999997,-7.90983042470905,-4.217511342957208,-3.1458215863673757
4.27,-7.952442638396492,-4.2984736762987215,-3.114927513277824
4.273499999999995,-8.016360086263028,-4.427373222875511,-3.073381695763351
4.2769999999999975,-8.06962404437539,-4.540296025479544,-3.0350315761092794
4.2805,-8.149521726873187,-4.6894379007209634,-2.980701221823948
4.283999999999995,-8.212374523896006,-4.81620814561032,-2.9434157530135927
4.287499999999998,-8.307186044852095,-4.99198199990792,-2.9050656333595217
4.291,-8.380690586299837,-5.132601432411851,-2.8954767944490647
4.294499999999996,-8.507460831189192,-5.3073088905364845,-2.9071949350469546
4.297999999999998,-8.616121539759854,-5.411709250403029,-2.939153658980223
4.301500000000001,-8.78230830047625,-5.5246303076778105,-3.0137245966009325
4.304999999999996,-8.913338894069726,-5.584287406840228,-3.073381695763351
4.308499999999999,-9.090179144540294,-5.663118693165056,-3.1522129820881784
4.312000000000001,-9.21268729539628,-5.724905094014908,-3.20654333637351
4.315499999999997,-9.35011103003981,-5.7909535888981285,-3.2683314825526133
4.318999999999999,-9.439595806118811,-5.844219292339744,-3.3024212535025668
4.322500000000002,-9.51416674373952,-5.939030813295832,-3.3066816022066847
4.325999999999997,-9.54612546767279,-6.023188844497746,-3.287505669715023
4.3295,-9.542929769812387,-6.174461766755851,-3.221457174831801
4.333000000000002,-9.515233139912487,-6.316145850103498,-3.1532793782611472
4.336499999999997,-9.4513139467167,-6.543054360826029,-3.0467497167071693
4.34,-9.388462895023132,-6.732677402738205,-2.9583295914718843
4.343499999999995,-9.300041024458595,-6.990478241221036,-2.835819695286647
4.346999999999998,-9.24038567062543,-7.170514189552006,-2.7452702683639285
4.3505,-9.167945780021409,-7.373984673749505,-2.6216957213349743
4.353999999999996,-9.145574149669343,-7.484776429336853,-2.5236885025184845
4.357499999999998,-9.169010430865123,-7.584914695170028,-2.401178606333247
4.361000000000001,-9.235058925748346,-7.637114002438675,-2.302106736673041
4.364499999999996,-9.3586334727773,-7.683986564830234,-2.16574939820248
4.367999999999999,-9.481143368962538,-7.712749590903101,-2.057088689631817
4.371500000000001,-9.66011292112054,-7.758557502450944,-1.904751116529996
4.3749999999999964,-9.774098629239038,-7.786255877680094,-1.790763663082246
4.378499999999999,-9.904066317318048,-7.808625762702905,-1.6192519028180152
4.3820000000000014,-9.976506207922071,-7.813952507579992,-1.4754367724536823
4.385499999999997,-10.053206447230217,-7.775602387925921,-1.273029193770648
4.388999999999999,-10.1107342447052,-7.7436436639926525,-1.0940596416126456
4.392500000000002,-10.195956926750831,-7.714880637919786,-0.81069147491735
4.395999999999997,-10.269463213527825,-7.691444356724006,-0.5624759846864725
4.3995,-10.38025322378592,-7.683986564830234,-0.2013411825100658
4.402999999999995,-10.464413000317087,-7.703162497321896,0.0862890782185996
4.406499999999998,-10.564549520821007,-7.74470831483637,0.4655351620429515
4.41,-10.625271270827144,-7.772406690065519,0.7350541411236718
4.413499999999996,-10.660425692620816,-7.792647273400897,1.065296615539779
4.416999999999998,-10.664687786654186,-7.776668784098889,1.2794223348207032
4.4205000000000005,-10.647642901179209,-7.725534127673959,1.5148515429514704
4.423999999999996,-10.60396603664805,-7.661614934478171,1.652275277595
4.427499999999998,-10.530461495200308,-7.54869387720339,1.7801119186573249
4.431000000000001,-10.48145614046281,-7.447490960526498,1.8450940173675772
4.434499999999996,-10.405820551998389,-7.317525017776742,1.8759880904571289
4.437999999999999,-10.367470432344312,-7.212060007066479,1.8706613455800425
4.441500000000001,-10.337641010098476,-7.048004293366769,1.8237887831884827
4.444999999999997,-10.348294499852653,-6.900993465142035,1.7598713353219464
4.448499999999999,-10.409016249858784,-6.682607397156992,1.6288389963992198
4.452000000000002,-10.478260442602409,-6.529205173211453,1.5159179391244388
4.455499999999997,-10.586921151173073,-6.341713178315964,1.3603846681622165
4.459,-10.656165343916696,-6.223465376164096,1.24533256387075
4.462499999999995,-10.687059417006246,-6.107346875699661,1.1153666211209925
4.4659999999999975,-10.639120458441717,-6.0359733812686045,1.0386646364835974
4.4695,-10.508089864848245,-5.976316282106187,0.9800739334941478
4.472999999999995,-10.177847390432136,-5.904941042345878,0.9395927668233912
4.476499999999998,-9.696333739087176,-5.834630453429287,0.9513109074212812
4.48,-9.251039160379603,-5.774975099596121,0.9971170736398725
4.483499999999996,-8.584162815826586,-5.727036141031593,1.1174959228084254
4.486999999999998,-8.048318810196296,-5.717449047450387,1.259181751485325
4.490500000000001,-7.324982809670515,-5.7398206778024505,1.5137868921077535
4.493999999999996,-6.779549965129767,-5.76751730770235,1.7364333087969146
4.497499999999999,-6.072192453905993,-5.819716614970996,2.077329272967195
4.501000000000001,-5.56085112564445,-5.84954603721683,2.344718950360482
4.504499999999997,-4.90675757253304,-5.837826151289688,2.698397705972369
4.507999999999999,-4.447615551540143,-5.78669324019401,2.939153658980223
4.511500000000002,-3.8936602642619063,-5.639682411969276,3.214001128267282
4.514999999999997,-3.536785810789618,-5.484149141007054,3.38338358684408
4.5185,-3.152212982088179,-5.231673302072059,3.5591574411416804
4.522000000000002,-2.9391536589802234,-5.023940723841189,3.653968962097768
4.525499999999997,-2.764446200855591,-4.737375113956241,3.745584785193455
4.529,-2.690939914078597,-4.527511488708687,3.7999133941495344
4.532499999999995,-2.6312828149161795,-4.233489832259218,3.81802467579748
4.535999999999998,-2.5876059503850217,-4.024692603184632,3.795653045445416
4.5395,-2.5332755960996898,-3.8403963061495423,3.757302925791345
4.542999999999996,-2.418223491808224,-3.6273369830415865,3.707232920210132
4.546499999999998,-2.2531031272647963,-3.438778591973127,3.663556055678973
4.550000000000001,-2.090112064408802,-3.315204044944173,3.635859425779076
4.553499999999996,-1.890901928915421,-3.216132175283967,3.619879191147815
4.556999999999999,-1.564921548532684,-3.123449956015312,3.619879191147815
4.560500000000001,-1.2911404754185936,-3.091491232082044,3.6401197744831935
4.5639999999999965,-0.90443659970047,-3.097884373132099,3.697645826628927
4.567499999999999,-0.6157416881280878,-3.1277120500486824,3.7626279253391792
4.5710000000000015,-0.2460844432141929,-3.1948251957756204,3.875550727943213
4.574499999999997,0.0170448854749762,-3.250220200904668,3.9671665510388983
4.577999999999999,0.3515477085952014,-3.3098773000670865,4.102459238665743
4.581500000000002,0.5944364539489922,-3.340771373156638,4.199400061309264
4.584999999999997,0.9129590424379574,-3.350358466737843,4.325105655354904
4.5885,1.1675659283896382,-3.3258575346983466,4.413525780590189
4.591999999999995,1.521244684001525,-3.252351247921353,4.5168597442837655
4.595499999999998,1.8046128506968204,-3.17138891457984,4.572254749412813
4.599,2.190250330241976,-3.048879018394603,4.628714405385578
4.602499999999996,2.477880590970641,-2.94448040385731,4.653217082754326
4.605999999999998,2.845408534197103,-2.8038609713533797,4.656412780614728
4.609500000000001,3.095753326115414,-2.688808867061913,4.629780801558547
4.612999999999996,3.400428472319056,-2.546060132870549,4.563732306675325
4.616499999999999,3.612421399254043,-2.4459218670373737,4.492357066915017
4.620000000000001,3.885137821524417,-2.3191516221480177,4.361326473321543
4.623499999999996,4.089674701894885,-2.2339271947731345,4.247339019873793
4.626999999999999,4.37730496262355,-2.125268231531724,4.07582551428031
4.630500000000001,4.616998010116939,-2.0538929917714155,3.9309457330722606
4.633999999999997,4.965348275522488,-1.993171241765281,3.7519761809142578
4.637499999999999,5.246587140530351,-1.9793220541507064,3.627336983041587
4.641000000000002,5.626897875198418,-2.028325663558951,3.486717550537656
4.644499999999997,5.9006789483125095,-2.101830205006692,3.400428472319056
4.648,6.230921422728616,-2.2328625439294183,3.2970945086254804
4.651499999999995,6.4642213291719495,-2.3553724401146563,3.2363727586193454
4.654999999999998,6.731611006565237,-2.5226238516747688,3.1767156594569275
4.6585,6.906320210019121,-2.639805257653668,3.1522129820881784
4.661999999999996,7.118314882283361,-2.796404924788859,3.168193216719439
4.665499999999998,7.25147652289352,-2.8954767944490656,3.21080543040688
4.6690000000000005,7.411271887889113,-2.997746107298925,3.287505669715023
4.672499999999996,7.518866200286808,-3.0371608777967136,3.34396707101704
4.675999999999998,7.644570049003195,-3.057401461132092,3.3972310291294026
4.679500000000001,7.72553412767396,-3.060598904321745,3.4291914983919227
4.682999999999996,7.837388788775773,-3.0392919248133983,3.454758826604388
4.686499999999999,7.927939961027743,-3.017986690634304,3.453692430431419
4.690000000000001,8.06962404437539,-2.993484013265556,3.451561383414734
4.693499999999997,8.190002893543943,-2.971112382913492,3.443040686006498
4.696999999999999,8.375363841422748,-2.962589940176004,3.449432081727301
4.700500000000002,8.53196350855794,-2.971112382913492,3.4590191753085056
4.703999999999997,8.76313236798459,-2.9849615705280668,3.486717550537656
4.7075,8.937841571438474,-3.0020064560030435,3.502696039839664
4.710999999999995,9.191382061217183,-3.017986690634304,3.519740925314641
4.7144999999999975,9.379940452285648,-3.01585564361762,3.5271987172084125
4.718,9.640936988628876,-2.981765872667666,3.5282633680521287
4.721499999999995,9.820972936959848,-2.950871799578114,3.520805576158357
4.724999999999998,10.043619353649008,-2.9199794718178147,3.499500341979262
4.7285,10.18743448401334,-2.898672492309468,3.4803244094876007
4.731999999999996,10.351490197713051,-2.8709758624095696,3.460083826152222
4.735499999999998,10.451628463546228,-2.861387023499113,3.4590191753085056
4.739000000000001,10.575203010575182,-2.8571266747949946,3.477128711627199
4.742499999999996,10.65829639093338,-2.869909466236601,3.5090874355604678
4.745999999999999,10.786131286666452,-2.9103906329073577,3.555961743281279
4.749500000000001,10.878813505935108,-2.956198544455201,3.6007032586561536
4.752999999999997,11.03008468286396,-3.0307694820759106,3.65716465995817
4.756499999999999,11.146201437999144,-3.095753326115416,3.689123383891438
4.760000000000002,11.269775985028096,-3.161801820998637,3.7093639672268166
4.763499999999997,11.317714943592629,-3.200151940652708,3.7040372223497298
4.767,11.248470750849004,-3.244895201356835,3.68060094115395
4.770500000000002,11.11211166704919,-3.296028112452513,3.6592957069748553
4.773999999999997,10.808502917018515,-3.3769921911232776,3.650773264237367
4.7775,10.53259079688774,-3.4611502223251924,3.6529025659248
4.780999999999995,10.123517036146806,-3.5900497689019817,3.66462070652269
4.784499999999998,9.807123749345273,-3.693383732595557,3.660360357818572
4.788,9.409768129202227,-3.828678165551654,3.632661982589422
4.791499999999996,9.138118103104825,-3.940532826653467,3.5975075607957523
4.794999999999998,8.824920514163692,-4.081152259157397,3.5154805766105226
4.798500000000001,8.62997072737443,-4.177030176286454,3.4419742898335293
4.801999999999996,8.42223814914356,-4.309125420723645,3.337575675296237
4.805499999999999,8.315708487589582,-4.39754554595893,3.260873690658842
4.809000000000001,8.229419409370983,-4.516859744283766,3.174584612440242
4.8124999999999964,8.199589987125147,-4.596755681452311,3.1191896073111938
4.815999999999999,8.214505570912692,-4.674522316933421,3.055272159444658
4.8195000000000014,8.246462549516709,-4.7054163900229735,3.0169202944613343
4.822999999999997,8.279487669622945,-4.723527671670918,2.961525289332286
4.826499999999999,8.280552320466661,-4.716069879777146,2.9263708675386164
4.830000000000002,8.248593596533393,-4.685175806687596,2.892281096588663
4.833499999999997,8.185742544839826,-4.6521524319106105,2.879498305147057
4.837,8.070688695219108,-4.614866963100256,2.872040513253285
4.840499999999995,7.966290080681813,-4.606344520362767,2.8731051640970016
4.843999999999998,7.817148205440393,-4.593559983591908,2.8869543517115765
4.8475,7.701031450305211,-4.588233238714822,2.9050656333595217
4.850999999999996,7.565738762678366,-4.611669519910602,2.9402200551531914
4.854499999999998,7.475189335755649,-4.639367895139752,2.9721787790864598
4.8580000000000005,7.380377814799561,-4.68730685370428,3.0009418051593264
4.861499999999996,7.327112111357946,-4.737375113956242,3.012659945757216
4.864999999999998,7.267455012195527,-4.793836515258258,2.99561506028224
4.868500000000001,7.233365241245575,-4.841773728493535,2.973243429930176
4.871999999999996,7.183296980993614,-4.907822223376756,2.9114570290803248
4.875499999999999,7.1374890694457696,-4.957892228957969,2.84647318504082
4.879000000000001,7.0725069707355175,-5.016482931947419,2.7452702683639285
4.882499999999997,7.014980918589784,-5.065486541355663,2.6568501431286444
4.885999999999999,6.9340168399190185,-5.127274687534767,2.5215574555018
4.889500000000002,6.871165788225452,-5.179473994803413,2.4075717473833023
4.892999999999997,6.780614615973482,-5.235933650776177,2.247776382387709
4.8965,6.70711007452574,-5.262567375161611,2.0997009033192584
4.899999999999995,6.5846001783405015,-5.294526099094879,1.897293324636224
4.9034999999999975,6.463156678328232,-5.319027031134375,1.7247151681990245
4.907,6.26820689153897,-5.354183198257298,1.5095265434036358
4.910499999999995,6.096693385945487,-5.384010875173881,1.3603846681622165
4.913999999999998,5.848479641043863,-5.398924713632172,1.1696952300770718
4.9175,5.652465203410882,-5.396793666615487,1.037599985639881
4.920999999999996,5.385075526017595,-5.366965989698904,0.8554329902922247
4.924499999999998,5.17627829694301,-5.324353776011463,0.7350541411236718
4.928000000000001,4.886516989197659,-5.245522489686634,0.5752605214573311
4.931499999999996,4.66280417633553,-5.181605041820098,0.4602084171658648
4.934999999999999,4.347477285706966,-5.083596077674357,0.3110665419244454
4.938500000000001,4.109915285230263,-5.014351884930734,0.1949497867892626
4.941999999999997,3.776477112953754,-4.912084317410127,0.0458079115478431
4.945499999999999,3.5314590659125304,-4.836448728945698,-0.0724398906040246
4.949000000000002,3.2182614769714,-4.74163720798961,-0.2418223491808223
4.952499999999997,3.002006456003042,-4.672393015245987,-0.3781796876513833
4.956,2.7548573619451333,-4.574385796429499,-0.5837829641948193
4.959500000000002,2.598259440139194,-4.485965671194213,-0.7584921676487036
4.962999999999997,2.4395304713165697,-4.355999728444456,-1.0109662612544474
4.9665,2.3511103460812848,-4.23668553011962,-1.2112427929207967
4.969999999999995,2.268016965723087,-4.067303071542821,-1.494610959616092
4.973499999999998,2.228600449896047,-3.925618988195175,-1.6970185382991263
4.977,2.1838589345211723,-3.72747350354551,-1.9590814708153272
4.980499999999996,2.161487304169109,-3.579398024477059,-2.1519002105879044
4.983999999999998,2.135919975956644,-3.38338358684408,-2.3915915127520417
4.987500000000001,2.1242018353587544,-3.244895201356834,-2.5684300178933595
4.990999999999996,2.1231371845150377,-3.072317044919634,-2.772968643593079
4.994499999999999,2.126332882375439,-2.9530028465947984,-2.88588970086786
4.998000000000001,2.151900210587904,-2.799600622649261,-3.008397851723846
5.0014999999999965,2.1881192832252907,-2.6983977059723694,-3.0712506487466653
5.004999999999999,2.252038476421079,-2.5673653670496432,-3.1277120500486824
5.0085000000000015,2.3148895281146467,-2.475749543953957,-3.1415612376632573
5.011999999999997,2.4086363982270185,-2.377742325137467,-3.1330387949257688
5.015499999999999,2.4800116379873263,-2.3212826691647024,-3.103209372679934
5.019000000000002,2.5716274610830125,-2.280801502493946,-3.052076461584256
5.022499999999997,2.6280871170557774,-2.2626902208460007,-3.0147909927739014
5.026,2.690939914078597,-2.265885918706403,-2.975374476946861
5.029499999999995,2.714376195274377,-2.274408361443891,-2.957264940628168
5.032999999999998,2.705853752536888,-2.303171387516757,-2.9434157530135927
5.0365,2.674961424776589,-2.3330008097625927,-2.9466114508739945
5.039999999999996,2.5950637422787928,-2.390526861908325,-2.968983081226058
5.043499999999998,2.51410140893728,-2.436334773456169,-2.996679711125956
5.047000000000001,2.3841337208582694,-2.511970361920595,-3.055272159444658
5.050499999999996,2.2829308041813787,-2.575887809787132,-3.097884373132099
5.053999999999999,2.1380510229733294,-2.653654445268243,-3.150083680400746
5.057500000000001,2.025129965698548,-2.703724450849456,-3.1735199615965253
5.060999999999996,1.874923439613412,-2.756988408961819,-3.195891591948589
5.064499999999999,1.7694584289031503,-2.7868160858784017,-3.19908728980899
5.068000000000001,1.6256432985388178,-2.81131876324715,-3.195891591948589
5.071499999999997,1.516982589968155,-2.821972253001324,-3.191629497915218
5.074999999999999,1.371036412587137,-2.818776555140922,-3.180976008161045
5.078500000000002,1.2613110531727576,-2.81131876324715,-3.1671285658757222
5.081999999999997,1.1068441783835037,-2.797469575632575,-3.137299143629887
5.0855,0.9939213757794704,-2.775097945280512,-3.1159939094507925
5.088999999999995,0.8405191518339329,-2.7452702683639285,-3.080839487657123
5.092499999999998,0.7329248394362384,-2.728225382888952,-3.069121347059233
5.096,0.6018925005135122,-2.7090494503972904,-3.073381695763351
5.099499999999996,0.5166698184678811,-2.7015934038327707,-3.09681797695913
5.102999999999998,0.408009109897218,-2.7047891016931724,-3.1511483312444626
5.1065000000000005,0.3387649171535951,-2.7058537525368886,-3.2012165914964235
5.109999999999996,0.2364956043037353,-2.7015934038327707,-3.276853925290102
5.113499999999998,0.1523375731018207,-2.6920045649223137,-3.336509279123268
5.117000000000001,0.0372854688103545,-2.6675036328828177,-3.435582894112726
5.120499999999996,-0.0564614013020168,-2.6398052576536672,-3.519740925314641
5.123999999999999,-0.1800359483309714,-2.589736997401706,-3.653968962097768
5.127500000000001,-0.2684543282370041,-2.5449937366975792,-3.772216764249636
5.130999999999997,-0.3643322453660606,-2.4725538460935548,-3.940532826653466
5.134499999999999,-0.41866085432214,-2.41609419012079,-4.071565165576192
5.138000000000002,-0.471926557763755,-2.3298051119021905,-4.235620879275903
5.141499999999997,-0.5028206308533066,-2.260560919158568,-4.335759145109078
5.145,-0.5454328445407481,-2.140182069990015,-4.417786129294306
5.148499999999995,-0.5805872663344179,-2.0229989186818638,-4.435895665613
5.1519999999999975,-0.649831459078041,-1.860007855825869,-4.426308572031795
5.1555,-0.7126842561008607,-1.7385643558135997,-4.398611942131897
5.158999999999995,-0.8053647300402637,-1.5979449233096683,-4.360260077148574
5.162499999999998,-0.8873917142254931,-1.518048986141124,-4.331497051075707
5.166,-1.0216197510086211,-1.4541297929453354,-4.3155185617737
5.169499999999996,-1.1377365061438038,-1.438151303643327,-4.314452165600731
5.172999999999998,-1.3262948972122632,-1.4562608399620205,-4.336823795952794
5.176500000000001,-1.4860885168786042,-1.4818281681744854,-4.348541936550684
5.179999999999996,-1.717259121634505,-1.5436145690243366,-4.360260077148574
5.183499999999999,-1.899424371652909,-1.5990113194826368,-4.359195426304857
5.187000000000001,-2.132724278096243,-1.690625397249071,-4.368782519886063
5.190499999999997,-2.2935842939355524,-1.767327381886466,-4.382631707500638
5.193999999999999,-2.4746848931102403,-1.8727923925967271,-4.434831014769284
5.197500000000002,-2.592932695262108,-1.9676039135528152,-4.493421717758733
5.200999999999997,-2.718638289307748,-2.103961252023376,-4.590364285731507
5.2045,-2.7932092269284574,-2.207295215716952,-4.673457666089704
5.208000000000002,-2.851799929917907,-2.343652554187513,-4.770400234062477
5.211499999999997,-2.8656491175324823,-2.434203726439484,-4.830057333224895
5.215,-2.8528645807616235,-2.538602340976776,-4.877994546460172
5.218499999999995,-2.812383414090867,-2.5993240909829103,-4.8918437340747465
5.221999999999998,-2.717571893134779,-2.682417471341109,-4.90995327039344
5.2255,-2.6163689764578884,-2.745270268363928,-4.917411062287211
5.228999999999996,-2.4768159401269254,-2.833690393599213,-4.920606760147614
5.232499999999998,-2.399049304645814,-2.8976078414657493,-4.91421536442681
5.236000000000001,-2.3415232525000813,-2.9988107581426404,-4.876929895616455
5.239499999999996,-2.355372440114656,-3.0819041385008386,-4.82366419217484
5.242999999999999,-2.450182215741492,-3.1980208936360217,-4.708612087883374
5.246500000000001,-2.571627461083013,-3.277918576133818,-4.582908239166986
5.2499999999999964,-2.786816085878402,-3.366338701369102,-4.380500660483952
5.253499999999999,-2.958329591471885,-3.422798357341867,-4.198335410465548
5.2570000000000014,-3.1735199615965257,-3.487782201381372,-3.9330767800889457
5.260499999999997,-3.3183997428045755,-3.527198717208412,-3.7285398997184784
5.263999999999999,-3.483520107348003,-3.574071279599972,-3.4718019667501125
5.267500000000002,-3.607094654376957,-3.603898956516555,-3.299223810312913
5.270999999999997,-3.786065951864212,-3.634793029606106,-3.090426581238328
5.2745,-3.95118631640764,-3.652902565924799,-2.9540692427677664
5.277999999999995,-4.236685530119621,-3.685927686031036,-2.790013529068055
5.281499999999998,-4.499814858808789,-3.699776873645611,-2.6824174713411093
5.285,-4.903561874672637,-3.7136260612601855,-2.557778273468438
5.288499999999996,-5.23167330207206,-3.714690712103903,-2.47468489311024
5.291999999999998,-5.657791948287971,-3.718951060808021,-2.3777423251374668
5.2955000000000005,-5.9560756987708094,-3.709363967226816,-2.3106291794105287
5.298999999999996,-6.291643172734752,-3.701906175333044,-2.249907429404394
5.302499999999998,-6.501506797982306,-3.7029725715060127,-2.213686611437756
5.306000000000001,-6.724154960000718,-3.7253442018580754,-2.1795968404878026
5.309499999999996,-6.869034741208768,-3.7604986236517455,-2.164683002029511
5.312999999999999,-7.084225111333409,-3.835069561272456,-2.147638116554534
5.316500000000001,-7.273848153245585,-3.916031894613968,-2.140182069990015
5.319999999999997,-7.589175043874148,-4.059847024978301,-2.13805102297333
5.323499999999999,-7.857629372111152,-4.175963780113484,-2.136986372129613
5.327000000000002,-8.241137549968872,-4.354933332271486,-2.13805102297333
5.330499999999997,-8.530898857714224,-4.499814858808787,-2.148704512727503
5.334,-8.886706915013544,-4.707547437039657,-2.172140793923283
5.337499999999995,-9.116811123596475,-4.874798848599769,-2.1998374238231806
5.3409999999999975,-9.358633472777298,-5.129403989222197,-2.237122892633536
5.3445,-9.49499081124786,-5.348856453380209,-2.2744083614438906
5.347999999999995,-9.619631754449784,-5.666314391025457,-2.3361965076229936
5.351499999999998,-9.664373269824656,-5.911332438066681,-2.3852001170312387
5.355,-9.667568967685058,-6.252228402236962,-2.465097799529035
5.358499999999996,-9.63241454589139,-6.513224938580194,-2.535406643116375
5.361999999999998,-9.525884884337412,-6.847727761700419,-2.628087117055778
5.365500000000001,-9.42468196766052,-7.08635441302084,-2.6920045649223137
5.368999999999996,-9.268084045854582,-7.378246767782875,-2.7644462008555903
5.372499999999999,-9.139182753948544,-7.570000856711737,-2.8017316696659456
5.376000000000001,-8.977256341936263,-7.789451575540496,-2.821972253001324
5.379499999999997,-8.866466331678167,-7.916221820429852,-2.828363648722127
5.382999999999999,-8.741827133805495,-8.04618776317961,-2.8123834140908666
5.386500000000002,-8.658733753447299,-8.121823351644036,-2.778293643140914
5.389999999999997,-8.547941997859951,-8.204916732002234,-2.7111804974139755
5.3935,-8.448870128199744,-8.244333247829273,-2.631282814916179
5.396999999999995,-8.310381742712499,-8.26457383116465,-2.495990127289335
5.400499999999997,-8.198525336281433,-8.235810805091784,-2.3670905807125457
5.404,-8.0547102059171,-8.13567253925861,-2.1593562571524245
5.407499999999995,-7.975878919592271,-8.019555784123426,-1.97719100713402
5.410999999999998,-7.931135658888145,-7.839519835792458,-1.727910866059426
5.4145,-7.957767637944327,-7.694640054584408,-1.525505032705644
5.417999999999996,-8.083473231989968,-7.518866200286807,-1.2378747719769785
5.421499999999998,-8.241137549968874,-7.408074444699459,-1.0290775429023926
5.425000000000001,-8.485090946166382,-7.288761991703875,-0.7478386778945303
5.428499999999996,-8.69282352439725,-7.217386751943566,-0.5528888911052677
5.431999999999999,-8.964473550494654,-7.147076163026974,-0.3110665419244454
5.435500000000001,-9.135987056088137,-7.093812204914611,-0.1491418752414194
5.4389999999999965,-9.343719634319006,-7.0160455694335,0.0351544217936697
5.442499999999999,-9.465163134331275,-6.942541027985759,0.150206526085136
5.4460000000000015,-9.599391171114403,-6.854120902750474,0.274847469287059
5.449499999999997,-9.67928710828295,-6.787007757023536,0.3462209637181151
5.452999999999999,-9.747466650182854,-6.710305772386142,0.4165315526347067
5.456500000000002,-9.76131583779743,-6.655975418100811,0.4570127193054631
5.459999999999997,-9.715507926249588,-6.603776110832164,0.4879067923950148
5.4635,-9.646263733505965,-6.55796819928432,0.4964292351325031
5.466999999999995,-9.512035696722837,-6.486592959524013,0.4996249329929048
5.470499999999998,-9.407637082185545,-6.426935860361595,0.4857757453783297
5.474,-9.288324629189958,-6.332124339405506,0.4506213235846599
5.477499999999996,-9.227601133854572,-6.253293053080679,0.4154651564617382
5.480999999999998,-9.193513108233873,-6.160612579141276,0.3590055004889736
5.484500000000001,-9.196708806094271,-6.107346875699661,0.3238510786953038
5.487999999999996,-9.220145087290051,-6.051951870570613,0.2812388650078622
5.491499999999999,-9.243581368485833,-6.023188844497746,0.2492801410745941
5.495000000000001,-9.262757300977494,-5.961402443647895,0.2130593231079557
5.498499999999996,-9.253168462067038,-5.904941042345878,0.1960144376329791
5.501999999999999,-9.196708806094271,-5.825043359848082,0.1981454846496642
5.505500000000001,-9.116811123596475,-5.75899486496486,0.205601531214184
5.508999999999997,-8.96980029537174,-5.665249740181741,0.2386266513204207
5.512499999999999,-8.827049815851126,-5.598134849125551,0.2791078179911772
5.516000000000002,-8.59055421154739,-5.529957052554897,0.3547434064556034
5.519499999999997,-8.368972445701946,-5.48947588588414,0.4261186462159115
5.523,-8.014229039246343,-5.463908557671675,0.5518242402615512
5.526499999999995,-7.693575403740692,-5.463908557671675,0.6583539018155291
5.529999999999998,-7.225909194681056,-5.463908557671675,0.8288010112360433
5.5335,-6.851989855733791,-5.462842161498706,0.9651583497066044
5.536999999999996,-6.35130027189717,-5.451124020900816,1.164370230529237
5.540499999999998,-5.998687912458252,-5.444732625180014,1.3199035014914595
5.5440000000000005,-5.564046823504852,-5.421296343984233,1.5372231733035338
5.547499999999996,-5.292395052078194,-5.411709250403029,1.6991478399865596
5.550999999999998,-5.002635489662096,-5.4021204114925725,1.9249916998653736
5.554500000000001,-4.849231520387306,-5.393597968755083,2.094374158442172
5.557999999999996,-4.696893947285485,-5.378684130296793,2.3191516221480173
5.561499999999999,-4.625518707525177,-5.362703895665532,2.4800116379873267
5.565000000000001,-4.5424253271669786,-5.3073088905364845,2.6834838675140773
5.568499999999997,-4.48703032203793,-5.235933650776175,2.830494695738812
5.571999999999999,-4.396480895115213,-5.100640963149331,3.0243780863551057
5.575500000000002,-4.311256467740329,-4.9845242080141485,3.17138891457984
5.578999999999997,-4.1685077335489655,-4.807685702872831,3.365272305196134
5.5825,-4.036410743782523,-4.6617395254918135,3.5048270868563494
5.585999999999995,-3.834003165099488,-4.448680202383858,3.685927686031037
5.5894999999999975,-3.665687102695659,-4.278233092963343,3.8222850245015976
5.593,-3.416406961621065,-4.0332150459221205,3.9959295771117658
5.596499999999995,-3.1990872898089906,-3.841460956993259,4.11950412414072
5.599999999999998,-2.864582721359514,-3.5708755817395703,4.264383905348769
5.6035,-2.590801648245423,-3.364207654352417,4.358129030131889
5.606999999999996,-2.178532189644087,-3.0755127427800355,4.476376832283757
5.610499999999998,-1.8482897152279796,-2.8656491175324814,4.5679926553794425
5.614000000000001,-1.384885600201713,-2.6067818828766827,4.694762900268799
5.617499999999996,-1.0280111467294244,-2.419289887981192,4.795967562274942
5.620999999999999,-0.5496931932448663,-2.1710743977503144,4.924867108851732
5.624500000000001,-0.1789695521580028,-1.9899755439048787,5.009026885382898
5.627999999999997,0.3185243338182169,-1.7470867985510878,5.097445265288931
5.631499999999999,0.7126842561008603,-1.5681172463930857,5.141123875149341
5.635000000000002,1.265573147206128,-1.359318271989248,5.170951552065924
