time,Gyr_X,Gyr_Y,Gyr_Z
0.0,-0.0649838440395048,0.02769837522915,-0.0074577918937717
0.0035000000000025,-0.0660484948832214,0.0223716303520633,-0.0106534897541733
0.007000000000005,-0.0607217500061347,0.0223716303520633,0.0
0.0105000000000075,-0.0671131457269379,0.0085224427374883,0.0042603487041181
0.01400000000001,-0.0521993072686464,-0.0117181405978899,0.0106534897541733
0.0175000000000125,-0.0095870935812048,-0.0223716303520633,0.0074577918937717
0.021000000000015,0.0,-0.01598023463126,0.0
0.0245000000000175,0.0031956978604016,-0.0010646508437165,-0.002131047016685
0.02800000000002,0.0170448854749766,0.0042603487041181,0.0
0.0315000000000225,0.0266319790561814,0.0010646508437165,0.0117181405978899
0.035000000000025,0.0330233747769847,-0.0095870935812048,0.0234362811957798
0.038499999999999,0.0479389585645282,-0.0085224427374883,0.0149138384582915
0.0420000000000015,0.0564614013020165,-0.0127827914416064,0.0053267448770866
0.045500000000004,0.0447432607041266,-0.0202405833353782,0.0010646508437165
0.0490000000000065,0.0330233747769847,-0.0245026773687483,0.0042603487041181
0.052500000000009,0.0085224427374883,-0.0213052341790947,0.0106534897541733
0.0560000000000115,-0.0053267448770866,-0.0063913957208032,0.0106534897541733
0.0595000000000141,-0.0149138384582915,0.01598023463126,0.0010646508437165
0.0630000000000166,-0.01598023463126,0.0245026773687483,0.0031956978604016
0.0665000000000191,-0.002131047016685,0.0319587239332681,0.0085224427374883
0.0700000000000216,-0.0053267448770866,0.0202405833353782,0.0074577918937717
0.0735000000000241,0.0,0.013849187614575,0.0095870935812048
0.0769999999999981,0.0085224427374883,0.0213052341790947,0.013849187614575
0.0805000000000006,0.0149138384582915,0.0202405833353782,0.013849187614575
0.0840000000000031,0.013849187614575,0.0266319790561814,0.0106534897541733
0.0875000000000056,0.0117181405978899,0.0351544217936697,0.0095870935812048
0.0910000000000081,0.0031956978604016,0.0319587239332681,0.0170448854749766
0.0945000000000106,-0.0245026773687483,0.0308940730895516,0.0053267448770866
0.0980000000000131,-0.041545817514473,0.0308940730895516,0.0085224427374883
0.1015000000000156,-0.0479389585645282,0.0170448854749766,0.0
0.1050000000000181,-0.0575260521457331,0.0085224427374883,0.0010646508437165
0.1085000000000206,-0.0596570991624181,-0.0095870935812048,-0.0085224427374883
0.1120000000000231,-0.0532657034416149,-0.0191759324916617,-0.0031956978604016
0.1154999999999972,-0.0372854688103548,-0.0255673282124649,-0.0042603487041181
0.1189999999999997,-0.0223716303520633,-0.0234362811957798,-0.002131047016685
0.1225000000000022,-0.0106534897541733,-0.0234362811957798,0.0031956978604016
0.1260000000000047,0.0063913957208032,-0.01598023463126,0.002131047016685
0.1295000000000072,0.0330233747769847,-0.0202405833353782,0.0010646508437165
0.1330000000000097,0.0394165158270399,-0.0213052341790947,0.0031956978604016
0.1365000000000122,0.0404811666707564,-0.0287630260728665,0.013849187614575
0.1400000000000147,0.0820287295144815,-0.0490036094082447,0.0351544217936697
0.1435000000000172,0.0713752397603081,-0.0490036094082447,0.0330233747769847
0.1470000000000197,0.0458079115478431,-0.0458079115478431,0.0117181405978899
0.1505000000000222,0.0319587239332681,-0.0266319790561814,-0.0063913957208032
0.1540000000000247,0.0031956978604016,-0.0063913957208032,-0.0053267448770866
0.1574999999999988,-0.0191759324916617,0.0,0.0149138384582915
0.1610000000000013,-0.0223716303520633,-0.0010646508437165,0.0191759324916617
0.1645000000000038,-0.0330233747769847,-0.0031956978604016,0.0170448854749766
0.1680000000000063,-0.0319587239332681,-0.0095870935812048,0.0
0.1715000000000088,-0.0117181405978899,-0.0074577918937717,0.0
0.1750000000000113,-0.0053267448770866,-0.0053267448770866,0.002131047016685
0.1785000000000138,-0.0149138384582915,-0.0085224427374883,0.0095870935812048
0.1820000000000163,-0.0170448854749766,-0.0010646508437165,0.0191759324916617
0.1855000000000188,-0.013849187614575,0.0127827914416064,0.0106534897541733
0.1890000000000213,-0.0213052341790947,0.0308940730895516,0.0063913957208032
0.1925000000000238,-0.0117181405978899,0.0383501196540714,0.0
0.1959999999999979,-0.0149138384582915,0.0287630260728665,0.0074577918937717
0.1995000000000004,-0.0255673282124649,0.002131047016685,0.01598023463126
0.2030000000000029,-0.029827676916583,-0.0042603487041181,0.0127827914416064
0.2065000000000054,-0.0234362811957798,-0.013849187614575,0.0063913957208032
0.2100000000000079,-0.0170448854749766,-0.0074577918937717,0.0010646508437165
0.2135000000000104,-0.0127827914416064,0.0042603487041181,0.0
0.2170000000000129,-0.0074577918937717,0.0,0.0042603487041181
0.2205000000000154,-0.002131047016685,0.0,0.0053267448770866
0.2240000000000179,-0.0063913957208032,-0.002131047016685,0.0031956978604016
0.2275000000000204,0.01598023463126,-0.0031956978604016,0.002131047016685
0.2310000000000229,0.0468725623915597,-0.0074577918937717,0.0085224427374883
0.2345000000000254,0.0436768645311581,-0.0234362811957798,0.002131047016685
0.2379999999999995,0.0479389585645282,-0.0287630260728665,0.0063913957208032
0.241500000000002,0.0521993072686464,-0.02769837522915,0.0010646508437165
0.2450000000000045,0.0308940730895516,-0.0245026773687483,-0.0042603487041181
0.248500000000007,0.0127827914416064,-0.0181095363186931,-0.0170448854749766
0.2520000000000095,0.0117181405978899,-0.0149138384582915,-0.0085224427374883
0.255500000000012,-0.0149138384582915,-0.0063913957208032,-0.0149138384582915
0.2590000000000145,-0.0458079115478431,0.0,-0.0181095363186931
0.262500000000017,-0.0383501196540714,0.0095870935812048,-0.0106534897541733
0.2660000000000195,-0.0287630260728665,0.01598023463126,0.0010646508437165
0.269500000000022,-0.0383501196540714,0.0191759324916617,0.0
0.2730000000000245,-0.0426122136874415,0.0213052341790947,-0.0085224427374883
0.2764999999999986,-0.0223716303520633,0.0149138384582915,-0.0053267448770866
0.2800000000000011,-0.0117181405978899,0.0085224427374883,-0.0031956978604016
0.2835000000000036,-0.0170448854749766,0.0181095363186931,0.0
0.2870000000000061,-0.0074577918937717,0.0127827914416064,0.013849187614575
0.2905000000000086,0.0117181405978899,0.0053267448770866,0.029827676916583
0.2940000000000111,-0.0085224427374883,0.0042603487041181,0.0202405833353782
0.2975000000000136,-0.0245026773687483,0.0095870935812048,0.0053267448770866
0.3010000000000161,-0.0127827914416064,0.0074577918937717,0.0117181405978899
0.3045000000000186,-0.013849187614575,0.0063913957208032,0.0266319790561814
0.3080000000000211,-0.0287630260728665,0.0063913957208032,0.0330233747769847
0.3115000000000236,-0.013849187614575,0.0031956978604016,0.0287630260728665
0.3149999999999977,0.0042603487041181,-0.0031956978604016,0.0223716303520633
0.3185000000000002,0.0245026773687483,-0.013849187614575,0.0202405833353782
0.3220000000000027,0.0287630260728665,-0.0170448854749766,0.01598023463126
0.3255000000000052,0.0404811666707564,-0.0372854688103548,0.0127827914416064
0.3290000000000077,0.0468725623915597,-0.0330233747769847,0.0127827914416064
0.3325000000000102,0.0404811666707564,-0.0234362811957798,0.0223716303520633
0.3360000000000127,0.0362208179666383,-0.0181095363186931,0.0223716303520633
0.3395000000000152,0.0351544217936697,0.0,0.0223716303520633
0.3430000000000177,0.0255673282124649,-0.0042603487041181,0.0117181405978899
0.3465000000000202,0.0095870935812048,-0.0085224427374883,-0.002131047016685
0.3500000000000227,-0.0042603487041181,-0.0074577918937717,0.002131047016685
0.3535000000000252,-0.0127827914416064,-0.0191759324916617,0.0095870935812048
0.3569999999999993,-0.0117181405978899,-0.0106534897541733,0.0202405833353782
0.3605000000000018,-0.01598023463126,-0.0010646508437165,0.0117181405978899
0.3640000000000043,-0.0255673282124649,0.0063913957208032,0.002131047016685
0.3675000000000068,-0.029827676916583,0.0149138384582915,-0.002131047016685
0.3710000000000093,-0.029827676916583,0.0191759324916617,0.0074577918937717
0.3745000000000118,-0.02769837522915,0.0191759324916617,0.0170448854749766
0.3780000000000143,-0.013849187614575,0.0117181405978899,0.0106534897541733
0.3815000000000168,-0.0213052341790947,0.0,0.0074577918937717
0.3850000000000193,-0.02769837522915,-0.0500682602519613,0.0223716303520633
0.3885000000000218,0.0724398906040246,-0.1651203645434275,0.0820287295144815
0.3920000000000243,0.1480754790684509,-0.2258421145495622,0.1075943123976944
0.3954999999999984,0.1065296615539778,-0.1938833906162941,0.0596570991624181
0.3990000000000009,0.0447432607041266,-0.0788312863248278,0.0
0.4025000000000034,0.0213052341790947,0.0372854688103548,-0.0479389585645282
0.4060000000000059,0.1214435000122694,0.0447432607041266,-0.0287630260728665
0.4095000000000084,0.2290395577392158,0.0053267448770866,0.0223716303520633
0.4130000000000109,0.0788312863248278,-0.0330233747769847,0.029827676916583
0.4165000000000134,-0.1448797812080492,-0.0372854688103548,-0.0063913957208032
0.4200000000000159,-0.1193124529955843,-0.0479389585645282,-0.0042603487041181
0.4235000000000184,0.0085224427374883,-0.0255673282124649,-0.0031956978604016
0.4270000000000209,0.0319587239332681,0.0234362811957798,-0.0127827914416064
0.4305000000000234,0.0042603487041181,0.0511346564249298,-0.0149138384582915
0.4339999999999975,-0.0127827914416064,0.0255673282124649,0.0010646508437165
0.4375,-0.0479389585645282,-0.0106534897541733,0.0053267448770866
0.4410000000000025,-0.0873537290623162,-0.0245026773687483,0.0
0.444500000000005,-0.1171831513081512,0.0095870935812048,-0.0042603487041181
0.4480000000000075,-0.0990718696602061,0.0308940730895516,0.0
0.45150000000001,-0.0330233747769847,0.0202405833353782,0.0010646508437165
0.4550000000000125,0.0319587239332681,0.0234362811957798,0.013849187614575
0.458500000000015,0.0639174478665363,0.0181095363186931,0.01598023463126
0.4620000000000175,0.0479389585645282,0.0117181405978899,0.0170448854749766
0.46550000000002,0.0255673282124649,0.0117181405978899,0.0149138384582915
0.4690000000000225,-0.0031956978604016,0.0117181405978899,0.0181095363186931
0.472500000000025,-0.0543303542853314,0.0202405833353782,0.0106534897541733
0.4759999999999991,-0.0767019846373948,0.0234362811957798,0.0117181405978899
0.4795000000000016,-0.0905494269227178,0.0234362811957798,0.013849187614575
0.4830000000000041,-0.0852244273748831,0.0319587239332681,0.01598023463126
0.4865000000000066,-0.0681795418999064,0.0255673282124649,0.0117181405978899
0.4900000000000091,-0.041545817514473,0.0149138384582915,0.0117181405978899
0.4935000000000116,-0.0063913957208032,0.0245026773687483,0.0095870935812048
0.4970000000000141,0.0010646508437165,0.0149138384582915,0.0106534897541733
0.5005000000000166,-0.002131047016685,0.0042603487041181,0.0085224427374883
0.5040000000000191,0.01598023463126,-0.0117181405978899,0.0053267448770866
0.5075000000000216,0.0372854688103548,-0.0308940730895516,0.0031956978604016
0.5110000000000241,0.083093380358198,-0.0223716303520633,0.0074577918937717
0.5144999999999982,0.1001382658331746,-0.0287630260728665,0.0085224427374883
0.5180000000000007,0.0777666354811113,-0.0042603487041181,0.0085224427374883
0.5215000000000032,0.0575260521457331,0.0127827914416064,0.0117181405978899
0.5250000000000057,0.02769837522915,0.0340897709499532,0.0053267448770866
0.5285000000000082,-0.029827676916583,0.055395005129048,0.0031956978604016
0.5320000000000107,-0.0500682602519613,0.0596570991624181,0.0010646508437165
0.5355000000000132,-0.041545817514473,0.0671131457269379,0.0085224427374883
0.5390000000000157,-0.0255673282124649,0.0543303542853314,0.0170448854749766
0.5425000000000182,-0.0063913957208032,0.0447432607041266,0.02769837522915
0.5460000000000207,0.0,0.0511346564249298,0.0255673282124649
0.5495000000000232,0.0,0.0458079115478431,0.0308940730895516
0.5529999999999973,-0.0127827914416064,0.055395005129048,0.0330233747769847
0.5564999999999998,-0.0223716303520633,0.041545817514473,0.0404811666707564
0.5600000000000023,-0.0213052341790947,0.0362208179666383,0.0575260521457331
0.5635000000000048,-0.0127827914416064,0.0490036094082447,0.0649838440395048
0.5670000000000073,-0.0095870935812048,0.0532657034416149,0.0617864008498512
0.5705000000000098,0.01598023463126,0.0404811666707564,0.0703088435873395
0.5740000000000123,0.0255673282124649,0.0372854688103548,0.0628527970228197
0.5775000000000148,0.0255673282124649,0.0266319790561814,0.0308940730895516
0.5810000000000173,-0.0170448854749766,0.0010646508437165,0.0031956978604016
0.5845000000000198,-0.0106534897541733,-0.0106534897541733,0.0
0.5880000000000223,0.0149138384582915,-0.0117181405978899,0.0085224427374883
0.5915000000000248,0.0372854688103548,-0.0372854688103548,0.0117181405978899
0.5949999999999989,0.0287630260728665,-0.0543303542853314,0.0063913957208032
0.5985000000000014,0.0191759324916617,-0.0351544217936697,-0.0031956978604016
0.6020000000000039,0.0255673282124649,-0.0372854688103548,-0.0127827914416064
0.6055000000000064,0.041545817514473,-0.029827676916583,-0.0117181405978899
0.6090000000000089,0.0521993072686464,-0.029827676916583,-0.0095870935812048
0.6125000000000114,0.0458079115478431,-0.0319587239332681,-0.0149138384582915
0.6160000000000139,0.0330233747769847,-0.0340897709499532,-0.0213052341790947
0.6195000000000164,0.0287630260728665,-0.0319587239332681,-0.0362208179666383
0.6230000000000189,0.0340897709499532,-0.0308940730895516,-0.0394165158270399
0.6265000000000214,0.0436768645311581,-0.0117181405978899,-0.0340897709499532
0.6300000000000239,0.0351544217936697,-0.002131047016685,-0.0383501196540714
0.633499999999998,0.0191759324916617,0.0149138384582915,-0.0362208179666383
0.6370000000000005,0.0,0.0287630260728665,-0.0245026773687483
0.640500000000003,-0.0266319790561814,0.0479389585645282,-0.0202405833353782
0.6440000000000055,-0.0564614013020165,0.0660484948832214,-0.013849187614575
0.647500000000008,-0.0767019846373948,0.0948115209560879,0.0
0.6510000000000105,-0.0958761717998045,0.1182478021518678,0.0
0.654500000000013,-0.0990718696602061,0.1448797812080492,-0.0010646508437165
0.6580000000000155,-0.0735062867769931,0.1629910628559944,0.0010646508437165
0.661500000000018,-0.0255673282124649,0.180035948330971,0.0053267448770866
0.6650000000000205,-0.0095870935812048,0.1842962970350892,0.013849187614575
0.668500000000023,0.0426122136874415,0.1789695521580025,0.0372854688103548
0.6720000000000255,0.0926804739394028,0.1938833906162941,0.0681795418999064
0.6754999999999995,0.1139874534477496,0.2119946722642392,0.0745709376207097
0.679000000000002,0.1193124529955843,0.2226464166891606,0.0703088435873395
0.6825000000000045,0.1139874534477496,0.2524758389349957,0.0596570991624181
0.686000000000007,0.1075943123976944,0.2695207244099723,0.0490036094082447
0.6895000000000095,0.1033339636935762,0.3057397970473587,0.0543303542853314
0.693000000000012,0.0905494269227178,0.3057397970473587,0.0521993072686464
0.6965000000000146,0.0980072188164895,0.3014794483432405,0.055395005129048
0.700000000000017,0.110790010258096,0.2801724688348938,0.0575260521457331
0.7035000000000196,0.1065296615539778,0.2439533961975074,0.055395005129048
0.707000000000022,0.1086607085706629,0.2301042085829324,0.0468725623915597
0.7105000000000246,0.1171831513081512,0.2237128128621291,0.0351544217936697
0.7139999999999986,0.1043986145372928,0.2226464166891606,0.029827676916583
0.7175000000000011,0.0937468701123714,0.2130593231079557,-0.0031956978604016
0.7210000000000036,0.1257055940456395,0.2119946722642392,-0.0053267448770866
0.7245000000000061,0.1054650107102613,0.2322352555996175,-0.0095870935812048
0.7280000000000086,0.0436768645311581,0.2322352555996175,-0.0330233747769847
0.7315000000000111,0.0617864008498512,0.2322352555996175,-0.0340897709499532
0.7350000000000136,0.0372854688103548,0.2620629325162006,-0.0287630260728665
0.7385000000000161,-0.0074577918937717,0.2567361876391139,-0.055395005129048
0.7420000000000186,-0.0223716303520633,0.2876302607286655,-0.0521993072686464
0.7455000000000211,-0.0617864008498512,0.2918906094327836,-0.0671131457269379
0.7490000000000236,-0.0500682602519613,0.3100018910807288,-0.0596570991624181
0.7524999999999977,-0.0671131457269379,0.3366338701369103,-0.0639174478665363
0.7560000000000002,-0.055395005129048,0.355809802628572,-0.0575260521457331
0.7595000000000027,-0.0447432607041266,0.3845728287014385,-0.0383501196540714
0.7630000000000052,-0.0703088435873395,0.3984202709867616,-0.0394165158270399
0.7665000000000077,-0.0852244273748831,0.4282496932325966,-0.0319587239332681
0.7700000000000102,-0.0937468701123714,0.4623394641825499,-0.0149138384582915
0.7735000000000127,-0.1075943123976944,0.5145387714511963,-0.0053267448770866
0.7770000000000152,-0.1043986145372928,0.5496931932448661,0.0149138384582915
0.7805000000000177,-0.1054650107102613,0.5678027295635593,0.0234362811957798
0.7840000000000202,-0.1054650107102613,0.5848476150385359,0.0372854688103548
0.7875000000000227,-0.0585907029894496,0.5891097090719061,0.0447432607041266
0.7910000000000252,-0.0213052341790947,0.6200020368322057,0.0585907029894496
0.7944999999999993,0.0181095363186931,0.6136106411114024,0.055395005129048
0.7980000000000018,0.0330233747769847,0.6391779693238674,0.0745709376207097
0.8015000000000043,-0.0756355884644262,0.6530271569384424,0.0234362811957798
0.8050000000000068,0.0905494269227178,0.6381133184801508,0.0660484948832214
0.8085000000000093,0.0958761717998045,0.670072042413419,0.1289012919060412
0.8120000000000118,0.0788312863248278,0.7009661155029706,0.083093380358198
0.8155000000000143,0.3430252658577135,0.6082838962343158,0.1725781564371993
0.8190000000000168,0.3760503859639502,0.614677037284371,0.2173214171413259
0.8225000000000193,0.4729912086074713,0.586978662055221,0.180035948330971
0.8260000000000218,0.6295908757426625,0.5113430735907947,0.2109282760912707
0.8295000000000243,0.903371948856753,0.3579391043160051,0.2599318854995155
0.8329999999999984,0.9992481206565574,0.2151903701246408,0.2599318854995155
0.8365000000000009,1.1515856937583784,0.0735062867769931,0.1853609478788057
0.8400000000000034,1.439215954487044,0.01598023463126,0.1821652500184041
0.8435000000000059,1.752413543428175,-0.1043986145372928,0.2151903701246408
0.8470000000000084,1.8610742519988372,-0.177904901314286,0.205601531214184
0.8505000000000109,1.8173973874676796,-0.3046751462036421,0.1555332709622227
0.8540000000000134,1.771589475919836,-0.4101401569139035,0.1033339636935762
0.8575000000000159,1.7140634237741033,-0.5379750526469761,0.055395005129048
0.8610000000000184,1.61712085580133,-0.614677037284371,0.0149138384582915
0.8645000000000209,1.4434780485204144,-0.6860505317154271,-0.0426122136874415
0.8680000000000234,1.3124457095976878,-0.7510343757549319,-0.0745709376207097
0.8714999999999975,1.1132355741043072,-0.8192139176548384,-0.1214435000122694
0.875,0.947048813387911,-0.8554329902922247,-0.1640557136997109
0.8785000000000025,0.7020307663466872,-0.9108279954212728,-0.2151903701246408
0.882000000000005,0.5166698184678814,-0.9513109074212812,-0.2492801410745941
0.8855000000000075,0.2716500260974054,-1.0013791676732426,-0.2961527034661538
0.88900000000001,0.0937468701123714,-1.039729287327314,-0.3259803803827369
0.8925000000000125,-0.1374237346435295,-1.0855371988751572,-0.3632658491930918
0.896000000000015,-0.2993484013265554,-1.1153666211209925,-0.3824417816847534
0.8995000000000175,-0.4868403962220463,-1.1515856937583784,-0.4090737607409349
0.90300000000002,-0.6136106411114024,-1.1792840689875286,-0.4261186462159115
0.9065000000000224,-0.7627525163528219,-1.203785001027025,-0.4548816722887781
0.910000000000025,-0.8564993864651933,-1.2208298865020015,-0.4655351620429515
0.9134999999999992,-0.9651583497066044,-1.235743724960293,-0.4836446983616446
0.9170000000000016,-1.0269464958857075,-1.2421368660103485,-0.4900360940824479
0.920500000000004,-1.0855371988751572,-1.235743724960293,-0.4964292351325031
0.9240000000000066,-1.1153666211209925,-1.2186988394853169,-0.5049499325407395
0.9275000000000092,-1.124953714702197,-1.1910022095854185,-0.5113430735907947
0.9310000000000116,-1.1206916206688269,-1.1590434856521503,-0.5113430735907947
0.934500000000014,-1.0876682458918423,-1.1121691779313387,-0.5049499325407395
0.9380000000000166,-1.0546431257856057,-1.067427662556464,-0.4953628389595346
0.9415000000000192,-0.9779428864774626,-0.9832696313545496,-0.4740576047804398
0.9450000000000216,-0.9023072980130364,-0.9086986937338396,-0.4548816722887781
0.948500000000024,-0.7819284488444836,-0.7893844954090034,-0.4122694586013365
0.9519999999999982,-0.6690056462404504,-0.6828548338550254,-0.3813771308410369
0.9555000000000008,-0.4974938859762197,-0.5422354013510943,-0.3238510786953038
0.9590000000000032,-0.3526141047681703,-0.4218582975117934,-0.2791078179911772
0.9625000000000056,-0.150206526085136,-0.258867234655799,-0.2151903701246408
0.9660000000000082,0.0085224427374883,-0.1342280367831279,-0.1619246666830259
0.9695000000000108,0.2301042085829324,0.0181095363186931,-0.0873537290623162
0.9730000000000132,0.3984202709867616,0.1299659427497577,-0.0266319790561814
0.9765000000000156,0.6072192453905992,0.2727164222703739,0.0479389585645282
0.9800000000000182,0.753165422771617,0.3771150368076668,0.1075943123976944
0.9835000000000208,0.9268082300525328,0.4953628389595346,0.1789695521580025
0.9870000000000232,1.032273240762794,0.5773915684740161,0.2343645572870505
0.9904999999999972,1.1281494125625986,0.6775280889779387,0.2982837504828389
0.9939999999999998,1.176088371127127,0.7489033287382468,0.3387649171535954
0.9975000000000024,1.1878065117250167,0.8554329902922247,0.4048134120368167
1.0010000000000048,1.173957324110442,0.9257435792088164,0.4399678338304866
1.0045000000000073,1.0961906886293304,0.9885963762316362,0.4953628389595346
1.0080000000000098,1.0013791676732426,1.021619751008621,0.5283879590657713
1.0115000000000125,0.8373234539735316,1.0312068445898257,0.5731294744406459
1.0150000000000148,0.6871169278883955,1.016293006131534,0.600827849669796
1.0185000000000173,0.4506213235846599,0.984334282198266,0.626395177882261
1.0220000000000198,0.2535404897787122,0.9363953236337376,0.6274598287259775
1.0255000000000225,-0.01598023463126,0.8596950843255949,0.642373667184269
1.0290000000000248,-0.2173214171413259,0.7861887975486017,0.6391779693238674
1.0324999999999989,-0.4602084171658648,0.6817901830113089,0.6317219227593476
1.0360000000000014,-0.6317219227593476,0.5976321518093943,0.6242641308655758
1.039500000000004,-0.8330613599401614,0.4836446983616446,0.6295908757426625
1.0430000000000064,-0.9300039279129344,0.397355620143045,0.642373667184269
1.0465000000000089,-1.012032657427416,0.2705853752536888,0.6658099483800488
1.0500000000000114,-1.0344025424502272,0.1704471094205142,0.6860505317154271
1.053500000000014,-1.0035102146899275,0.029827676916583,0.6998997193300021
1.0570000000000164,-0.940657417667108,-0.0809623333415129,0.7062911150508053
1.0605000000000189,-0.8181475214818699,-0.2418223491808223,0.6881815787321122
1.0640000000000214,-0.697768672313317,-0.3664615470534934,0.6690056462404504
1.067500000000024,-0.5017542346803379,-0.5369104018032596,0.6189373859884891
1.070999999999998,-0.3313071252598236,-0.6690056462404504,0.5709984274239609
1.0745000000000005,-0.1075943123976944,-0.8383881048172481,0.4932317919428495
1.078000000000003,0.0596570991624181,-0.9630290480191712,0.4282496932325966
1.0815000000000057,0.2673896773932873,-1.1185623189813938,0.3334381722765087
1.085000000000008,0.4026823650201317,-1.2229609335186866,0.2663250265495707
1.0885000000000105,0.5358440056302911,-1.3529268762684443,0.1747092034538843
1.092000000000013,0.5976321518093943,-1.4434780485204144,0.1012029166768912
1.0955000000000157,0.6210684330051742,-1.5382895694765022,0.0170448854749766
1.099000000000018,0.5901743599156226,-1.5947492254492668,-0.0447432607041266
1.1025000000000205,0.480449000501243,-1.654406324611685,-0.1289012919060412
1.106000000000023,0.3590055004889736,-1.6714512100866616,-0.177904901314286
1.1095000000000257,0.1629910628559944,-1.65653737162837,-0.2386266513204207
1.1129999999999995,-0.0074577918937717,-1.6139251579409286,-0.2780431671474606
1.116500000000002,-0.2311688594266489,-1.5308317775827305,-0.3068061932203272
1.1200000000000043,-0.3962909692993285,-1.4583918869787058,-0.3195889846619337
1.123500000000007,-0.6040235475301975,-1.3348173399497512,-0.3249157295390203
1.1270000000000095,-0.7574257714757352,-1.2261566313790884,-0.3206536355056502
1.130500000000012,-0.942788464683793,-1.0471870792210858,-0.2950880526224372
1.1340000000000146,-1.053578474941889,-0.9097633445775564,-0.2641939795328856
1.137500000000017,-1.17821767281456,-0.727598094559152,-0.2098636252475541
1.1410000000000196,-1.2378747719769785,-0.5326483077698895,-0.1416840833476476
1.144500000000022,-1.2463972147144666,-0.3909642244222418,-0.1033339636935762
1.1480000000000246,-1.2304187254124583,-0.2556715367953973,-0.0713752397603081
1.1514999999999986,-1.1696952300770718,-0.110790010258096,-0.0500682602519613
1.1550000000000011,-1.0993863864897322,-0.0117181405978899,-0.0628527970228197
1.1585000000000036,-0.9768764903044942,0.1022693128498597,-0.0958761717998045
1.162000000000006,-0.84584589671102,0.1715135055934827,-0.1342280367831279
1.1655000000000086,-0.6434400633572375,0.2237128128621291,-0.2045368803704674
1.1690000000000111,-0.4740576047804398,0.2354309534600191,-0.2567361876391139
1.1725000000000136,-0.2418223491808223,0.2258421145495622,-0.3302424744161071
1.176000000000016,-0.0703088435873395,0.2205171150017275,-0.3877685265618402
1.1795000000000186,0.1608600158393093,0.2034722295267509,-0.4570127193054631
1.1830000000000211,0.3302424744161071,0.1789695521580025,-0.4889714432387313
1.1865000000000236,0.5294526099094878,0.1299659427497577,-0.5326483077698895
1.1899999999999975,0.6498314590780407,0.0735062867769931,-0.561411333842756
1.1935000000000002,0.7861887975486017,-0.0053267448770866,-0.5976321518093943
1.1970000000000027,0.8596950843255949,-0.0628527970228197,-0.626395177882261
1.2005000000000052,0.9225478813484148,-0.1278348957330726,-0.6817901830113089
1.2040000000000075,0.9438531155275096,-0.1821652500184041,-0.7371851881403569
1.2075000000000102,0.933199625773336,-0.2311688594266489,-0.8074957770569485
1.2110000000000127,0.889522761242178,-0.2641939795328856,-0.861824386013028
1.2145000000000152,0.7744706569507118,-0.2961527034661538,-0.9278728808962494
1.2180000000000175,0.6658099483800488,-0.2993484013265554,-0.9630290480191712
1.2215000000000202,0.4900360940824479,-0.2940216564494687,-0.9822032351815808
1.2250000000000227,0.3355692192931938,-0.288694911572382,-0.9800739334941478
1.2285000000000252,0.1012029166768912,-0.274847469287059,-0.9768764903044942
1.231999999999999,-0.1054650107102613,-0.2631275833599171,-0.986465329214951
1.2355000000000018,-0.4154651564617382,-0.2652586303766022,-0.9971170736398725
1.2390000000000043,-0.6477004120613556,-0.2695207244099723,-1.0088369595670144
1.2425000000000068,-0.9534402091087144,-0.2652586303766022,-1.0493181262377709
1.246000000000009,-1.2005893031666235,-0.2535404897787122,-1.1004510373334488
1.2495000000000118,-1.52656968354936,-0.219450718828759,-1.1867401155520485
1.2530000000000143,-1.7364333087969146,-0.2077325782308691,-1.2506593087478366
1.2565000000000168,-1.9963669396256816,-0.180035948330971,-1.3433397826872395
1.260000000000019,-2.1732054447669995,-0.1470108282247343,-1.4157796732912642
1.2635000000000218,-2.378808721310436,-0.1022693128498597,-1.5159179391244388
1.2670000000000243,-2.497056523462303,-0.0713752397603081,-1.5883578297284635
1.2704999999999984,-2.5982594401391945,-0.029827676916583,-1.6821046998408349
1.274000000000001,-2.631282814916179,0.0074577918937717,-1.7683920327301823
1.2775000000000034,-2.6238267683516594,0.0660484948832214,-1.885575184038334
1.281000000000006,-2.578018856803816,0.1225098961852379,-1.9974315904693984
1.2845000000000084,-2.46296675251235,0.2013411825100658,-2.147638116554534
1.288000000000011,-2.320216272991734,0.2535404897787122,-2.253103127264796
1.2915000000000134,-2.065611132369305,0.3547434064556034,-2.389460465735357
1.295000000000016,-1.8248534340321991,0.4271832970596281,-2.4864030337081298
1.2985000000000184,-1.4168443241349806,0.5624759846864725,-2.585474903368336
1.302000000000021,-1.0748854544502358,0.6604849488322142,-2.6568501431286444
1.3055000000000234,-0.5827165680218508,0.780862052671515,-2.723965034184834
1.3089999999999975,-0.1832316461913727,0.861824386013028,-2.758053059805535
1.3125,0.4069427137242498,0.9907256779190692,-2.7697712004034254
1.3160000000000025,0.8724778757672014,1.0493181262377709,-2.76018410682222
1.319500000000005,1.5084601472306671,1.1196269698251105,-2.726094335872267
1.3230000000000075,1.9803867049944217,1.1505210429146622,-2.7090494503972904
1.32650000000001,2.5492558307309494,1.18247976684793,-2.703724450849456
1.3300000000000125,2.9146527269407265,1.2272212822228048,-2.7186382893077474
1.333500000000015,3.3098773000670865,1.2719645429269315,-2.7868160858784017
1.3370000000000175,3.513349529593837,1.2783559386477348,-2.8645827213595134
1.34050000000002,3.632661982589422,1.2772912878040183,-3.0169202944613343
1.3440000000000225,3.5719402325832874,1.290074079245625,-3.1554104252778323
1.347500000000025,3.3343799774358347,1.3017922198435146,-3.3215954406649764
1.350999999999999,3.097884373132099,1.310314662581003,-3.413211263760662
1.3545000000000016,2.664307935022416,1.3252302463685464,-3.512283133420869
1.358000000000004,2.277604059304292,1.3028586160164832,-3.560222091985397
1.3615000000000066,1.752413543428175,1.2463972147144666,-3.5793980244770585
1.365000000000009,1.3316216420893496,1.1537167407750637,-3.557026394124996
1.3685000000000116,0.8405191518339332,0.9981834698128408,-3.4409096389898126
1.372000000000014,0.5102766774178261,0.875673573627603,-3.30881264922337
1.3755000000000166,0.1736428072809158,0.7212066988383489,-3.055272159444658
1.379000000000019,-0.0149138384582915,0.5986968026531109,-2.8155791119512683
1.3825000000000216,-0.2258421145495622,0.4058780628805333,-2.43953047131657
1.386000000000024,-0.3046751462036421,0.2641939795328856,-2.1156793926212663
1.3894999999999982,-0.3472873598910836,0.0681795418999064,-1.6874296993886695
1.393000000000001,-0.3877685265618402,-0.0873537290623162,-1.3646450168663344
1.3965000000000032,-0.4048134120368167,-0.3046751462036421,-0.9246771830358478
1.4000000000000057,-0.4026823650201317,-0.4623394641825499,-0.586978662055221
1.4035000000000082,-0.397355620143045,-0.6530271569384424,-0.1448797812080492
1.407000000000011,-0.3962909692993285,-0.753165422771617,0.1832316461913727
1.4105000000000132,-0.3792460838243518,-0.8469105475547365,0.6157416881280875
1.4140000000000157,-0.3408942188410284,-0.8788692714880046,0.9300039279129344
1.4175000000000182,-0.2482137449016255,-0.8692821779067997,1.2954008241227113
1.4210000000000207,-0.1438151303643327,-0.8660864800463982,1.5329628245994156
1.4245000000000232,0.0106534897541733,-0.8884581103984615,1.7982214549760178
1.4279999999999973,0.1171831513081512,-0.9097633445775564,1.9590814708153272
1.4314999999999998,0.2439533961975074,-0.8991098548233829,2.136986372129613
1.4350000000000025,0.3153286359578155,-0.8564993864651933,2.264821267862686
1.4385000000000048,0.355809802628572,-0.7766017039673969,2.441661518333255
1.4420000000000073,0.369657244913895,-0.6945729744529154,2.583345601680903
1.4455000000000098,0.3685925940701784,-0.5603466829990394,2.7921428307554885
1.4490000000000125,0.3877685265618402,-0.4442281825346047,2.953002846594798
1.4525000000000148,0.4186608543221398,-0.314262239784847,3.160735424825667
1.4560000000000173,0.4570127193054631,-0.2141239739516723,3.3034859043462834
1.4595000000000198,0.4900360940824479,-0.0447432607041266,3.505891737700066
1.4630000000000225,0.4900360940824479,0.0308940730895516,3.583658373181177
1.4665000000000248,0.4719265577637547,0.2034722295267509,3.742387342003801
1.4699999999999989,0.4506213235846599,0.3217200316786187,3.8808774728202993
1.4735000000000014,0.3728546881035486,0.4676662090596366,4.061976326665735
1.477000000000004,0.2556715367953973,0.5699337765802444,4.16637668653228
1.4805000000000064,0.0170448854749766,0.6732677402738206,4.303800421175809
1.4840000000000089,-0.1715135055934827,0.7126842561008605,4.41245938441722
1.4875000000000114,-0.4026823650201317,0.7766017039673969,4.556274514781553
1.491000000000014,-0.5305172607532044,0.8074957770569485,4.664935223352216
1.4945000000000164,-0.6093502924072843,0.80642938088398,4.802358957995746
1.4980000000000189,-0.5741958706136145,0.7851241467048852,4.880125593476857
1.5015000000000214,-0.4080091098972184,0.7116178599278921,4.962152577662087
1.505000000000024,-0.2077325782308691,0.614677037284371,4.9866552550308345
1.508499999999998,0.1299659427497577,0.4697955107470696,4.97280606741626
1.5120000000000005,0.4133358547743051,0.3771150368076668,4.937651645622591
1.515500000000003,0.7904508915819718,0.2716500260974054,4.862016057158163
1.5190000000000057,1.0727544074335509,0.205601531214184,4.79277186441454
1.522500000000008,1.377429553637193,0.1235745470289545,4.689437900720964
1.5260000000000105,1.5478766630577072,0.0745709376207097,4.594626379764876
1.529500000000013,1.652275277595,0.0340897709499532,4.399676592975614
1.5330000000000157,1.596880272465952,-0.002131047016685,4.228163087382131
1.536500000000018,1.3667760638830195,-0.0767019846373948,3.9778182954638206
1.5400000000000205,1.0823415010147557,-0.1267702448893561,3.808435836887023
1.543500000000023,0.5997614534968274,-0.1693824585767977,3.61029209756661
1.5470000000000257,0.2066679273871525,-0.2087989744038376,3.486717550537656
1.5504999999999995,-0.3334381722765087,-0.274847469287059,3.34396707101704
1.554000000000002,-0.725467047542467,-0.3185243338182171,3.2182614769714
1.5575000000000043,-1.2186988394853169,-0.41120480775762,3.030769482075909
1.561000000000007,-1.525505032705644,-0.5219948180157161,2.868844815392884
1.5645000000000095,-1.850420762244664,-0.6988350684862855,2.647263049547439
1.568000000000012,-2.0070186840506032,-0.8085604279006651,2.4757495439539565
1.5715000000000146,-2.074133575106793,-0.9236125321921312,2.2786704554772608
1.575000000000017,-2.02832566355895,-1.014161959114849,2.1636183511857947
1.5785000000000196,-1.8429629703508923,-1.097255339473047,2.0688068302297067
1.582000000000022,-1.6362967882929915,-1.1015174335064173,2.0187385699777454
1.5855000000000246,-1.3124457095976878,-1.081276850171039,2.0016936845027686
1.5889999999999986,-1.0461224283773694,-1.053578474941889,2.0229989186818638
1.5925000000000011,-0.7307937924195538,-0.9885963762316362,2.04749985072136
1.5960000000000036,-0.5528888911052677,-0.921481485175446,2.0847853195317145
1.599500000000006,-0.3856374795451551,-0.8000379851631767,2.1561605592920228
1.6030000000000086,-0.2929570056057522,-0.6775280889779387,2.253103127264796
1.6065000000000111,-0.1885583910684593,-0.5049499325407395,2.4235502366853097
1.6100000000000136,-0.1043986145372928,-0.3760503859639502,2.5801499038205016
1.613500000000016,0.0053267448770866,-0.1832316461913727,2.804927367526347
1.6170000000000186,0.1139874534477496,-0.0031956978604016,2.9647209871926883
1.6205000000000211,0.2652586303766022,0.2386266513204207,3.160735424825667
1.6240000000000236,0.3728546881035486,0.4016177141764152,3.293898810765078
1.6274999999999975,0.5166698184678814,0.6189373859884891,3.451561383414734
1.6310000000000002,0.6210684330051742,0.7925801932694049,3.5410479048229875
1.6345000000000027,0.7382515843133254,0.9800739334941478,3.622010238164501
1.6380000000000052,0.7883198445652868,1.0823415010147557,3.636924076622792
1.6415000000000075,0.8053647300402634,1.2005893031666235,3.612421399254044
1.6450000000000102,0.8128207766047831,1.290074079245625,3.568744534722885
1.6485000000000127,0.8170828706381533,1.3667760638830195,3.4909778992417744
1.6520000000000152,0.8011026360068932,1.3880812980621142,3.4206690556544346
1.6555000000000175,0.7989733343194602,1.3827562985142796,3.337575675296237
1.6590000000000202,0.8213432193422715,1.361449319005933,3.275787529117133
1.6625000000000227,0.8564993864651933,1.3273595480559794,3.192694148758935
1.6660000000000252,0.901240901840068,1.2687688450665298,3.128776700892399
1.669499999999999,0.9555712561253994,1.2005893031666235,3.028638435059224
1.6730000000000018,0.970485094583691,1.1867401155520485,2.927435518382333
1.6765000000000043,0.947048813387911,1.124953714702197,2.7697712004034254
1.6800000000000068,0.8788692714880046,1.043991381360684,2.6398052576536672
1.683500000000009,0.753165422771617,0.9747471886170612,2.4757495439539565
1.6870000000000118,0.6668763445530174,0.9300039279129344,2.366024184539577
1.6905000000000143,0.5773915684740161,0.8053647300402634,2.2264711482086144
1.6940000000000168,0.5156034222949128,0.7062911150508053,2.1018302050066917
1.697500000000019,0.3909642244222418,0.5763251723010476,1.899424371652909
1.7010000000000218,0.3174579376452486,0.4612730680095813,1.7129970276011346
1.7045000000000243,0.150206526085136,0.2844345628682639,1.3934080429392008
1.7079999999999984,0.002131047016685,0.1597953649955928,1.1270847617188822
1.711500000000001,-0.1853609478788057,0.0010646508437165,0.7425119330174437
1.7150000000000034,-0.3313071252598236,-0.1534022239455376,0.4346410889533998
1.718500000000006,-0.5156034222949128,-0.3749839897909817,-0.0063913957208032
1.7220000000000084,-0.642373667184269,-0.5145387714511963,-0.3504830577514853
1.725500000000011,-0.7606214693361367,-0.6860505317154271,-0.8128207766047831
1.7290000000000134,-0.8266699642193582,-0.7979069381464917,-1.1728926732667255
1.732500000000016,-0.8735442719401699,-0.9076322975608712,-1.64481923103048
1.7360000000000184,-0.8831313655213747,-0.9736807924440926,-1.9974315904693984
1.739500000000021,-0.8831313655213747,-1.067427662556464,-2.4597710546519487
1.7430000000000234,-0.8671511308901148,-1.1025820843501335,-2.793209226928457
1.7464999999999975,-0.8256053133756417,-1.0919285945959605,-3.209739034233912
1.75,-0.7819284488444836,-1.0716880112605822,-3.495239993275144
1.7535000000000025,-0.7307937924195538,-1.0418603343439992,-3.830807467239086
1.757000000000005,-0.6998997193300021,-1.007770563394046,-4.042802139503325
1.7605000000000075,-0.6477004120613556,-0.9779428864774626,-4.24840367071751
1.76400000000001,-0.6295908757426625,-0.9790075373211792,-4.350672983567369
1.7675000000000125,-0.6253287817092923,-0.9736807924440926,-4.430570666065165
1.771000000000015,-0.6040235475301975,-0.970485094583691,-4.457202645121346
1.7745000000000175,-0.5986968026531109,-0.9768764903044942,-4.442288806663056
1.77800000000002,-0.605088198373914,-0.9779428864774626,-4.425243921188079
1.7815000000000225,-0.6295908757426625,-0.947048813387911,-4.391154150238125
1.785000000000025,-0.6647452975363323,-0.905502995873438,-4.3677178690423455
1.788499999999999,-0.725467047542467,-0.8213432193422715,-4.345346238690282
1.7920000000000016,-0.7691439120736251,-0.7520990265986485,-4.332561701919424
1.795500000000004,-0.8426501988506182,-0.6413090163405525,-4.310191816896612
1.7990000000000066,-0.905502995873438,-0.559280286826071,-4.289951233561234
1.802500000000009,-1.0109662612544474,-0.4634041150262664,-4.252665764750879
1.806000000000012,-1.122822667685512,-0.38350643252847,-4.213249248923839
1.809500000000014,-1.2027203501833084,-0.3249157295390203,-4.175963780113484
1.8130000000000168,-1.2762248916310497,-0.2716500260974054,-4.149331801057303
1.816500000000019,-1.353991527112161,-0.1960144376329791,-4.128024821548957
1.8200000000000216,-1.3987347878162877,-0.136357338470561,-4.129091217721925
1.823500000000024,-1.4669143297161942,-0.0543303542853314,-4.137613660459413
1.8269999999999984,-1.525505032705644,0.0063913957208032,-4.15039645190102
1.830500000000001,-1.6075337622201251,0.0820287295144815,-4.157854243794791
1.8340000000000032,-1.658666673315803,0.1406194325039311,-4.140809358319815
1.8375000000000057,-1.7268462152157096,0.1970790884766957,-4.096066097615688
1.841000000000008,-1.735368657953198,0.2301042085829324,-4.060911675822019
1.844500000000011,-1.6906253972490712,0.2929570056057522,-4.021495159994979
1.8480000000000127,-1.624578647695102,0.3387649171535954,-4.006581321536687
1.851500000000016,-1.504199798526549,0.3717882919305801,-4.018299462134577
1.8550000000000184,-1.3923433920954844,0.4058780628805333,-4.04067109248664
1.8585000000000207,-1.2506593087478366,0.4325100419367148,-4.058780628805333
1.8620000000000232,-1.1931332566021038,0.4175962034784233,-4.067303071542821
1.8654999999999973,-1.095126037785614,0.3898978282492732,-4.0438667903470416
1.869,-1.0173594023045027,0.369657244913895,-4.035344347609554
1.8725000000000025,-0.905502995873438,0.3494166615785167,-4.060911675822019
1.8760000000000048,-0.8415838026776498,0.397355620143045,-4.12696017070524
1.8795000000000075,-0.7925801932694049,0.5816519171781342,-4.303800421175809
1.8830000000000096,-0.7510343757549319,0.7797974018277984,-4.464660437015119
1.8865000000000125,-0.709488558240459,1.083406151858472,-4.704351739179256
1.8900000000000148,-0.6753987872905056,1.361449319005933,-4.906757572533039
1.8935000000000173,-0.6221330838488908,1.7609359861656628,-5.181605041820097
1.89700000000002,-0.5241258650324012,2.0975698563025733,-5.371228083732273
1.9005000000000225,-0.2929570056057522,2.4991858251497363,-5.600265896142237
1.9040000000000248,-0.1075943123976944,2.803860971353379,-5.769648354719035
1.9074999999999989,0.2087989744038376,3.271527180413015,-5.961402443647896
1.9110000000000011,0.4932317919428495,3.6092257013936417,-6.05301652141433
1.914500000000004,0.8522372924318231,3.955446665111757,-6.081779547487197
1.9180000000000064,1.1696952300770718,4.155723196778107,-5.997621516285282
1.9215000000000089,1.629903647242937,4.317647863461133,-5.789888938054413
1.9250000000000116,1.931383095586177,4.364522171181944,-5.588547755544347
1.9285000000000136,2.266952314879371,4.289951233561234,-5.26256737516161
1.9320000000000164,2.445921867037373,4.109915285230263,-4.9887863020475205
1.9355000000000189,2.532210945255973,3.747714086880888,-4.614866963100255
1.9390000000000212,2.457640007635263,3.40681986803986,-4.347477285706967
1.942500000000024,2.2051641687002674,2.8635180705157968,-4.006581321536687
1.945999999999998,1.920729605832004,2.448052914054059,-3.775412462110038
1.9495000000000005,1.4019304856766894,1.8695966947363256,-3.513349529593837
1.953000000000003,0.9715514907566596,1.390212345078799,-3.3066816022066847
1.9565000000000052,0.397355620143045,0.7787327509840819,-3.0094642478968145
1.960000000000008,0.0042603487041181,0.3536787556118869,-2.746334919207645
1.9635000000000105,-0.4165315526347067,-0.2247774637058457,-2.308498132393844
1.967000000000013,-0.6370469223071823,-0.6572875056425604,-1.917533907971602
1.9705000000000157,-0.7989733343194602,-1.1718262770937566,-1.3465354805476413
1.974000000000018,-0.847976943727705,-1.5031334023535805,-0.9300039279129344
1.9775000000000205,-0.820278568498555,-1.8909019289154203,-0.3600701513326901
1.981000000000023,-0.7563611206320187,-2.1252682315317237,0.041545817514473
1.9845000000000252,-0.6849858808717105,-2.3937225597687277,0.5550199381219528
1.9879999999999995,-0.630655526586379,-2.506643617043508,0.9268082300525328
1.991500000000002,-0.605088198373914,-2.6238267683516594,1.3934080429392008
1.9950000000000043,-0.6370469223071823,-2.686679565374479,1.7620006370093797
1.998500000000007,-0.6359822714634658,-2.658981190145329,2.248842778560677
2.002000000000009,-0.6093502924072843,-2.564169669189241,2.596128393122509
2.005500000000012,-0.5763251723010476,-2.408636398227019,3.028638435059224
2.0090000000000146,-0.5401060996636612,-2.2680169657230875,3.305616951362968
2.012500000000017,-0.5390397034906926,-2.044304152860958,3.599638607812437
2.01600000000002,-0.5720648235969293,-1.873857043440444,3.7658253685288328
2.019500000000022,-0.6338512244467807,-1.6714512100866616,3.940532826653466
2.023000000000025,-0.6785944851509074,-1.5404188711639353,4.0417357433303565
2.026499999999998,-0.7680792612299085,-1.3721028087601062,4.144005056180216
2.030000000000001,-0.8224096155152401,-1.1750219749541586,4.167441337375997
2.033500000000004,-0.861824386013028,-0.9193504381587612,4.190877618571776
2.037000000000006,-0.8841960163650913,-0.7116178599278921,4.205793202359319
2.0405000000000086,-0.8405191518339332,-0.3526141047681703,4.213249248923839
2.044000000000011,-0.7872551937215703,-0.0958761717998045,4.211118201907155
2.0475000000000136,-0.7318584432632703,0.1651203645434275,4.210053551063438
2.051000000000016,-0.6743323911175372,0.3259803803827369,4.202595759169666
2.054500000000018,-0.5986968026531109,0.4825800475179281,4.170637035236398
2.058000000000021,-0.5752605214573311,0.5507578440885826,4.151462848073988
2.061500000000024,-0.5688691257365278,0.6200020368322057,4.118437727967751
2.0649999999999977,-0.5709984274239609,0.628524479569694,4.129091217721925
2.0685,-0.547562146228181,0.5571509851386378,4.196204363448863
2.0720000000000027,-0.4974938859762197,0.464468765869983,4.277166696790376
2.075500000000005,-0.3888331774055567,0.3249157295390203,4.376240311779834
2.079000000000008,-0.2844345628682639,0.180035948330971,4.463594040842151
2.0825000000000102,-0.1331616406101593,-0.0500682602519613,4.598886728468995
2.0860000000000127,0.0010646508437165,-0.2503447919183106,4.723527671670917
2.0895000000000152,0.1651203645434275,-0.5816519171781342,4.937651645622591
2.0930000000000177,0.316393286801532,-0.8394545009902167,5.138992828132657
2.09650000000002,0.5933700577760241,-1.1473253450542604,5.4287523905487545
2.1000000000000227,0.8394545009902167,-1.3476001313913577,5.6332910162484735
2.103500000000025,1.1984582561499384,-1.536158522459817,5.845283943183461
2.1069999999999998,1.4818281681744856,-1.6639934181928897,5.965662792352014
2.110500000000002,1.7758498246239545,-1.792894710098931,6.04129838081644
2.1140000000000043,1.901555418669594,-1.8429629703508923,6.050887219726897
2.117500000000007,1.9612107725027603,-1.8642699498592392,6.024253495341464
2.1210000000000093,1.881314835334216,-1.8557475071217504,5.994425818424881
2.124500000000012,1.6288389963992198,-1.772654126763553,5.964598141508298
2.1280000000000143,1.407257230553776,-1.6469485327179132,5.9550093025978414
2.131500000000017,1.1025820843501335,-1.4179107203079493,5.936899766279147
2.1350000000000198,0.861824386013028,-1.2400058189936634,5.888960807714619
2.138500000000022,0.5315836569261729,-1.0248154488690224,5.7664526568586325
2.1420000000000243,0.2972173543098703,-0.8277363603923268,5.63435566709219
2.1454999999999984,0.0255673282124649,-0.5891097090719061,5.41170925040303
2.149000000000001,-0.1565979218059392,-0.464468765869983,5.256174234111556
2.1525000000000034,-0.3345028231202252,-0.3334381722765087,5.069748635389033
2.156000000000006,-0.3877685265618402,-0.247149094057909,4.96108792681837
2.1595000000000084,-0.3472873598910836,-0.1576643179789077,4.841773728493534
2.163000000000011,-0.247149094057909,-0.1257055940456395,4.749093254554131
2.1665000000000134,-0.1012029166768912,-0.1033339636935762,4.591428936575223
2.170000000000016,-0.0202405833353782,-0.0916158230956863,4.4209818271547086
2.1735000000000184,0.0447432607041266,-0.0564614013020165,4.18981296772806
2.177000000000021,0.0671131457269379,-0.0213052341790947,4.009777019397089
2.1805000000000234,0.0788312863248278,-0.0394165158270399,3.793521998428731
2.183999999999997,0.1171831513081512,-0.0724398906040246,3.675274196276863
2.1875,0.2556715367953973,-0.0948115209560879,3.5367858107896173
2.1910000000000025,0.4314453910929982,-0.096942567972773,3.4419742898335293
2.194500000000005,0.725467047542467,-0.1331616406101593,3.298159159469196
2.1980000000000075,0.9246771830358478,-0.1438151303643327,3.156475076121549
2.20150000000001,1.0887328967355587,-0.096942567972773,2.9423493568406247
2.2050000000000125,1.1356072044563703,-0.02769837522915,2.780424690157598
2.208500000000015,1.1004510373334488,0.0724398906040246,2.5908016482454226
2.212000000000017,1.009901610410731,0.1576643179789077,2.464031403356066
2.21550000000002,0.8373234539735316,0.2716500260974054,2.321282669164702
2.2190000000000225,0.723336000525782,0.3622011983493752,2.2381892888065043
2.222500000000025,0.6082838962343158,0.4932317919428495,2.154031257604589
2.225999999999999,0.5603466829990394,0.5891097090719061,2.1082233460567465
2.2295000000000016,0.5241258650324012,0.670072042413419,2.0666757832130216
2.233000000000004,0.519865516328283,0.7062911150508053,2.0293903144026664
2.2365000000000066,0.4900360940824479,0.6998997193300021,1.9484279810611536
2.240000000000009,0.4761869064678729,0.697768672313317,1.8802484391612475
2.243500000000012,0.5006895838366213,0.6604849488322142,1.7875679652218444
2.247000000000014,0.5891097090719061,0.6402426201675839,1.7406954028302846
2.2505000000000166,0.8394545009902167,0.6359822714634658,1.6991478399865596
2.254000000000019,1.0876682458918423,0.5944364539489927,1.6607977203324882
2.2575000000000216,1.432824558766241,0.5049499325407395,1.573443991270172
2.261000000000024,1.629903647242937,0.4335764381096833,1.4615875848391076
2.264499999999998,1.7843722673614426,0.341960615013997,1.2740955899436164
2.2680000000000007,1.7971568041323012,0.2844345628682639,1.1143002249480238
2.271500000000003,1.658666673315803,0.1970790884766957,0.8703468287505163
2.2750000000000057,1.453065142101619,0.1203788491685528,0.6935083236091989
2.278500000000008,1.1036484805231024,0.013849187614575,0.4506213235846599
2.2820000000000107,0.8149518236214683,-0.0767019846373948,0.2801724688348938
2.285500000000013,0.4484902765679749,-0.2343645572870505,0.0330233747769847
2.289000000000016,0.2087989744038376,-0.3728546881035486,-0.1747092034538843
2.292500000000018,-0.0660484948832214,-0.5401060996636612,-0.4953628389595346
2.2960000000000207,-0.2087989744038376,-0.7020307663466872,-0.7840577505319166
2.299500000000023,-0.3909642244222418,-0.8991098548233829,-1.203785001027025
2.3029999999999973,-0.5358440056302911,-1.000314516829526,-1.5521370117618252
2.3065,-0.7222713496820654,-1.1750219749541586,-2.034717059279753
2.3100000000000023,-0.8884581103984615,-1.261311053172758,-2.4075717473833023
2.3135000000000048,-1.134540808283402,-1.3486665275643264,-2.930631216242735
2.3170000000000077,-1.3039232668601997,-1.4189753711516655,-3.316268695787889
2.3205000000000098,-1.4871549130515724,-1.421106418168351,-3.844656654853661
2.3240000000000123,-1.5585301528118805,-1.3934080429392008,-4.230294134398815
2.327500000000015,-1.506329100213982,-1.3156414074580896,-4.724592322514635
2.3310000000000173,-1.374233855776791,-1.25705070446864,-5.093184916584812
2.33450000000002,-1.144129647193859,-1.111104527087622,-5.59493915126515
2.3380000000000223,-0.9118943915942412,-0.9374617198067065,-5.939030813295833
2.341500000000025,-0.6690056462404504,-0.6828548338550254,-6.3449088761763655
2.344999999999999,-0.4346410889533998,-0.5795208701614492,-6.555837152267637
2.3485000000000014,-0.1374237346435295,-0.4133358547743051,-6.745460194179812
2.352000000000004,0.0191759324916617,-0.2737810731140905,-6.862643345487963
2.3555000000000064,0.2322352555996175,-0.1406194325039311,-6.947866027533594
2.359000000000009,0.4069427137242498,-0.0596570991624181,-6.955323819427367
2.362500000000012,0.602958896686481,0.0607217500061347,-6.930821142058619
2.366000000000014,0.6881815787321122,0.1310323389227262,-6.923365095494098
2.3695000000000164,0.697768672313317,0.2077325782308691,-6.890339975387862
2.373000000000019,0.6615495996759307,0.2546051406224288,-6.836011366431782
2.3765000000000214,0.5731294744406459,0.3078708440640437,-6.709239376213174
2.380000000000024,0.4911024902554164,0.3313071252598236,-6.598449365955078
2.383499999999998,0.3579391043160051,0.3270467765557054,-6.422675511657477
2.3870000000000005,0.2396913021641372,0.3153286359578155,-6.282056079153546
2.390500000000003,0.0873537290623162,0.2908259585890671,-6.125458157347607
2.394000000000005,-0.0532657034416149,0.2599318854995155,-6.026384542358149
2.397500000000008,-0.316393286801532,0.2269085107225308,-5.926248021854225
2.4010000000000105,-0.5507578440885826,0.2322352555996175,-5.844219292339745
2.404500000000013,-0.8564993864651933,0.2205171150017275,-5.721709396154506
2.4080000000000155,-1.0578405689752592,0.2109282760912707,-5.606657291863041
2.411500000000018,-1.2772912878040183,0.2279731615662473,-5.480953443146653
2.4150000000000205,-1.3880812980621142,0.2791078179911772,-5.4181006461238335
2.418500000000023,-1.455196189118304,0.3909642244222418,-5.409578203386345
2.422000000000025,-1.460522933995391,0.4868403962220463,-5.446863672196699
2.4254999999999995,-1.3752985066205077,0.6231994800218592,-5.538479495292386
2.429000000000002,-1.23361442327286,0.7222713496820654,-5.599201245298521
2.4325000000000045,-0.8937848552755481,0.9023072980130364,-5.645009156846364
2.436000000000007,-0.5241258650324012,1.014161959114849,-5.643942760673395
2.439500000000009,0.0681795418999064,1.0866035950481256,-5.624768573510986
2.443000000000012,0.5390397034906926,1.1430632510208902,-5.626897875198418
2.4465000000000146,1.108973480070937,1.2602464023290416,-5.648204854706765
2.450000000000017,1.448803048068249,1.3188371053184913,-5.676967880779632
2.45350000000002,1.7321729600927964,1.3657114130393029,-5.707860208539931
2.457000000000022,1.7577402883052613,1.390212345078799,-5.75579916710446
2.460500000000025,1.502068751509864,1.412583975430863,-5.849546037216831
2.463999999999998,1.1164312719647087,1.4722410745932808,-5.9667274431957305
2.467500000000001,0.3898978282492732,1.5287007305660454,-6.145698740682985
2.471000000000004,-0.2535404897787122,1.490350610911974,-6.290578521891034
2.474500000000006,-1.1707616262500404,1.413648626274579,-6.484461912507329
2.4780000000000086,-1.7683920327301823,1.3039232668601997,-6.5995140167987945
2.481500000000011,-2.402245002506215,1.1696952300770718,-6.715632517263229
2.4850000000000136,-2.654719096111959,1.083406151858472,-6.7646361266714745
2.488500000000016,-2.5684300178933595,0.8927184591025796,-6.733742053581922
2.492000000000018,-2.2179487054711258,0.7552947244590501,-6.684738444173678
2.495500000000021,-1.4360202566266425,0.6636806466926157,-6.609102855709251
2.499000000000024,-0.6924436727654824,0.5784562193177326,-6.53879226679266
2.5024999999999977,0.3717882919305801,0.4175962034784233,-6.363018412495059
2.506,1.2112427929207967,0.3398295679973119,-6.173395370582883
2.5095000000000027,2.282930804181379,0.247149094057909,-5.834630453429288
2.513000000000005,3.036096226952996,0.1747092034538843,-5.513976817923637
2.516500000000008,3.9352060817763785,0.1012029166768912,-5.027136421701592
2.5200000000000102,4.4625293899984335,0.0809623333415129,-4.648954988720956
2.5235000000000127,4.938716296466307,0.0330233747769847,-4.137613660459413
2.5270000000000152,5.08253142683064,-0.0106534897541733,-3.7509097847412898
2.5305000000000177,4.994111301595354,-0.0106534897541733,-3.2779185761338185
2.53400000000002,4.709678484056343,-0.013849187614575,-2.9380890081365063
2.5375000000000227,4.096066097615688,-0.013849187614575,-2.4842719866914447
2.541000000000025,3.505891737700066,-0.0085224427374883,-2.1519002105879044
2.5444999999999998,2.6067818828766827,-0.0372854688103548,-1.7087366788970164
2.548000000000002,1.922860652848689,-0.0937468701123714,-1.3710364125871377
2.5515000000000043,1.0344025424502272,-0.205601531214184,-0.9491798604045962
2.555000000000007,0.3909642244222418,-0.2929570056057522,-0.6743323911175372
2.5585000000000093,-0.3877685265618402,-0.4900360940824479,-0.3036087500306735
2.562000000000012,-0.8799356676609732,-0.6817901830113089,-0.0117181405978899
2.5655000000000143,-1.3593182719892478,-0.8415838026776498,0.3760503859639502
2.569000000000017,-1.5521370117618252,-0.944917766371226,0.670072042413419
2.5725000000000198,-1.654406324611685,-1.1206916206688269,1.0684923134001805
2.576000000000022,-1.603271668186755,-1.2666377980498449,1.3657114130393029
2.5795000000000243,-1.397670136972571,-1.3880812980621142,1.7364333087969146
2.5829999999999984,-1.1728926732667255,-1.4381513036433275,1.9899755439048787
2.586500000000001,-0.7872551937215703,-1.486088516878604,2.340456856327112
2.5900000000000034,-0.4825800475179281,-1.4935463087723757,2.613173278597486
2.593500000000006,-0.1012029166768912,-1.432824558766241,2.9647209871926883
2.5970000000000084,0.1832316461913727,-1.332686292933066,3.2406331073234638
2.600500000000011,0.4676662090596366,-1.1910022095854185,3.593247212091634
2.6040000000000134,0.5944364539489927,-1.083406151858472,3.830807467239086
2.607500000000016,0.6530271569384424,-0.9204168343317296,4.097132493788656
2.6110000000000184,0.6221330838488908,-0.8000379851631767,4.250534717734194
2.614500000000021,0.4953628389595346,-0.6562228547988439,4.410330082729787
2.6180000000000234,0.3749839897909817,-0.5187991201553145,4.493421717758733
2.621499999999997,0.2109282760912707,-0.2982837504828389,4.566928004535726
2.625,0.1097253594143795,-0.1395530363309626,4.609540218223168
2.6285000000000025,-0.0223716303520633,0.069244192743623,4.610604869066885
2.632000000000005,-0.1534022239455376,0.2407576983371057,4.563732306675325
2.6355000000000075,-0.3323735214327921,0.4612730680095813,4.459333692138032
2.63900000000001,-0.4942981881158181,0.5496931932448661,4.379436009640235
2.6425000000000125,-0.7297291415758372,0.6871169278883955,4.300602977986156
2.646000000000015,-0.8373234539735316,0.8266699642193582,4.2878201865445495
2.649500000000017,-0.8959141569629812,0.9140254386109264,4.346410889533999
2.65300000000002,-0.8884581103984615,0.9534402091087144,4.42843961904848
2.6565000000000225,-0.8660864800463982,0.9640936988628878,4.529642535725372
2.660000000000025,-0.8309320582527283,0.9300039279129344,4.62445405668146
2.663499999999999,-0.767014610386192,0.820278568498555,4.768269187045792
2.6670000000000016,-0.6924436727654824,0.7084221620674903,4.899301525968518
2.670500000000004,-0.5326483077698895,0.5251905158761178,5.113425499920191
2.6740000000000066,-0.3771150368076668,0.3877685265618402,5.287068307201106
2.677500000000009,-0.1448797812080492,0.2183860679850424,5.538479495292386
2.681000000000012,0.0511346564249298,0.0756355884644262,5.725971490187877
2.684500000000014,0.2801724688348938,-0.0745709376207097,5.927312672697942
2.6880000000000166,0.4069427137242498,-0.1235745470289545,6.038102682956039
2.691500000000019,0.5454328445407479,-0.1512729222581045,6.140371995805899
2.6950000000000216,0.6338512244467807,-0.166186760716396,6.187244558197458
2.698500000000024,0.6722030894301041,-0.1235745470289545,6.208551537705804
2.701999999999998,0.6519625060947258,-0.0426122136874415,6.20215839665575
2.7055000000000007,0.6040235475301975,0.0745709376207097,6.233052469745301
2.709000000000003,0.5624759846864725,0.1885583910684593,6.262880146661884
2.7125000000000057,0.4825800475179281,0.2972173543098703,6.311883756070129
2.716000000000008,0.4101401569139035,0.3749839897909817,6.349169224880484
2.7195000000000107,0.2844345628682639,0.5848476150385359,6.363018412495059
2.723000000000013,0.166186760716396,0.7467722817215618,6.371540855232547
2.726500000000016,-0.0703088435873395,0.8980452039796664,6.387521089863808
2.730000000000018,-0.3110665419244454,0.9949877719524394,6.402434928322099
2.7335000000000207,-0.6711366932571355,1.051447427925204,6.419479813797076
2.737000000000023,-0.9758118394607777,1.0695587095731491,6.438654000959485
2.7404999999999973,-1.3252302463685464,1.0759501052939522,6.458894584294864
2.744,-1.476501423297399,1.032273240762794,6.4919197044011
2.7475000000000023,-1.5116558450910689,0.9023072980130364,6.520682730473967
2.7510000000000048,-1.399799438660004,0.7968422873027752,6.528140522367738
2.7545000000000077,-1.106844178383504,0.7030954171904037,6.494050751417785
2.7580000000000098,-0.8405191518339332,0.616806338971804,6.420544464640792
2.7615000000000123,-0.4879067923950148,0.480449000501243,6.277795730449427
2.765000000000015,-0.2599318854995155,0.3739193389472651,6.144632344510017
2.7685000000000173,-0.0521993072686464,0.2599318854995155,5.935835115435431
2.77200000000002,0.055395005129048,0.2183860679850424,5.7664526568586325
2.7755000000000223,0.1310323389227262,0.1565979218059392,5.53208635424233
2.779000000000025,0.1544686201185061,0.1033339636935762,5.356312499944729
2.782499999999999,0.152337573101821,0.110790010258096,5.0953159636014975
2.7860000000000014,0.1374237346435295,0.1395530363309626,4.900366176812235
2.789500000000004,0.0873537290623162,0.1821652500184041,4.625518707525176
2.7930000000000064,-0.02769837522915,0.233299906443334,4.387958452377724
2.796500000000009,-0.2535404897787122,0.2823035158515788,4.067303071542821
2.800000000000012,-0.3984202709867616,0.3259803803827369,3.858505842468236
2.803500000000014,-0.4708619069200382,0.4037470158638482,3.631597331745705
2.8070000000000164,-0.4271832970596281,0.4602084171658648,3.4920425500854906
2.810500000000019,-0.2109282760912707,0.5624759846864725,3.3152040449441733
2.8140000000000214,0.0362208179666383,0.6572875056425604,3.1831070551777305
2.817500000000024,0.4239875991992265,0.8149518236214683,3.010528898740531
2.820999999999998,0.709488558240459,0.9598333501587696,2.8944121436053485
2.8245000000000005,1.0258800997127389,1.1057777822105357,2.782555737174284
2.828000000000003,1.1952625582895369,1.196328954462505,2.723965034184834
2.831500000000005,1.3689071108997044,1.2996629181560817,2.671763981586936
2.835000000000008,1.450934095084934,1.361449319005933,2.6398052576536672
2.8385000000000105,1.486088516878604,1.407257230553776,2.5652343200329577
2.842000000000013,1.474370376280714,1.4381513036433275,2.50238326833939
2.8455000000000155,1.3923433920954844,1.464783282699509,2.386264767874956
2.849000000000018,1.2687688450665298,1.4381513036433275,2.279735106320977
2.8525000000000205,1.045056032204401,1.3593182719892478,2.1316596272525263
2.856000000000023,0.8607597351693115,1.2772912878040183,2.017672173804777
2.859500000000025,0.670072042413419,1.144129647193859,1.9186003041445707
2.8629999999999995,0.6040235475301975,1.0173594023045027,1.8642699498592392
2.866500000000002,0.6242641308655758,0.7712749590903102,1.7737187776072691
2.8700000000000045,0.6785944851509074,0.5848476150385359,1.6714512100866616
2.873500000000007,0.7989733343194602,0.4293143440763132,1.482892819018202
2.877000000000009,0.889522761242178,0.3376985209806268,1.3092500117372865
2.880500000000012,0.9534402091087144,0.1853609478788057,1.0525138240981724
2.8840000000000146,0.9395927668233912,0.0724398906040246,0.8511726415881066
2.887500000000017,0.8735442719401699,-0.0479389585645282,0.5901743599156226
2.89100000000002,0.80642938088398,-0.136357338470561,0.4048134120368167
2.894500000000022,0.7030954171904037,-0.258867234655799,0.1672514115601126
2.898000000000025,0.6253287817092923,-0.3313071252598236,-0.0330233747769847
2.901499999999998,0.5230612141886847,-0.3685925940701784,-0.3259803803827369
2.905000000000001,0.4676662090596366,-0.4144005056180216,-0.5624759846864725
2.908500000000004,0.4197272504951083,-0.4538170214450616,-0.8937848552755481
2.912000000000006,0.3867021303888716,-0.452750625272093,-1.1419986001771738
2.9155000000000086,0.3749839897909817,-0.4548816722887781,-1.4882195638952889
2.919000000000011,0.3909642244222418,-0.4506213235846599,-1.7343040071094815
2.9225000000000136,0.4602084171658648,-0.4293143440763132,-2.070937877246392
2.926000000000016,0.5582156359823544,-0.3909642244222418,-2.3223473200084186
2.929500000000018,0.727598094559152,-0.3643322453660603,-2.664307935022416
2.933000000000021,0.8863270633817765,-0.341960615013997,-2.9146527269407265
2.936500000000024,1.106844178383504,-0.3057397970473587,-3.2480908992172357
2.9399999999999977,1.2410704698373798,-0.2695207244099723,-3.5048270868563494
2.9435,1.3870166472183978,-0.1789695521580025,-3.831873863412054
2.9470000000000027,1.453065142101619,-0.1075943123976944,-4.063042722838703
2.950500000000005,1.4669143297161942,-0.0564614013020165,-4.370913566902747
2.954000000000008,1.413648626274579,-0.0191759324916617,-4.590364285731507
2.9575000000000102,1.3017922198435146,-0.0053267448770866,-4.873734197756053
2.9610000000000127,1.2005893031666235,-0.0063913957208032,-5.066552937528631
2.9645000000000152,1.0525138240981724,-0.0181095363186931,-5.317962380290658
2.9680000000000177,0.9491798604045962,-0.0383501196540714,-5.489475885884141
2.97150000000002,0.8607597351693115,-0.1012029166768912,-5.698273114958727
2.9750000000000227,0.8074957770569485,-0.1555332709622227,-5.853806385920949
2.978500000000025,0.7680792612299085,-0.2109282760912707,-6.055147568431015
2.9819999999999998,0.6860505317154271,-0.2322352555996175,-6.194702350091229
2.985500000000002,0.6072192453905992,-0.3195889846619337,-6.325732943684704
2.9890000000000043,0.5134723752782278,-0.3611348021764067,-6.388585740707524
2.992500000000007,0.3270467765557054,-0.4719265577637547,-6.448242839869943
2.9960000000000093,0.1789695521580025,-0.561411333842756,-6.450373886886627
2.999500000000012,0.0639174478665363,-0.6594185526592456,-6.387521089863808
3.0030000000000143,0.0170448854749766,-0.7467722817215618,-6.326797594528421
3.006500000000017,0.002131047016685,-0.8607597351693115,-6.268206891538971
3.0100000000000198,0.0181095363186931,-0.9438531155275096,-6.22559467785153
3.013500000000022,0.041545817514473,-1.0407956835002825,-6.195767000934946
3.0170000000000243,0.0255673282124649,-1.0993863864897322,-6.188310954370427
3.0204999999999984,-0.0713752397603081,-1.1174959228084254,-6.154221183420473
3.024000000000001,-0.219450718828759,-1.083406151858472,-6.116933969280866
3.0275000000000034,-0.508147375730393,-1.0248154488690224,-6.02958024021855
3.031000000000006,-0.7222713496820654,-0.9768764903044942,-5.940095464139549
3.0345000000000084,-0.9577023031420844,-0.8596950843255949,-5.821847661987681
3.038000000000011,-1.092994990768929,-0.7361205372966404,-5.770713005562751
3.0415000000000134,-1.2304187254124583,-0.5358440056302911,-5.77923544830024
3.045000000000016,-1.326294897212263,-0.4058780628805333,-5.8612641778147205
3.0485000000000184,-1.5010041006661472,-0.2311688594266489,-6.02958024021855
3.052000000000021,-1.649079579734598,-0.0905494269227178,-6.17872211545997
3.0555000000000234,-1.8536164601050655,0.0468725623915597,-6.365149459511744
3.058999999999997,-1.9644082156924136,0.0948115209560879,-6.466352376188636
3.0625,-1.994235892608997,0.0862890782185996,-6.577144131775984
3.0660000000000025,-1.9271227468820589,0.0447432607041266,-6.644257277502922
3.069500000000005,-1.6416217878408266,0.0308940730895516,-6.745460194179812
3.0730000000000075,-1.2772912878040183,0.0213052341790947,-6.829618225381727
3.07650000000001,-0.709488558240459,0.0117181405978899,-6.9659773091815405
3.0800000000000125,-0.2396913021641372,0.0245026773687483,-7.072506970735518
3.083500000000015,0.3728546881035486,0.0713752397603081,-7.207799658362362
3.087000000000017,0.7680792612299085,0.0926804739394028,-7.291957689564277
3.09050000000002,1.2091117459041116,0.0894847760790012,-7.338830251955836
3.0940000000000225,1.4370849074703589,0.0500682602519613,-7.340961298972522
3.097500000000025,1.5287007305660454,0.0308940730895516,-7.2994137361287965
3.100999999999999,1.4626522356828238,0.0532657034416149,-7.202472913485275
3.1045000000000016,1.2527886104352697,0.0575260521457331,-6.956388470271084
3.108000000000004,1.0525138240981724,0.0575260521457331,-6.684738444173678
3.1115000000000066,0.7925801932694049,0.0564614013020165,-6.237312818449419
3.115000000000009,0.5603466829990394,0.0735062867769931,-5.906005693189596
3.118500000000012,0.2482137449016255,0.0564614013020165,-5.493736234588259
3.122000000000014,0.0383501196540714,0.0191759324916617,-5.228477604211657
3.1255000000000166,-0.177904901314286,-0.0095870935812048,-4.947238739203795
3.129000000000019,-0.2418223491808223,-0.041545817514473,-4.778922676799965
3.1325000000000216,-0.1672514115601126,-0.1118564064310645,-4.560536608814924
3.136000000000024,-0.0245026773687483,-0.1789695521580025,-4.398611942131897
3.139499999999998,0.2631275833599171,-0.2343645572870505,-4.174899129269768
3.1430000000000007,0.5209301671719996,-0.2854992137119804,-4.001256321988852
3.146500000000003,0.84584589671102,-0.3856374795451551,-3.749845133897573
3.1500000000000057,1.0876682458918423,-0.480449000501243,-3.5538306962645936
3.153500000000008,1.3273595480559794,-0.6093502924072843,-3.3141393941004567
3.1570000000000107,1.4157796732912642,-0.6583539018155291,-3.146887982540344
3.160500000000013,1.453065142101619,-0.6945729744529154,-2.89760784146575
3.164000000000016,1.412583975430863,-0.7361205372966404,-2.648327700391156
3.167500000000018,1.290074079245625,-0.7936465894423735,-2.2584298721418827
3.1710000000000207,1.1185623189813938,-0.80642938088398,-1.9377744913069803
3.174500000000023,0.80642938088398,-0.8043000791965469,-1.455196189118304
3.1779999999999973,0.5539552872782363,-0.8021690321798618,-1.063165568523094
3.1815,0.1342280367831279,-0.8426501988506182,-0.5283879590657713
3.1850000000000023,-0.1970790884766957,-0.889522761242178,-0.1289012919060412
3.1885000000000048,-0.6455693650446706,-0.9310703240859032,0.3781796876513833
3.1920000000000077,-0.9662247458795729,-0.9491798604045962,0.7542300736153336
3.1955000000000098,-1.286878381385223,-0.9651583497066044,1.2432015168540649
3.1990000000000123,-1.4733057254369972,-0.956635906969116,1.5947492254492668
3.202500000000015,-1.6948874912824414,-0.9236125321921312,2.0048893823631704
3.2060000000000173,-1.795025757115616,-0.921481485175446,2.3223473200084186
3.20950000000002,-1.841898319507176,-0.9001762509963515,2.702658054676488
3.2130000000000223,-1.816330991294711,-0.8714132249234848,2.973243429930176
3.216500000000025,-1.6874296993886695,-0.8277363603923268,3.301354857329598
3.219999999999999,-1.498873053649462,-0.7787327509840819,3.548503951387507
3.2235000000000014,-1.1814151160042137,-0.709488558240459,3.856374795451551
3.227000000000004,-0.9491798604045962,-0.614677037284371,4.0566513271179
3.2305000000000064,-0.6402426201675839,-0.3856374795451551,4.27610204594666
3.234000000000009,-0.4293143440763132,-0.1832316461913727,4.4060679886964165
3.237500000000012,-0.2151903701246408,0.0543303542853314,4.552014166077434
3.241000000000014,-0.1171831513081512,0.2109282760912707,4.620193707977341
3.2445000000000164,-0.0703088435873395,0.3877685265618402,4.662804176335531
3.248000000000019,-0.1001382658331746,0.4729912086074713,4.673457666089704
3.2515000000000214,-0.2556715367953973,0.5358440056302911,4.675588713106389
3.255000000000024,-0.4069427137242498,0.561411333842756,4.678784410966791
3.258499999999998,-0.586978662055221,0.533712958613606,4.711807785743776
3.2620000000000005,-0.7169446048049787,0.4463592295512898,4.726723369531319
3.265500000000003,-0.8628907821859965,0.2908259585890671,4.727788020375035
3.269000000000005,-0.9555712561253994,0.152337573101821,4.680915457983477
3.272500000000008,-1.0866035950481256,-0.0628527970228197,4.59675568145231
3.2760000000000105,-1.1846108138646152,-0.2439533961975074,4.542425327166978
3.279500000000013,-1.25705070446864,-0.4889714432387313,4.50301055666919
3.2830000000000155,-1.2250919805353715,-0.6583539018155291,4.529642535725372
3.286500000000018,-1.0642319646960623,-0.8426501988506182,4.606344520362766
3.2900000000000205,-0.8501062454151381,-0.9715514907566596,4.671326619073018
3.293500000000023,-0.5060163287137079,-1.1356072044563703,4.779987327643682
3.297000000000025,-0.2418223491808223,-1.1569124386354652,4.847100473370619
3.3004999999999995,0.0255673282124649,-1.081276850171039,4.916346411443495
3.304000000000002,0.1139874534477496,-1.022684401852337,4.981328510153748
3.3075000000000045,0.1022693128498597,-0.944917766371226,5.120881546484711
3.311000000000007,0.0585907029894496,-0.9150900894546428,5.265763073022012
3.314500000000009,-0.01598023463126,-0.8937848552755481,5.490540536727857
3.318000000000012,-0.0351544217936697,-0.8671511308901148,5.639682411969277
3.3215000000000146,-0.0063913957208032,-0.7936465894423735,5.796280333775216
3.325000000000017,0.0074577918937717,-0.7286627454028686,5.852741735077233
3.32850000000002,0.0106534897541733,-0.6508961099217573,5.893222901747989
3.332000000000022,0.0,-0.5955011047927092,5.9155945321000525
3.335500000000025,-0.0756355884644262,-0.5539552872782363,5.950748953893723
3.338999999999998,-0.1683160624038291,-0.5560845889656694,5.985903375687392
3.342500000000001,-0.3494166615785167,-0.6157416881280875,6.010404307726888
3.346000000000004,-0.4879067923950148,-0.697768672313317,6.026384542358149
3.349500000000006,-0.5891097090719061,-0.8426501988506182,6.040233729972724
3.3530000000000086,-0.630655526586379,-0.9257435792088164,6.01786209962066
3.356500000000011,-0.5805872663344177,-1.0365335894669123,5.976316282106188
3.3600000000000136,-0.4740576047804398,-1.1611727873395834,5.926248021854225
3.363500000000016,-0.3185243338182171,-1.254919657451955,5.827174406864768
3.367000000000018,-0.1960144376329791,-1.2240255843624033,5.718513698294105
3.370500000000021,-0.0649838440395048,-1.1899375587417018,5.55552263543811
3.374000000000024,0.0,-1.2005893031666235,5.433014484582124
3.3774999999999977,0.0394165158270399,-1.1792840689875286,5.241260395653264
3.381,0.0149138384582915,-1.1526520899313473,5.069748635389033
3.3845000000000027,-0.0234362811957798,-1.1153666211209925,4.841773728493534
3.388000000000005,-0.0607217500061347,-1.081276850171039,4.679849061810508
3.391500000000008,-0.0500682602519613,-1.0013791676732426,4.5221847438316
3.3950000000000102,0.0394165158270399,-0.928939277069218,4.434831014769284
3.3985000000000127,0.2119946722642392,-0.8245406625319252,4.3261703061986205
3.4020000000000152,0.3536787556118869,-0.7510343757549319,4.217511342957209
3.4055000000000177,0.5315836569261729,-0.6615495996759307,4.050258186067845
3.40900000000002,0.6381133184801508,-0.5976321518093943,3.890464566401504
3.4125000000000227,0.7318584432632703,-0.4911024902554164,3.66462070652269
3.416000000000025,0.7861887975486017,-0.4431635316908882,3.4963046441188608
3.4194999999999998,0.8319967090964449,-0.4080091098972184,3.3098773000670865
3.423000000000002,0.8426501988506182,-0.3771150368076668,3.188433800054817
3.4265000000000043,0.8746089227838865,-0.3781796876513833,3.0744463466070675
3.430000000000007,0.901240901840068,-0.3749839897909817,2.994550409438523
3.4335000000000093,0.8820667146776582,-0.3653968962097769,2.860322372655395
3.437000000000012,0.8309320582527283,-0.3398295679973119,2.746334919207645
3.4405000000000143,0.727598094559152,-0.3046751462036421,2.583345601680903
3.444000000000017,0.6583539018155291,-0.2833681666952953,2.47042279907687
3.4475000000000198,0.5219948180157161,-0.2844345628682639,2.3106291794105287
3.451000000000022,0.4442281825346047,-0.3121311927681619,2.2040995178565512
3.4545000000000243,0.4101401569139035,-0.3504830577514853,2.085851715704683
3.4579999999999984,0.4175962034784233,-0.3547434064556034,2.0016936845027686
3.461500000000001,0.4836446983616446,-0.3046751462036421,1.905815767373712
3.4650000000000034,0.5560845889656694,-0.2631275833599171,1.8450940173675772
3.468500000000006,0.626395177882261,-0.1938833906162941,1.769458428903151
3.4720000000000084,0.6274598287259775,-0.1182478021518678,1.7034099340199298
3.475500000000011,0.5635423808594411,-0.0095870935812048,1.6352303921200233
3.4790000000000134,0.4964292351325031,0.0532657034416149,1.6075337622201251
3.482500000000016,0.4602084171658648,0.1438151303643327,1.6085984130638418
3.4860000000000184,0.4772533026408414,0.2205171150017275,1.5819664340076602
3.489500000000021,0.5209301671719996,0.2908259585890671,1.4978066574764937
3.4930000000000234,0.561411333842756,0.3217200316786187,1.3870166472183978
3.496499999999997,0.5795208701614492,0.3622011983493752,1.167565928389639
3.5,0.5347793547865746,0.3920288752659583,0.9651583497066044
3.5035000000000025,0.3909642244222418,0.3643322453660603,0.6466357612176391
3.507000000000005,0.2364956043037356,0.316393286801532,0.4080091098972184
3.5105000000000075,-0.0010646508437165,0.1811005991746876,0.1033339636935762
3.51400000000001,-0.1629910628559944,0.0596570991624181,-0.1075943123976944
3.5175000000000125,-0.3430252658577135,-0.0862890782185996,-0.3760503859639502
3.521000000000015,-0.4133358547743051,-0.2183860679850424,-0.5816519171781342
3.524500000000017,-0.4623394641825499,-0.4154651564617382,-0.8969805531359498
3.52800000000002,-0.4761869064678729,-0.5443664483677794,-1.176088371127127
3.5315000000000225,-0.4889714432387313,-0.6530271569384424,-1.5883578297284635
3.535000000000025,-0.503885281697023,-0.7030954171904037,-1.904751116529996
3.538499999999999,-0.5411707505073777,-0.7872551937215703,-2.330869762745907
3.5420000000000016,-0.5944364539489927,-0.8554329902922247,-2.627022466212061
3.545500000000004,-0.6604849488322142,-0.9150900894546428,-2.991354711578121
3.5490000000000066,-0.6913772765925138,-0.9321349749296196,-3.2363727586193454
3.552500000000009,-0.7105532090841755,-0.940657417667108,-3.525067670191727
3.556000000000012,-0.6945729744529154,-0.9246771830358478,-3.724277805685108
3.559500000000014,-0.6540918077821589,-0.8554329902922247,-3.961839806161812
3.5630000000000166,-0.5848476150385359,-0.7712749590903102,-4.117373077124035
3.566500000000019,-0.4580773701491797,-0.6508961099217573,-4.2867555357008325
3.5700000000000216,-0.3334381722765087,-0.5688691257365278,-4.3922188010818415
3.573500000000024,-0.1640557136997109,-0.452750625272093,-4.499814858808788
3.576999999999998,-0.0585907029894496,-0.3622011983493752,-4.574385796429499
3.5805000000000007,0.0458079115478431,-0.260998281672484,-4.657479176787696
3.584000000000003,0.096942567972773,-0.1853609478788057,-4.718199181464579
3.5875000000000057,0.0735062867769931,-0.0628527970228197,-4.814077098593636
3.591000000000008,0.0213052341790947,0.0319587239332681,-4.868407452878968
3.5945000000000107,-0.083093380358198,0.1544686201185061,-4.915280015270526
3.598000000000013,-0.2119946722642392,0.2226464166891606,-4.9259335050247
3.601500000000016,-0.4346410889533998,0.3046751462036421,-4.911017921237157
3.605000000000018,-0.5955011047927092,0.3515477085952018,-4.8641453588455965
3.6085000000000207,-0.7797974018277984,0.355809802628572,-4.785314072520769
3.612000000000023,-0.942788464683793,0.3440916620306821,-4.7554846502749335
3.615499999999997,-1.1750219749541586,0.3781796876513833,-4.735244066939556
3.619,-1.3348173399497512,0.4474238803950063,-4.740570811816642
3.6225000000000014,-1.5350921262868489,0.5230612141886847,-4.72565697335835
3.6260000000000048,-1.6757115587907798,0.5262569120490862,-4.709678484056343
3.6295000000000073,-1.8546811109487824,0.5315836569261729,-4.665999874195933
3.6330000000000098,-1.952690075094524,0.533712958613606,-4.609540218223168
3.636500000000012,-2.0016936845027686,0.5251905158761178,-4.483834624177529
3.640000000000015,-1.982517752011107,0.517734469311598,-4.366651472869377
3.643500000000017,-1.8983597208091925,0.5124077244345112,-4.215380295940525
3.64700000000002,-1.8120706425905928,0.5124077244345112,-4.124829123688555
3.6505000000000223,-1.6970185382991263,0.5560845889656694,-4.066238420699105
3.654000000000025,-1.6671891160532917,0.5731294744406459,-4.070498769403224
3.657499999999999,-1.7534781942718909,0.644504714200954,-4.1365472642864445
3.661000000000002,-1.8546811109487824,0.7680792612299085,-4.201531108325949
3.664500000000004,-2.0059540332068866,0.8778046206442881,-4.256926113454997
3.6680000000000064,-2.134855325112928,0.9257435792088164,-4.278233092963344
3.671500000000009,-2.241384986666906,1.0130973082711323,-4.291015884404951
3.6750000000000114,-2.208359866560669,1.1079088292272203,-4.279297743807061
3.678500000000014,-1.970799611413217,1.28048698566442,-4.284624488684147
3.682000000000016,-1.6554709754554016,1.4306935117495558,-4.324041004511187
3.685500000000019,-1.132411506595969,1.6746469079470632,-4.439093108802654
3.689000000000021,-0.7190756518216638,1.9079468143903973,-4.583972890010703
3.692500000000024,-0.247149094057909,2.194512424275346,-4.818337447297754
3.695999999999998,-0.0074577918937717,2.3351318567792774,-4.994111301595354
3.699500000000001,0.1491418752414194,2.46296675251235,-5.205041323015878
3.703000000000003,0.1896230419121759,2.5258195495351696,-5.323289125167745
3.7065000000000055,0.1534022239455376,2.508774664060193,-5.417034249950865
3.710000000000008,0.0639174478665363,2.426745934545712,-5.441536927319613
3.7135000000000105,-0.0735062867769931,2.243516033683591,-5.4042514585092585
3.717000000000013,-0.1704471094205142,2.0134118251006585,-5.313700286257289
3.720500000000016,-0.3408942188410284,1.6533416737679685,-5.144319573009742
3.724000000000018,-0.4516859744283765,1.3784942044809092,-4.970675020399574
3.727500000000021,-0.5390397034906926,1.012032657427416,-4.670261968229303
3.731000000000023,-0.5731294744406459,0.7084221620674903,-4.395414498942244
3.7345000000000255,-0.5539552872782363,0.3387649171535954,-3.979949342480505
3.738,-0.4815136513449596,0.0948115209560879,-3.644380123187312
3.741500000000002,-0.2854992137119804,-0.1992101354933808,-3.1596707739819503
3.745000000000005,-0.0681795418999064,-0.3515477085952018,-2.8059920183700635
3.748500000000007,0.2546051406224288,-0.5251905158761178,-2.344718950360482
3.7520000000000095,0.5070809795574245,-0.5986968026531109,-2.0293903144026664
3.755500000000012,0.7755353077944284,-0.6178727351447726,-1.6714512100866616
3.759000000000015,0.8724778757672014,-0.6381133184801508,-1.432824558766241
3.762500000000017,0.8746089227838865,-0.6562228547988439,-1.132411506595969
3.76600000000002,0.8053647300402634,-0.6072192453905992,-0.9236125321921312
3.769500000000022,0.6349176206197492,-0.5358440056302911,-0.6349176206197492
3.773000000000025,0.4580773701491797,-0.5294526099094878,-0.4122694586013365
3.776499999999999,0.1970790884766957,-0.533712958613606,-0.1139874534477496
3.780000000000001,0.013849187614575,-0.5411707505073777,0.0990718696602061
3.783500000000004,-0.1842962970350892,-0.5795208701614492,0.3675279432264619
3.787000000000006,-0.3174579376452486,-0.6391779693238674,0.5560845889656694
3.7905000000000086,-0.4452945787075733,-0.6817901830113089,0.7659482142132235
3.794000000000011,-0.4857757453783297,-0.6753987872905056,0.9118943915942412
3.7975000000000136,-0.4836446983616446,-0.6817901830113089,1.1025820843501335
3.801000000000016,-0.452750625272093,-0.6626142505196473,1.2389411681499467
3.804500000000018,-0.3930952714389268,-0.6114795940947174,1.3966037407996024
3.808000000000021,-0.3600701513326901,-0.5763251723010476,1.5148515429514704
3.811500000000024,-0.3398295679973119,-0.5262569120490862,1.64055713699711
3.8149999999999977,-0.3600701513326901,-0.4825800475179281,1.730041913076111
3.8185,-0.4442281825346047,-0.4314453910929982,1.8280491318926009
3.8220000000000023,-0.5209301671719996,-0.3984202709867616,1.9100778614070824
3.825500000000005,-0.6200020368322057,-0.3568744534722885,2.0166075229610603
3.829000000000008,-0.6860505317154271,-0.3046751462036421,2.093307762269203
3.83250000000001,-0.7627525163528219,-0.2087989744038376,2.188119283225291
3.8360000000000127,-0.8085604279006651,-0.1193124529955843,2.2541677781085125
3.8395000000000152,-0.847976943727705,0.0010646508437165,2.354306043941687
3.8430000000000177,-0.8437148496943347,0.0926804739394028,2.45124861191446
3.84650000000002,-0.7712749590903102,0.2226464166891606,2.6323492110891475
3.850000000000023,-0.6540918077821589,0.3174579376452486,2.790013529068055
3.853500000000025,-0.4367721359700849,0.4016177141764152,3.043554018846768
3.8569999999999993,-0.2503447919183106,0.4239875991992265,3.2342417116026603
3.860500000000002,0.0106534897541733,0.4303807402492817,3.5080227847167507
3.864000000000004,0.1970790884766957,0.4197272504951083,3.705103618522698
3.867500000000007,0.4239875991992265,0.3568744534722885,3.973557946759702
3.871000000000009,0.5805872663344177,0.3078708440640437,4.1642456395155945
3.874500000000012,0.7212066988383489,0.258867234655799,4.390089499394409
3.8780000000000143,0.7904508915819718,0.2258421145495622,4.536033931446175
3.881500000000017,0.8405191518339332,0.2077325782308691,4.697958598129201
3.8850000000000193,0.847976943727705,0.2247774637058457,4.789574421224887
3.888500000000022,0.8245406625319252,0.2716500260974054,4.8396444268061005
3.892000000000024,0.7883198445652868,0.3036087500306735,4.837513379789415
3.8954999999999984,0.7265316983861836,0.3408942188410284,4.778922676799965
3.899000000000001,0.6913772765925138,0.3792460838243518,4.709678484056343
3.9025000000000034,0.6551582039551274,0.4570127193054631,4.588233238714821
3.906000000000006,0.6477004120613556,0.5379750526469761,4.504075207512907
3.909500000000008,0.723336000525782,0.683921230027994,4.380500660483952
3.913000000000011,0.7680792612299085,0.767014610386192,4.260121811315399
3.916500000000013,0.7350541411236718,0.8916538082588631,4.0566513271179
3.920000000000016,0.6274598287259775,0.9768764903044942,3.8808774728202993
3.9235000000000175,0.3430252658577135,1.0482517300648024,3.67633884712058
3.927000000000021,0.0798976824977964,1.0578405689752592,3.5793980244770585
3.930500000000024,-0.2684543282370038,1.032273240762794,3.537850461633334
3.9339999999999975,-0.4825800475179281,0.9630290480191712,3.5655488368624835
3.9375,-0.6274598287259775,0.875673573627603,3.644380123187312
3.9410000000000025,-0.5891097090719061,0.8522372924318231,3.718951060808021
3.944500000000005,-0.3494166615785167,0.8511726415881066,3.8201557228141647
3.948000000000008,-0.0681795418999064,0.8319967090964449,3.8808774728202993
3.95150000000001,0.3259803803827369,0.820278568498555,3.944794920686836
3.955000000000013,0.600827849669796,0.8543683394485082,4.000189925815883
3.958500000000015,0.8948495061192646,0.8884581103984615,4.11950412414072
3.9620000000000175,1.0503827770814873,0.8852624125380599,4.24094762415299
3.96550000000002,1.1547813916187804,0.8884581103984615,4.430570666065165
3.9690000000000234,1.1590434856521503,0.8969805531359498,4.5679926553794425
3.972500000000025,1.1004510373334488,0.9459841625441944,4.74163720798961
3.975999999999999,1.0312068445898257,1.022684401852337,4.830057333224895
3.9795000000000016,0.9236125321921312,1.0844725480314406,4.920606760147614
3.983000000000004,0.8394545009902167,1.065296615539779,4.957892228957968
3.986500000000007,0.7403808860007585,0.9896610270753528,4.960023275974653
3.990000000000009,0.7041618133633722,0.8437148496943347,4.924867108851732
3.993500000000012,0.7030954171904037,0.616806338971804,4.85136256740399
3.997000000000014,0.7265316983861836,0.4889714432387313,4.76187779132499
4.000500000000017,0.820278568498555,0.3121311927681619,4.657479176787696
4.004000000000019,0.9363953236337376,0.1789695521580025,4.591428936575223
4.007500000000022,1.0780811523106375,0.0351544217936697,4.504075207512907
4.011000000000024,1.1718262770937566,-0.069244192743623,4.435895665613
4.014499999999998,1.2165695377978836,-0.1885583910684593,4.327236702371589
4.018000000000001,1.1622391835125518,-0.2237128128621291,4.221771691661328
4.021500000000003,0.9619626518462028,-0.2737810731140905,4.038540045469955
4.025000000000006,0.7350541411236718,-0.3451563128743986,3.896855962122308
4.028500000000008,0.2897613077453506,-0.4144005056180216,3.667818149712344
4.032000000000011,-0.069244192743623,-0.4708619069200382,3.499500341979262
4.035500000000013,-0.480449000501243,-0.5891097090719061,3.301354857329598
4.039000000000016,-0.7627525163528219,-0.6562228547988439,3.1479526333840604
4.042500000000018,-1.0109662612544474,-0.7861887975486017,2.9423493568406247
4.046000000000021,-1.0780811523106375,-0.8937848552755481,2.803860971353379
4.049500000000023,-1.1153666211209925,-0.956635906969116,2.581214554664218
4.052999999999997,-1.0961906886293304,-1.0045748655336442,2.4001139554895303
4.0565,-1.0578405689752592,-1.1164312719647087,2.1220707883420697
4.060000000000002,-1.0471870792210858,-1.1899375587417018,1.9090114652341137
4.063500000000005,-1.0567741728022906,-1.2517239595915532,1.6256432985388185
4.067000000000007,-1.051447427925204,-1.3124457095976878,1.4381513036433275
4.07050000000001,-0.9949877719524394,-1.3635803660226178,1.2091117459041116
4.074000000000012,-0.9065676467171546,-1.405126183537091,1.0471870792210858
4.077500000000015,-0.7968422873027752,-1.4179107203079493,0.8383881048172481
4.081000000000017,-0.709488558240459,-1.4168443241349806,0.6860505317154271
4.08450000000002,-0.5976321518093943,-1.390212345078799,0.5219948180157161
4.088000000000022,-0.5315836569261729,-1.383820949357996,0.4133358547743051
4.091500000000025,-0.3952245731263599,-1.3987347878162877,0.3068061932203272
4.094999999999999,-0.2535404897787122,-1.413648626274579,0.2183860679850424
4.098500000000001,-0.0127827914416064,-1.4733057254369972,0.0521993072686464
4.102000000000004,0.2183860679850424,-1.555332709622227,-0.096942567972773
4.105500000000006,0.533712958613606,-1.6927564442657563,-0.3462209637181151
4.109000000000009,0.7414472821737271,-1.7833076165177262,-0.5571509851386378
4.112500000000011,0.9321349749296196,-1.9164692571278852,-0.8319967090964449
4.116000000000014,1.000314516829526,-2.0389791533131234,-1.016293006131534
4.119500000000016,1.0056395163773606,-2.2094262627336376,-1.2261566313790884
4.123000000000019,0.9790075373211792,-2.3074334815501274,-1.3816899023413112
4.126500000000021,0.9023072980130364,-2.382004419170837,-1.5926181784325817
4.130000000000024,0.8096250787443816,-2.437399424299885,-1.781176569501041
4.133499999999998,0.6104149432510009,-2.4757495439539565,-2.032586012263068
4.1370000000000005,0.4090737607409349,-2.4128967469311364,-2.220078007158559
4.140500000000003,0.0756355884644262,-2.36495953369586,-2.441661518333255
4.1440000000000055,-0.2269085107225308,-2.3809380229978685,-2.578018856803816
4.147500000000008,-0.6551582039551274,-2.37667767429375,-2.7442056175202123
4.1510000000000105,-0.9800739334941478,-2.3532413930979708,-2.867780164549167
4.154500000000013,-1.3763631574642243,-2.320216272991734,-3.036096226952996
4.158000000000016,-1.648014928890882,-2.3010420858293243,-3.162866471842352
4.161500000000018,-1.940970189167382,-2.269083361896056,-3.336509279123268
4.1650000000000205,-2.105025902867093,-2.239253939650221,-3.443040686006498
4.168500000000023,-2.2616255700022845,-2.200903819996149,-3.5591574411416804
4.1720000000000255,-2.3372611584667102,-2.1561605592920228,-3.6028343056728387
4.1755,-2.3372611584667102,-2.1124836947608645,-3.5793980244770585
4.179000000000002,-2.2541677781085125,-2.087982762721368,-3.512283133420869
4.1825000000000045,-2.003822986190201,-2.0368481062964383,-3.4025577740064894
4.186000000000007,-1.7406954028302846,-2.0006272883298,-3.34396707101704
4.1895000000000095,-1.390212345078799,-1.940970189167382,-3.347162768877441
4.193000000000012,-1.1654348813729536,-1.900489022496625,-3.40681986803986
4.196500000000015,-0.9545066052816829,-1.8546811109487824,-3.5218719723313257
4.200000000000017,-0.8799356676609732,-1.7875679652218444,-3.6166834932874137
4.20350000000002,-0.8682175270630832,-1.719388423321938,-3.7274735035455095
4.207000000000022,-0.9150900894546428,-1.6980831891428432,-3.775412462110038
4.210500000000025,-0.9971170736398725,-1.629903647242937,-3.808435836887023
4.213999999999999,-1.0621009176793774,-1.5649215485326835,-3.836134212116173
4.217500000000001,-1.1473253450542604,-1.4882195638952889,-3.8915292172452207
4.221000000000004,-1.2144384907811985,-1.421106418168351,-3.959708759145127
4.224500000000006,-1.3550579232851294,-1.3348173399497512,-4.077956561296995
4.228000000000009,-1.494610959616092,-1.22935232923949,-4.175963780113484
4.231500000000011,-1.7012788870032447,-1.1004510373334488,-4.27610204594666
4.235000000000014,-1.8685302985633567,-1.039729287327314,-4.33788844679651
4.238500000000016,-2.136986372129613,-0.9438531155275096,-4.407132639540134
4.242000000000019,-2.3255430178688203,-0.8330613599401614,-4.457202645121346
4.245500000000021,-2.530079898239288,-0.6477004120613556,-4.515793348110797
4.249000000000024,-2.678157122636991,-0.5315836569261729,-4.565863353692009
4.252499999999998,-2.9444804038573094,-0.3547434064556034,-4.6084738220502
4.256,-3.188433800054817,-0.1491418752414194,-4.575450447273215
4.259500000000003,-3.3769921911232763,0.0862890782185996,-4.355999728444456
4.263000000000005,-3.3578162586316145,0.2045368803704674,-4.086479004034484
4.266500000000008,-3.1660621697027533,0.4080091098972184,-3.7381269932996832
4.27000000000001,-2.9189130756448445,0.6040235475301975,-3.5793980244770585
4.273500000000013,-2.4991858251497363,0.8660864800463982,-3.5112184825771524
4.277000000000015,-2.11461474177755,1.0578405689752592,-3.5410479048229875
4.280500000000018,-1.7076702827240478,1.2708998920832149,-3.710428618070533
4.28400000000002,-1.483959215191171,1.411517579257894,-3.876615378786929
4.287500000000023,-1.275160240787333,1.5862267827117784,-4.072629816419909
4.291000000000025,-1.1718262770937566,1.6714512100866616,-4.194073316432178
4.294499999999999,-1.0589052198189757,1.743891100690686,-4.327236702371589
4.298000000000002,-0.9779428864774626,1.816330991294711,-4.415655082277622
4.301500000000004,-0.8586286881526264,1.922860652848689,-4.569059051552411
4.305000000000007,-0.7893844954090034,1.992104845592312,-4.70222069216257
4.308500000000009,-0.7627525163528219,2.045370549033927,-4.917411062287211
4.312000000000012,-0.8810003185046897,2.074133575106793,-5.086793520864009
4.315500000000014,-1.196328954462505,2.07946031998388,-5.297721796955281
4.319000000000017,-1.545745616041022,2.0368481062964383,-5.407447156369659
4.322500000000019,-2.116745788794235,1.9782556579777368,-5.504389724342433
4.326000000000022,-2.5790835076475327,1.9516236789215555,-5.541675193152787
4.329500000000024,-3.1841734513506985,1.920729605832004,-5.528890656381929
4.332999999999998,-3.568744534722885,1.946296934044469,-5.475626698269566
4.336500000000001,-3.908574102720197,2.0091497310672883,-5.331811567905233
4.340000000000003,-3.9788846916367886,2.0730671789338246,-5.165624807188838
4.343500000000006,-3.858505842468236,2.192381377258661,-4.903561874672636
4.347000000000008,-3.620943841991532,2.2808015024939454,-4.699024994302169
4.350500000000011,-3.123449956015312,2.370286278572947,-4.408199035713103
4.354000000000013,-2.687744216218196,2.395853606785412,-4.197270759621831
4.357500000000016,-2.087982762721368,2.3969182576291286,-3.901118056155677
4.361000000000018,-1.6235122515221332,2.409701049070735,-3.6486422172206816
4.364500000000021,-1.0109662612544474,2.422485585841593,-3.251286597077637
4.368000000000023,-0.5603466829990394,2.4491175648977745,-2.9210441226615296
4.3714999999999975,-0.0436768645311581,2.450182215741492,-2.457640007635263
4.375,0.2620629325162006,2.460835705495665,-2.109287996900463
4.3785000000000025,0.5720648235969293,2.5684300178933595,-1.6757115587907798
4.382000000000005,0.6796591359946239,2.603586185016281,-1.3646450168663344
4.385500000000008,0.5997614534968274,2.567365367049643,-0.9768764903044942
4.38900000000001,0.4239875991992265,2.5652343200329577,-0.6881815787321122
4.3925000000000125,0.069244192743623,2.529015247395572,-0.2982837504828389
4.396000000000015,-0.2567361876391139,2.45870465847898,0.041545817514473
4.3995000000000175,-0.6690056462404504,2.3915915127520417,0.5124077244345112
4.40300000000002,-0.8778046206442881,2.3351318567792774,0.8927184591025796
4.406500000000023,-0.970485094583691,2.276539408460576,1.3710364125871377
4.410000000000025,-0.9097633445775564,2.243516033683591,1.6714512100866616
4.413499999999999,-0.7148135577882937,2.193446028102377,1.972930658429902
4.417000000000002,-0.5305172607532044,2.157226955464991,2.133788928939959
4.420500000000004,-0.300413052170272,2.111419043917148,2.2882575490584656
4.424000000000007,-0.1331616406101593,2.0890474135650847,2.4075717473833023
4.427500000000009,0.0649838440395048,2.057088689631817,2.5790835076475327
4.431000000000012,0.2226464166891606,2.0506972939110133,2.7303564299056373
4.434500000000014,0.4591437663221482,2.060284387492218,2.9380890081365063
4.438000000000017,0.6093502924072843,2.07946031998388,3.0605989043217443
4.441500000000019,0.7286627454028686,2.1124836947608645,3.175651008613211
4.445000000000022,0.7766017039673969,2.1678786998899127,3.224654618021455
4.448500000000024,0.7936465894423735,2.1913149810856924,3.2725918312567317
4.451999999999998,0.7425119330174437,2.1806632366607714,3.3024212535025668
4.455500000000001,0.6391779693238674,2.2520384764210792,3.30455055519
4.459000000000003,0.533712958613606,2.334065460606309,3.30881264922337
4.462500000000006,0.3952245731263599,2.45124861191446,3.335444628279552
4.466000000000008,0.3110665419244454,2.5492558307309494,3.34822916505041
4.469500000000011,0.1629910628559944,2.6994623568160856,3.322661836837945
4.473000000000013,-0.0170448854749766,2.7527280602577004,3.260873690658842
4.476500000000016,-0.3962909692993285,2.7346167786097557,3.1841734513506985
4.480000000000018,-0.7148135577882937,2.6675036328828177,3.174584612440242
4.483500000000021,-1.0599698706626923,2.516230710624713,3.228914966725573
4.487000000000023,-1.2218962826749702,2.37667767429375,3.299223810312913
4.490499999999997,-1.2708998920832149,2.1827925383482043,3.375925794950308
4.494,-1.1558477877917488,2.0389791533131234,3.403624170179458
4.497500000000002,-0.8501062454151381,1.8759880904571289,3.399362076146088
4.501000000000005,-0.5528888911052677,1.7769144754676711,3.3578162586316145
4.504500000000007,-0.1320969897664428,1.6224476006784168,3.2970945086254804
4.50800000000001,0.166186760716396,1.492481657928659,3.250220200904668
4.511500000000012,0.5560845889656694,1.383820949357996,3.2225235710047704
4.515000000000015,0.8564993864651933,1.3593182719892478,3.225719268865172
4.518500000000017,1.259181751485325,1.353991527112161,3.251286597077637
4.52200000000002,1.5393542203202186,1.3870166472183978,3.291767763748393
4.525500000000022,1.8450940173675772,1.5297671267390138,3.3215954406649764
4.529000000000025,1.9889091477319103,1.7183237724782212,3.32053078982126
4.532499999999999,1.972930658429902,1.9612107725027603,3.2928324145921097
4.536000000000001,1.790763663082246,2.06774217938599,3.2683314825526133
4.539500000000004,1.338013037810153,2.185989981537858,3.2129347320943134
4.543000000000006,0.8937848552755481,2.162553700342078,3.2129347320943134
4.546500000000009,0.3174579376452486,2.04749985072136,3.280049623150503
4.550000000000011,0.0234362811957798,1.899424371652909,3.365272305196134
4.553500000000014,-0.1629910628559944,1.584095735695093,3.510153831733436
4.557000000000016,-0.2002765316663493,1.342273386514271,3.5900497689019804
4.560500000000019,-0.166186760716396,1.079145803154354,3.650773264237367
4.564000000000021,-0.1352926876268444,0.8564993864651933,3.667818149712344
4.567500000000024,-0.1960144376329791,0.5528888911052677,3.6774052432935487
4.570999999999998,-0.3270467765557054,0.3355692192931938,3.663556055678973
4.5745000000000005,-0.5603466829990394,0.0404811666707564,3.681665591997666
4.578000000000003,-0.7222713496820654,-0.152337573101821,3.741322691160085
4.5815000000000055,-0.889522761242178,-0.3355692192931938,3.838265259132858
4.585000000000008,-0.9491798604045962,-0.3930952714389268,3.921358639491056
4.5885000000000105,-0.9417220685108244,-0.42292294835551,4.009777019397089
4.592000000000013,-0.905502995873438,-0.41120480775762,4.053453883928246
4.595500000000016,-0.8245406625319252,-0.3685925940701784,4.086479004034484
4.599000000000018,-0.7297291415758372,-0.3526141047681703,4.0981971446323735
4.6025000000000205,-0.6040235475301975,-0.3046751462036421,4.083283306174081
4.606000000000023,-0.5283879590657713,-0.2514094427620272,4.055584930944931
4.6095000000000255,-0.4144005056180216,-0.2045368803704674,4.0417357433303565
4.613,-0.3281114273994219,-0.1608600158393093,4.058780628805333
4.616500000000002,-0.1970790884766957,-0.0948115209560879,4.101392842492775
4.6200000000000045,-0.055395005129048,-0.0703088435873395,4.1642456395155945
4.623500000000007,0.1512729222581045,-0.0543303542853314,4.249470066890478
4.6270000000000095,0.288694911572382,-0.041545817514473,4.280362394650777
4.630500000000012,0.3909642244222418,-0.0202405833353782,4.279297743807061
4.634000000000015,0.3739193389472651,0.0607217500061347,4.246274369030076
4.637500000000017,0.2854992137119804,0.0703088435873395,4.234554483102934
4.64100000000002,0.2087989744038376,0.0351544217936697,4.24840367071751
4.644500000000022,0.1225098961852379,0.0170448854749766,4.247339019873793
4.648000000000025,0.1022693128498597,-0.0213052341790947,4.223902738678013
4.651499999999999,0.0884201252352847,-0.1150521042914662,4.147200754040618
4.655000000000001,0.0468725623915597,-0.2013411825100658,4.031083998905436
4.658500000000004,-0.0916158230956863,-0.2833681666952953,3.849983399730748
4.662000000000006,-0.2695207244099723,-0.3877685265618402,3.71575536294762
4.665500000000009,-0.5976321518093943,-0.6455693650446706,3.560222091985397
4.669000000000011,-0.8575640373089098,-0.8724778757672014,3.453692430431419
4.672500000000014,-1.1515856937583784,-1.1537167407750637,3.3152040449441733
4.676000000000016,-1.28048698566442,-1.3891476942350829,3.1948251957756204
4.679500000000019,-1.3348173399497512,-1.700214236159528,3.0137245966009325
4.683000000000021,-1.3113810587539714,-1.874923439613413,2.86245341967208
4.686500000000024,-1.2282876783957732,-2.062415434508903,2.6696346798995023
4.689999999999998,-1.1696952300770718,-2.2158176584544407,2.5631050183455244
4.6935,-1.108973480070937,-2.441661518333255,2.490663382412248
4.697000000000003,-1.002443818516959,-2.6057172320329665,2.4917297785852166
4.700500000000005,-0.7371851881403569,-2.7527280602577004,2.5130350127643117
4.704000000000008,-0.4708619069200382,-2.841146440163733,2.5013168721664214
4.70750000000001,-0.1012029166768912,-2.8517999299179064,2.4171588409645066
4.711000000000013,0.1821652500184041,-2.832623997426245,2.314889528114647
4.714500000000015,0.4634041150262664,-2.793209226928457,2.1561605592920228
4.718000000000018,0.5507578440885826,-2.7569884089618184,2.01234542892769
4.72150000000002,0.5518242402615512,-2.76018410682222,1.8408336686634592
4.725000000000023,0.4772533026408414,-2.777228992297197,1.7247151681990245
4.728500000000025,0.3345028231202252,-2.818776555140922,1.5926181784325817
4.731999999999999,0.2386266513204207,-2.842212836336702,1.504199798526549
4.735500000000002,0.1640557136997109,-2.866713768376198,1.3848856002017127
4.739000000000004,0.1310323389227262,-2.880562955990773,1.2943361732789946
4.742500000000007,0.110790010258096,-2.903999237186553,1.16649953221667
4.746000000000009,0.0585907029894496,-2.9423493568406247,1.0621009176793774
4.749500000000012,-0.0660484948832214,-2.9263708675386164,0.9363953236337376
4.753000000000014,-0.1821652500184041,-2.933826914103136,0.8703468287505163
4.756500000000017,-0.3600701513326901,-3.008397851723846,0.8170828706381533
4.760000000000019,-0.4761869064678729,-3.052076461584256,0.8011026360068932
4.763500000000022,-0.5699337765802444,-3.082968789344556,0.7659482142132235
4.767000000000024,-0.5912390107593392,-3.104275768852902,0.7212066988383489
4.770499999999998,-0.602958896686481,-3.0765773936237526,0.6231994800218592
4.774000000000001,-0.5752605214573311,-3.091491232082044,0.5262569120490862
4.777500000000003,-0.5528888911052677,-3.1255810030319973,0.3685925940701784
4.781000000000006,-0.5848476150385359,-3.168193216719439,0.2087989744038376
4.784500000000008,-0.6583539018155291,-3.2427641543401484,0.0
4.788000000000011,-0.713748906944577,-3.318399742804575,-0.1683160624038291
4.791500000000013,-0.7915155424256883,-3.4142759146043797,-0.4357057397971164
4.795000000000016,-0.863955433029713,-3.465410571029309,-0.6775280889779387
4.798500000000018,-0.9395927668233912,-3.4963046441188608,-1.0248154488690224
4.802000000000021,-0.9619626518462028,-3.5144141804375537,-1.2954008241227113
4.805500000000023,-1.0109662612544474,-3.557026394124996,-1.6789072566511811
4.8089999999999975,-1.073819058277267,-3.5655488368624835,-1.966537517379847
4.8125,-1.136671855300087,-3.524003019348011,-2.3159559242876155
4.8160000000000025,-1.1728926732667255,-3.470737315906396,-2.5407333879934613
4.819500000000005,-1.2005893031666235,-3.3769921911232763,-2.8070584145430324
4.823000000000008,-1.2069806988874263,-3.324791138525378,-3.0020064560030426
4.82650000000001,-1.2176341886416,-3.2225235710047704,-3.2395684564797467
4.8300000000000125,-1.2623774493457267,-3.110667164573706,-3.4217337064981512
4.833500000000015,-1.379558855324626,-2.9561985444552,-3.6347930296061066
4.8370000000000175,-1.486088516878604,-2.8390171384763003,-3.7466494360371714
4.84050000000002,-1.6991478399865596,-2.6994623568160856,-3.861701540328637
4.844000000000023,-1.9026200695133104,-2.6302181640724625,-3.90431375401608
4.847500000000025,-2.158291606308708,-2.543929085853863,-3.8851378215244177
4.850999999999999,-2.3074334815501274,-2.45124861191446,-3.844656654853661
4.854500000000002,-2.437399424299885,-2.3436525541875133,-3.808435836887023
4.858000000000004,-2.483207335847728,-2.3042377836897256,-3.8297428163953695
4.861500000000007,-2.522623851674768,-2.2062305648732363,-3.913900847597284
4.865000000000009,-2.5204928046580832,-2.0613490383359347,-4.012974462586742
4.868500000000012,-2.4885340807248157,-1.9239270490216571,-4.132286915582326
4.872000000000014,-2.47042279907687,-1.881314835334216,-4.204726806186351
4.875500000000017,-2.4565753567915465,-1.8056775015405373,-4.268644254052887
4.879000000000019,-2.397982908472845,-1.7406954028302846,-4.291015884404951
4.882500000000022,-2.262690220846,-1.686365048544953,-4.293146931421636
4.886000000000024,-2.121006137498353,-1.650144230578315,-4.302734025002841
4.889499999999998,-1.9122071630945157,-1.5904888767451486,-4.348541936550684
4.893000000000001,-1.7588049391489775,-1.480763517330769,-4.402872290836015
4.896500000000003,-1.569181897236802,-1.3316216420893496,-4.468920785719237
4.900000000000006,-1.476501423297399,-1.2421368660103485,-4.529642535725372
4.903500000000008,-1.439215954487044,-1.1100398762439057,-4.577581494289899
4.907000000000011,-1.4498694442412174,-1.0173594023045027,-4.58503754085442
4.910500000000013,-1.5084601472306671,-0.928939277069218,-4.546687421200348
4.914000000000016,-1.6043380643597236,-0.8522372924318231,-4.515793348110797
4.917500000000018,-1.7971568041323012,-0.7648835633695069,-4.449744853227576
4.921000000000021,-1.9676039135528156,-0.6945729744529154,-4.3922188010818415
4.924500000000023,-2.237122892633536,-0.5699337765802444,-4.312322863913297
4.927999999999997,-2.471489195249838,-0.4665998128866681,-4.277166696790376
4.9315,-2.803860971353379,-0.3515477085952018,-4.265448556192486
4.935000000000002,-3.061663555165461,-0.260998281672484,-4.284624488684147
4.938500000000005,-3.3780568419669925,-0.1374237346435295,-4.346410889533999
4.942000000000007,-3.567679883879169,-0.0532657034416149,-4.40074124381933
4.94550000000001,-3.745584785193455,0.0447432607041266,-4.4870303220379295
4.949000000000012,-3.834003165099488,0.1171831513081512,-4.559470212641955
4.952500000000015,-3.8776800296306457,0.2024058333537824,-4.661739525491814
4.956000000000017,-3.8542437484348655,0.2514094427620272,-4.72991906739172
4.95950000000002,-3.7274735035455095,0.3270467765557054,-4.795967562274942
4.963000000000022,-3.5538306962645936,0.3632658491930918,-4.832186634912328
4.966500000000025,-3.2150657791109984,0.4048134120368167,-4.847100473370619
4.969999999999999,-2.8826940030074586,0.4271832970596281,-4.822599541331123
4.973500000000001,-2.351110346081285,0.4687308599033531,-4.743768255006296
4.977000000000004,-1.9164692571278852,0.480449000501243,-4.642563593000153
4.980500000000006,-1.3454708297039246,0.5528888911052677,-4.47531218144004
4.984000000000009,-0.9321349749296196,0.5827165680218508,-4.317647863461133
4.987500000000011,-0.4506213235846599,0.697768672313317,-4.096066097615688
4.991000000000014,-0.1480754790684509,0.8437148496943347,-3.937337128793064
4.994500000000016,0.1459461773810178,1.0269464958857075,-3.748780483053857
4.998000000000019,0.2407576983371057,1.122822667685512,-3.6092257013936417
5.001500000000021,0.2002765316663493,1.3049879177039163,-3.399362076146088
5.005000000000024,0.0777666354811113,1.525505032705644,-3.225719268865172
5.008499999999998,-0.2119946722642392,1.866400996875924,-2.981765872667665
5.0120000000000005,-0.5539552872782363,2.118875090481668,-2.8102541124034337
5.015500000000003,-1.1260183655459135,2.41609419012079,-2.6376759559662344
5.0190000000000055,-1.6022070173430385,2.616368976457888,-2.535406643116375
5.022500000000008,-2.2552341742814805,2.8592577218116784,-2.434203726439484
5.0260000000000105,-2.726094335872267,3.0115952949135,-2.340456856327112
5.029500000000013,-3.180976008161045,3.156475076121549,-2.1636183511857947
5.033000000000016,-3.347162768877441,3.250220200904668,-1.9793220541507053
5.036500000000018,-3.3460981180337246,3.316268695787889,-1.6970185382991263
5.0400000000000205,-3.161801820998636,3.3333135812628663,-1.448803048068249
5.043500000000023,-2.6749614247765896,3.3780568419669925,-1.1132355741043072
5.0470000000000255,-2.1966417259627797,3.413211263760662,-0.8511726415881066
5.0505,-1.4978066574764937,3.407884518883576,-0.508147375730393
5.054000000000002,-0.9736807924440926,3.3951017274419697,-0.2514094427620272
5.0575000000000045,-0.314262239784847,3.366338701369103,0.0798976824977964
5.061000000000007,0.1257055940456395,3.3152040449441733,0.314262239784847
5.0645000000000095,0.5752605214573311,3.196956242792305,0.5965657556364258
5.068000000000012,0.7883198445652868,3.097884373132099,0.7606214693361367
5.071500000000015,0.9182857873150446,2.9721787790864598,0.9417220685108244
5.075000000000017,0.9065676467171546,2.866713768376198,1.0482517300648024
5.07850000000002,0.7872551937215703,2.726094335872267,1.1547813916187804
5.082000000000022,0.6583539018155291,2.609977580737084,1.2112427929207967
5.085500000000025,0.4815136513449596,2.437399424299885,1.25705070446864
5.088999999999999,0.3632658491930918,2.324478367025104,1.2762248916310497
5.092500000000001,0.2641939795328856,2.283997200354348,1.2975318711393966
5.096000000000004,0.2450180470412239,2.358568137975057,1.2975318711393966
5.099500000000006,0.2812388650078622,2.471489195249838,1.3209681523351764
5.103000000000009,0.3600701513326901,2.555647226451753,1.338013037810153
5.106500000000011,0.4900360940824479,2.658981190145329,1.3476001313913577
5.110000000000014,0.5443664483677794,2.738878872643125,1.3369483869664365
5.113500000000016,0.5369104018032596,2.8155791119512683,1.3497311784080428
5.117000000000019,0.5464974953844645,2.876302607286655,1.4253667668724692
5.120500000000021,0.5731294744406459,2.8890853987282616,1.5936845746055504
5.124000000000024,0.5752605214573311,2.8517999299179064,1.7588049391489775
5.127499999999998,0.5401060996636612,2.772968643593079,1.9899755439048787
5.131,0.4879067923950148,2.7111804974139755,2.1753364917836846
5.134500000000003,0.3813771308410369,2.6493940965641243,2.4139631431041053
5.138000000000005,0.2897613077453506,2.5758878097871314,2.591868044418391
5.141500000000008,0.219450718828759,2.41183209608742,2.836886091459615
5.14500000000001,0.1672514115601126,2.294648944779269,2.9721787790864598
5.148500000000013,0.0820287295144815,2.164683002029511,3.0957533261154144
5.152000000000015,0.0095870935812048,2.0847853195317145,3.162866471842352
5.155500000000018,-0.124639197872671,2.0059540332068866,3.2321106645859747
5.15900000000002,-0.2439533961975074,1.9505590280778389,3.28111427399422
5.162500000000023,-0.397355620143045,1.8450940173675772,3.3674033522128197
5.166000000000025,-0.4889714432387313,1.7428264498469697,3.437713941129411
5.169499999999999,-0.5102766774178261,1.5883578297284635,3.524003019348011
5.173000000000002,-0.425053995372195,1.4424116523474455,3.5666134877062
5.176500000000004,-0.2418223491808223,1.2186988394853169,3.567679883879169
5.180000000000007,-0.0724398906040246,1.081276850171039,3.510153831733436
5.183500000000009,0.124639197872671,0.9939213757794708,3.398297425302371
5.187000000000012,0.2258421145495622,0.9662247458795729,3.2970945086254804
5.190500000000014,0.2535404897787122,0.9182857873150446,3.20654333637351
5.194000000000017,0.1938833906162941,0.8905874120858945,3.1948251957756204
5.197500000000019,0.0841580312019145,0.8192139176548384,3.274722878273417
5.201000000000022,-0.0127827914416064,0.7446429800341288,3.400428472319056
5.204500000000024,-0.0990718696602061,0.626395177882261,3.59431186293535
5.207999999999998,-0.1065296615539778,0.5539552872782363,3.7349312954392815
5.211500000000001,-0.0703088435873395,0.5102766774178261,3.864897238189039
5.215000000000003,-0.002131047016685,0.4825800475179281,3.9490552693909535
5.218500000000006,0.1597953649955928,0.4314453910929982,4.067303071542821
5.222000000000008,0.3259803803827369,0.3504830577514853,4.175963780113484
5.225500000000011,0.5688691257365278,0.2503447919183106,4.345346238690282
5.229000000000013,0.7627525163528219,0.1853609478788057,4.476376832283757
5.232500000000016,0.9321349749296196,0.0617864008498512,4.687306853704279
5.236000000000018,1.0418603343439992,-0.0340897709499532,4.853493614420676
5.239500000000021,1.145194298037575,-0.136357338470561,5.047377005036969
5.243000000000023,1.1867401155520485,-0.1768385051413174,5.156037713607632
5.2464999999999975,1.1941979074458202,-0.1768385051413174,5.213563765753365
5.25,1.1569124386354652,-0.1821652500184041,5.208237020876279
5.2535000000000025,1.0109662612544474,-0.2024058333537824,5.12194794265768
5.257000000000005,0.8309320582527283,-0.1896230419121759,5.014351884930733
5.260500000000008,0.5219948180157161,-0.1438151303643327,4.850297916560273
5.26400000000001,0.205601531214184,-0.1374237346435295,4.719265577637548
5.2675000000000125,-0.2716500260974054,-0.1597953649955928,4.554145213094119
5.271000000000015,-0.6221330838488908,-0.1555332709622227,4.450811249400544
5.2745000000000175,-0.9875299800586675,-0.1225098961852379,4.350672983567369
5.27800000000002,-1.1728926732667255,-0.1225098961852379,4.3016693741591245
5.281500000000023,-1.2698334959102464,-0.1203788491685528,4.238816577136304
5.285000000000025,-1.2922051262623095,-0.0958761717998045,4.177030176286453
5.288499999999999,-1.2634421001894431,-0.096942567972773,4.096066097615688
5.292000000000002,-1.2165695377978836,-0.1289012919060412,4.0417357433303565
5.295500000000004,-1.164370230529237,-0.2130593231079557,3.988471785217994
5.299000000000007,-1.1217580168417955,-0.3185243338182171,3.9661001548659303
5.302500000000009,-1.0056395163773606,-0.4847093492053612,3.9778182954638206
5.306000000000012,-0.8735442719401699,-0.6125459902676859,3.991667483078396
5.309500000000014,-0.6690056462404504,-0.8149518236214683,3.999125274972167
5.313000000000017,-0.503885281697023,-1.0258800997127389,3.985276087357592
5.316500000000019,-0.2950880526224372,-1.3358819907934678,3.944794920686836
5.320000000000022,-0.1715135055934827,-1.575575038286857,3.893660264261906
5.323500000000024,-0.0798976824977964,-1.9281873977257755,3.806306535199589
5.326999999999998,-0.0426122136874415,-2.2040995178565512,3.748780483053857
5.330500000000001,0.0010646508437165,-2.571627461083013,3.6710138475727447
5.334000000000003,0.0255673282124649,-2.8294282995658437,3.5900497689019804
5.337500000000006,0.0639174478665363,-3.1341034457694854,3.4462363838668995
5.341000000000008,0.0788312863248278,-3.339706722312921,3.30881264922337
5.344500000000011,0.0426122136874415,-3.5847247693541453,3.101080070992501
5.348000000000013,-0.013849187614575,-3.726408852701793,2.9455468000302782
5.351500000000016,-0.1086607085706629,-3.8478523527140633,2.7633798046826223
5.355000000000018,-0.1704471094205142,-3.920292243318087,2.646198398703723
5.358500000000021,-0.2066679273871525,-3.990602832234679,2.5077082678872245
5.362000000000023,-0.1906876927558924,-4.007647717709656,2.3915915127520417
5.365499999999997,-0.1257055940456395,-3.990602832234679,2.2328625439294174
5.369,-0.0490036094082447,-3.9352060817763785,2.096503460129605
5.372500000000002,0.0532657034416149,-3.840396306149543,1.900489022496625
5.376000000000005,0.1097253594143795,-3.7583675766350617,1.7428264498469697
5.379500000000007,0.1629910628559944,-3.646511170203997,1.531896428426447
5.38300000000001,0.1938833906162941,-3.5825937223374607,1.3806252514975943
5.386500000000012,0.2482137449016255,-3.4845865035209704,1.164370230529237
5.390000000000015,0.2897613077453506,-3.449432081727301,0.9822032351815808
5.393500000000017,0.3771150368076668,-3.3855128885315127,0.7201403026653803
5.39700000000002,0.4634041150262664,-3.318399742804575,0.5070809795574245
5.400500000000022,0.559280286826071,-3.266200435535928,0.2045368803704674
5.404000000000025,0.6093502924072843,-3.2395684564797467,-0.0127827914416064
5.407499999999999,0.6413090163405525,-3.251286597077637,-0.2854992137119804
5.411000000000001,0.6338512244467807,-3.260873690658842,-0.4697955107470696
5.414500000000004,0.5944364539489927,-3.274722878273417,-0.6913772765925138
5.418000000000006,0.5369104018032596,-3.2896367167317084,-0.8383881048172481
5.421500000000009,0.43890318298677,-3.3077462530504014,-1.007770563394046
5.425000000000011,0.3387649171535954,-3.3066816022066847,-1.1164312719647087
5.428500000000014,0.1885583910684593,-3.294963461608795,-1.215503141624915
5.432000000000016,0.0649838440395048,-3.2970945086254804,-1.273029193770648
5.435500000000019,-0.1331616406101593,-3.275787529117133,-1.3220328031788928
5.439000000000021,-0.2514094427620272,-3.2406331073234638,-1.340144084826838
5.442500000000024,-0.3547434064556034,-3.2150657791109984,-1.3593182719892478
5.445999999999998,-0.4506213235846599,-3.214001128267282,-1.405126183537091
5.4495000000000005,-0.5880433128989375,-3.172453565423557,-1.5159179391244388
5.453000000000003,-0.6604849488322142,-3.111731815417422,-1.6181855066450466
5.4565000000000055,-0.7158799539612621,-3.0254427371988224,-1.7662627310427494
5.460000000000008,-0.7318584432632703,-2.979634825650979,-1.8866415802113023
5.4635000000000105,-0.7339894902799553,-2.950871799578113,-2.043239502017242
5.467000000000013,-0.7222713496820654,-2.906130284203238,-2.1614873041691096
5.470500000000016,-0.6626142505196473,-2.8070584145430324,-2.3138248772709304
5.474000000000018,-0.6349176206197492,-2.747401315380614,-2.444857216193657
5.4775000000000205,-0.6690056462404504,-2.638740606809951,-2.6632415388494475
5.481000000000023,-0.7478386778945303,-2.522623851674768,-2.832623997426245
5.4845000000000255,-0.9225478813484148,-2.3809380229978685,-3.0637946021821456
5.488,-1.134540808283402,-2.314889528114647,-3.225719268865172
5.491500000000002,-1.4892859600682575,-2.240320335823189,-3.4227983573418674
5.4950000000000045,-1.7865033143781277,-2.1913149810856924,-3.5591574411416804
5.498500000000007,-2.2051641687002674,-2.1678786998899127,-3.712559665087218
5.5020000000000095,-2.5077082678872245,-2.16574939820248,-3.819089326641196
5.505500000000012,-2.8912164457449467,-2.139115673817046,-3.953317363424324
5.509000000000015,-3.14369053935069,-2.140182069990015,-4.051324582240813
5.512500000000017,-3.382317190671111,-2.152964861431621,-4.134417962599012
5.51600000000002,-3.655033612941485,-2.166814049046196,-4.237751926292588
5.519500000000022,-3.883006774507732,-2.174271840939968,-4.327236702371589
5.523000000000025,-4.024692603184632,-2.181727887504488,-4.375173915606865
5.526499999999999,-4.153592149761422,-2.190250330241976,-4.41245938441722
5.530000000000001,-4.177030176286453,-2.194512424275346,-4.416721478450591
5.533500000000004,-4.108850634386547,-2.185989981537858,-4.422048223327677
5.537000000000006,-4.012974462586742,-2.140182069990015,-4.4625293899984335
5.540500000000009,-3.883006774507732,-2.032586012263068,-4.538164978462859
5.544000000000011,-3.691254430908124,-1.8589432049821528,-4.694762900268799
5.547500000000014,-3.545308253527106,-1.7044745848636462,-4.832186634912328
5.551000000000016,-3.312008347083772,-1.407257230553776,-5.021809676824504
5.554500000000019,-3.066990300042548,-1.1292140634063152,-5.19971457813879
5.558000000000021,-2.8912164457449467,-0.9140254386109264,-5.310504588396887
5.561500000000024,-2.634478512776581,-0.5454328445407479,-5.4181006461238335
5.564999999999998,-2.4352683772832,-0.2663250265495707,-5.464973208515392
5.5685,-2.1795968404878026,0.0660484948832214,-5.515041468767355
5.572000000000003,-2.0166075229610603,0.3195889846619337,-5.543806240169473
