time,Gyr_X,Gyr_Y,Gyr_Z
0.0,-0.0127827914416064,0.0042603487041181,0.0085224427374883
0.0035000000000025,-0.0245026773687483,0.002131047016685,0.0031956978604016
0.007000000000005,-0.0245026773687483,-0.0042603487041181,0.0053267448770866
0.0105000000000075,-0.0234362811957798,-0.0031956978604016,0.0074577918937717
0.01400000000001,-0.0191759324916617,-0.0063913957208032,0.0063913957208032
0.0175000000000125,-0.0149138384582915,-0.0053267448770866,0.0095870935812048
0.021000000000015,-0.002131047016685,-0.002131047016685,0.0063913957208032
0.0245000000000175,0.0042603487041181,0.002131047016685,0.0074577918937717
0.0279999999999915,0.0085224427374883,0.0063913957208032,0.0117181405978899
0.031499999999994,0.0170448854749766,0.0031956978604016,0.0095870935812048
0.0349999999999965,0.0202405833353782,0.0010646508437165,0.0053267448770866
0.038499999999999,0.0191759324916617,-0.0031956978604016,0.0053267448770866
0.0420000000000015,0.0127827914416064,-0.0074577918937717,0.0085224427374883
0.045500000000004,0.0010646508437165,0.0,0.0095870935812048
0.0490000000000065,-0.0053267448770866,0.0010646508437165,0.0095870935812048
0.052500000000009,-0.01598023463126,0.0,0.0053267448770866
0.0560000000000115,-0.0245026773687483,-0.0010646508437165,0.0117181405978899
0.0595000000000141,-0.0234362811957798,-0.0010646508437165,0.0053267448770866
0.0630000000000166,-0.0127827914416064,-0.002131047016685,0.0095870935812048
0.0665000000000191,-0.0117181405978899,-0.0085224427374883,0.0085224427374883
0.0699999999999931,0.0,-0.0053267448770866,0.0053267448770866
0.0734999999999956,0.002131047016685,-0.0063913957208032,0.0095870935812048
0.0769999999999981,0.0042603487041181,-0.0010646508437165,0.0106534897541733
0.0805000000000006,0.0117181405978899,0.0,0.0095870935812048
0.0840000000000031,0.0127827914416064,-0.0010646508437165,0.0117181405978899
0.0875000000000056,0.0074577918937717,0.0,0.0106534897541733
0.0910000000000081,0.0031956978604016,-0.0010646508437165,0.0095870935812048
0.0945000000000106,0.0,-0.0010646508437165,0.0095870935812048
0.0980000000000131,-0.0053267448770866,-0.0074577918937717,0.013849187614575
0.1015000000000156,-0.0117181405978899,-0.0085224427374883,0.0074577918937717
0.1050000000000181,-0.0181095363186931,-0.0042603487041181,0.0063913957208032
0.1084999999999922,-0.0181095363186931,-0.0074577918937717,0.0053267448770866
0.1119999999999947,-0.013849187614575,-0.0031956978604016,0.0063913957208032
0.1154999999999972,-0.0181095363186931,0.0,0.0031956978604016
0.1189999999999997,-0.0074577918937717,-0.0010646508437165,0.0074577918937717
0.1225000000000022,0.0010646508437165,-0.0031956978604016,0.0074577918937717
0.1260000000000047,0.0063913957208032,-0.0010646508437165,0.0031956978604016
0.1295000000000072,0.013849187614575,-0.0042603487041181,0.0085224427374883
0.1330000000000097,0.0095870935812048,-0.0053267448770866,0.0053267448770866
0.1365000000000122,0.0095870935812048,-0.0063913957208032,0.0085224427374883
0.1400000000000147,0.0063913957208032,-0.002131047016685,0.0106534897541733
0.1435000000000172,0.002131047016685,0.0010646508437165,0.0074577918937717
0.1470000000000197,-0.0063913957208032,0.0,0.0074577918937717
0.1504999999999938,-0.0106534897541733,0.002131047016685,0.0095870935812048
0.1539999999999963,-0.01598023463126,-0.0042603487041181,0.0095870935812048
0.1574999999999988,-0.0149138384582915,-0.002131047016685,0.0053267448770866
0.1610000000000013,-0.013849187614575,-0.0042603487041181,0.0042603487041181
0.1645000000000038,-0.0106534897541733,-0.002131047016685,0.0074577918937717
0.1680000000000063,-0.0010646508437165,-0.002131047016685,0.0095870935812048
0.1715000000000088,0.0042603487041181,-0.0031956978604016,0.0063913957208032
0.1750000000000113,0.0063913957208032,0.0,0.0117181405978899
0.1785000000000138,0.0095870935812048,0.0,0.0117181405978899
0.1820000000000163,0.0095870935812048,0.0,0.0117181405978899
0.1855000000000188,0.0063913957208032,-0.002131047016685,0.0085224427374883
0.1889999999999929,0.0053267448770866,-0.002131047016685,0.0095870935812048
0.1924999999999954,0.0,0.0,0.0095870935812048
0.1959999999999979,-0.0074577918937717,0.0010646508437165,0.0053267448770866
0.1995000000000004,-0.0117181405978899,0.0,0.0095870935812048
0.2030000000000029,-0.01598023463126,-0.0010646508437165,0.0063913957208032
0.2065000000000054,-0.0106534897541733,-0.0010646508437165,0.0085224427374883
0.2100000000000079,-0.0095870935812048,0.0,0.0074577918937717
0.2135000000000104,-0.0053267448770866,-0.002131047016685,0.0063913957208032
0.2170000000000129,0.0042603487041181,-0.0042603487041181,0.0063913957208032
0.2205000000000154,0.0053267448770866,-0.0031956978604016,0.0085224427374883
0.2240000000000179,0.0085224427374883,-0.0031956978604016,0.0117181405978899
0.227499999999992,0.0106534897541733,-0.002131047016685,0.0106534897541733
0.2309999999999945,0.0117181405978899,-0.0042603487041181,0.0095870935812048
0.234499999999997,0.0063913957208032,0.0,0.0074577918937717
0.2379999999999995,0.0031956978604016,0.0010646508437165,0.0117181405978899
0.241500000000002,-0.0053267448770866,-0.0042603487041181,0.0063913957208032
0.2450000000000045,-0.0085224427374883,-0.0042603487041181,0.0085224427374883
0.248500000000007,-0.013849187614575,0.0,0.0074577918937717
0.2520000000000095,-0.0127827914416064,-0.0042603487041181,0.0085224427374883
0.255500000000012,-0.0074577918937717,0.0,0.0095870935812048
0.2590000000000145,-0.0053267448770866,0.0,0.0095870935812048
0.262500000000017,-0.0031956978604016,-0.002131047016685,0.013849187614575
0.2660000000000195,0.0,-0.0031956978604016,0.0053267448770866
0.2694999999999936,0.0085224427374883,-0.0031956978604016,0.0042603487041181
0.2729999999999961,0.0063913957208032,-0.0031956978604016,0.0085224427374883
0.2764999999999986,0.0053267448770866,-0.0031956978604016,0.0095870935812048
0.2800000000000011,0.0063913957208032,-0.0031956978604016,0.0085224427374883
0.2835000000000036,0.0,-0.002131047016685,0.0095870935812048
0.2870000000000061,-0.0031956978604016,0.0,0.0095870935812048
0.2905000000000086,-0.0085224427374883,-0.0010646508437165,0.0063913957208032
0.2940000000000111,-0.0074577918937717,-0.0010646508437165,0.0095870935812048
0.2975000000000136,-0.0095870935812048,-0.0031956978604016,0.0074577918937717
0.3010000000000161,-0.0074577918937717,-0.0053267448770866,0.0063913957208032
0.3045000000000186,-0.0085224427374883,-0.0010646508437165,0.0106534897541733
0.3079999999999927,-0.0042603487041181,-0.0031956978604016,0.0053267448770866
0.3114999999999952,0.0,0.0,0.0085224427374883
0.3149999999999977,0.0053267448770866,-0.0010646508437165,0.0085224427374883
0.3185000000000002,0.0085224427374883,0.0,0.0095870935812048
0.3220000000000027,0.0063913957208032,-0.002131047016685,0.0074577918937717
0.3255000000000052,0.0063913957208032,-0.0031956978604016,0.0085224427374883
0.3290000000000077,0.002131047016685,-0.0010646508437165,0.0095870935812048
0.3325000000000102,-0.0010646508437165,0.0,0.0085224427374883
0.3360000000000127,-0.0031956978604016,-0.002131047016685,0.0074577918937717
0.3395000000000152,-0.0095870935812048,0.0010646508437165,0.0074577918937717
0.3430000000000177,-0.0149138384582915,0.0,0.0042603487041181
0.3464999999999918,-0.0106534897541733,-0.002131047016685,0.0063913957208032
0.3499999999999943,-0.0063913957208032,-0.002131047016685,0.0063913957208032
0.3534999999999968,-0.0053267448770866,0.0,0.0042603487041181
0.3569999999999993,-0.0031956978604016,-0.0031956978604016,0.0085224427374883
0.3605000000000018,0.0010646508437165,0.0,0.0074577918937717
0.3640000000000043,0.002131047016685,0.0,0.0085224427374883
0.3675000000000068,0.0085224427374883,-0.002131047016685,0.0095870935812048
0.3710000000000093,0.0042603487041181,0.0,0.0106534897541733
0.3745000000000118,0.002131047016685,-0.0031956978604016,0.0053267448770866
0.3780000000000143,-0.002131047016685,-0.002131047016685,0.0095870935812048
0.3815000000000168,-0.0042603487041181,0.0,0.0085224427374883
0.3850000000000193,-0.0053267448770866,-0.0010646508437165,0.0063913957208032
0.3884999999999934,-0.0117181405978899,0.0,0.0074577918937717
0.3919999999999959,-0.0095870935812048,-0.0042603487041181,0.0063913957208032
0.3954999999999984,-0.0063913957208032,0.0,0.0063913957208032
0.3990000000000009,-0.0031956978604016,-0.0063913957208032,0.0063913957208032
0.4025000000000034,-0.0031956978604016,-0.0117181405978899,0.002131047016685
0.4060000000000059,0.002131047016685,-0.0149138384582915,0.0031956978604016
0.4095000000000084,0.0010646508437165,-0.0117181405978899,0.0053267448770866
0.4130000000000109,0.0042603487041181,-0.0010646508437165,0.0117181405978899
0.4165000000000134,-0.002131047016685,-0.0042603487041181,0.0063913957208032
0.4200000000000159,0.002131047016685,-0.0031956978604016,0.002131047016685
0.4235000000000184,0.002131047016685,-0.01598023463126,0.0063913957208032
0.4269999999999925,-0.0031956978604016,-0.0245026773687483,0.0031956978604016
0.430499999999995,-0.0053267448770866,-0.0287630260728665,0.0074577918937717
0.4339999999999975,0.0010646508437165,-0.0213052341790947,0.0127827914416064
0.4375,-0.0074577918937717,-0.0053267448770866,0.0063913957208032
0.4410000000000025,-0.0149138384582915,0.0063913957208032,0.0031956978604016
0.444500000000005,-0.0095870935812048,0.0223716303520633,0.0063913957208032
0.4480000000000075,-0.0053267448770866,0.0191759324916617,0.0053267448770866
0.45150000000001,-0.002131047016685,0.0042603487041181,0.0053267448770866
0.4550000000000125,0.0063913957208032,-0.0042603487041181,0.0095870935812048
0.458500000000015,0.0117181405978899,-0.0042603487041181,0.0127827914416064
0.4620000000000175,0.0170448854749766,-0.0042603487041181,0.01598023463126
0.4654999999999916,0.0149138384582915,0.002131047016685,0.0181095363186931
0.4689999999999941,0.0063913957208032,0.0063913957208032,0.013849187614575
0.4724999999999966,-0.013849187614575,0.0191759324916617,0.0063913957208032
0.4759999999999991,-0.0202405833353782,0.0191759324916617,0.0063913957208032
0.4795000000000016,-0.0170448854749766,0.0106534897541733,0.0085224427374883
0.4830000000000041,-0.013849187614575,0.0063913957208032,0.013849187614575
0.4865000000000066,-0.0063913957208032,-0.0042603487041181,0.0106534897541733
0.4900000000000091,0.002131047016685,-0.0031956978604016,0.0074577918937717
0.4935000000000116,-0.002131047016685,-0.0053267448770866,0.0031956978604016
0.4970000000000141,-0.0127827914416064,0.0,0.0042603487041181
0.5005000000000166,-0.0042603487041181,-0.0031956978604016,0.0117181405978899
0.5040000000000191,0.0063913957208032,-0.0074577918937717,0.0106534897541733
0.5074999999999932,0.0149138384582915,0.0,0.0106534897541733
0.5109999999999957,0.0170448854749766,0.0095870935812048,-0.0010646508437165
0.5144999999999982,0.0085224427374883,0.0170448854749766,0.0010646508437165
0.5180000000000007,0.0,0.0117181405978899,0.0053267448770866
0.5215000000000032,-0.0074577918937717,0.01598023463126,0.0042603487041181
0.5250000000000057,-0.0074577918937717,0.0149138384582915,0.0042603487041181
0.5285000000000082,0.0063913957208032,0.01598023463126,0.0085224427374883
0.5320000000000107,0.0149138384582915,0.0223716303520633,0.0085224427374883
0.5355000000000132,0.01598023463126,0.02769837522915,0.0063913957208032
0.5390000000000157,0.0181095363186931,0.0287630260728665,0.0106534897541733
0.5425000000000182,0.0074577918937717,0.029827676916583,0.013849187614575
0.5459999999999923,0.0085224427374883,0.0404811666707564,0.0127827914416064
0.5494999999999948,0.0149138384582915,0.0532657034416149,0.0042603487041181
0.5529999999999973,0.0181095363186931,0.055395005129048,0.0
0.5564999999999998,0.0053267448770866,0.069244192743623,0.0074577918937717
0.5600000000000023,0.0,0.0809623333415129,0.0053267448770866
0.5635000000000048,-0.0074577918937717,0.0990718696602061,0.0095870935812048
0.5670000000000073,-0.0106534897541733,0.1129210572747811,0.0031956978604016
0.5705000000000098,-0.0191759324916617,0.1182478021518678,-0.0085224427374883
0.5740000000000123,-0.0308940730895516,0.1150521042914662,-0.01598023463126
0.5775000000000148,-0.0245026773687483,0.0809623333415129,-0.0319587239332681
0.5810000000000173,-0.0308940730895516,0.0266319790561814,-0.0287630260728665
0.5845000000000198,-0.0308940730895516,-0.0436768645311581,-0.0053267448770866
0.5879999999999939,0.002131047016685,-0.0681795418999064,0.0191759324916617
0.5914999999999964,0.0660484948832214,-0.0926804739394028,0.0234362811957798
0.5949999999999989,0.0703088435873395,-0.1097253594143795,0.0170448854749766
0.5985000000000014,0.0287630260728665,-0.1118564064310645,0.0127827914416064
0.6020000000000039,-0.002131047016685,-0.096942567972773,0.0085224427374883
0.6055000000000064,0.013849187614575,-0.0713752397603081,0.0063913957208032
0.6090000000000089,0.055395005129048,-0.0649838440395048,0.0031956978604016
0.6125000000000114,0.0521993072686464,-0.0617864008498512,0.0063913957208032
0.6160000000000139,0.0468725623915597,-0.0660484948832214,0.0042603487041181
0.6195000000000164,0.0596570991624181,-0.0820287295144815,0.0095870935812048
0.6230000000000189,0.0724398906040246,-0.0862890782185996,0.0074577918937717
0.626499999999993,0.0916158230956863,-0.0767019846373948,0.0127827914416064
0.6299999999999955,0.1012029166768912,-0.0777666354811113,0.0149138384582915
0.633499999999998,0.096942567972773,-0.0713752397603081,0.0117181405978899
0.6370000000000005,0.0777666354811113,-0.0617864008498512,0.0117181405978899
0.640500000000003,0.0639174478665363,-0.0404811666707564,0.0170448854749766
0.6440000000000055,0.0468725623915597,-0.0340897709499532,0.0255673282124649
0.647500000000008,0.0287630260728665,-0.0255673282124649,0.0308940730895516
0.6510000000000105,0.0245026773687483,-0.02769837522915,0.0330233747769847
0.654500000000013,0.0319587239332681,-0.0191759324916617,0.0447432607041266
0.6580000000000155,0.0223716303520633,-0.0181095363186931,0.0372854688103548
0.661500000000018,0.0149138384582915,0.0117181405978899,0.0351544217936697
0.664999999999992,0.0245026773687483,0.0202405833353782,0.0404811666707564
0.6684999999999945,0.0308940730895516,0.0202405833353782,0.0511346564249298
0.671999999999997,0.0458079115478431,0.0340897709499532,0.0511346564249298
0.6754999999999995,0.0511346564249298,0.0330233747769847,0.0521993072686464
0.679000000000002,0.0426122136874415,0.029827676916583,0.0394165158270399
0.6825000000000045,0.0468725623915597,0.0703088435873395,0.02769837522915
0.686000000000007,0.0191759324916617,0.0788312863248278,0.0106534897541733
0.6895000000000095,-0.0351544217936697,0.1278348957330726,0.0053267448770866
0.693000000000012,-0.0181095363186931,0.1427504795206162,0.0085224427374883
0.6965000000000146,0.0,0.1512729222581045,0.0181095363186931
0.700000000000017,0.0063913957208032,0.1683160624038291,0.013849187614575
0.7035000000000196,0.0074577918937717,0.1757738542976009,0.0170448854749766
0.7069999999999936,0.0394165158270399,0.1949497867892626,0.0191759324916617
0.7104999999999961,0.0756355884644262,0.2109282760912707,0.0085224427374883
0.7139999999999986,0.0543303542853314,0.2311688594266489,-0.0010646508437165
0.7175000000000011,0.041545817514473,0.2343645572870505,-0.0106534897541733
0.7210000000000036,0.0372854688103548,0.2354309534600191,-0.0085224427374883
0.7245000000000061,-0.0074577918937717,0.2311688594266489,-0.0085224427374883
0.7280000000000086,-0.0447432607041266,0.2215817658454441,-0.013849187614575
0.7315000000000111,-0.0074577918937717,0.2524758389349957,-0.0191759324916617
0.7350000000000136,0.0149138384582915,0.2673896773932873,-0.0127827914416064
0.7385000000000161,0.0372854688103548,0.260998281672484,-0.0106534897541733
0.7420000000000186,0.0053267448770866,0.2769767709744921,-0.0202405833353782
0.7454999999999927,-0.0468725623915597,0.2737810731140905,-0.0181095363186931
0.7489999999999952,-0.0649838440395048,0.2812388650078622,-0.0191759324916617
0.7524999999999977,-0.0639174478665363,0.2727164222703739,-0.0095870935812048
0.7560000000000002,-0.069244192743623,0.2823035158515788,-0.0063913957208032
0.7595000000000027,-0.0639174478665363,0.2876302607286655,0.0
0.7630000000000052,-0.0713752397603081,0.2993484013265554,0.0010646508437165
0.7665000000000077,-0.1097253594143795,0.3036087500306735,-0.0010646508437165
0.7700000000000102,-0.1150521042914662,0.2929570056057522,-0.0085224427374883
0.7735000000000127,-0.1150521042914662,0.2833681666952953,-0.0063913957208032
0.7770000000000152,-0.1193124529955843,0.2844345628682639,-0.002131047016685
0.7805000000000177,-0.1150521042914662,0.2940216564494687,-0.0042603487041181
0.7839999999999918,-0.0948115209560879,0.300413052170272,-0.002131047016685
0.7874999999999943,-0.0852244273748831,0.2993484013265554,0.0031956978604016
0.7909999999999968,-0.0713752397603081,0.2897613077453506,0.0127827914416064
0.7944999999999993,-0.0436768645311581,0.258867234655799,0.0234362811957798
0.7980000000000018,-0.029827676916583,0.2791078179911772,0.0255673282124649
0.8015000000000043,-0.0447432607041266,0.3302424744161071,0.0106534897541733
0.8050000000000068,-0.0841580312019145,0.3334381722765087,-0.0010646508437165
0.8085000000000093,-0.1033339636935762,0.3185243338182171,0.0042603487041181
0.8120000000000118,-0.1033339636935762,0.316393286801532,0.0223716303520633
0.8155000000000143,-0.096942567972773,0.3313071252598236,0.01598023463126
0.8190000000000168,-0.0767019846373948,0.3313071252598236,0.0170448854749766
0.8225000000000193,-0.0340897709499532,0.3430252658577135,0.0191759324916617
0.8259999999999934,-0.0191759324916617,0.3600701513326901,0.0234362811957798
0.8294999999999959,-0.0213052341790947,0.3504830577514853,0.0255673282124649
0.8329999999999984,0.002131047016685,0.3227846825223353,0.0319587239332681
0.8365000000000009,0.0809623333415129,0.2929570056057522,0.0383501196540714
0.8400000000000034,0.1470108282247343,0.2684543282370038,0.0372854688103548
0.8435000000000059,0.2737810731140905,0.2279731615662473,0.0468725623915597
0.8470000000000084,0.3600701513326901,0.1619246666830259,0.055395005129048
0.8505000000000109,0.492167141099133,0.0500682602519613,0.0926804739394028
0.8540000000000134,0.5496931932448661,-0.0458079115478431,0.1235745470289545
0.8575000000000159,0.5528888911052677,-0.2066679273871525,0.1480754790684509
0.8610000000000184,0.5028206308533064,-0.3302424744161071,0.1629910628559944
0.8644999999999925,0.4634041150262664,-0.4825800475179281,0.1565979218059392
0.867999999999995,0.4772533026408414,-0.5901743599156226,0.1629910628559944
0.8714999999999975,0.4623394641825499,-0.727598094559152,0.1747092034538843
0.875,0.4367721359700849,-0.8266699642193582,0.1725781564371993
0.8785000000000025,0.4005513180034466,-0.942788464683793,0.1651203645434275
0.882000000000005,0.3717882919305801,-1.0173594023045027,0.1629910628559944
0.8855000000000075,0.3462209637181151,-1.1004510373334488,0.1512729222581045
0.88900000000001,0.3238510786953038,-1.1430632510208902,0.1395530363309626
0.8925000000000125,0.288694911572382,-1.1973936053062215,0.1203788491685528
0.896000000000015,0.2599318854995155,-1.2325480270998914,0.1022693128498597
0.8995000000000175,0.2130593231079557,-1.2623774493457267,0.0703088435873395
0.9029999999999916,0.1747092034538843,-1.2783559386477348,0.0479389585645282
0.906499999999994,0.1289012919060412,-1.2943361732789946,0.013849187614575
0.9099999999999966,0.0862890782185996,-1.289009428401908,-0.0202405833353782
0.9134999999999992,-0.0010646508437165,-1.2772912878040183,-0.0660484948832214
0.9170000000000016,-0.0841580312019145,-1.2698334959102464,-0.1033339636935762
0.920500000000004,-0.2045368803704674,-1.2708998920832149,-0.1438151303643327
0.9240000000000066,-0.2812388650078622,-1.2762248916310497,-0.1693824585767977
0.9275000000000092,-0.3909642244222418,-1.2815516365081363,-0.1960144376329791
0.9310000000000116,-0.4687308599033531,-1.28048698566442,-0.2141239739516723
0.934500000000014,-0.5582156359823544,-1.275160240787333,-0.2290395577392158
0.9380000000000166,-0.6114795940947174,-1.2634421001894431,-0.2418223491808223
0.9415000000000192,-0.6636806466926157,-1.2432015168540649,-0.2439533961975074
0.9449999999999932,-0.6903126257487973,-1.2240255843624033,-0.2418223491808223
0.9484999999999956,-0.7052264642070888,-1.1984582561499384,-0.2428870000245388
0.9519999999999982,-0.7041618133633722,-1.176088371127127,-0.233299906443334
0.9555000000000008,-0.6732677402738206,-1.1356072044563703,-0.2173214171413259
0.9590000000000032,-0.6413090163405525,-1.1015174335064173,-0.2066679273871525
0.9625000000000056,-0.5837829641948193,-1.0461224283773694,-0.1853609478788057
0.9660000000000082,-0.5358440056302911,-0.9992481206565574,-0.1619246666830259
0.9695000000000108,-0.4655351620429515,-0.9385263706504228,-0.1395530363309626
0.9730000000000132,-0.4144005056180216,-0.8810003185046897,-0.1214435000122694
0.9765000000000156,-0.3366338701369103,-0.7883198445652868,-0.1022693128498597
0.9800000000000182,-0.2737810731140905,-0.7009661155029706,-0.096942567972773
0.9834999999999924,-0.1970790884766957,-0.5699337765802444,-0.0873537290623162
0.9869999999999948,-0.1491418752414194,-0.4740576047804398,-0.083093380358198
0.9904999999999972,-0.069244192743623,-0.3472873598910836,-0.0681795418999064
0.9939999999999998,-0.0074577918937717,-0.2641939795328856,-0.0575260521457331
0.9975000000000024,0.0703088435873395,-0.1544686201185061,-0.0521993072686464
1.0010000000000048,0.1214435000122694,-0.0671131457269379,-0.0575260521457331
1.0045000000000073,0.1768385051413174,0.041545817514473,-0.0724398906040246
1.0080000000000098,0.2045368803704674,0.1193124529955843,-0.083093380358198
1.0115000000000125,0.1981454846496642,0.2173214171413259,-0.1086607085706629
1.0150000000000148,0.1811005991746876,0.2737810731140905,-0.124639197872671
1.0185000000000173,0.1608600158393093,0.3185243338182171,-0.1342280367831279
1.0220000000000198,0.1427504795206162,0.3472873598910836,-0.1267702448893561
1.025499999999994,0.1150521042914662,0.3685925940701784,-0.1225098961852379
1.0289999999999964,0.0841580312019145,0.3707236410868635,-0.1161167551351827
1.0324999999999989,0.0585907029894496,0.3632658491930918,-0.0948115209560879
1.0360000000000014,0.0404811666707564,0.3568744534722885,-0.0713752397603081
1.039500000000004,0.0287630260728665,0.3430252658577135,-0.0255673282124649
1.0430000000000064,0.0394165158270399,0.3376985209806268,0.0074577918937717
1.0465000000000089,0.0511346564249298,0.3238510786953038,0.0575260521457331
1.0500000000000114,0.069244192743623,0.3100018910807288,0.1129210572747811
1.053500000000014,0.0948115209560879,0.2918906094327836,0.1715135055934827
1.0570000000000164,0.1054650107102613,0.2833681666952953,0.2226464166891606
1.0605000000000189,0.1225098961852379,0.2620629325162006,0.2780431671474606
1.063999999999993,0.1331616406101593,0.2375620004767041,0.3238510786953038
1.0674999999999957,0.1427504795206162,0.1928187397725775,0.3643322453660603
1.070999999999998,0.1235745470289545,0.138488385487246,0.3803107346680683
1.0745000000000005,0.0713752397603081,0.0788312863248278,0.3824417816847534
1.078000000000003,0.02769837522915,0.0202405833353782,0.3760503859639502
1.0815000000000057,-0.0394165158270399,-0.0777666354811113,0.3590055004889736
1.085000000000008,-0.0884201252352847,-0.152337573101821,0.3440916620306821
1.0885000000000105,-0.152337573101821,-0.2567361876391139,0.3089354949077603
1.092000000000013,-0.1960144376329791,-0.3291760782431385,0.2844345628682639
1.0955000000000157,-0.2450180470412239,-0.4218582975117934,0.2450180470412239
1.099000000000018,-0.2556715367953973,-0.4911024902554164,0.2215817658454441
1.102499999999992,-0.260998281672484,-0.5805872663344177,0.191754088928861
1.1059999999999943,-0.258867234655799,-0.6477004120613556,0.1651203645434275
1.109499999999997,-0.2524758389349957,-0.7222713496820654,0.1310323389227262
1.1129999999999995,-0.2354309534600191,-0.7766017039673969,0.1118564064310645
1.116500000000002,-0.191754088928861,-0.8437148496943347,0.0894847760790012
1.1200000000000043,-0.150206526085136,-0.8991098548233829,0.0703088435873395
1.123500000000007,-0.0905494269227178,-0.960898001002486,0.0479389585645282
1.1270000000000095,-0.0458079115478431,-1.0067059125503293,0.0308940730895516
1.130500000000012,0.0127827914416064,-1.073819058277267,0.0117181405978899
1.1340000000000146,0.0500682602519613,-1.1196269698251105,0.0010646508437165
1.137500000000017,0.0820287295144815,-1.1792840689875286,-0.0085224427374883
1.1410000000000196,0.0894847760790012,-1.2176341886416,-0.0170448854749766
1.1444999999999936,0.0607217500061347,-1.2666377980498449,-0.0351544217936697
1.147999999999996,0.0053267448770866,-1.3177724544747746,-0.0404811666707564
1.1514999999999986,-0.0937468701123714,-1.3806252514975943,-0.0436768645311581
1.1550000000000011,-0.1789695521580025,-1.4296288609058392,-0.0447432607041266
1.1585000000000036,-0.3217200316786187,-1.4935463087723757,-0.0447432607041266
1.162000000000006,-0.4335764381096833,-1.5425499181806204,-0.0447432607041266
1.1655000000000086,-0.5912390107593392,-1.60540271520344,-0.0511346564249298
1.1690000000000111,-0.713748906944577,-1.658666673315803,-0.0575260521457331
1.1725000000000136,-0.8607597351693115,-1.7183237724782212,-0.0703088435873395
1.176000000000016,-0.9598333501587696,-1.7662627310427494,-0.0884201252352847
1.1795000000000186,-1.0887328967355587,-1.8312448297530024,-0.1118564064310645
1.1829999999999927,-1.1718262770937566,-1.8759880904571289,-0.1342280367831279
1.1864999999999952,-1.2602464023290416,-1.9420365853403505,-0.1534022239455376
1.1899999999999975,-1.324163850195578,-1.982517752011107,-0.166186760716396
1.1935000000000002,-1.399799438660004,-2.0389791533131234,-0.1853609478788057
1.1970000000000027,-1.4520004912579023,-2.069871481073423,-0.191754088928861
1.2005000000000052,-1.52656968354936,-2.1103526477441794,-0.2002765316663493
1.2040000000000075,-1.599011319482637,-2.13805102297333,-0.2002765316663493
1.2075000000000102,-1.7087366788970164,-2.160422653325393,-0.1981454846496642
1.2110000000000127,-1.8099395955739075,-2.1806632366607714,-0.1874919948954908
1.2145000000000152,-1.9622771686757288,-2.200903819996149,-0.1672514115601126
1.2180000000000175,-2.0847853195317145,-2.2243401011919293,-0.1459461773810178
1.2214999999999918,-2.2445806845273077,-2.2616255700022845,-0.1065296615539778
1.2249999999999943,-2.37667767429375,-2.275474757616859,-0.0724398906040246
1.2284999999999968,-2.5684300178933595,-2.3159559242876155,-0.0319587239332681
1.231999999999999,-2.7133115444306606,-2.350045695237569,-0.0010646508437165
1.2355000000000018,-2.903999237186553,-2.379873372154152,0.0404811666707564
1.2390000000000043,-3.0467497167071693,-2.3969182576291286,0.0607217500061347
1.2425000000000068,-3.2203925239880853,-2.4139631431041053,0.096942567972773
1.246000000000009,-3.337575675296237,-2.428876981562397,0.1235745470289545
1.2495000000000118,-3.4622148731689077,-2.441661518333255,0.1459461773810178
1.2530000000000143,-3.5463729043708225,-2.448052914054059,0.1587289688226243
1.2565000000000168,-3.628401633885304,-2.4363347734561684,0.1768385051413174
1.260000000000019,-3.667818149712344,-2.434203726439484,0.1821652500184041
1.2634999999999934,-3.679536290310233,-2.4384640751436013,0.1864273440517743
1.266999999999996,-3.66462070652269,-2.444857216193657,0.1821652500184041
1.2704999999999984,-3.6081610505499255,-2.4597710546519487,0.1704471094205142
1.274000000000001,-3.544243602683389,-2.471489195249838,0.1480754790684509
1.2775000000000034,-3.4270604513752376,-2.481076288831044,0.1065296615539778
1.281000000000006,-3.340771373156638,-2.476815940126925,0.069244192743623
1.2845000000000084,-3.2321106645859747,-2.47468489311024,0.0074577918937717
1.288000000000011,-3.175651008613211,-2.4853383828644136,-0.0340897709499532
1.2915000000000134,-3.107471466713304,-2.522623851674768,-0.0756355884644262
1.295000000000016,-3.042487622673799,-2.5726921119267296,-0.0980072188164895
1.2985000000000184,-2.987092617544751,-2.6493940965641243,-0.1267702448893561
1.3019999999999925,-2.9764391277905777,-2.703724450849456,-0.1491418752414194
1.305499999999995,-3.0009418051593264,-2.780424690157598,-0.1842962970350892
1.3089999999999975,-3.033965179936311,-2.832623997426245,-0.2013411825100658
1.3125,-3.101080070992501,-2.8986724923094664,-0.2226464166891606
1.3160000000000025,-3.161801820998636,-2.927435518382333,-0.2343645572870505
1.319500000000005,-3.255546945781755,-2.950871799578113,-0.2535404897787122
1.3230000000000075,-3.3460981180337246,-2.9380890081365063,-0.2737810731140905
1.32650000000001,-3.5112184825771524,-2.912521679924041,-0.2950880526224372
1.3300000000000125,-3.6592957069748553,-2.893347492761632,-0.3153286359578155
1.333500000000015,-3.892595613418189,-2.85819132563871,-0.3472873598910836
1.3370000000000175,-4.097132493788656,-2.83475504444293,-0.3760503859639502
1.3404999999999916,-4.456137994277631,-2.7868160858784017,-0.4325100419367148
1.343999999999994,-4.72991906739172,-2.749530617068047,-0.4665998128866681
1.3474999999999966,-5.150710968730546,-2.684548518357794,-0.5124077244345112
1.350999999999999,-5.52036821364444,-2.6259578153683445,-0.547562146228181
1.3545000000000016,-6.019993146637346,-2.564169669189241,-0.5720648235969293
1.358000000000004,-6.410957371059587,-2.4949254764456184,-0.5731294744406459
1.3615000000000066,-6.953192772410682,-2.373481976433349,-0.5720648235969293
1.365000000000009,-7.355875137430814,-2.306367085377159,-0.5496931932448661
1.3685000000000116,-7.859760419127836,-2.2424496375106227,-0.492167141099133
1.372000000000014,-8.204916732002236,-2.185989981537858,-0.4431635316908882
1.3755000000000166,-8.60227235214528,-2.144442418694133,-0.3611348021764067
1.379000000000019,-8.844094701326103,-2.1316596272525263,-0.2929570056057522
1.3824999999999932,-9.059285071450743,-2.134855325112928,-0.1938833906162941
1.3859999999999957,-9.147705196686028,-2.16574939820248,-0.1225098961852379
1.3894999999999982,-9.156227639423516,-2.2381892888065043,-0.02769837522915
1.393000000000001,-9.07952565478612,-2.289322199902182,0.0383501196540714
1.3965000000000032,-8.91546994108641,-2.351110346081285,0.1150521042914662
1.4000000000000057,-8.735435738084691,-2.4246166328582786,0.1565979218059392
1.4035000000000082,-8.451001175216428,-2.5449937366975792,0.2130593231079557
1.407000000000011,-8.205983128175204,-2.6536544452682427,0.2503447919183106
1.4105000000000132,-7.895981237094475,-2.821972253001324,0.2652586303766022
1.4140000000000157,-7.714880637919787,-2.9498071487343966,0.2716500260974054
1.4175000000000182,-7.542302481482588,-3.1660621697027533,0.2663250265495707
1.4209999999999925,-7.451751309230618,-3.313072997927488,0.2769767709744921
1.4244999999999948,-7.4102054917161455,-3.4270604513752376,0.2940216564494687
1.4279999999999973,-7.465600496845194,-3.467541618045994,0.2940216564494687
1.4314999999999998,-7.636049351594959,-3.4909778992417744,0.2950880526224372
1.4350000000000025,-7.860826815300805,-3.4856511543646875,0.2897613077453506
1.4385000000000048,-8.195329638421029,-3.464345920185593,0.2982837504828389
1.4420000000000073,-8.428629544864364,-3.40681986803986,0.3036087500306735
1.4455000000000098,-8.934645873578072,-3.494173597102176,0.3153286359578155
1.4490000000000125,-9.31921695695026,-3.4206690556544346,0.3664615470534934
1.4525000000000148,-9.733619207897531,-3.224654618021455,0.4080091098972184
1.4560000000000173,-10.076644473755245,-3.156475076121549,0.4346410889533998
1.4594999999999914,-10.563484869977293,-3.0531411124279724,0.4847093492053612
1.462999999999994,-10.8969230422538,-2.935957961119821,0.5219948180157161
1.4664999999999964,-11.255926797413522,-2.853930976934592,0.5582156359823544
1.4699999999999989,-11.548883803019276,-2.8390171384763003,0.5901743599156226
1.4735000000000014,-11.788576850512664,-2.7484659662243307,0.6455693650446706
1.477000000000004,-11.935587678737395,-2.753792711101417,0.6572875056425604
1.4805000000000064,-12.160363397113992,-2.7633798046826223,0.6647452975363323
1.4840000000000089,-12.280743991611798,-2.7005270076598022,0.6711366932571355
1.4875000000000114,-12.383011559132404,-2.686679565374479,0.6711366932571355
1.491000000000014,-12.41603667923864,-2.690939914078597,0.6722030894301041
1.4945000000000164,-12.45864714759683,-2.712246893586944,0.670072042413419
1.4980000000000189,-12.48741191899895,-2.731421080749353,0.6562228547988439
1.501499999999993,-12.501259361284273,-2.8134498102638354,0.6317219227593476
1.5049999999999957,-12.47888773093221,-2.8816276068344897,0.6317219227593476
1.508499999999998,-12.390469351026177,-2.974309826103145,0.6370469223071823
1.5120000000000005,-12.289264689020031,-3.055272159444658,0.6413090163405525
1.515500000000003,-12.104970137314195,-3.1692578675631555,0.6530271569384424
1.5190000000000057,-11.892975465049956,-3.255546945781755,0.6551582039551274
1.522500000000008,-11.62878148551707,-3.388710331721166,0.628524479569694
1.5260000000000105,-11.4210489072862,-3.4963046441188608,0.5944364539489927
1.529500000000013,-11.121700505959646,-3.646511170203997,0.5273215628928027
1.5330000000000157,-10.872420364885052,-3.733866644595565,0.4740576047804398
1.536500000000018,-10.492109630216984,-3.810566883903708,0.3994866671597301
1.539999999999992,-10.193825879734144,-3.856374795451551,0.3366338701369103
1.5434999999999943,-9.833755728401457,-3.861701540328637,0.2492801410745941
1.546999999999997,-9.583412681812396,-3.843592004009945,0.1725781564371993
1.5504999999999995,-9.293649628737793,-3.827611769378685,0.0798976824977964
1.554000000000002,-9.12320251931728,-3.810566883903708,0.0
1.5575000000000043,-8.935710524421788,-3.740258040316368,-0.1214435000122694
1.561000000000007,-8.818527373113637,-3.6987104774726434,-0.2269085107225308
1.5645000000000095,-8.640624217128604,-3.64544651936028,-0.3611348021764067
1.568000000000012,-8.479764201289294,-3.623074889008217,-0.4612730680095813
1.5715000000000146,-8.25392034141048,-3.6166834932874137,-0.5933700577760241
1.575000000000017,-8.09412672174414,-3.5847247693541453,-0.6967040214696004
1.5785000000000196,-7.895981237094475,-3.513349529593837,-0.8245406625319252
1.5819999999999936,-7.735121221255165,-3.473933013766797,-0.9065676467171546
1.585499999999996,-7.549760273376359,-3.4441053368502144,-0.9939213757794708
1.5889999999999986,-7.417663283609917,-3.4100155659002613,-1.0471870792210858
1.5925000000000011,-7.214191054083165,-3.331184279575433,-1.0940596416126456
1.5960000000000036,-7.016045569433501,-3.287505669715023,-1.1121691779313387
1.599500000000006,-6.709239376213174,-3.2406331073234638,-1.095126037785614
1.6030000000000086,-6.455698886434462,-3.175651008613211,-1.073819058277267
1.6065000000000111,-6.046625125693527,-3.094686929942445,-1.030142193746109
1.6100000000000136,-5.688686021377522,-3.051010065411288,-0.9790075373211792
1.613500000000016,-5.184800739680499,-2.994550409438523,-0.8948495061192646
1.6170000000000186,-4.776791629783281,-2.959394242315601,-0.8405191518339332
1.6204999999999927,-4.230294134398815,-2.923175169678215,-0.7595568184924202
1.6239999999999952,-3.842525607836976,-2.9008035393261515,-0.7084221620674903
1.6274999999999975,-3.336509279123268,-2.8816276068344897,-0.6317219227593476
1.6310000000000002,-2.99561506028224,-2.8848250500241432,-0.5763251723010476
1.6345000000000027,-2.6110422315808006,-2.88588970086786,-0.5102766774178261
1.6380000000000052,-2.370286278572947,-2.893347492761632,-0.4602084171658648
1.6415000000000075,-2.105025902867093,-2.9050656333595217,-0.3909642244222418
1.6450000000000102,-1.9484279810611536,-2.9071949350469546,-0.341960615013997
1.6485000000000127,-1.7865033143781277,-2.9199794718178134,-0.2929570056057522
1.6520000000000152,-1.719388423321938,-2.9199794718178134,-0.274847469287059
1.6555000000000175,-1.7129970276011346,-2.9199794718178134,-0.2993484013265554
1.6589999999999918,-1.7481531947240565,-2.913586330767758,-0.3323735214327921
1.6624999999999943,-1.8195266891551125,-2.906130284203238,-0.4058780628805333
1.6659999999999968,-1.866400996875924,-2.8848250500241432,-0.4665998128866681
1.669499999999999,-1.8802484391612475,-2.854995627778308,-0.5518242402615512
1.6730000000000018,-1.8397672724904908,-2.8081230653867486,-0.6178727351447726
1.6765000000000043,-1.7129970276011346,-2.723965034184834,-0.6967040214696004
1.6800000000000068,-1.5542680587785105,-2.6579165393016124,-0.7435765838611602
1.683500000000009,-1.2708998920832149,-2.5652343200329577,-0.7947112402860901
1.6870000000000118,-1.0109662612544474,-2.4991858251497363,-0.8309320582527283
1.6905000000000143,-0.6242641308655758,-2.41183209608742,-0.8831313655213747
1.6940000000000168,-0.302544099186957,-2.348979299064601,-0.912959042437958
1.697500000000019,0.1491418752414194,-2.228600449896048,-0.9513109074212812
1.7009999999999934,0.5209301671719996,-2.1359199759566443,-0.9779428864774626
1.704499999999996,1.0748854544502358,-2.0208678716651782,-0.9928567249357544
1.7079999999999984,1.5297671267390138,-1.9356451896195472,-0.9885963762316362
1.711500000000001,2.2104909135773543,-1.7875679652218444,-0.970485094583691
1.7150000000000034,2.766575502543024,-1.6746469079470632,-0.9502445112483128
1.718500000000006,3.569809185566602,-1.52656968354936,-0.9108279954212728
1.7220000000000084,4.185552619023942,-1.4061925797100594,-0.8671511308901148
1.725500000000011,5.025005374684906,-1.290074079245625,-0.8074957770569485
1.7290000000000134,5.6460738076900805,-1.2368101211332618,-0.7563611206320187
1.732500000000016,6.424806558674162,-1.1398675531604887,-0.7009661155029706
1.7360000000000184,6.963846262164855,-1.0482517300648024,-0.6785944851509074
1.7394999999999925,7.629656210544904,-0.8980452039796664,-0.6679409953967339
1.742999999999995,8.080277534129564,-0.80642938088398,-0.6775280889779387
1.7464999999999975,8.595880956424477,-0.7286627454028686,-0.7148135577882937
1.75,8.920796685963497,-0.7286627454028686,-0.7574257714757352
1.7535000000000025,9.238254623608745,-0.8554329902922247,-0.8341277561131301
1.757000000000005,9.38206975397308,-1.0642319646960623,-0.8959141569629812
1.7605000000000075,9.493926160404143,-1.4338892096099574,-0.986465329214951
1.76400000000001,9.490730462543745,-1.727910866059426,-1.0855371988751572
1.7675000000000125,9.338392889441922,-2.0890474135650847,-1.24533256387075
1.771000000000015,9.128529264194366,-2.3223473200084186,-1.383820949357996
1.7745000000000175,8.888837962030228,-2.517297106797681,-1.5244403818619272
1.7779999999999916,8.817462722269921,-2.5790835076475327,-1.5883578297284635
1.781499999999994,8.906947498348922,-2.5908016482454226,-1.6288389963992198
1.7849999999999966,9.078461003942405,-2.5513868777476345,-1.6309700434159051
1.788499999999999,9.453444993733386,-2.422485585841593,-1.6330993451033382
1.7920000000000016,9.816710842926478,-2.2616255700022845,-1.6512106267512834
1.795500000000004,10.357883338763108,-1.992104845592312,-1.7151280746178197
1.7990000000000066,10.777608843928965,-1.730041913076111,-1.7992861058197342
1.802500000000009,11.372045297877955,-1.3305552459163812,-1.9633418195194452
1.806000000000012,11.81733987658553,-1.0056395163773606,-2.1156793926212663
1.809500000000014,12.438406564261452,-0.5571509851386378,-2.350045695237569
1.8130000000000168,12.907137424164803,-0.219450718828759,-2.541798038837178
1.816500000000019,13.546315393488673,0.1981454846496642,-2.8134498102638354
1.8199999999999927,14.025699743146198,0.5017542346803379,-3.01905134147802
1.823499999999996,14.654224222715891,0.875673573627603,-3.2896367167317084
1.8269999999999984,15.139999968094225,1.1100398762439057,-3.4845865035209704
1.830500000000001,15.765330495132767,1.3433397826872395,-3.749845133897573
1.8340000000000032,16.201036234929884,1.4871549130515724,-3.952250967251356
1.8375000000000057,16.745402683297666,1.6661244652095748,-4.237751926292588
1.841000000000008,17.117190975228244,1.7737187776072691,-4.454006947260945
1.844500000000011,17.531591480846267,1.8355069237863724,-4.711807785743776
1.8480000000000127,17.771282783010403,1.8078085485572224,-4.866276405862282
1.851500000000016,18.01630257538088,1.7460221477073712,-4.9887863020475205
1.8550000000000184,18.14946421599104,1.6789072566511811,-5.026071770857874
1.8584999999999925,18.29541039337205,1.5745086421138883,-5.014351884930733
1.8619999999999948,18.322040627098986,1.486088516878604,-4.979197463137062
1.8654999999999973,18.260255971578385,1.356122574128846,-4.883321291337259
1.869,18.17076945017013,1.2346790741165767,-4.778922676799965
1.8725000000000025,17.999257689905903,1.0205551001649042,-4.614866963100255
1.8760000000000048,17.834135580033223,0.8341277561131301,-4.468920785719237
1.8795000000000075,17.468738683823446,0.5923054069323076,-4.278233092963344
1.8830000000000096,17.137431558563623,0.3515477085952018,-4.129091217721925
1.8865000000000125,16.644199766620773,-0.0074577918937717,-3.900051659982709
1.8900000000000148,16.22234146910898,-0.2641939795328856,-3.7285398997184784
1.8935000000000173,15.623644666455869,-0.6498314590780407,-3.519740925314641
1.8969999999999916,15.115499036054729,-0.952375558264998,-3.364207654352418
1.9004999999999936,14.458209785082914,-1.3859519963746811,-3.144756935523658
1.9039999999999964,13.98202287861504,-1.727910866059426,-2.979634825650979
1.9074999999999989,13.334322466553688,-2.1806632366607714,-2.7623151538389057
1.9110000000000011,12.836828580577466,-2.5194281538143666,-2.620631070491258
1.914500000000004,12.168887585180732,-2.9519381957510813,-2.443790820020688
1.9180000000000064,11.64902206885245,-3.256613341954724,-2.344718950360482
1.9215000000000089,10.951253396539132,-3.6070946543769566,-2.228600449896048
1.9250000000000116,10.476129395585724,-3.8244160715182822,-2.14976916357122
1.9285000000000136,9.927502598513826,-4.060911675822019,-2.057088689631817
1.9320000000000164,9.586608379672798,-4.205793202359319,-1.992104845592312
1.9355000000000189,9.23292962406091,-4.355999728444456,-1.920729605832004
1.938999999999993,9.063547165484112,-4.426308572031795,-1.8930329759321056
1.9424999999999957,8.901620753471835,-4.469985436562954,-1.8759880904571289
1.945999999999998,8.812135977392833,-4.4486802023838585,-1.860007855825869
1.9495000000000005,8.945297618002993,-4.40074124381933,-1.829115528065569
1.953000000000003,9.04863158169657,-4.311256467740328,-1.8397672724904908
1.9565000000000052,9.209491597535878,-4.235620879275903,-1.8557475071217504
1.960000000000008,9.426813014677204,-4.187681920711374,-1.852551809261349
1.9635000000000105,9.7623822339704,-4.086479004034484,-1.8376379708030577
1.967000000000013,9.989288999363678,-4.0033856236762855,-1.8408336686634592
1.9705000000000157,10.241764838298671,-3.874484331770244,-1.8237887831884827
1.974000000000018,10.448432765685826,-3.7349312954392815,-1.779045522484356
1.977499999999992,10.714756046906144,-3.467541618045994,-1.6991478399865596
1.9809999999999943,10.863897922147563,-3.294963461608795,-1.6394924861533935
1.984499999999997,10.949122349522446,-3.149017284227777,-1.5702482934097703
1.9879999999999995,10.9246196721537,-3.069121347059233,-1.5393542203202186
1.991500000000002,10.75949930761027,-2.961525289332286,-1.534027475443132
1.9950000000000043,10.585854755000105,-2.931697612415703,-1.531896428426447
1.998500000000007,10.308877984025612,-2.917848424801128,-1.52656968354936
2.002000000000009,10.04681505150941,-2.9370243572927897,-1.5308317775827305
2.005500000000012,9.590868728376917,-3.023313435511389,-1.5585301528118805
2.0090000000000146,9.167945780021403,-3.113862862434108,-1.5766396891305736
2.012500000000017,8.535159206418342,-3.2587426436421567,-1.5936845746055504
2.01600000000002,8.034469622581721,-3.3769921911232763,-1.5958156216222352
2.0194999999999936,7.331374205391317,-3.537850461633334,-1.5862267827117784
2.022999999999996,6.76676717368816,-3.6560982637852018,-1.5819664340076602
2.026499999999998,5.995492214597848,-3.838265259132858,-1.5787707361472587
2.030000000000001,5.406382505525943,-3.958644108301411,-1.5851621318680618
2.033500000000004,4.638303244296035,-4.144005056180216,-1.6000759703263534
2.037000000000006,4.0992635408053415,-4.294211582265352,-1.6213812045054483
2.0405000000000086,3.4441053368502144,-4.472116483579638,-1.6384260899804248
2.044000000000011,3.010528898740531,-4.582908239166986,-1.6597330694887715
2.0475000000000136,2.5545825756080367,-4.699024994302169,-1.677842605807465
2.051000000000016,2.3031713875167568,-4.758682093464588,-1.6970185382991263
2.054500000000018,2.077329272967195,-4.849231520387305,-1.725781564371993
2.0579999999999927,1.9814531011673904,-4.900366176812235,-1.7620006370093797
2.0614999999999952,1.946296934044469,-4.954696531097566,-1.820593085328081
2.0649999999999977,1.9601461216590437,-4.985590604187118,-1.8802484391612475
2.0685,2.0251299656985484,-4.957892228957968,-1.9537547259382404
2.0720000000000027,2.166814049046196,-4.913148968253841,-2.0006272883298
2.075500000000005,2.465097799529035,-4.885452338353943,-2.01234542892769
2.079000000000008,2.697331309799401,-4.855622916108109,-2.0027583353464853
2.0825000000000102,3.094686929942445,-4.837513379789415,-1.966537517379847
2.0860000000000127,3.435582894112726,-4.828990937051927,-1.922860652848689
2.0895000000000152,3.941599222826434,-4.815141749437352,-1.8536164601050655
2.0930000000000177,4.280362394650777,-4.785314072520769,-1.8120706425905928
2.096499999999992,4.724592322514635,-4.758682093464588,-1.7385643558135997
2.0999999999999943,5.038854562299481,-4.736310463112525,-1.6512106267512834
2.103499999999997,5.43514553159881,-4.687306853704279,-1.525505032705644
2.1069999999999998,5.679097182467065,-4.635107546435632,-1.4253667668724692
2.110500000000002,5.923050578664572,-4.558405561798238,-1.28048698566442
2.1140000000000043,6.050887219726897,-4.513664046423363,-1.1622391835125518
2.117500000000007,6.135045250928812,-4.426308572031795,-1.0184240531482192
2.1210000000000093,6.12013141247052,-4.3496065873944,-0.9193504381587612
2.124500000000012,6.030646636391519,-4.254796811767565,-0.8021690321798618
2.1280000000000143,5.910267787222966,-4.2068578532030365,-0.7158799539612621
2.131500000000017,5.718513698294105,-4.170637035236398,-0.5986968026531109
2.1350000000000198,5.564046823504851,-4.1930086655884615,-0.5102766774178261
2.1384999999999934,5.329680520888548,-4.261188207488368,-0.3739193389472651
2.141999999999996,5.136861781115971,-4.345346238690282,-0.2737810731140905
2.1454999999999984,4.846035822526903,-4.490226019898332,-0.1235745470289545
2.149000000000001,4.61273591608357,-4.605278124189798,-0.0255673282124649
2.1525000000000034,4.23668553011962,-4.742701858833327,0.0958761717998045
2.156000000000006,3.913900847597284,-4.837513379789415,0.180035948330971
2.1595000000000084,3.449432081727301,-4.93338955158922,0.2791078179911772
2.163000000000011,3.080839487657123,-4.982393160997464,0.3515477085952018
2.1665000000000134,2.597194789295478,-5.030332119561993,0.4410324846742031
2.170000000000016,2.222209054175244,-5.069748635389033,0.5028206308533064
2.1735000000000184,1.6927564442657563,-5.088924567880694,0.5731294744406459
2.1769999999999925,1.2698334959102464,-5.077204681953552,0.6114795940947174
2.180499999999995,0.6785944851509074,-5.021809676824504,0.6626142505196473
2.183999999999997,0.2322352555996175,-4.9589568798016845,0.7041618133633722
2.1875,-0.3749839897909817,-4.806619306699863,0.7425119330174437
2.1910000000000025,-0.8767399698005716,-4.689437900720964,0.7510343757549319
2.194500000000005,-1.5723775950972034,-4.536033931446175,0.7520990265986485
2.1980000000000075,-2.139115673817046,-4.413525780590189,0.7329248394362388
2.20150000000001,-2.978570174807263,-4.244143322013391,0.6828548338550254
2.2050000000000125,-3.64544651936028,-4.123764472844838,0.6274598287259775
2.208500000000015,-4.511532999406678,-4.012974462586742,0.5433017975240628
2.212000000000017,-5.169885155892955,-3.936272477949347,0.4591437663221482
2.215499999999992,-6.059409662464386,-3.813762581764109,0.3174579376452486
2.218999999999994,-6.688998792877796,-3.707232920210132,0.1981454846496642
2.2224999999999966,-7.456013403263988,-3.525067670191727,0.0426122136874415
2.225999999999999,-7.995053106754681,-3.3322489304191496,-0.0777666354811113
2.2295000000000016,-8.635297472251516,-3.040356575657114,-0.2460844432141925
2.233000000000004,-9.078461003942405,-2.8166455081242368,-0.3760503859639502
2.2365000000000066,-9.63241454589139,-2.4757495439539565,-0.5401060996636612
2.240000000000009,-9.965852718167898,-2.200903819996149,-0.6530271569384424
2.243500000000012,-10.316335775919384,-1.8461604135405456,-0.7627525163528219
2.247000000000014,-10.482520791306529,-1.6160562049576137,-0.8096250787443816
2.2505000000000166,-10.551766729379402,-1.3667760638830195,-0.8266699642193582
2.254000000000019,-10.499567422110756,-1.1984582561499384,-0.7915155424256883
2.257499999999993,-10.26733216651114,-0.9822032351815808,-0.7041618133633722
2.260999999999996,-9.958394926274124,-0.8394545009902167,-0.5997614534968274
2.264499999999998,-9.41296382706263,-0.6679409953967339,-0.4463592295512898
2.2680000000000007,-8.987909831690434,-0.6402426201675839,-0.3174579376452486
2.271500000000003,-8.443543383322655,-0.5709984274239609,-0.1257055940456395
2.2750000000000057,-8.071755091392076,-0.5528888911052677,0.0234362811957798
2.278500000000008,-7.616873419103297,-0.5688691257365278,0.2727164222703739
2.2820000000000107,-7.363332929324585,-0.5965657556364258,0.4857757453783297
2.285500000000013,-7.152404653233314,-0.6551582039551274,0.8117561257610666
2.289000000000016,-7.147076163026975,-0.6988350684862855,1.0621009176793774
2.292500000000018,-7.397422700274538,-0.7680792612299085,1.4083218813974925
2.2959999999999923,-7.803300763155072,-0.8373234539735316,1.6703848139136932
2.2994999999999948,-8.570313628212011,-0.9672893967232892,2.0389791533131234
2.3029999999999973,-9.258495206944124,-1.1036484805231024,2.340456856327112
2.3065,-10.31740217209235,-1.282618032681105,2.7346167786097557
2.3100000000000023,-11.197336094424074,-1.4179107203079493,3.020115992321736
2.3135000000000048,-12.4075124911719,-1.606467366047157,3.392970680425284
2.3170000000000077,-13.315146534062023,-1.7417600536740012,3.6560982637852018
2.3205000000000098,-14.498690951753671,-1.940970189167382,3.958644108301411
2.3240000000000123,-15.376497317727212,-2.117810439637952,4.161049941655193
2.327500000000015,-16.410899860177437,-2.4363347734561684,4.413525780590189
2.3310000000000173,-17.041555386763818,-2.7005270076598022,4.58503754085442
2.334499999999992,-17.69032044966889,-3.0648592530258623,4.766138140029108
2.337999999999994,-18.033345715526604,-3.34396707101704,4.860949660985195
2.3414999999999964,-18.263451669438787,-3.700841524489328,4.942978390499676
2.344999999999999,-18.2613206224221,-3.937337128793064,4.970675020399574
2.3485000000000014,-18.05997943991204,-4.196204363448863,4.946174088360078
2.352000000000004,-17.800047554412522,-4.38902310322144,4.897170478951834
2.3555000000000064,-17.285508782961326,-4.5818418429940175,4.832186634912328
2.359000000000009,-16.68361628244781,-4.542425327166978,4.791705468241573
2.362500000000012,-15.495809770722795,-4.439093108802654,4.719265577637548
2.366000000000014,-14.582850728284836,-4.411394733573504,4.634041150262664
2.3695000000000164,-13.43339433621389,-4.277166696790376,4.508337301546277
2.373000000000019,-12.582221694625783,-4.135482613442728,4.417786129294306
2.376499999999993,-11.496684495750628,-3.984211436513876,4.317647863461133
2.3799999999999955,-10.753107911889469,-3.827611769378685,4.2878201865445495
2.383499999999998,-9.934960390407598,-3.5293280188958454,4.283559837840431
2.3870000000000005,-9.48753476468334,-3.2907031129046764,4.300602977986156
2.390500000000003,-9.137051706931857,-3.023313435511389,4.36558682202566
2.394000000000005,-9.027326347517477,-2.852864580761623,4.422048223327677
2.397500000000008,-9.114680076579791,-2.6770907264640225,4.506206254529592
2.4010000000000105,-9.411899176218911,-2.5471247837142648,4.5434917233399466
2.404500000000013,-10.061728889967702,-2.5034479191831065,4.583972890010703
2.4080000000000155,-10.606097083664734,-2.595063742278793,4.65215243191061
2.411500000000018,-11.278298427765586,-2.7836203880180004,4.772529535749911
2.414999999999992,-11.771530219708437,-2.933826914103136,4.841773728493534
2.4184999999999945,-12.418165980926076,-3.200151940652707,4.9056929216893215
2.421999999999997,-12.840024278437868,-3.4334518470960407,4.944043041343393
2.4254999999999995,-13.28105676311207,-3.7913909514120463,4.985590604187118
2.429000000000002,-13.51222562253872,-4.05238923308453,5.007960489209929
2.4325000000000045,-13.632606217036525,-4.390089499394409,5.016482931947418
2.436000000000007,-13.58679656015943,-4.65215243191061,5.012222583243299
2.439500000000009,-13.352432002872378,-4.952565484080881,4.981328510153748
2.443000000000012,-13.09036907035618,-5.12514364051808,4.93338955158922
2.4465000000000146,-12.592875184379958,-5.405316109352975,4.866276405862282
2.450000000000017,-12.139058162934896,-5.625833224354702,4.832186634912328
2.45350000000002,-11.450876584202785,-5.83037010472517,4.793836515258257
2.4569999999999936,-10.88094280762254,-5.929443719714628,4.772529535749911
2.460499999999996,-10.089427265196852,-6.0349069850956365,4.754419999431217
2.463999999999998,-9.506708951845749,-6.087106292364283,4.751224301570816
2.467500000000001,-8.748218529526298,-6.169135021878764,4.733114765252123
2.471000000000004,-8.17934940378977,-6.240510261639073,4.720330228481264
2.474500000000006,-7.428315028034838,-6.3449088761763655,4.683044759670909
2.4780000000000086,-6.890339975387862,-6.412022021903304,4.6361721972793495
2.481500000000011,-6.21387653725364,-6.4642213291719495,4.5573409109545215
2.4850000000000136,-5.73236288590868,-6.4780705167865245,4.495552764775418
2.488500000000016,-5.087858171707726,-6.414153068919989,4.425243921188079
2.492000000000018,-4.625518707525176,-6.315081199259782,4.373044613919432
2.4954999999999927,-4.104588540353176,-6.1712660688954495,4.312322863913297
2.4989999999999952,-3.759432227478778,-6.059409662464386,4.281428790823746
2.5024999999999977,-3.382317190671111,-5.897483250452107,4.249470066890478
2.506,-3.1703242637361235,-5.763256958998232,4.232425181415501
2.5095000000000027,-2.9423493568406247,-5.569371823052685,4.218575993800926
2.513000000000005,-2.798535971805544,-5.425556692688352,4.221771691661328
2.516500000000008,-2.651523398251557,-5.225281906351255,4.238816577136304
2.5200000000000102,-2.5758878097871314,-5.07400898409315,4.255861462611281
2.5235000000000127,-2.5194281538143666,-4.898235129795549,4.306996119036211
2.5270000000000152,-2.529015247395572,-4.7554846502749335,4.355999728444456
2.5305000000000177,-2.5822792055079344,-4.609540218223168,4.429504269892197
2.533999999999992,-2.6749614247765896,-4.533904629758742,4.4870303220379295
2.5374999999999943,-2.8571266747949933,-4.427373222875512,4.559470212641955
2.540999999999997,-3.0009418051593264,-4.362391124165259,4.59675568145231
2.5444999999999998,-3.214001128267282,-4.280362394650777,4.622323009664775
2.548000000000002,-3.3418360240003544,-4.2313587852425325,4.62445405668146
2.5515000000000043,-3.482455456504286,-4.153592149761422,4.580777192150301
2.555000000000007,-3.5825937223374607,-4.079021212140711,4.511532999406678
2.5585000000000093,-3.742387342003801,-3.99379853009508,4.371978217746464
2.562000000000012,-3.863832587345323,-3.9724915505867338,4.251599368577911
2.5655000000000143,-4.0438667903470416,-3.99379853009508,4.042802139503325
2.569000000000017,-4.190877618571776,-4.035344347609554,3.863832587345323
2.5725000000000198,-4.396480895115213,-4.121633425828153,3.585789420197862
2.5759999999999934,-4.5413606763232615,-4.213249248923839,3.347162768877441
2.579499999999996,-4.685175806687595,-4.334692748936109,3.0094642478968145
2.5829999999999984,-4.787445119537455,-4.433766363925567,2.7303564299056373
2.586500000000001,-4.90995327039344,-4.593559983591907,2.3436525541875133
2.5900000000000034,-5.011156187070331,-4.749093254554131,2.046435199877643
2.593500000000006,-5.180538645647128,-5.016482931947418,1.6576020224720869
2.5970000000000084,-5.33287621874895,-5.264698422178295,1.3731674596038226
2.600500000000011,-5.572567520913087,-5.602396943158922,1.0248154488690224
2.6040000000000134,-5.73662497994205,-5.832501151741855,0.7766017039673969
2.607500000000016,-5.904941042345879,-6.106282224855945,0.4602084171658648
2.6110000000000184,-6.018928495793629,-6.317210500947216,0.2311688594266489
2.6144999999999925,-6.147828042370418,-6.60164506381548,-0.0660484948832214
2.617999999999995,-6.221334329147412,-6.808312991202633,-0.2940216564494687
2.621499999999997,-6.320406198807618,-7.026699059187674,-0.5955011047927092
2.625,-6.36728050652843,-7.171578840395724,-0.8224096155152401
2.6285000000000025,-6.381129694143004,-7.399552001961971,-1.108973480070937
2.632000000000005,-6.3470399231930505,-7.580652601136659,-1.3049879177039163
2.6355000000000075,-6.220267932974443,-7.867218211021608,-1.5681172463930857
2.63900000000001,-6.057278615447701,-8.119694049956603,-1.752413543428175
2.6425000000000125,-5.746212073523255,-8.481893502976726,-1.9963669396256816
2.646000000000015,-5.439405880302927,-8.750349576542982,-2.168945096062881
2.649500000000017,-4.979197463137062,-9.069938561204918,-2.4139631431041053
2.652999999999992,-4.648954988720956,-9.284062535156588,-2.6110422315808006
2.656499999999994,-4.2867555357008325,-9.539734071951989,-2.84647318504082
2.6599999999999966,-4.055584930944931,-9.667568967685058,-3.008397851723846
2.663499999999999,-3.7391916441434,-9.783687468149491,-3.174584612440242
2.6670000000000016,-3.510153831733436,-9.824168634820252,-3.2619400868318102
2.670500000000004,-3.2363727586193454,-9.77729607242869,-3.347162768877441
2.6740000000000066,-3.049945414567571,-9.664373269824656,-3.3951017274419697
2.677500000000009,-2.8123834140908666,-9.481143368962536,-3.4206690556544346
2.681000000000012,-2.633413861932864,-9.335197191581518,-3.4164069616210644
2.684500000000014,-2.4182234918082237,-9.100832634294468,-3.3876439355481978
2.6880000000000166,-2.298911038812639,-8.909078545365608,-3.368469748385788
2.691500000000019,-2.236058241789819,-8.588423164530704,-3.352489513754528
2.694999999999993,-2.233927194773134,-8.318904185449984,-3.3450317218607566
2.698499999999996,-2.2520384764210792,-7.997184153771366,-3.3322489304191496
2.701999999999998,-2.3127602264272142,-7.764948898171748,-3.318399742804575
2.7055000000000007,-2.44698651788109,-7.470927241722279,-3.3066816022066847
2.709000000000003,-2.5865412995413046,-7.2472144288601505,-3.3002902064858817
2.7125000000000057,-2.774033294436796,-6.9521281215669655,-3.2544822949380383
2.716000000000008,-2.9114570290803248,-6.746526590352781,-3.193760544931904
2.7195000000000107,-3.0712506487466653,-6.429066907378281,-3.056336810288374
2.723000000000013,-3.161801820998636,-6.159546182968308,-2.934893310276105
2.726500000000016,-3.291767763748393,-5.815456266266878,-2.755923758118102
2.730000000000018,-3.365272305196134,-5.542739843996504,-2.6057172320329665
2.7334999999999923,-3.495239993275144,-5.104903057182702,-2.419289887981192
2.7369999999999948,-3.6007032586561536,-4.754419999431217,-2.2967799917959537
2.7404999999999973,-3.71575536294762,-4.312322863913297,-2.106092299040061
2.744,-3.8201557228141647,-3.9959295771117658,-1.9601461216590437
2.7475000000000023,-4.04067109248664,-3.581529071493744,-1.7683920327301823
2.7510000000000048,-4.215380295940525,-3.280049623150503,-1.614989808784645
2.7545000000000077,-4.457202645121346,-2.853930976934592,-1.3870166472183978
2.7580000000000098,-4.632976499418947,-2.5492558307309494,-1.215503141624915
2.7615000000000123,-4.85136256740399,-2.14976916357122,-0.9917920740920376
2.765000000000015,-5.011156187070331,-1.8365715746300888,-0.8415838026776498
2.7685000000000173,-5.181605041820097,-1.450934095084934,-0.6594185526592456
2.771999999999992,-5.280676911480303,-1.1792840689875286,-0.5262569120490862
2.775499999999994,-5.37974878114051,-0.8085604279006651,-0.3675279432264619
2.7789999999999964,-5.412773901246746,-0.5624759846864725,-0.2482137449016255
2.782499999999999,-5.451124020900817,-0.247149094057909,-0.1022693128498597
2.7860000000000014,-5.4713646042361965,-0.0308940730895516,0.0010646508437165
2.789500000000004,-5.500127630309063,0.2386266513204207,0.1203788491685528
2.7930000000000064,-5.5235639115048425,0.4144005056180216,0.2013411825100658
2.796500000000009,-5.553393333750677,0.6413090163405525,0.2929570056057522
2.800000000000012,-5.574698567929772,0.8011026360068932,0.3600701513326901
2.803500000000014,-5.574698567929772,0.9939213757794708,0.4314453910929982
2.8070000000000164,-5.547001938029874,1.1334761574396854,0.4761869064678729
2.810500000000019,-5.484149141007054,1.3113810587539714,0.519865516328283
2.813999999999993,-5.434079135425842,1.427497813889154,0.533712958613606
2.8174999999999955,-5.357378896117698,1.561725850672282,0.5486285424011496
2.820999999999998,-5.291330401234477,1.606467366047157,0.5454328445407479
2.8245000000000005,-5.197583531122105,1.6256432985388185,0.5369104018032596
2.828000000000003,-5.143253176836773,1.665059814365858,0.5017542346803379
2.831500000000005,-5.084662473847325,1.6629287673491733,0.4282496932325966
2.835000000000008,-5.009026885382898,1.64055713699711,0.3717882919305801
2.8385000000000105,-4.847100473370619,1.60114062117007,0.2801724688348938
2.842000000000013,-4.715003483604177,1.5766396891305736,0.1896230419121759
2.8455000000000155,-4.509401952389994,1.5169825899681555,0.0671131457269379
2.849000000000018,-4.320843561321534,1.4690453767328793,-0.0255673282124649
2.852499999999992,-4.088610051051169,1.2911404754185931,-0.1406194325039311
2.8559999999999945,-3.9746225976034175,1.2623774493457267,-0.2396913021641372
2.859499999999997,-3.774347811266322,1.1419986001771738,-0.3898978282492732
2.8629999999999995,-3.647577566376965,1.0503827770814873,-0.4836446983616446
2.866500000000002,-3.520805576158357,0.933199625773336,-0.6221330838488908
2.8700000000000045,-3.439843242816844,0.8330613599401614,-0.7297291415758372
2.873500000000007,-3.34822916505041,0.6860505317154271,-0.8447812458673034
2.877000000000009,-3.283245321010905,0.600827849669796,-0.9310703240859032
2.880500000000012,-3.2150657791109984,0.4293143440763132,-1.0461224283773694
2.8840000000000146,-3.1522129820881784,0.3334381722765087,-1.1281494125625986
2.887500000000017,-3.077643789796721,0.2045368803704674,-1.2581153553123563
2.89100000000002,-3.029704831232193,0.0777666354811113,-1.3657114130393029
2.8944999999999936,-2.992419362421838,-0.0884201252352847,-1.5031334023535805
2.897999999999996,-2.9679166850530896,-0.219450718828759,-1.596880272465952
2.901499999999998,-2.9221087735052462,-0.3984202709867616,-1.6874296993886695
2.905000000000001,-2.860322372655395,-0.547562146228181,-1.7268462152157096
2.908500000000004,-2.6941356119389988,-0.7126842561008605,-1.743891100690686
2.912000000000006,-2.546060132870548,-0.8085604279006651,-1.7513488925844578
2.9155000000000086,-2.3852001170312387,-0.9481134642316276,-1.7683920327301823
2.919000000000011,-2.275474757616859,-1.0386646364835974,-1.7833076165177262
2.9225000000000136,-2.0837206686879983,-1.16649953221667,-1.7801119186573249
2.926000000000016,-1.900489022496625,-1.2325480270998914,-1.779045522484356
2.929500000000018,-1.5649215485326835,-1.2911404754185931,-1.7588049391489775
2.9329999999999927,-1.1750219749541586,-1.2666377980498449,-1.7609359861656628
2.9364999999999952,-0.836258803129815,-1.235743724960293,-1.826984481048884
2.9399999999999977,-0.605088198373914,-1.1973936053062215,-1.8472250643842625
2.9435,-0.1448797812080492,-1.1750219749541586,-1.7833076165177262
2.9470000000000027,0.1768385051413174,-1.1174959228084254,-1.7172591216345048
2.950500000000005,0.492167141099133,-0.9800739334941478,-1.649079579734598
2.954000000000008,0.697768672313317,-0.8820667146776582,-1.5883578297284635
2.9575000000000102,0.9747471886170612,-0.7638171671965385,-1.4711746784203124
2.9610000000000127,1.18247976684793,-0.6572875056425604,-1.3646450168663344
2.9645000000000152,1.450934095084934,-0.4857757453783297,-1.2123074437645132
2.9680000000000177,1.6277743455555036,-0.3547434064556034,-1.079145803154354
2.971499999999992,1.8365715746300888,-0.1853609478788057,-0.8980452039796664
2.9749999999999943,1.9622771686757288,-0.0447432607041266,-0.7595568184924202
2.978499999999997,2.054957642615132,0.166186760716396,-0.6018925005135125
2.9819999999999998,2.0506972939110133,0.3536787556118869,-0.4996249329929048
2.985500000000002,1.994235892608997,0.6317219227593476,-0.38350643252847
2.9890000000000043,1.9143382101112003,0.8383881048172481,-0.2918906094327836
2.992500000000007,1.7971568041323012,1.1419986001771738,-0.1747092034538843
2.9960000000000093,1.705540981036615,1.383820949357996,-0.0884201252352847
2.999500000000012,1.5137868921077535,1.7481531947240565,0.0117181405978899
3.0030000000000143,1.328425944228948,2.042174851173525,0.0756355884644262
3.006500000000017,1.0610362668356608,2.3937225597687277,0.1651203645434275
3.0100000000000198,0.8660864800463982,2.655785492284928,0.2375620004767041
3.0134999999999934,0.614677037284371,3.0115952949135,0.3153286359578155
3.016999999999996,0.4037470158638482,3.265135784692212,0.3547434064556034
3.0204999999999984,0.1342280367831279,3.5783316283040905,0.4144005056180216
3.024000000000001,-0.0106534897541733,3.811633280076676,0.4729912086074713
3.0275000000000034,-0.1438151303643327,4.148265404884334,0.5496931932448661
3.031000000000006,-0.2013411825100658,4.38902310322144,0.6253287817092923
3.0345000000000084,-0.1928187397725775,4.679849061810508,0.7542300736153336
3.038000000000011,-0.1203788491685528,4.907822223376755,0.8628907821859965
3.0415000000000134,0.0063913957208032,5.190125739228334,0.9917920740920376
3.045000000000016,0.1193124529955843,5.386141922190565,1.0748854544502358
3.0485000000000184,0.2993484013265554,5.653531599583852,1.1696952300770718
3.0519999999999925,0.4442281825346047,5.849546037216831,1.2261566313790884
3.055499999999995,0.6114795940947174,6.097759782118457,1.286878381385223
3.058999999999997,0.7552947244590501,6.274600032589026,1.3444044335309562
3.0625,0.947048813387911,6.487659355696983,1.4306935117495558
3.0660000000000025,1.0684923134001805,6.64851762620704,1.4775660741411154
3.069500000000005,1.2250919805353715,6.814704386923435,1.522309334845242
3.0730000000000075,1.3305552459163812,6.925496142510784,1.5393542203202186
3.07650000000001,1.4381513036433275,7.076767319439637,1.527636079722329
3.0800000000000125,1.512722241264037,7.151338257060345,1.4935463087723757
3.083500000000015,1.624578647695102,7.234431637418544,1.4424116523474455
3.087000000000017,1.7204548194949063,7.279173152793418,1.3944744391121693
3.090499999999992,1.8365715746300888,7.285566293843474,1.340144084826838
3.093999999999994,1.9260563507090904,7.277043851105985,1.290074079245625
3.0974999999999966,2.0166075229610603,7.224844543837339,1.219765235658285
3.100999999999999,2.0666757832130216,7.168383142535323,1.1622391835125518
3.1045000000000016,2.109287996900463,7.067180225858431,1.083406151858472
3.108000000000004,2.1220707883420697,6.997936033114808,1.0088369595670144
3.1115000000000066,2.1263328823754395,6.89886241812535,0.9065676467171546
3.115000000000009,2.1082233460567465,6.826422527521325,0.8170828706381533
3.118500000000012,2.0837206686879983,6.751851589900616,0.7030954171904037
3.122000000000014,2.057088689631817,6.718828215123631,0.616806338971804
3.1255000000000166,2.044304152860958,6.718828215123631,0.5315836569261729
3.129000000000019,2.044304152860958,6.717761818950662,0.4825800475179281
3.132499999999993,2.06774217938599,6.745460194179812,0.4410324846742031
3.135999999999996,2.09117846058177,6.793399152744341,0.4165315526347067
3.139499999999998,2.07946031998388,6.945736725846162,0.3579391043160051
3.1430000000000007,2.042174851173525,7.066115575014715,0.3174579376452486
3.146500000000003,1.982517752011107,7.226973845524772,0.2780431671474606
3.1500000000000057,1.938840887479949,7.373984673749506,0.258867234655799
3.153500000000008,1.8461604135405456,7.6115466742262115,0.2109282760912707
3.1570000000000107,1.7428264498469697,7.788385179367528,0.1747092034538843
3.160500000000013,1.614989808784645,8.002510898648453,0.138488385487246
3.164000000000016,1.5649215485326835,8.147390679856501,0.1214435000122694
3.167500000000018,1.5052644493702656,8.315708487589582,0.0862890782185996
3.1709999999999923,1.4914152617556906,8.425433847003962,0.0490036094082447
3.1744999999999948,1.5212446840015257,8.507460831189192,0.002131047016685
3.1779999999999973,1.599011319482637,8.533028159401656,-0.0351544217936697
3.1815,1.774785173780238,8.549008394032917,-0.1001382658331746
3.1850000000000023,1.9676039135528156,8.53941955512246,-0.1491418752414194
3.1885000000000048,2.3138248772709304,8.475502107255924,-0.2205171150017275
3.1920000000000077,2.646198398703723,8.4062579145123,-0.2684543282370038
3.1955000000000098,3.1575397269652656,8.30079464913129,-0.3483520107348002
3.1990000000000123,3.5825937223374607,8.224092664493897,-0.4090737607409349
3.202500000000015,4.146136103196901,8.15271742473359,-0.5102766774178261
3.2060000000000173,4.5818418429940175,8.113300908906547,-0.5741958706136145
3.209499999999992,5.07081328623275,8.111171607219116,-0.6785944851509074
3.212999999999994,5.399989364475887,8.137803586275297,-0.7680792612299085
3.2164999999999964,5.774975099596122,8.200656383298117,-0.8959141569629812
3.219999999999999,6.000817214145684,8.275227320918827,-1.0088369595670144
3.2235000000000014,6.2298567718849,8.43395628974145,-1.1910022095854185
3.227000000000004,6.343842480003397,8.587358513686988,-1.3433397826872395
3.2305000000000064,6.441851444149139,8.788699696197055,-1.5287007305660454
3.234000000000009,6.498311100121904,8.912274243226008,-1.6512106267512834
3.237500000000012,6.4780705167865245,9.067807514188232,-1.8131352934343088
3.241000000000014,6.402434928322099,9.1892510142005,-1.945232283200752
3.2445000000000164,6.2511620060639945,9.306434165508652,-2.117810439637952
3.248000000000019,6.118000365453835,9.352242077056497,-2.250972080248111
3.251499999999993,5.933704068418746,9.338392889441922,-2.4203545388249084
3.2549999999999955,5.793084635914815,9.290453930877392,-2.5631050183455244
3.258499999999998,5.636486714108876,9.218014040273369,-2.77190224742011
3.2620000000000005,5.5512622867339925,9.147705196686028,-2.939153658980223
3.265500000000003,5.503323328169464,9.043304836819482,-3.186302753038132
3.269000000000005,5.522499260661126,8.95488645691345,-3.380187888983678
3.272500000000008,5.6460738076900805,8.82918086286781,-3.667818149712344
3.2760000000000105,5.839957198306374,8.746087482509612,-3.892595613418189
3.279500000000013,6.22559467785153,8.632101774391115,-4.207922504046753
3.2830000000000155,6.603776110832165,8.568182581195327,-4.456137994277631
3.286500000000018,7.240823033139347,8.470175362378837,-4.807685702872832
3.289999999999992,7.783060179819694,8.387083727349891,-5.087858171707726
3.2934999999999945,8.544746299999547,8.262442784147968,-5.467104255532078
3.296999999999997,9.094441238573664,8.142065680308667,-5.750472422227373
3.3004999999999995,9.776229676255722,7.953507289240208,-6.102021876151826
3.304000000000002,10.230046697700784,7.794778320417583,-6.349169224880484
3.3075000000000045,10.715822443079114,7.552955971236761,-6.628277042871661
3.311000000000007,10.987472469176518,7.339896648128805,-6.820031131800523
3.314500000000009,11.2420793551282,7.072506970735518,-7.019241267293904
3.318000000000012,11.363522855140468,6.870099392052484,-7.144946861339542
3.3215000000000146,11.29214761538016,6.544119011669746,-7.257867918614323
3.325000000000017,11.119569458942962,6.274600032589026,-7.309002575039253
3.32850000000002,10.7243448858166,5.940095464139549,-7.31006722588297
3.3319999999999936,10.334445312238076,5.695077417098325,-7.303675830162168
3.335499999999996,9.751726998886973,5.329680520888548,-7.237627335278945
3.338999999999998,9.30217207147528,5.067617588372348,-7.173709887412409
3.342500000000001,8.707737362855541,4.774660582766596,-7.078898366456321
3.346000000000004,8.307186044852095,4.59675568145231,-7.016045569433501
3.349500000000006,7.8267370443508515,4.416721478450591,-6.959585913460737
3.3530000000000086,7.5295179447117295,4.360260077148574,-6.938278933952391
3.356500000000011,7.209928960049796,4.352804030584054,-6.954257423254398
3.3600000000000136,7.086354413020841,4.36558682202566,-6.973433355746059
3.363500000000016,7.094878601087581,4.410330082729787,-7.000065334802241
3.367000000000018,7.20886430920608,4.4625293899984335,-7.041612897645966
3.3704999999999927,7.456013403263988,4.546687421200348,-7.118314882283361
3.3739999999999952,7.706358195182299,4.602082426329396,-7.186492678854015
3.3774999999999977,8.089864627710769,4.658543827631412,-7.283435246826788
3.381,8.37962593545612,4.711807785743776,-7.345223393005892
3.3845000000000027,8.733304691068007,4.735244066939556,-7.426183981018152
3.388000000000005,8.947428665019679,4.71074313490006,-7.447490960526499
3.391500000000008,9.141313800965223,4.685175806687595,-7.447490960526499
3.3950000000000102,9.289389280033674,4.637238593452318,-7.425119330174436
3.3985000000000127,9.551452212549876,4.575450447273215,-7.343092345989207
3.4020000000000152,9.796470259591098,4.537100327619143,-7.277043851105985
3.4055000000000177,10.13736447843213,4.439093108802654,-7.189688376714417
3.408999999999992,10.35681694259014,4.319778910477817,-7.142815814322858
3.4124999999999943,10.570940916541812,4.117373077124035,-7.078898366456321
3.415999999999997,10.69664651058745,3.938403524966032,-7.027763710031391
3.4194999999999998,10.824481406320524,3.706168269366415,-6.94999707455028
3.423000000000002,10.893727344393398,3.5538306962645936,-6.877557183946255
3.4265000000000043,11.010908750372298,3.352489513754528,-6.757178334777702
3.430000000000007,11.108915969188788,3.168193216719439,-6.6431926266592045
3.4335000000000093,11.212249932882363,2.9114570290803248,-6.498311100121904
3.437000000000012,11.226099120496938,2.743139221347244,-6.397108183445012
3.4405000000000143,11.197336094424074,2.476815940126925,-6.25329305308068
3.444000000000017,11.13554969357422,2.2328625439294174,-6.125458157347607
3.4475000000000198,10.96403618798074,1.8909019289154203,-5.937964417122864
3.4509999999999934,10.762695005470674,1.6512106267512834,-5.792019985071098
3.454499999999996,10.4068852028421,1.324163850195578,-5.567242521365252
3.4579999999999984,10.084100520319764,1.0876682458918423,-5.381879828157194
3.461500000000001,9.605782566835208,0.7904508915819718,-5.1080987550431045
3.4650000000000034,9.22866753002754,0.5923054069323076,-4.885452338353943
3.468500000000006,8.796157488090826,0.2961527034661538,-4.563732306675325
3.4720000000000084,8.475502107255924,0.0894847760790012,-4.336823795952794
3.475500000000011,8.006771247352571,-0.1438151303643327,-4.081152259157396
3.4790000000000134,7.692509007567723,-0.3110665419244454,-3.883006774507732
3.482500000000016,7.329243158374632,-0.4942981881158181,-3.624139539851933
3.4860000000000184,7.170514189552007,-0.5752605214573311,-3.4291914983919227
3.4894999999999925,7.024568012170989,-0.7446429800341288,-3.1586061231382336
3.492999999999995,6.967041960025257,-0.8596950843255949,-2.950871799578113
3.496499999999997,6.915907303600327,-0.9182857873150446,-2.6920045649223137
3.5,6.99686963694184,-0.9310703240859032,-2.5013168721664214
3.5035000000000025,7.090616507054212,-1.0759501052939522,-2.233927194773134
3.507000000000005,7.136424418602054,-1.1537167407750637,-2.04004380415684
3.5105000000000075,7.143880465166575,-1.176088371127127,-1.829115528065569
3.51400000000001,7.084225111333408,-1.17821767281456,-1.66825551222626
3.5175000000000125,7.021372314310589,-1.1910022095854185,-1.4104529284141776
3.521000000000015,6.986217892516918,-1.1952625582895369,-1.1952625582895369
3.524500000000017,6.861576949314996,-1.1281494125625986,-0.9438531155275096
3.527999999999992,6.758242985621418,-1.065296615539779,-0.7574257714757352
3.531499999999994,6.540923313809345,-0.9928567249357544,-0.5049499325407395
3.5349999999999966,6.389650391551241,-0.905502995873438,-0.3131975889411305
3.538499999999999,6.247966308203593,-0.7734060061069953,-0.0841580312019145
3.5420000000000016,6.160612579141277,-0.6796591359946239,0.0585907029894496
3.545500000000004,5.948617906877037,-0.4825800475179281,0.2034722295267509
3.5490000000000066,5.7270361410315935,-0.3483520107348002,0.2950880526224372
3.552500000000009,5.493736234588259,-0.2237128128621291,0.4697955107470696
3.556000000000012,5.389337620050966,-0.1065296615539778,0.6125459902676859
3.559500000000014,5.221019812317885,0.0756355884644262,0.7606214693361367
3.5630000000000166,5.083596077674356,0.2162550209683574,0.8746089227838865
3.566500000000019,4.983459557170433,0.4133358547743051,1.0599698706626923
3.569999999999993,5.040985609316167,0.5752605214573311,1.1973936053062215
3.573499999999996,5.123012593501396,0.8074957770569485,1.3049879177039163
3.576999999999998,5.119816895640994,0.972616141600376,1.3571889703018147
3.5805000000000007,5.117685848624308,1.2176341886416,1.4243021160287526
3.584000000000003,5.149644572557578,1.399799438660004,1.4818281681744856
3.5875000000000057,5.260436328144925,1.6022070173430385,1.573443991270172
3.591000000000008,5.298786447798997,1.7268462152157096,1.6384260899804248
3.5945000000000107,5.276414817446933,1.850420762244664,1.705540981036615
3.598000000000013,5.224215510178286,1.9622771686757288,1.7598713353219464
3.601500000000016,5.209301671719995,2.1316596272525263,1.8429629703508923
3.605000000000018,5.210368067892964,2.2072952157169525,1.8866415802113023
3.608499999999992,5.068682239216065,2.308498132393844,1.9122071630945157
3.6119999999999943,4.8939747810914325,2.374546627277065,1.9068821635466808
3.615499999999997,4.70222069216257,2.440595122160287,1.9164692571278852
3.619,4.576515098116931,2.4938608256019017,1.9249916998653736
3.6225000000000014,4.398611942131897,2.5876059503850213,1.9271227468820589
3.6260000000000048,4.237751926292588,2.645132002530754,1.9239270490216571
3.6295000000000073,4.023626207011663,2.6813528204973927,1.9239270490216571
3.6330000000000098,3.858505842468236,2.6962666589556843,1.922860652848689
3.636500000000012,3.628401633885304,2.716507242291062,1.9239270490216571
3.640000000000015,3.5303944150688142,2.715442591447346,1.945232283200752
3.643500000000017,3.451561383414734,2.6824174713411093,1.9803867049944217
3.646999999999992,3.392970680425284,2.627022466212061,1.9995626374860835
3.650499999999994,3.310941950910803,2.538602340976776,2.0219342678381467
3.653999999999997,3.2960281124525115,2.4235502366853097,2.043239502017242
3.657499999999999,3.2470245030442664,2.243516033683591,2.0560222934588483
3.661000000000002,3.2129347320943134,2.1455088148671013,2.059219736648502
3.664500000000004,3.178846706473612,2.049630897738045,2.0368481062964383
3.6680000000000064,3.092557628255012,1.97719100713402,2.0006272883298
3.671500000000009,2.929566565399018,1.8930329759321056,1.945232283200752
3.6750000000000114,2.755923758118102,1.8429629703508923,1.8823794861779324
3.678500000000014,2.4672271012164684,1.7470867985510878,1.7833076165177262
3.682000000000016,2.219013356314843,1.6458838818741963,1.6906253972490712
3.685500000000019,1.871725996423759,1.512722241264037,1.5681172463930857
3.688999999999993,1.6043380643597236,1.4189753711516655,1.453065142101619
3.692499999999996,1.2634421001894431,1.29646722029568,1.29646722029568
3.695999999999998,1.0258800997127389,1.2133738399374818,1.1696952300770718
3.699500000000001,0.7414472821737271,1.0897992929085274,1.0088369595670144
3.703000000000003,0.5251905158761178,0.9928567249357544,0.8788692714880046
3.7065000000000055,0.2727164222703739,0.8948495061192646,0.7169446048049787
3.710000000000008,0.1406194325039311,0.8469105475547365,0.5986968026531109
3.7135000000000105,0.0330233747769847,0.7872551937215703,0.4474238803950063
3.717000000000013,-0.0149138384582915,0.7606214693361367,0.3313071252598236
3.720500000000016,-0.0340897709499532,0.7584921676487036,0.1768385051413174
3.724000000000018,-0.002131047016685,0.7606214693361367,0.0617864008498512
3.727499999999992,0.0681795418999064,0.7414472821737271,-0.0820287295144815
3.7309999999999945,0.1619246666830259,0.709488558240459,-0.1789695521580025
3.734499999999997,0.2737810731140905,0.670072042413419,-0.3089354949077603
3.738,0.3451563128743986,0.6753987872905056,-0.4101401569139035
3.741500000000002,0.4772533026408414,0.6018925005135125,-0.5369104018032596
3.745000000000005,0.316393286801532,0.6583539018155291,-0.6327865736030641
3.748500000000007,0.4175962034784233,0.6722030894301041,-0.7169446048049787
3.7520000000000095,0.2791078179911772,0.5667380787198427,-0.7702103082465936
3.755500000000012,0.1182478021518678,0.4708619069200382,-0.81069147491735
3.759000000000015,-0.0639174478665363,0.5560845889656694,-0.8490415945714216
3.762500000000017,-0.3334381722765087,0.7084221620674903,-0.8959141569629812
3.76600000000002,-0.5709984274239609,0.767014610386192,-0.933199625773336
3.7694999999999936,-1.0706233604168656,0.8905874120858945,-1.0109662612544474
3.772999999999996,-1.573443991270172,1.0088369595670144,-1.1004510373334488
3.776499999999999,-2.260560919158568,1.1622391835125518,-1.2112427929207967
3.780000000000001,-2.743139221347244,1.300727568999798,-1.2581153553123563
3.783500000000004,-3.3215954406649764,1.4871549130515724,-1.3433397826872395
3.787000000000006,-3.748780483053857,1.5819664340076602,-1.4200400219953824
3.7905000000000086,-4.244143322013391,1.6746469079470632,-1.5287007305660454
3.794000000000011,-4.550949515233718,1.7577402883052613,-1.6288389963992198
3.7975000000000136,-4.826859890035242,1.8536164601050655,-1.7577402883052613
3.801000000000016,-4.913148968253841,1.899424371652909,-1.834440527613404
3.804500000000018,-4.880125593476857,1.945232283200752,-1.9026200695133104
3.8079999999999927,-4.758682093464588,1.968668564396532,-1.931383095586177
3.8114999999999952,-4.496619160948386,1.970799611413217,-1.9164692571278852
3.8149999999999977,-4.270775301069572,1.972930658429902,-1.8632035536862703
3.8185,-3.979949342480505,1.97719100713402,-1.765196334869781
3.8220000000000023,-3.836134212116173,1.9953005434527131,-1.654406324611685
3.825500000000005,-3.749845133897573,2.0315213614193515,-1.4733057254369972
3.829000000000008,-3.772216764249636,2.033652408436037,-1.3060543138768848
3.83250000000001,-3.943728524513867,2.0528265955984466,-1.0663630117127476
3.8360000000000127,-4.195139712605147,2.080524970827597,-0.9001762509963515
3.8395000000000152,-4.694762900268799,2.123137184515038,-0.6998997193300021
3.8430000000000177,-5.201845625155475,2.142311371677448,-0.5678027295635593
3.846499999999992,-5.999752563301967,2.141246720833731,-0.4218582975117934
3.8499999999999934,-6.6943255377548825,2.150833814414936,-0.3376985209806268
3.853499999999997,-7.708489242198984,2.148704512727503,-0.2503447919183106
3.8569999999999993,-8.501069435468388,2.1252682315317237,-0.1970790884766957
3.860500000000002,-9.591933379220633,2.0826560178442817,-0.1427504795206162
3.864000000000004,-10.411147296875471,2.106092299040061,-0.1075943123976944
3.867500000000007,-11.373109948721677,2.220078007158559,-0.0767019846373948
3.871000000000009,-11.98458954281639,2.2722790597564577,-0.0990718696602061
3.874500000000012,-12.813392299381686,2.219013356314843,-0.2226464166891606
3.8780000000000143,-13.42700294049309,2.194512424275346,-0.3675279432264619
3.881500000000017,-14.058724863252436,2.220078007158559,-0.5678027295635593
3.8850000000000193,-14.281371279941595,2.257363475968914,-0.6732677402738206
3.8884999999999934,-14.23769441541044,2.2999756896563555,-0.7180110009779472
3.891999999999996,-14.02143939444208,2.328738715729222,-0.6956393706258839
3.8954999999999984,-13.52820585716998,2.387331164047924,-0.5848476150385359
3.899000000000001,-13.024320575472958,2.448052914054059,-0.4506213235846599
3.9025000000000034,-12.300982829617922,2.510905711076878,-0.2311688594266489
3.906000000000006,-11.857821043256289,2.530079898239288,-0.0383501196540714
3.909500000000008,-11.293214011553127,2.4203545388249084,0.3046751462036421
3.913000000000011,-10.966167234997425,2.294648944779269,0.6125459902676859
3.916500000000013,-10.7552372135769,2.158291606308708,1.0173594023045027
3.920000000000016,-10.791458031543538,2.1018302050066917,1.298596521983113
3.9235000000000175,-11.079088292272203,2.080524970827597,1.64055713699711
3.926999999999993,-11.454072282063189,2.043239502017242,1.8759880904571289
3.930499999999995,-12.078336412928762,1.9186003041445707,2.1561605592920228
3.9339999999999975,-12.688753101509016,1.848289715227979,2.327674064885506
3.9375,-13.558033534086562,1.802481803680136,2.508774664060193
3.9410000000000025,-14.1982778995834,1.719388423321938,2.597194789295478
3.944500000000005,-15.108041244160956,1.5532034079347938,2.636609559793266
3.948000000000008,-15.832443640859706,1.4978066574764937,2.617435372630856
3.95150000000001,-16.65591790721866,1.52656968354936,2.6046508358599976
3.955000000000013,-17.061795970099194,1.596880272465952,2.6153043256141717
3.958500000000015,-17.367535767146553,1.6671891160532917,2.6579165393016124
3.9620000000000175,-17.50176380392968,1.6799736528241498,2.686679565374479
3.965499999999992,-17.53691822572335,1.6597330694887715,2.7303564299056373
3.968999999999994,-17.439977403079833,1.6512106267512834,2.7484659662243307
3.9724999999999966,-17.23224307951971,1.6437528348575114,2.749530617068047
3.975999999999999,-17.01598805855135,1.6043380643597236,2.751661664084732
3.9795000000000016,-16.556844292229204,1.4296288609058392,2.777228992297197
3.983000000000004,-16.308630547327578,1.326294897212263,2.793209226928457
3.986500000000007,-16.517429521731415,1.476501423297399,2.88588970086786
3.990000000000009,-16.04230726610726,1.3454708297039246,3.079773091484154
3.993500000000012,-15.53309523953315,1.2645067510331598,3.2076097325464787
3.997000000000014,-15.358386036079263,1.3433397826872395,3.150083680400746
4.000500000000017,-15.235876139894028,1.4413470015037293,3.0627282060091776
4.004000000000019,-15.049450541171504,1.367840714726736,3.0627282060091776
4.007499999999993,-14.78525656163862,1.3039232668601997,3.065923903869579
4.010999999999996,-14.751166790688668,1.3412087356705549,3.0382272739696807
4.014499999999998,-14.762884931286557,1.3273595480559794,3.003072852176011
4.018000000000001,-14.69470538938665,1.3316216420893496,3.023313435511389
4.021500000000003,-14.558348050916088,1.3444044335309562,3.031834132919626
4.025000000000006,-14.41772861841216,1.3124457095976878,3.023313435511389
4.028500000000008,-14.156732082068926,1.2602464023290416,2.992419362421838
4.032000000000011,-13.89147170636307,1.1814151160042137,2.9434157530135927
4.035500000000013,-13.429133987509774,0.940657417667108,2.8379507423033314
4.039000000000016,-13.033907669054162,0.7158799539612621,2.743139221347244
4.042500000000018,-12.519370642932218,0.4570127193054631,2.629153513228746
4.045999999999992,-12.119883975772488,0.2684543282370038,2.566300716205926
4.049499999999995,-11.578713225265108,-0.0330233747769847,2.571627461083013
4.052999999999997,-11.21438097989905,-0.3174579376452486,2.617435372630856
4.0565,-10.8106339640352,-0.7787327509840819,2.726094335872267
4.060000000000002,-10.639120458441717,-1.196328954462505,2.8177101589679534
4.063500000000005,-10.5826590571397,-1.7854369182051593,2.9625899401760027
4.067000000000007,-10.591181499877193,-2.2445806845273077,3.087230883377926
4.07050000000001,-10.610357432368852,-2.826232601705441,3.28537636802759
4.074000000000012,-10.647642901179209,-3.196956242792305,3.431320800079356
4.077500000000015,-10.697711161431169,-3.6401197744831935,3.625205936024902
4.081000000000017,-10.695580114414485,-3.955446665111757,3.769021066389235
4.084499999999991,-10.616748828089657,-4.336823795952794,3.943728524513867
4.087999999999994,-10.524068354150252,-4.552014166077434,4.035344347609554
4.091499999999996,-10.390906713540092,-4.804488259683179,4.118437727967751
4.094999999999999,-10.259874374617366,-5.029267468718277,4.153592149761422
4.098500000000001,-10.03190121305112,-5.317962380290658,4.179159477973887
4.102000000000004,-9.867845499351407,-5.502258677325747,4.174899129269768
4.105500000000006,-9.664373269824656,-5.676967880779632,4.11524203010735
4.109000000000009,-9.543994420656103,-5.733429282081649,4.060911675822019
4.112500000000011,-9.38100510312936,-5.777106146612807,4.001256321988852
4.116000000000014,-9.254234858240006,-5.774975099596122,3.970362248899301
4.119500000000016,-9.108288680858989,-5.679097182467065,3.9501216655639215
4.123000000000019,-8.988976227863404,-5.584287406840229,3.922423290334773
4.126499999999993,-8.818527373113637,-5.493736234588259,3.897922358295276
4.129999999999996,-8.687496779520162,-5.410642854230061,3.8712886339098422
4.133499999999998,-8.579902467122468,-5.303048541832367,3.80204444116622
4.1370000000000005,-8.506396180345476,-5.210368067892964,3.741322691160085
4.140500000000003,-8.389213029037323,-5.092120265741096,3.666751753539375
4.1440000000000055,-8.285879065343748,-4.971741416572543,3.61029209756661
4.147500000000008,-8.083473231989966,-4.795967562274942,3.537850461633334
4.1510000000000105,-7.899176934954876,-4.653217082754326,3.479259758643884
4.154500000000013,-7.68611761184692,-4.468920785719237,3.4164069616210644
4.158000000000016,-7.508212710532634,-4.346410889533999,3.3631430035087018
4.161500000000018,-7.2227134968206546,-4.2313587852425325,3.3024212535025668
4.164999999999992,-6.98941359037732,-4.147200754040618,3.255546945781755
4.1684999999999945,-6.660237512134182,-4.065173769855389,3.168193216719439
4.171999999999997,-6.424806558674162,-4.0417357433303565,3.0893619303946105
4.1755,-6.138240948789213,-4.0172348112908605,2.974309826103145
4.179000000000002,-5.918790229960454,-3.970362248899301,2.8773672581303718
4.1825000000000045,-5.68122822948375,-3.916031894613969,2.7324874769223224
4.186000000000007,-5.557653682454795,-3.928814686055576,2.6259578153683445
4.1895000000000095,-5.433014484582124,-3.9788846916367886,2.5045125700268227
4.193000000000012,-5.343529708503123,-4.031083998905436,2.4182234918082237
4.196500000000015,-5.232737952915776,-4.149331801057303,2.3116938302542454
4.200000000000017,-5.173082599082609,-4.273970998929975,2.229666846069016
4.20350000000002,-5.12514364051808,-4.444418108350488,2.1220707883420697
4.206999999999994,-5.123012593501396,-4.526446837864969,2.046435199877643
4.210499999999996,-5.129403989222198,-4.610604869066885,1.9303184447424608
4.213999999999999,-5.136861781115971,-4.672393015245987,1.852551809261349
4.217500000000001,-5.156037713607632,-4.743768255006296,1.7534781942718909
4.221000000000004,-5.18373434350753,-4.803423608839462,1.6703848139136932
4.224500000000006,-5.241260395653264,-4.866276405862282,1.5585301528118805
4.228000000000009,-5.266827723865728,-4.9184757131309285,1.476501423297399
4.231500000000011,-5.264698422178295,-4.973870718259977,1.3593182719892478
4.235000000000014,-5.2849390055136745,-5.003700140505812,1.2495929125748682
4.238500000000016,-5.373357385419706,-4.990915603734953,1.1153666211209925
4.242000000000019,-5.41916529696755,-4.94936978622048,1.0386646364835974
4.245499999999993,-5.479887046973684,-4.916346411443495,0.9619626518462028
4.248999999999995,-5.54060879697982,-4.873734197756053,0.9353306727900212
4.252499999999998,-5.627964271371387,-4.856689312281078,0.9193504381587612
4.256,-5.709991255556616,-4.857753963124794,0.9342660219463046
4.259500000000003,-5.805869172685672,-4.866276405862282,0.984334282198266
4.263000000000005,-5.845283943183461,-4.87479884859977,1.0471870792210858
4.266500000000008,-5.899614297468793,-4.854558265264392,1.1473253450542604
4.27000000000001,-5.9155945321000525,-4.841773728493534,1.253855006608238
4.273500000000013,-5.875113365429296,-4.853493614420676,1.4296288609058392
4.277000000000015,-5.813325219250193,-4.871603150739368,1.5723775950972034
4.280500000000018,-5.7089266047129,-4.895039431935149,1.765196334869781
4.283999999999992,-5.638616015796308,-4.890777337901778,1.9026200695133104
4.287499999999994,-5.519303562800724,-4.872667801583084,2.0688068302297067
4.290999999999997,-5.434079135425842,-4.896105828108118,2.1827925383482043
4.294499999999999,-5.361639244821816,-4.855622916108109,2.3042377836897256
4.298000000000002,-5.317962380290658,-4.751224301570816,2.358568137975057
4.301500000000004,-5.291330401234477,-4.579710795977332,2.389460465735357
4.305000000000007,-5.297721796955281,-4.480638926317127,2.3777423251374668
4.308500000000009,-5.362703895665533,-4.391154150238125,2.308498132393844
4.312000000000012,-5.42342739100092,-4.289951233561234,2.233927194773134
4.315500000000014,-5.487344838867456,-4.122699822001121,2.069871481073423
4.319000000000017,-5.561915776488166,-3.947990618547237,1.9090114652341137
4.322500000000019,-5.664183344008773,-3.678469894137265,1.6884960955616382
4.325999999999993,-5.694012766254609,-3.5037624360126327,1.5287007305660454
4.329499999999996,-5.649269505550482,-3.293898810765078,1.3390776886538696
4.332999999999998,-5.569371823052685,-3.150083680400746,1.2123074437645132
4.336500000000001,-5.466037859359109,-2.9189130756448445,1.0567741728022906
4.340000000000003,-5.3776194794530765,-2.753792711101417,0.9545066052816829
4.343500000000006,-5.1890610883846175,-2.589736997401706,0.861824386013028
4.347000000000008,-5.004764791349528,-2.47468489311024,0.8085604279006651
4.350500000000011,-4.742701858833327,-2.3095645285668125,0.7371851881403569
4.354000000000013,-4.542425327166978,-2.193446028102377,0.6807255321675924
4.357500000000016,-4.271841697242541,-2.0208678716651782,0.6402426201675839
4.361000000000018,-4.058780628805333,-1.860007855825869,0.626395177882261
4.3644999999999925,-3.780739206987125,-1.6277743455555036,0.6477004120613556
4.367999999999995,-3.599638607812437,-1.4594565378224222,0.683921230027994
4.3714999999999975,-3.38338358684408,-1.2762248916310497,0.7638171671965385
4.375,-3.2395684564797467,-1.1537167407750637,0.8383881048172481
4.3785000000000025,-3.029704831232193,-1.0642319646960623,0.9459841625441944
4.382000000000005,-2.89760784146575,-1.032273240762794,1.014161959114849
4.385500000000008,-2.7442056175202123,-0.9790075373211792,1.0578405689752592
4.38900000000001,-2.687744216218196,-0.9779428864774626,1.0546431257856057
4.3925000000000125,-2.726094335872267,-1.0248154488690224,1.021619751008621
4.396000000000015,-2.791078179911772,-1.1015174335064173,0.9885963762316362
4.3995000000000175,-2.9221087735052462,-1.2048513971999937,0.9395927668233912
4.402999999999992,-2.999875408986357,-1.2666377980498449,0.901240901840068
4.406499999999994,-3.1223853051715955,-1.3806252514975943,0.8692821779067997
4.409999999999997,-3.223588221848487,-1.474370376280714,0.84584589671102
4.413499999999999,-3.386579284704481,-1.5510723609181087,0.7979069381464917
4.417000000000002,-3.510153831733436,-1.6000759703263534,0.7520990265986485
4.420500000000004,-3.631597331745705,-1.7140634237741033,0.6988350684862855
4.424000000000007,-3.684861289858069,-1.781176569501041,0.6551582039551274
4.427500000000009,-3.732800248422597,-1.862138902842554,0.5667380787198427
4.431000000000012,-3.732800248422597,-1.944167632357036,0.4985585368199362
4.434500000000014,-3.667818149712344,-2.0315213614193515,0.4144005056180216
4.438000000000017,-3.5666134877062,-2.0528265955984466,0.3398295679973119
4.441500000000019,-3.4291914983919227,-2.0304567105756357,0.2205171150017275
4.444999999999993,-3.3418360240003544,-2.0315213614193515,0.1331616406101593
4.448499999999996,-3.2363727586193454,-2.048566246894328,0.0245026773687483
4.451999999999998,-3.168193216719439,-2.0251299656985484,-0.0511346564249298
4.455500000000001,-3.042487622673799,-1.9878444968881936,-0.1597953649955928
4.459000000000003,-2.933826914103136,-1.944167632357036,-0.2247774637058457
4.462500000000006,-2.790013529068055,-1.841898319507176,-0.3078708440640437
4.466000000000008,-2.654719096111959,-1.743891100690686,-0.3675279432264619
4.469500000000011,-2.4384640751436013,-1.6224476006784168,-0.42292294835551
4.473000000000013,-2.233927194773134,-1.5191136369848404,-0.4580773701491797
4.476500000000016,-1.873857043440444,-1.3209681523351764,-0.4889714432387313
4.480000000000018,-1.5414852673369035,-1.1356072044563703,-0.5273215628928027
4.483499999999992,-1.0482517300648024,-0.889522761242178,-0.5624759846864725
4.486999999999995,-0.6817901830113089,-0.7371851881403569,-0.5912390107593392
4.490499999999997,-0.2151903701246408,-0.5219948180157161,-0.6136106411114024
4.494,0.138488385487246,-0.3643322453660603,-0.6114795940947174
4.497500000000002,0.6210684330051742,-0.2173214171413259,-0.5837829641948193
4.501000000000005,0.986465329214951,-0.1150521042914662,-0.5401060996636612
4.504500000000007,1.474370376280714,0.0287630260728665,-0.4825800475179281
4.50800000000001,1.8035481998531044,0.1640557136997109,-0.4559463231324946
4.511500000000012,2.1870546323815745,0.3302424744161071,-0.4261186462159115
4.515000000000015,2.46296675251235,0.4442281825346047,-0.3994866671597301
4.518500000000017,2.76018410682222,0.5635423808594411,-0.3739193389472651
4.521999999999991,2.893347492761632,0.6466357612176391,-0.3579391043160051
4.525499999999994,2.973243429930176,0.7212066988383489,-0.3398295679973119
4.528999999999996,2.988157268388468,0.7734060061069953,-0.316393286801532
4.532499999999999,2.9700477320697747,0.8650218292026817,-0.2993484013265554
4.536000000000001,2.935957961119821,0.9225478813484148,-0.2982837504828389
4.539500000000004,2.854995627778308,0.9736807924440926,-0.3014794483432405
4.543000000000006,2.8091877162304653,0.9832696313545496,-0.3121311927681619
4.546500000000009,2.793209226928457,0.9715514907566596,-0.3494166615785167
4.550000000000011,2.802796320509662,0.9577023031420844,-0.4005513180034466
4.553500000000014,2.8390171384763003,0.9236125321921312,-0.4974938859762197
4.557000000000016,2.888020747884545,0.8831313655213747,-0.5986968026531109
4.560500000000019,3.0265091333717917,0.7989733343194602,-0.7638171671965385
4.563999999999993,3.19908728980899,0.7446429800341288,-0.9086986937338396
4.567499999999996,3.531459065912531,0.6636806466926157,-1.1377365061438036
4.570999999999998,3.883006774507732,0.5741958706136145,-1.3017922198435146
4.5745000000000005,4.471051832735921,0.42292294835551,-1.5510723609181087
4.578000000000003,4.96108792681837,0.3227846825223353,-1.7481531947240565
4.5815000000000055,5.698273114958727,0.1597953649955928,-2.014476475944375
4.585000000000008,6.299100964628523,0.0319587239332681,-2.1987727729794644
4.5885000000000105,7.164121048501952,-0.1043986145372928,-2.425681283701995
4.592000000000013,7.822474950317481,-0.1832316461913727,-2.5865412995413046
4.595500000000016,8.685365732503477,-0.2695207244099723,-2.791078179911772
4.599000000000018,9.316021259089856,-0.3046751462036421,-2.929566565399018
4.602499999999992,10.111798895548915,-0.2663250265495707,-3.117058560294509
4.6059999999999945,10.647642901179209,-0.1960144376329791,-3.266200435535928
4.609499999999997,11.239948308111517,-0.0724398906040246,-3.443040686006498
4.613,11.60108311028792,0.0255673282124649,-3.5548953471083102
4.616500000000002,12.037855246258006,0.177904901314286,-3.650773264237367
4.6200000000000045,12.340401090774217,0.2908259585890671,-3.7019061753330447
4.623500000000007,12.680228913442274,0.4207919013388249,-3.75517187877466
4.6270000000000095,12.89009253868983,0.503885281697023,-3.7903263005683296
4.630500000000012,13.14469942464151,0.6104149432510009,-3.844656654853661
4.634000000000015,13.303428393464134,0.6924436727654824,-3.903247357843111
4.637500000000017,13.404631310141026,0.8447812458673034,-4.021495159994979
4.64100000000002,13.412089102034797,0.9150900894546428,-4.095001446771971
4.644499999999994,13.391848518699415,0.960898001002486,-4.16637668653228
4.647999999999996,13.365214794313983,1.0056395163773606,-4.204726806186351
4.651499999999999,13.325800023816198,1.0407956835002825,-4.243076925840422
4.655000000000001,13.314080137889055,1.0482517300648024,-4.256926113454997
4.658500000000004,13.303428393464134,1.0173594023045027,-4.252665764750879
4.662000000000006,13.306624091324537,0.9758118394607777,-4.267579603209171
4.665500000000009,13.287449904162123,0.9246771830358478,-4.277166696790376
4.669000000000011,13.268273971670464,0.8788692714880046,-4.288884837388266
4.672500000000014,13.208616872508046,0.7712749590903102,-4.281428790823746
4.676000000000016,13.153221867378996,0.6402426201675839,-4.261188207488368
4.679500000000019,13.052018950702108,0.4548816722887781,-4.218575993800926
4.682999999999993,12.947618590835562,0.3675279432264619,-4.195139712605147
4.686499999999995,12.765453340817158,0.2418223491808223,-4.172768082253083
4.689999999999998,12.599266580100762,0.136357338470561,-4.145069707023933
4.6935,12.35744423091994,0.0053267448770866,-4.1120463322469485
4.697000000000003,12.160363397113992,-0.0894847760790012,-4.109915285230263
4.700500000000005,11.861016741116687,-0.177904901314286,-4.133351566426043
4.704000000000008,11.609607298354662,-0.2364956043037356,-4.171703431409366
4.70750000000001,11.28895191751976,-0.3078708440640437,-4.217511342957209
4.711000000000013,11.069501198691,-0.3174579376452486,-4.252665764750879
4.714500000000015,10.824481406320524,-0.3440916620306821,-4.278233092963344
4.718000000000018,10.694515463570765,-0.38350643252847,-4.269710650225856
4.721499999999992,10.621010922123023,-0.4591437663221482,-4.24094762415299
4.724999999999994,10.638055807598002,-0.5006895838366213,-4.204726806186351
4.728499999999997,10.75630360974987,-0.5411707505073777,-4.163180988671878
4.731999999999999,10.934206765734904,-0.5955011047927092,-4.121633425828153
4.735500000000002,11.270842381201064,-0.6668763445530174,-4.071565165576192
4.739000000000004,11.545688105158872,-0.6828548338550254,-4.053453883928246
4.742500000000007,11.937716980424833,-0.725467047542467,-4.022561556167947
4.746000000000009,12.233869683890983,-0.7851241467048852,-3.988471785217994
4.749500000000012,12.63122530403403,-0.8554329902922247,-3.928814686055576
4.753000000000014,12.916726263075262,-0.9086986937338396,-3.8723550300828102
4.756500000000017,13.277861065251669,-0.952375558264998,-3.783934904847527
4.760000000000019,13.514356669555404,-0.921481485175446,-3.713626061260187
4.763499999999993,13.81690076874236,-0.8692821779067997,-3.637988727466509
4.766999999999996,14.004392763637853,-0.8288010112360433,-3.5751359304436887
4.770499999999998,14.153534638879274,-0.8415838026776498,-3.5229366231750423
4.774000000000001,14.180166617935454,-0.8703468287505163,-3.5154805766105226
4.777500000000003,14.067245560660671,-0.8969805531359498,-3.5410479048229875
4.781000000000006,13.89253810253604,-0.9300039279129344,-3.5825937223374607
4.784500000000008,13.592123305036516,-1.0280111467294242,-3.644380123187312
4.788000000000011,13.347105257995292,-1.1238890638584804,-3.69231908175184
4.791500000000013,12.999817898104208,-1.2506593087478366,-3.7530408317579744
4.795000000000016,12.752668804046298,-1.3465354805476413,-3.798848743305818
4.798500000000018,12.449060054015623,-1.4711746784203124,-3.8553101446078335
4.8019999999999925,12.242392126628474,-1.536158522459817,-3.8808774728202993
4.805499999999995,12.049573386855895,-1.6629287673491733,-3.896855962122308
4.8089999999999975,11.933456631720714,-1.7822412203447575,-3.890464566401504
4.8125,11.781119058618891,-1.945232283200752,-3.869157586893157
4.8160000000000025,11.65221776671285,-2.065611132369305,-3.851048050574464
4.819500000000005,11.474312865398565,-2.256298825125197,-3.807371186043306
4.823000000000008,11.34328227180509,-2.4363347734561684,-3.7466494360371714
4.82650000000001,11.196271443580356,-2.6962666589556843,-3.622010238164501
4.8300000000000125,11.096133177747182,-2.8773672581303718,-3.5112184825771524
4.833500000000015,10.958709443103652,-3.1127982115903907,-3.3343799774358347
4.8370000000000175,10.836199546918415,-3.2704625295692984,-3.182042404334014
4.840499999999992,10.638055807598002,-3.4366475449564424,-2.963656336348971
4.843999999999994,10.48571823449618,-3.5229366231750423,-2.791078179911772
4.847499999999997,10.300355541288123,-3.613487795427012,-2.541798038837178
4.850999999999999,10.206610416505004,-3.686992336874753,-2.3372611584667102
4.854500000000002,10.130973082711323,-3.75517187877466,-2.05176194475473
4.858000000000004,10.12564808316349,-3.807371186043306,-1.8387026216467743
4.861500000000007,10.182107739136256,-3.893660264261906,-1.5446809651973052
4.865000000000009,10.257745072929934,-3.9778182954638206,-1.3188371053184913
4.868500000000012,10.384513572490038,-4.093936795928255,-1.0152283552878176
4.872000000000014,10.483587187479497,-4.184486222850973,-0.7851241467048852
4.875500000000017,10.587985802016789,-4.252665764750879,-0.4761869064678729
4.879000000000019,10.635924760581316,-4.282493441667462,-0.2503447919183106
4.882499999999993,10.639120458441717,-4.309125420723644,0.0362208179666383
4.885999999999996,10.5826590571397,-4.341084144656912,0.2524758389349957
4.889499999999998,10.423931833646328,-4.354933332271487,0.5006895838366213
4.893000000000001,10.25135367720913,-4.358129030131889,0.6604849488322142
4.896500000000003,10.027639119017747,-4.4050033378527,0.8383881048172481
4.900000000000006,9.783687468149491,-4.394349848098528,0.9257435792088164
4.903500000000008,9.2446477646588,-4.283559837840431,0.968355792896258
4.907000000000011,8.819593769286605,-4.153592149761422,0.9736807924440926
4.910500000000013,8.24539789867299,-4.196204363448863,0.9790075373211792
4.914000000000016,7.755361804590543,-4.253730415594596,0.9577023031420844
4.917500000000018,7.091681157897927,-4.228163087382131,0.8703468287505163
4.920999999999992,6.663433209994583,-4.188748316884343,0.7883198445652868
4.924499999999995,6.203223047499466,-4.156787847621823,0.6924436727654824
4.927999999999997,5.927312672697942,-4.158918894638508,0.6189373859884891
4.9315,5.613050432913096,-4.152527498917705,0.5124077244345112
4.935000000000002,5.459646463638307,-4.114177379263634,0.4559463231324946
4.938500000000005,5.361639244821816,-4.069434118559506,0.3930952714389268
4.942000000000007,5.317962380290658,-4.048128884380412,0.3675279432264619
4.94550000000001,5.291330401234477,-4.037475394626238,0.3366338701369103
4.949000000000012,5.288134703374075,-4.050258186067845,0.316393286801532
4.952500000000015,5.311570984569856,-4.092870399755286,0.288694911572382
4.956000000000017,5.3776194794530765,-4.11950412414072,0.2695207244099723
4.959499999999991,5.528890656381929,-4.116306680951067,0.2301042085829324
4.962999999999994,5.683359276500435,-4.123764472844838,0.1928187397725775
4.966499999999996,5.918790229960454,-4.148265404884334,0.1129210572747811
4.969999999999999,6.086041641520567,-4.163180988671878,0.0308940730895516
4.973500000000001,6.287382824030633,-4.194073316432178,-0.0958761717998045
4.977000000000004,6.426935860361596,-4.208988900219721,-0.1874919948954908
4.980500000000006,6.630408089888347,-4.204726806186351,-0.3100018910807288
4.984000000000009,6.80085519930886,-4.185552619023942,-0.4026823650201317
4.987500000000011,7.014980918589785,-4.1642456395155945,-0.5326483077698895
4.991000000000014,7.16944779337904,-4.165310290359311,-0.6295908757426625
4.994500000000016,7.376115720766191,-4.163180988671878,-0.7552947244590501
4.998000000000019,7.531648991728415,-4.132286915582326,-0.8533036886047917
5.001499999999993,7.711684940059385,-4.097132493788656,-0.9758118394607777
5.004999999999996,7.818214601613363,-4.050258186067845,-1.0386646364835974
5.008499999999998,7.972683221731869,-3.941599222826434,-1.0844725480314406
5.0120000000000005,8.062167997810871,-3.894724915105622,-1.095126037785614
5.015500000000003,8.131412190554494,-3.863832587345323,-1.0525138240981724
5.0190000000000055,8.20278568498555,-3.803110837339188,-0.9907256779190692
5.022500000000008,8.279487669622945,-3.627336983041587,-0.8916538082588631
5.0260000000000105,8.223026268320927,-3.5037624360126327,-0.8192139176548384
5.029500000000013,7.948180544363121,-3.461150222325191,-0.7403808860007585
5.033000000000016,7.609415627209525,-3.3269221855420628,-0.7286627454028686
5.036500000000018,7.123639881831196,-3.0531411124279724,-0.7489033287382468
5.039999999999992,6.795528454431774,-3.1159939094507925,-0.6935083236091989
5.0434999999999945,6.425871209517879,-3.4899132483980577,-0.4697955107470696
5.046999999999997,6.088172688537251,-3.5783316283040905,-0.3270467765557054
5.0505,5.599201245298521,-3.502696039839664,-0.2311688594266489
5.054000000000002,5.230608651228343,-3.451561383414734,-0.1470108282247343
5.0575000000000045,4.696893947285484,-3.4462363838668995,-0.0063913957208032
5.061000000000007,4.314452165600731,-3.5048270868563494,0.0926804739394028
5.0645000000000095,3.8521144467474326,-3.622010238164501,0.2237128128621291
5.068000000000012,3.560222091985397,-3.67633884712058,0.3078708440640437
5.071500000000015,3.280049623150503,-3.74345373817677,0.3952245731263599
5.075000000000017,3.160735424825667,-3.8297428163953695,0.4602084171658648
5.07850000000002,3.0893619303946105,-3.951186316407639,0.517734469311598
5.081999999999994,3.111731815417422,-4.025757254028348,0.547562146228181
5.085499999999996,3.2470245030442664,-4.097132493788656,0.5454328445407479
5.088999999999999,3.3972310291294026,-4.117373077124035,0.5145387714511963
5.092500000000001,3.615617097114445,-4.081152259157396,0.4506213235846599
5.096000000000004,3.830807467239086,-4.0332150459221205,0.3962909692993285
5.099500000000006,4.220707040817612,-3.95438201426804,0.3270467765557054
5.103000000000009,4.539229629306577,-3.937337128793064,0.2727164222703739
5.106500000000011,4.940847343482991,-3.9490552693909535,0.2183860679850424
5.110000000000014,5.235933650776176,-3.9394681758097487,0.1853609478788057
5.113500000000016,5.64181171365671,-3.853179097591149,0.1534022239455376
5.117000000000019,5.903876391502163,-3.763694321512148,0.138488385487246
5.120499999999993,6.140371995805899,-3.643315472343595,0.124639197872671
5.123999999999995,6.263946542834852,-3.544243602683389,0.1310323389227262
5.127499999999998,6.348104574036768,-3.4622148731689077,0.1640557136997109
5.131,6.353431318913855,-3.4387785919731275,0.2247774637058457
5.134500000000003,6.310819105226413,-3.386579284704481,0.341960615013997
5.138000000000005,6.212811886409923,-3.317335091960858,0.4399678338304866
5.141500000000008,5.993361167581163,-3.2203925239880853,0.5933700577760241
5.14500000000001,5.787757891037728,-3.17138891457984,0.7361205372966404
5.148500000000013,5.4426015781633295,-3.1096025137299894,0.9118943915942412
5.152000000000015,5.117685848624308,-3.087230883377926,1.0290775429023926
5.155500000000018,4.6084738220502,-2.906130284203238,1.1505210429146622
5.158999999999992,4.204726806186351,-2.784686784190969,1.2240255843624033
5.162499999999994,3.749845133897573,-2.7942738777721736,1.3848856002017127
5.165999999999997,3.3951017274419697,-2.749530617068047,1.4978066574764937
5.169499999999999,2.8432774871804187,-2.5865412995413046,1.5489413139014236
5.173000000000002,2.402245002506215,-2.4523132627581767,1.569181897236802
5.176500000000004,1.8301801789092855,-2.2967799917959537,1.583031084851377
5.180000000000007,1.4434780485204144,-2.164683002029511,1.5947492254492668
5.183500000000009,1.007770563394046,-1.9622771686757288,1.5798353869909751
5.187000000000012,0.7339894902799553,-1.8131352934343088,1.5649215485326835
5.190500000000014,0.4612730680095813,-1.5819664340076602,1.5425499181806204
5.194000000000017,0.3259803803827369,-1.3870166472183978,1.518048986141124
5.197500000000019,0.2290395577392158,-1.1292140634063152,1.4679789805599106
5.200999999999993,0.1938833906162941,-0.9534402091087144,1.421106418168351
5.204499999999996,0.2024058333537824,-0.7073575112237738,1.338013037810153
5.207999999999998,0.2269085107225308,-0.5166698184678814,1.2581153553123563
5.211500000000001,0.2854992137119804,-0.2460844432141925,1.132411506595969
5.215000000000003,0.3355692192931938,-0.0362208179666383,1.0194887039919358
5.218500000000006,0.4101401569139035,0.2269085107225308,0.8714132249234848
5.222000000000008,0.4740576047804398,0.4048134120368167,0.7542300736153336
5.225500000000011,0.5454328445407479,0.6242641308655758,0.5848476150385359
5.229000000000013,0.5624759846864725,0.7638171671965385,0.4474238803950063
5.232500000000016,0.5464974953844645,0.8841960163650913,0.2631275833599171
5.236000000000018,0.5145387714511963,0.9300039279129344,0.1448797812080492
5.2394999999999925,0.425053995372195,0.984334282198266,0.0010646508437165
5.242999999999995,0.3622011983493752,1.0365335894669123,-0.0852244273748831
5.2464999999999975,0.2684543282370038,1.0993863864897322,-0.191754088928861
5.25,0.1693824585767977,1.1100398762439057,-0.2652586303766022
5.2535000000000025,-0.0372854688103548,1.0780811523106375,-0.3664615470534934
5.257000000000005,-0.2375620004767041,1.051447427925204,-0.4452945787075733
5.260500000000008,-0.5145387714511963,1.012032657427416,-0.5358440056302911
5.26400000000001,-0.723336000525782,0.942788464683793,-0.6061545945468827
5.2675000000000125,-1.000314516829526,0.836258803129815,-0.6817901830113089
5.271000000000015,-1.2091117459041116,0.7584921676487036,-0.7339894902799553
5.2745000000000175,-1.4679789805599106,0.6764634381342222,-0.7968422873027752
5.277999999999992,-1.65653737162837,0.6210684330051742,-0.8266699642193582
5.281499999999994,-1.915404606284169,0.5965657556364258,-0.8628907821859965
5.284999999999997,-2.124201835358755,0.5997614534968274,-0.8863270633817765
5.288499999999999,-2.45124861191446,0.5912390107593392,-0.9108279954212728
5.292000000000002,-2.7250296850285505,0.5912390107593392,-0.9257435792088164
5.295500000000004,-3.1341034457694854,0.5880433128989375,-0.9363953236337376
5.299000000000007,-3.449432081727301,0.6061545945468827,-0.952375558264998
5.302500000000009,-3.8862024723681343,0.628524479569694,-0.9481134642316276
5.306000000000012,-4.222836342505045,0.6647452975363323,-0.928939277069218
5.309500000000014,-4.665999874195933,0.7712749590903102,-0.8810003185046897
5.313000000000017,-5.017547582791135,0.8799356676609732,-0.8437148496943347
5.316500000000019,-5.564046823504851,1.0194887039919358,-0.780862052671515
5.319999999999993,-6.014666401760259,1.1004510373334488,-0.7158799539612621
5.323499999999996,-6.482330865490643,1.16649953221667,-0.6359822714634658
5.326999999999998,-7.131097673724967,1.2240255843624033,-0.5219948180157161
5.330500000000001,-7.781993783646725,1.259181751485325,-0.3920288752659583
5.334000000000003,-8.233679758075102,1.2602464023290416,-0.2854992137119804
5.337500000000006,-8.786568649180369,1.29646722029568,-0.1310323389227262
5.341000000000008,-9.169010430865123,1.3603846681622165,-0.013849187614575
5.344500000000011,-9.614305009572696,1.4775660741411154,0.1416840833476476
5.348000000000013,-9.889150733530505,1.5681172463930857,0.2599318854995155
5.351500000000016,-10.200217275454948,1.6693201630699763,0.4016177141764152
5.355000000000018,-10.428192182350449,1.7076702827240478,0.4815136513449596
5.358499999999992,-10.712626745218712,1.6874296993886695,0.559280286826071
5.361999999999995,-10.900118740114202,1.6192519028180152,0.5976321518093943
5.365499999999997,-11.1035892243117,1.5372231733035338,0.6370469223071823
5.369,-11.189880047859551,1.498873053649462,0.6572875056425604
5.372500000000002,-11.20692318800528,1.4754367724536823,0.6753987872905056
5.376000000000005,-11.19414039656367,1.4498694442412174,0.6743323911175372
5.379500000000007,-11.225034469653224,1.383820949357996,0.6615495996759307
5.38300000000001,-11.31238819871554,1.273029193770648,0.6498314590780407
5.386500000000012,-11.530774266700584,1.0290775429023926,0.628524479569694
5.390000000000015,-11.784314756479294,0.820278568498555,0.6136106411114024
5.393500000000017,-12.23706712708064,0.559280286826071,0.5880433128989375
5.396999999999991,-12.634421001894433,0.3685925940701784,0.5699337765802444
5.400499999999994,-13.21500826822885,0.1640557136997109,0.5603466829990394
5.403999999999996,-13.68160808111552,0.0617864008498512,0.559280286826071
5.407499999999999,-14.284566977801996,-0.0245026773687483,0.5539552872782363
5.411000000000001,-14.708554577001223,-0.0788312863248278,0.5709984274239609
5.414500000000004,-15.215635556558649,-0.1587289688226243,0.6157416881280875
5.418000000000006,-15.535224541220582,-0.2439533961975074,0.6807255321675924
5.421500000000009,-15.833508291703422,-0.3270467765557054,0.7936465894423735
5.425000000000011,-15.990106213509362,-0.3930952714389268,0.8991098548233829
5.428500000000014,-16.07746168790093,-0.517734469311598,1.0621009176793774
5.432000000000016,-16.04230726610726,-0.5997614534968274,1.1984582561499384
5.435500000000019,-15.871860156686743,-0.6647452975363323,1.3806252514975943
5.438999999999993,-15.64282059894753,-0.6828548338550254,1.504199798526549
5.442499999999996,-15.194330322379557,-0.7201403026653803,1.6576020224720869
5.445999999999998,-14.800170400096912,-0.7265316983861836,1.7641316840260644
5.4495000000000005,-14.258999649589532,-0.7105532090841755,1.904751116529996
5.453000000000003,-13.799855883267384,-0.6636806466926157,2.0315213614193515
5.4565000000000055,-13.148959773345627,-0.5006895838366213,2.239253939650221
5.460000000000008,-12.67064181986107,-0.3227846825223353,2.4065053512103334
5.4635000000000105,-12.165691887320332,-0.1161167551351827,2.612108627753769
5.467000000000013,-11.94623942316232,0.0010646508437165,2.7687065495597087
5.470500000000016,-11.853558949222917,0.1299659427497577,2.903999237186553
5.474000000000018,-11.885517673156183,0.2972173543098703,3.0627282060091776
5.477499999999992,-11.99844047576022,0.3728546881035486,3.1735199615965253
5.4809999999999945,-12.192323866376512,0.341960615013997,3.3269221855420628
5.484499999999997,-12.494867965563468,0.1715135055934827,3.460083826152222
5.488,-12.79208531987334,0.0234362811957798,3.549570347560476
5.491500000000002,-13.343909560134891,-0.1406194325039311,3.6337283787623904
5.4950000000000045,-13.849925888848595,-0.2673896773932873,3.683796639014352
5.498500000000007,-14.395356988060094,-0.4261186462159115,3.7274735035455095
5.5020000000000095,-15.198590671083672,-0.670072042413419,3.75517187877466
5.505500000000012,-15.800484916926438,-0.8586286881526264,3.763694321512148
5.509000000000015,-16.474817308043974,-1.1100398762439057,3.726408852701793
5.512500000000017,-16.862585834605813,-1.259181751485325,3.6731431492601785
5.51600000000002,-17.206675751307245,-1.3987347878162877,3.5538306962645936
5.519499999999994,-17.282313085100924,-1.498873053649462,3.454758826604388
5.522999999999996,-17.16619458463649,-1.599011319482637,3.335444628279552
5.526499999999999,-16.948874912824415,-1.6192519028180152,3.249155550060952
5.530000000000001,-16.555779641385488,-1.57770433997429,3.156475076121549
5.533500000000004,-16.191449141348677,-1.536158522459817,3.1458215863673757
5.537000000000006,-15.587425593818482,-1.4583918869787058,3.2331753154296914
5.540500000000009,-15.031341004852813,-1.3891476942350829,3.3599473056483
5.544000000000011,-14.148207894002184,-1.3156414074580896,3.5825937223374607
5.547500000000014,-13.445112476811785,-1.2772912878040183,3.7445183890204863
5.551000000000016,-12.60459332497785,-1.3092500117372865,3.897922358295276
5.554500000000019,-12.090054553526652,-1.402996881849658,3.984211436513876
5.557999999999993,-11.530774266700584,-1.5627905015159986,4.08008760831368
5.561499999999995,-11.1866826046699,-1.6789072566511811,4.149331801057303
5.564999999999998,-10.824481406320524,-1.8099395955739075,4.219640644644643
5.5685,-10.624206619983427,-1.9122071630945157,4.24094762415299
5.572000000000003,-10.465477651160802,-2.111419043917148,4.249470066890478
5.575500000000005,-10.429256833194165,-2.3042377836897256,4.243076925840422
5.579000000000008,-10.424996484490046,-2.589736997401706,4.207922504046753
5.58250000000001,-10.467608698177488,-2.784686784190969,4.158918894638508
5.586000000000013,-10.601834989631362,-3.0137245966009325,4.048128884380412
5.589500000000015,-10.761628609297706,-3.2363727586193454,3.947990618547237
5.593000000000018,-11.008777703355612,-3.6070946543769566,3.81802467579748
5.596499999999992,-11.21757667775945,-3.859570493311953,3.713626061260187
