time,Gyr_X,Gyr_Y,Gyr_Z
0.0,0.0147369186828857,0.0118775822588159,0.010398361975382
0.0100000000000051,0.0069427013561195,0.0068060682014707,0.0121665505073224
0.0200000000000102,0.0033029231682441,0.0075591861786793,0.016185984565787
0.0300000000000011,0.0101199012013382,0.0045757136924907,0.0216533964559637
0.0400000000000062,0.0130464290838428,0.0010952804868368,0.0226259180027751
0.0500000000000113,0.0150689024869507,-0.0001252160646396,0.0214098843691172
0.0600000000000022,0.0067457606778472,-6.377332104350653e-05,0.0205270039379081
0.0700000000000073,0.0080344902480345,0.0031875271941571,0.018587133714112
0.0799999999999983,0.0055088354541672,0.0010610178169087,0.0188758064849389
0.0900000000000034,0.0019426336307842,0.008221720779538,0.0163402981629601
0.1000000000000085,0.0010047584191437,0.0114299085263127,0.0123854139720805
0.1099999999999994,-7.071815007733981e-05,0.0139715228103254,0.0111758857706754
0.1200000000000045,0.002809618012563,0.014351503053179,0.0128017619063671
0.1300000000000096,0.000156134004534,0.0092846948246442,0.0098145582794828
0.1400000000000005,-0.0015389272797636,0.0085656809620116,0.0104514933019449
0.1500000000000056,-0.0050919095835133,0.0006057645914785,0.0040733714867338
0.1600000000000108,-0.009339884126055,0.0074585545764593,0.0004079351964497
0.1700000000000017,-0.0082117127574619,0.0050649611589771,-0.0067061868097859
0.1800000000000068,-0.0040510088754085,0.0032814699083798,-0.0183027516621644
0.1900000000000119,0.0036828712027919,0.0012242404755476,-0.0191555373200554
0.2000000000000028,0.0161439496412283,0.0008909142679111,-0.0181491319113284
0.2100000000000079,0.0240658546919653,-0.0068748571461917,-0.0094229435466234
0.2199999999999988,0.0268761549606056,-0.0190141068702415,-0.0112277483243849
0.2300000000000039,0.0377857140605704,-0.0060189331306879,0.0025349610230379
0.2400000000000091,0.0433892911532187,-0.0237060001601525,-0.0007989533568942
0.25,0.0431284792245299,-0.0161334582486916,-0.0168523135038186
0.2600000000000051,0.0499160210868727,-0.0110604789830717,-0.0140354307358218
0.2700000000000102,0.0546538251240058,-0.0176642385913937,-0.0146189557688401
0.2800000000000011,0.0427322793477611,-0.0269865797304343,-0.0234438708143724
0.2900000000000062,0.0357670359477364,-0.0210352071702302,-0.0233332117731643
0.3000000000000113,0.0401856921528714,-0.0166601805174265,-0.0128935056976362
0.3100000000000023,0.0288661179249484,-0.0405046073005694,-0.0212089836492368
0.3200000000000074,0.0167226023571711,-0.0325841357528791,-0.0298427165234653
0.3299999999999983,0.0150149234488287,-0.0263441203220322,-0.0260225204776151
0.3400000000000034,0.0169252762145369,-0.03488196829372,-0.029467081033366
0.3500000000000085,0.0075564030848908,-0.033614059389353,-0.0365874323224708
0.3599999999999994,-0.0017804649682367,-0.0244115736301412,-0.0393406636396017
0.3700000000000045,-0.0021970696949878,-0.0191038383099453,-0.0340844059448415
0.3800000000000096,-0.0055373880795106,-0.0261361889519964,-0.0289265622677995
0.3900000000000005,-0.0116512211296163,-0.0393822232100699,-0.0322640548097443
0.4000000000000057,-0.0154593643366465,-0.031947830994837,-0.042756597946086
0.4100000000000108,-0.0096029951678261,-0.019307336063074,-0.0351570485985694
0.4200000000000017,-0.0039343924433491,-0.0288312349079399,-0.0342394400023641
0.4300000000000068,0.0023028240620225,-0.0271257609482053,-0.0350941916415878
0.4400000000000119,0.0043167723356797,-0.0194909538316655,-0.03531863148681
0.4500000000000028,0.0095677179076392,-0.0096842609686142,-0.034994265754897
0.4600000000000079,0.0147026810188289,-0.0045673446709804,-0.0277920674550204
0.4699999999999988,0.0192666419895373,-0.0064740469504323,-0.020202560901884
0.480000000000004,0.0294770059221429,-0.0133266962109517,-0.0069388262653392
0.4900000000000091,0.038869044252412,-0.019026054621905,0.0058595516071363
0.5,0.0490488333982446,-0.0208385824932336,0.0102077963995514
0.5100000000000051,0.0556607204394128,-0.0162257706155847,0.011573375227302
0.5200000000000102,0.0567788734385294,-0.0168143342532298,0.007709665676917
0.5300000000000011,0.0529169659810432,-0.0117977893965012,0.0128335722074065
0.5400000000000063,0.0379566799330974,-0.0119347696498397,0.0140388578307893
0.5500000000000114,0.023023438923305,-0.018411799753149,0.0037132429397646
0.5600000000000023,0.014919526163023,-0.0144587581153106,-0.0036484096455566
0.5700000000000074,0.0070670228073193,-0.0132636782803106,-0.0145124692152276
0.5799999999999983,0.0071043488479868,-0.0103938992303266,-0.0202567116650561
0.5900000000000034,0.0094872519949094,-0.0077365674570665,-0.0272843055667283
0.6000000000000085,0.0145426598952818,0.002000028228292,-0.0315361034852943
0.6099999999999994,0.0190120604101102,0.0128024191016871,-0.0384802156282708
0.6200000000000045,0.0272693514569215,0.0220509327220337,-0.0408659529782163
0.6300000000000097,0.0395415957230587,0.0276739800609466,-0.0417520083330843
0.6400000000000006,0.0427243875399261,0.0365959092777616,-0.0378845331745758
0.6500000000000057,0.040872135798654,0.0418189804504496,-0.03333186058777
0.6600000000000108,0.034147879552893,0.0444981919064727,-0.0244443337749893
0.6700000000000017,0.0252001264710856,0.0417950288752089,-0.0116016337575658
0.6800000000000068,0.0099205213739059,0.0355225252222601,0.0039133149335544
0.6900000000000119,-0.0124663625897652,0.0211441773881069,0.0240069126676624
0.7000000000000028,-0.0325604741064484,0.007123743606822,0.0395971083119474
0.710000000000008,-0.0510607416752549,-0.0048468348512501,0.0603005499226411
0.7199999999999989,-0.0604668340510743,-0.0148485797925204,0.0717516037269106
0.730000000000004,-0.0662162688733559,-0.0227105011107464,0.0822880831582796
0.7400000000000091,-0.066231860325239,-0.0369443889070278,0.0947155062142005
0.75,-0.0697023443740838,-0.0525284081748955,0.103301934156627
0.7600000000000051,-0.0736397568114253,-0.0719296187002742,0.1114983507336577
0.7700000000000102,-0.0815698361153211,-0.0920333442160195,0.1186925194154151
0.7800000000000011,-0.0865218488810973,-0.1072848407241908,0.1187323722454912
0.7900000000000063,-0.0833965585993028,-0.1146714204254673,0.1136494737531411
0.8000000000000114,-0.0723486041357774,-0.1175829404287846,0.0991527852219297
0.8100000000000023,-0.0585433783414586,-0.1238001717022102,0.0811889946282813
0.8200000000000074,-0.0443033109243302,-0.1312291280544819,0.0680714806466902
0.8299999999999983,-0.0422166788285391,-0.1442121035055139,0.0475930169687613
0.8400000000000034,-0.0384591548474146,-0.1505101976623261,0.0270362088411828
0.8500000000000085,-0.0445513382694301,-0.1499267753829342,0.0088336617015267
0.8599999999999994,-0.0483877525216661,-0.1551034776843316,-0.0050810456599954
0.8700000000000045,-0.0426199147021122,-0.1580692410140586,-0.0178030959244245
0.8800000000000097,-0.0278271804088731,-0.1558279059104362,-0.0346096661176992
0.8900000000000006,-0.0106793647396224,-0.1563835412116529,-0.0511687661415219
0.9000000000000057,0.0178613639954461,-0.1430252981558042,-0.082983934042922
0.9100000000000108,0.0543548951775383,-0.1210834784914706,-0.1124739441192216
0.9200000000000016,0.0923164088632801,-0.0973832008488888,-0.1406726671424776
0.9300000000000068,0.1169299192086148,-0.0734759554667377,-0.1642048864398242
0.940000000000012,0.1294893814068827,-0.0543481044958348,-0.1824416784548949
0.9500000000000028,0.1311524084997764,-0.035267468926292,-0.1903035958035777
0.960000000000008,0.1273834493759655,-0.0196591794975797,-0.1992818053630222
0.9699999999999988,0.1117032252223345,-0.0048768641952324,-0.194043464506671
0.980000000000004,0.0972961781642137,0.0053186337615787,-0.1796426025065243
0.9900000000000092,0.0959885404675846,0.0174868156040609,-0.1614725571809322
1.0,0.100376282739862,0.0257315096935081,-0.137283377401808
1.0100000000000051,0.1074621530049796,0.0311405939889488,-0.1175226559559231
1.0200000000000102,0.1073566048321974,0.0386078108381824,-0.0969930526364658
1.0300000000000011,0.1023089550892122,0.0476237826473306,-0.079413204632387
1.0400000000000065,0.0960400516241171,0.0616354913239034,-0.0650617322900293
1.0500000000000114,0.0863669717534175,0.0700724732429477,-0.0585788472226641
1.0600000000000025,0.0723174218111587,0.0722115244785156,-0.0549593010782188
1.0700000000000074,0.0604044930123951,0.0755096968014208,-0.0501787469101168
1.0799999999999983,0.0550291021278791,0.0736895285792232,-0.0484183977711335
1.0900000000000034,0.0503020921578668,0.0747130977025112,-0.0401915209658087
1.1000000000000083,0.04333493897968,0.071796382899497,-0.0322681902073857
1.1099999999999994,0.0304625599242942,0.059674416470014,-0.0168639672020623
1.1200000000000043,0.0040412195433416,0.0430542827181184,0.000248998092657
1.1300000000000097,-0.0144121861268423,0.0264189048778068,0.0170077586069236
1.1400000000000006,-0.0321478742150738,0.0155852678703863,0.0280752441087552
1.1500000000000057,-0.0433748956862471,0.0146125168844749,0.0331361196833306
1.1600000000000108,-0.047049509088676,0.0117019762744717,0.0340639614966617
1.1700000000000017,-0.0478376345243188,0.0126080178405692,0.0296000670191162
1.1800000000000068,-0.0440818512563199,0.0028111841659952,0.0208226687173218
1.190000000000012,-0.0457024749892074,-0.0198934130330105,0.0143668839297226
1.2000000000000028,-0.0546154262875514,-0.0442368884355328,0.0156337115335358
1.210000000000008,-0.0742249851899558,-0.062457408832813,0.0112795606809533
1.2199999999999989,-0.0933595763603723,-0.0686190438905691,0.0127301081417246
1.230000000000004,-0.1060434941331083,-0.0679299665476019,0.0093378254830991
1.240000000000009,-0.1124637740833389,-0.0707365463819197,0.0057618895938706
1.25,-0.1073484199450729,-0.0696707000613197,-0.0041166505609659
1.2600000000000051,-0.0983594795415857,-0.067708876632902,-0.0182753506859282
1.2700000000000102,-0.0838620063409446,-0.0652267716836963,-0.034355420095662
1.2800000000000011,-0.0700608968309017,-0.0656597419427853,-0.0413853058525935
1.2900000000000065,-0.059099017419308,-0.0617426301874648,-0.0484374798688977
1.3000000000000114,-0.0497673271425053,-0.0559419497733299,-0.0558971749811661
1.3100000000000025,-0.0514419820692578,-0.0527459976563834,-0.0633666584948289
1.3200000000000074,-0.061994423972778,-0.0566727166117246,-0.071845634983123
1.3299999999999983,-0.0690677903872054,-0.0628023059339588,-0.0708616180968935
1.3400000000000034,-0.0804117251989341,-0.0656575874111364,-0.0650657525178557
1.3500000000000083,-0.08854105150161,-0.0622571115747778,-0.0635564715255911
1.3599999999999994,-0.0873943256444464,-0.0530859455733912,-0.0629951386893902
1.3700000000000043,-0.0793991346565241,-0.0445751232313101,-0.0584341339184384
1.3800000000000097,-0.073904882736808,-0.0345906420305622,-0.0463200937939975
1.3900000000000006,-0.0733773649451423,-0.0345887476620799,-0.0295566826120853
1.4000000000000057,-0.0813632272943261,-0.0386164045837051,-0.0064476655937993
1.4100000000000108,-0.0901421868994501,-0.0482366429518554,0.0113716421144973
1.4200000000000017,-0.0961705967472388,-0.0577655184639771,0.0236613321084849
1.4300000000000068,-0.0967791506217271,-0.0596625637985316,0.0301568587208215
1.440000000000012,-0.0945741458285463,-0.0532725492270208,0.0405144864678869
1.4500000000000028,-0.0861159613528415,-0.0358459199613171,0.0463999266249781
1.460000000000008,-0.0645198411763377,-0.0157102342333873,0.0539718997595636
1.4699999999999989,-0.0518620269699382,0.0026045657979425,0.0617973667191149
1.480000000000004,-0.043407689261116,0.0184914193265859,0.0660963635443045
1.490000000000009,-0.0335833770084923,0.0298155036027427,0.0728852836558214
1.5,-0.0234210222685696,0.0391055453178535,0.0797599616596741
1.5100000000000051,-0.0100919844026889,0.0476112541925015,0.080625763885668
1.5200000000000102,0.011899867831928,0.0605427076280403,0.0831956558277541
1.5300000000000011,0.0505339113472618,0.0680741087630961,0.0876559005885484
1.5400000000000065,0.082708568372921,0.0783633894822044,0.0941580787612845
1.5500000000000114,0.0953631317688136,0.0900106050480962,0.1012457398869865
1.5600000000000025,0.0923111079138724,0.09366371429685,0.1097406553786992
1.5700000000000074,0.0704024100241106,0.0888416850537037,0.1185998200641864
1.5799999999999983,0.0338238366048712,0.0705938442413781,0.1267327972024016
1.5900000000000034,0.0083274356747332,0.0491458106100982,0.1317220869190446
1.6000000000000083,-0.0040563721597628,0.034978433411708,0.1301218982889106
1.6099999999999994,-0.0065386187334414,0.0321219608997161,0.1182355703394235
1.6200000000000043,-0.0018823210220826,0.0327587430521119,0.1030568509844605
1.6300000000000097,0.0056531258087648,0.0403514171934194,0.0877129116345699
1.6400000000000006,0.0128280034569425,0.0468412252207369,0.0688379202450396
1.6500000000000057,0.0194130472483522,0.051410285654628,0.0337337716380995
1.6600000000000108,0.0249079553386713,0.0591792965634004,-0.0030031105957056
1.6700000000000017,0.0377630639352495,0.0538048747711539,-0.024732295042435
1.6800000000000068,0.0453255693836316,0.0331629390814813,-0.031913419360151
1.690000000000012,0.0497838213245785,0.0049316517515457,-0.0319950294783796
1.7000000000000028,0.0466959324944382,-0.0131167644715328,-0.0346576947710419
1.710000000000008,0.0401021465717063,-0.0160547252643995,-0.0374075327840463
1.7199999999999989,0.0260339228215135,-0.0178763115951319,-0.0435042798363589
1.730000000000004,0.0137550580908265,-0.0263157528531432,-0.0539600430921785
1.740000000000009,0.0105474997216703,-0.0330700406453299,-0.064496370143916
1.75,0.0239016608805996,-0.0441392287807079,-0.0958967656501597
1.7600000000000051,0.035984358187865,-0.04257524270557,-0.1116327115663012
1.7700000000000102,0.0499794782938689,-0.043671597656374,-0.1230999521152484
1.7800000000000011,0.0598711792800188,-0.0464653333819118,-0.128807690215083
1.7900000000000065,0.0650066209309295,-0.0480019232335003,-0.1343871675903039
1.8000000000000114,0.0684051222966268,-0.050196869952393,-0.1394583327133171
1.8100000000000025,0.0653891022297429,-0.0490482890940933,-0.1451354033564589
1.8200000000000076,0.0568785682143802,-0.0430949735108273,-0.1472403371688361
1.8299999999999983,0.0374021502066317,-0.0391032965625398,-0.1429678633960711
1.8400000000000036,0.026641731854441,-0.0361806711752887,-0.1324837450822914
1.8500000000000083,0.0206121177680991,-0.0345157332382825,-0.123850396213584
1.8599999999999997,0.0180777789377888,-0.0323475867637915,-0.1157509932119186
1.8700000000000043,0.0217526159482612,-0.0229487802460891,-0.1059512399326156
1.8800000000000097,0.0238798057248129,-0.0208434990631814,-0.1026342486908679
1.8900000000000008,0.0253935034207619,-0.0206623391769261,-0.1010759223903001
1.9000000000000057,0.0264437721576181,-0.0194988286397215,-0.0987427071037381
1.9100000000000108,0.0273622921074944,-0.0131833544159537,-0.090765546847987
1.9200000000000017,0.0230659824503524,-0.0025754217667446,-0.0801100246714786
1.9300000000000068,0.0156299776380362,0.0047189239948213,-0.0678122932118323
1.940000000000012,0.0095336127291716,0.018904744553745,-0.0548829842204674
1.9500000000000028,0.004536105151043,0.0323272820690346,-0.0486963947482622
1.960000000000008,0.0128254545816272,0.0496670525031662,-0.0381221894502343
1.9699999999999989,0.0167965376368509,0.0628252632720283,-0.0146291388686268
1.980000000000004,0.0228430591894827,0.0713925378521667,0.0029897702461513
1.990000000000009,0.0268374097971379,0.077802249822541,0.0222770442554139
2.0,0.0245091167553948,0.0803597705356277,0.0393041309439962
2.010000000000005,0.0184603435317459,0.0864919824988452,0.052430212433338
2.0200000000000102,0.0105631634833935,0.0866808916534331,0.0620030604115313
2.030000000000001,0.0019936231863086,0.0918663586224303,0.0644094630594177
2.0400000000000063,-0.005521352646484,0.0996438469840929,0.0676546180524401
2.050000000000012,-0.0125264289032314,0.1035926347702392,0.0740127970229441
2.0600000000000023,-0.0235943443536526,0.1083809779812468,0.0847055362735653
2.0700000000000074,-0.0350599784544359,0.1193807970659493,0.0851395096420659
2.0799999999999983,-0.0454391886837722,0.1398342646835089,0.0818345536862605
2.0900000000000034,-0.0494538454533397,0.1530036567416883,0.0853342675539649
2.1000000000000085,-0.0650949797347194,0.1601190911236644,0.0857548621165357
2.1099999999999994,-0.0905647776533729,0.1685785075184862,0.0865497535253284
2.1200000000000045,-0.1246347311747634,0.17323945232637,0.0873180966694975
2.1300000000000097,-0.1697803384749959,0.1785428800330306,0.0891310162340503
2.140000000000001,-0.2190316494326252,0.1915119017613993,0.0909242932929272
2.1500000000000057,-0.3101591409248627,0.212817345755909,0.0901945176946796
2.160000000000011,-0.4348613444787629,0.2371868616193142,0.0902123228724712
2.1700000000000017,-0.5914778260387865,0.2605040118489045,0.0954665792159548
2.180000000000007,-0.8110729073565547,0.2872830957633515,0.108686385766505
2.190000000000012,-1.1336344840353982,0.3172034719728847,0.1235876037237565
2.200000000000003,-1.5962474207319508,0.3637438982046254,0.1431040602103143
2.210000000000008,-2.092829123440386,0.4137340797255534,0.1585700932227238
2.219999999999999,-2.724543338028992,0.4865430670376247,0.1684243105637347
2.230000000000004,-3.4469183550026923,0.5769145933218016,0.1801849180602596
2.240000000000009,-4.183336466392944,0.6650348703100477,0.1865393003500197
2.25,-5.238994553751759,0.7828639808391634,0.2077877490862541
2.260000000000005,-6.230145151247505,0.8945860211417918,0.2328281173049597
2.2700000000000102,-7.254355016666424,1.0395397339097792,0.2318094221638302
2.280000000000001,-8.217637387011566,1.2015806977566388,0.2201958206608283
2.2900000000000063,-9.00217971946827,1.3569098486603024,0.2186868483462537
2.300000000000012,-9.702222925222369,1.4794014911353377,0.2462915472874429
2.3100000000000023,-10.27184216272062,1.5595741125440408,0.3088737906800153
2.3200000000000074,-10.69575974275932,1.6304537566933812,0.4029946320106348
2.3299999999999983,-10.869373618865405,1.7020133670831203,0.5367033008513751
2.3400000000000034,-10.832696869011937,1.7726658025821076,0.6619514451159983
2.3500000000000085,-10.55495568045614,1.798271138079393,0.7273872162896888
2.3599999999999994,-10.13983738428148,1.7605446732239871,0.7588755253677473
2.3700000000000045,-9.430535744425535,1.6331598797006242,0.8132739485940296
2.3800000000000097,-8.581812218483677,1.4732671568625106,0.8481902022020846
2.390000000000001,-7.683011074040746,1.2950844361651055,0.8598184356551597
2.4000000000000057,-6.658123692466806,1.123843307605592,0.8532225917670497
2.410000000000011,-5.781582094986091,1.031541116098098,0.8396159870735296
2.4200000000000017,-4.911670838718744,1.0282629183339087,0.8077817104315828
2.430000000000007,-4.142009462682047,1.0827947723528188,0.7520896412304117
2.440000000000012,-3.4210749038879715,1.1319972269286165,0.6706614372396201
2.450000000000003,-2.6944992829486902,1.153153347262233,0.5712683028831333
2.460000000000008,-1.929591517517939,1.1528708054200214,0.4347228909754522
2.469999999999999,-1.2338763548968932,1.1415865017779154,0.2834217886893622
2.480000000000004,-0.6872927622079112,1.111448711471687,0.1539601183264942
2.490000000000009,-0.1291398119084995,1.0517610109751014,0.0174212266059708
2.5,0.3172264954407824,0.9875386274319116,-0.0946813905902052
2.510000000000005,0.6716860718517418,0.924516363908494,-0.1881689895660626
2.5200000000000102,1.0162307016819851,0.8414776295759991,-0.2989135273874096
2.530000000000001,1.2546419849709314,0.7708089604386676,-0.3894716588475744
2.5400000000000063,1.4709438023829855,0.689335735513595,-0.4574962470430762
2.550000000000012,1.7095654039603647,0.6037902290030877,-0.5125688587708106
2.5600000000000023,1.9689395922708384,0.5503200061611953,-0.5388374970503728
2.5700000000000074,2.268236007024565,0.5370478820059303,-0.5446966310288922
2.5799999999999983,2.6372617600098094,0.5488581448163885,-0.5398640351877758
2.5900000000000034,3.1623864700643085,0.5560560612833744,-0.5296730397666648
2.6000000000000085,3.8539780154176073,0.5472131368191427,-0.5271597355025639
2.6099999999999994,4.654692375463276,0.5292354922963041,-0.5487426154624938
2.6200000000000045,5.529253451367265,0.4742868142808262,-0.5990547307200883
2.6300000000000097,6.339548476827736,0.4063789628710316,-0.6627979552114898
2.640000000000001,7.42369920145574,0.3378720746482791,-0.7711093553989516
2.6500000000000057,8.424112734706272,0.2852334537560828,-0.8787167079547094
2.660000000000011,9.40414960214398,0.1950281138626971,-0.9584971909776266
2.6700000000000017,10.384401364448552,0.1109896075569786,-1.0163822065555423
2.680000000000007,11.215104449263656,0.0153457949610215,-1.0248112705085508
2.690000000000012,12.007438705374836,-0.0452975048763454,-0.9692442279093076
2.700000000000003,12.599832242570578,-0.0797608532433723,-0.8904842506596687
2.710000000000008,13.25269394768618,-0.1954127042691275,-0.7873439777927089
2.719999999999999,13.633142917475752,-0.2605880645801455,-0.6562629563761508
2.730000000000004,13.879196126744002,-0.2879018183870646,-0.5334866147911754
2.740000000000009,14.043105090042546,-0.2568124959779586,-0.390046146719435
2.75,14.066268864131183,-0.1860867200527972,-0.2523900580374588
2.760000000000005,13.991224108414723,-0.1151812958351418,-0.048959374064114
2.7700000000000102,13.75001747929536,-0.0837660302451956,0.1729610410635808
2.780000000000001,13.344463251063177,-0.1182421673534987,0.3792029360177249
2.7900000000000063,12.684746420300629,-0.2004756893213951,0.5623690001983512
2.800000000000012,11.878481817646614,-0.3120508317896596,0.7181916808611839
2.8100000000000023,10.655553218493974,-0.4346167916795229,0.8613093737011465
2.8200000000000074,9.343757639126023,-0.4769657259977418,0.937130290018798
2.8299999999999983,8.113765145451339,-0.4397599558115,0.9411661672425966
2.8400000000000034,7.031158858116742,-0.391631650196112,0.9145383191565504
2.8500000000000085,6.027507859169871,-0.3588699124070431,0.8492526653446124
2.8599999999999994,4.919256297775331,-0.3896538501142433,0.7181508034671501
2.8700000000000045,4.089938057995528,-0.4560151935200676,0.5729697782689208
2.8800000000000097,3.198556169190799,-0.5209002863584761,0.3628262036646789
2.890000000000001,2.4372549087410187,-0.5318722781525018,0.1363858830504327
2.9000000000000057,1.9227634478829472,-0.5081784921883322,-0.0497867413408878
2.910000000000011,1.4975214911019157,-0.461430134903224,-0.2288291949999763
2.9200000000000017,1.138626886869914,-0.3974545819851245,-0.3679266887246805
2.930000000000007,0.8777121496663768,-0.3433592023488262,-0.4277239079354981
2.940000000000012,0.6777052833264339,-0.2882308930500758,-0.432545665623329
2.950000000000003,0.4904106755681651,-0.2395115927028142,-0.4055240791381065
2.960000000000008,0.3235883485564549,-0.199057574376151,-0.3654114830034562
2.969999999999999,0.1392473594703281,-0.1698097107771703,-0.3430227483700398
2.980000000000004,-0.0986610013539155,-0.149368418803849,-0.3101122125564718
2.990000000000009,-0.3906526337316131,-0.1228453107414499,-0.2598483994803549
3.0,-0.7463399703111488,-0.0968811216233535,-0.1653630132318084
3.010000000000005,-1.0415150228728376,-0.0837458151321596,-0.0677925237351791
3.0200000000000102,-1.2474917391438285,-0.0785545241746371,0.010151496382665
3.030000000000001,-1.4532513986808986,-0.0664820617200229,0.0821770321088577
3.0400000000000063,-1.624757850972798,-0.0451153781310406,0.1073945246818174
3.050000000000012,-1.7619504866175624,-0.0184374544766759,0.1029211301140554
3.0600000000000023,-1.869890212463613,0.0146156862946305,0.0835933273244494
3.0700000000000074,-1.9519035317239912,0.0446286252255707,0.0674514124068969
3.0799999999999983,-2.0190070010394363,0.0862868601059984,0.0486453866110951
3.0900000000000034,-2.0563034157728715,0.128417029355331,0.0247902016683886
3.1000000000000085,-2.088363698771782,0.1733727703086189,0.0023988434887918
3.1099999999999994,-2.1267159081428537,0.2161194078445821,-0.0057023227931074
3.1200000000000045,-2.214178483250896,0.2583761883835049,-0.0174448833630842
3.1300000000000097,-2.3812333065181384,0.3004635886584754,-0.0410951912829116
3.140000000000001,-2.630974242190148,0.3320197635400066,-0.0599085443531607
3.1500000000000057,-3.031689145129574,0.3593053875004074,-0.0877399019063854
3.160000000000011,-3.47876924930476,0.3824925692060182,-0.1088398491348896
3.1700000000000017,-4.056967245188226,0.4114118205585064,-0.1204965129407877
3.180000000000007,-4.745946437234093,0.4548491168928782,-0.1165300300975171
3.190000000000012,-5.437923168380365,0.516741512973062,-0.1003473883769436
3.200000000000003,-6.1904153762255785,0.5977853792136221,-0.0754941670447922
3.210000000000008,-6.9222547098108445,0.6771778632221781,-0.0496644613424949
3.219999999999999,-7.719496836051685,0.7461276089076718,-0.0190105908188169
3.230000000000004,-8.595054522329361,0.8129150895035783,0.0255052106155901
3.240000000000009,-9.449264968365656,0.8633635621584751,0.0983942486297686
3.25,-10.440662409779884,0.9080408595424224,0.2296806396383438
3.260000000000005,-11.35432481777426,0.9127705745055444,0.4179392247975361
3.2700000000000102,-12.10445775324895,0.8670372420092659,0.6204680728717552
3.280000000000001,-12.681918508934231,0.7812079640230816,0.8195329859530911
3.2900000000000063,-13.262429535219995,0.6623723190815796,1.054836396323258
3.300000000000012,-13.653894774698488,0.5583638491607856,1.240310104591876
3.3100000000000023,-13.766458467629532,0.4660132061086908,1.3713178306491969
3.3200000000000074,-13.6638690516638,0.3705677842886472,1.494837953061003
3.3299999999999983,-13.295701113562894,0.2924255142857289,1.620670747322852
3.3400000000000034,-12.616648575714516,0.2397801884942694,1.7276798578854042
3.3500000000000085,-11.836704348617934,0.240953103661833,1.7694223953415786
3.3599999999999994,-10.934890953331234,0.2623646637005469,1.7822458259029654
3.3700000000000045,-9.64953136037083,0.236343337629857,1.7397457008481414
3.3800000000000097,-8.34347414319137,0.2270545553648993,1.6833540458056817
3.390000000000001,-7.022012266033777,0.2353149491424921,1.6165419758884998
3.4000000000000057,-5.711103998807862,0.3049356440772173,1.5324037657546463
3.410000000000011,-4.3391409689555935,0.4280355479647146,1.403344295620731
3.4200000000000017,-3.1484353471226703,0.53728551879361,1.273085880549806
3.430000000000007,-2.078864395223142,0.6031436467556001,1.1395825261333694
3.440000000000012,-0.9410223118910648,0.6403100447958258,0.9736070920448135
3.450000000000003,-0.0728232395617257,0.6532774850314781,0.8150396125016296
3.460000000000008,0.5838585750163087,0.6584459518043858,0.6541352867137997
3.469999999999999,1.0121729154542598,0.6560438384539261,0.4881506018477765
3.480000000000004,1.2799407797728397,0.6385791790851082,0.2797741447562263
3.490000000000009,1.3455471709589102,0.606553567301979,0.0840770419717889
3.5,1.3169324299036058,0.5558167029725142,-0.0903600295638745
3.510000000000005,1.2159277547304927,0.4737317406805196,-0.282939376855898
3.5200000000000102,1.083986496832553,0.3842698179656489,-0.4522834170244391
3.530000000000001,0.9091677747547364,0.2929015225464454,-0.6007497688890525
3.5400000000000063,0.7136395570624928,0.2035190466832332,-0.725246254019274
3.550000000000012,0.4869431847991462,0.1276638687064486,-0.8192251205915131
3.5600000000000023,0.2229614836175708,0.0505811179896788,-0.8893246977523007
3.5700000000000074,0.0196746095772351,-0.0142508079956962,-0.9254125839219772
3.5799999999999983,-0.1351557532682547,-0.0799926237589883,-0.9378516089169492
3.5900000000000034,-0.2085386139947073,-0.1479229481895178,-0.9269498959394632
3.6000000000000085,-0.1975945562021207,-0.1889252662138083,-0.8814411154557655
3.61,-0.1034525391813942,-0.2248659688310386,-0.8388984112334228
3.620000000000005,0.0420974639087761,-0.2335996909757069,-0.7898243828573459
3.6300000000000097,0.2232412407181906,-0.2173386092925709,-0.7204255160457547
3.640000000000001,0.4450474128581672,-0.2020826909344909,-0.6497951952685781
3.6500000000000057,0.7283341316152158,-0.1840022304559617,-0.5685100925241181
3.660000000000011,1.0126795356415237,-0.1680245069444987,-0.5037511312881452
3.6700000000000017,1.3264159117388736,-0.1548570323413178,-0.4657277874995812
3.680000000000007,1.689802965331607,-0.1478972930479258,-0.4434880903489266
3.690000000000012,2.051201956700957,-0.13414880035828,-0.4409215992670071
3.700000000000003,2.5236581199343857,-0.1041996770280691,-0.4550965127025472
3.710000000000008,3.0382431491759285,-0.0822217534906809,-0.4806609581273713
3.719999999999999,3.5990427201628936,-0.07279084030229,-0.5258876567419318
3.730000000000004,4.3219155311795925,-0.0619826217021688,-0.6114091465296548
3.740000000000009,5.111339279263432,-0.0591793110850134,-0.714163113159657
3.75,5.877590357463064,-0.0726282907005121,-0.8020682038350933
3.760000000000005,6.566412703016988,-0.0908175150741164,-0.8709889475956054
3.77000000000001,7.44205496948221,-0.066553153536868,-0.9640575187000278
3.780000000000001,8.187635155498375,-0.0169834544674832,-1.0322938937219368
3.7900000000000063,8.926501878165018,0.0241919008515521,-1.056368614858766
3.8000000000000114,9.643168566372232,0.0591202612410477,-1.0537064412730388
3.8100000000000014,10.137375342359944,0.0796812121385533,-1.0227317289094342
3.820000000000008,10.64328292899261,0.1039918362654011,-0.96271086115791
3.8299999999999983,11.01791809091234,0.1243901764036769,-0.8875902085025815
3.8400000000000034,11.303701228079522,0.1331864939113399,-0.7912274638719778
3.850000000000009,11.503683903553783,0.1374840890048969,-0.6627993751654759
3.86,11.566504854231878,0.1595649290825628,-0.4881838476399291
3.870000000000005,11.607958866991297,0.1462657724832516,-0.2894925460887571
3.8800000000000097,11.474185322483915,0.178381283951143,-0.1003617659454786
3.890000000000001,11.19029883731001,0.2333863406335432,0.0978916661560733
3.9000000000000057,10.816401745125388,0.3070621941177389,0.2872684033298796
3.910000000000011,10.398613006297053,0.4209701602608696,0.4551290213323547
3.9200000000000017,9.753276488963191,0.5861291152988123,0.6340908291048435
3.930000000000007,9.09060427430154,0.7487900274342711,0.7535650367190052
3.940000000000012,8.264641465542017,0.8768324258682483,0.8442846752535885
3.950000000000003,7.34834094646074,0.9275016986522664,0.8968892134853023
3.960000000000008,6.421336284047036,0.8918128172597153,0.8822502469792424
3.969999999999999,5.454411196255018,0.8299408884466944,0.8068165012184672
3.980000000000004,4.442071937870257,0.7515113259654157,0.6799500893337677
3.990000000000009,3.414531363792845,0.6544388640801635,0.5352001948141613
4.0,2.453615369986935,0.5448460636563218,0.3835141345107694
4.010000000000005,1.575596824204778,0.4116640911575192,0.2572647718639885
4.02000000000001,0.825436044667772,0.260744258750917,0.1351516376466829
4.030000000000001,0.2438610679370126,0.1219892789686396,0.0374309826318065
4.040000000000006,-0.3563022374001094,-0.0456101468735501,-0.0780850831352861
4.050000000000011,-0.7842018995546305,-0.1721677389988401,-0.1630493036229156
4.060000000000002,-1.1448756010856829,-0.2828924500529249,-0.2234705347627874
4.070000000000007,-1.44830412766432,-0.3839543672062486,-0.2547087028781308
4.079999999999998,-1.5984932557692455,-0.435300631752372,-0.2515409380869456
4.090000000000003,-1.7500294306858266,-0.4655487851742531,-0.2422755904134191
4.1000000000000085,-1.8622219647096931,-0.4680344829760862,-0.2072366350816651
4.109999999999999,-1.958635257203576,-0.4338889473250458,-0.1700208960824162
4.1200000000000045,-2.0313308988192245,-0.3873732418034802,-0.1339458425115165
4.13000000000001,-2.0646856663184967,-0.330547605966071,-0.093226719408427
4.140000000000001,-2.045675974527097,-0.2779633546784936,-0.0667255162938772
4.150000000000006,-2.014658368162511,-0.2318839690818522,-0.0349425602145877
4.160000000000011,-1.983676513172242,-0.1651584761106434,0.001973665428993
4.170000000000002,-1.956860186725937,-0.1092292117186016,0.0165377807454717
4.180000000000007,-1.9591405888965965,-0.0575217680407064,0.0139096353465024
4.190000000000012,-1.983564463205492,-0.0077952798860864,0.0059343180834484
4.200000000000003,-2.025064566258984,0.0323855258035075,-0.0116153979786463
4.210000000000008,-2.10006111131503,0.0682703544754784,-0.0364394334319006
4.219999999999999,-2.1940472361577865,0.090106995232454,-0.0543445016480578
4.230000000000004,-2.3404661504794286,0.0989652979211469,-0.0664608481153145
4.240000000000009,-2.555978138892825,0.0923914236591439,-0.0687856454867411
4.25,-2.87036786002763,0.0574448283355916,-0.0539429207920988
4.260000000000005,-3.1984481891474883,0.0096846882983311,-0.0343292949846574
4.27000000000001,-3.5059872150672726,-0.0268180936710727,-0.0259318943314511
4.280000000000001,-3.8869495134456966,-0.0528330354422554,-0.0251811717658382
4.290000000000006,-4.320024096404239,-0.0591357092023621,-0.0260146638417418
4.300000000000011,-4.7367974449262364,-0.0619648878440237,-0.0190880323406102
4.310000000000002,-5.171794402715251,-0.0671148772107791,-0.0023103455856852
4.320000000000007,-5.631773421694423,-0.07939931534752,0.018222495640765
4.329999999999998,-6.127569474103026,-0.0897959066479006,0.0463611310234541
4.340000000000003,-6.56027069146474,-0.0974475652327416,0.0759238451137574
4.3500000000000085,-7.106952671128967,-0.1158517094456744,0.1155580203027601
4.359999999999999,-7.669251220752752,-0.1480696849929368,0.1751712348028698
4.3700000000000045,-8.22268038742249,-0.1987575095130487,0.2625982105368285
4.38000000000001,-8.827682528411655,-0.2504249733455045,0.3713615181164313
4.390000000000001,-9.378501211536964,-0.2879492852311436,0.4944581860172215
4.400000000000006,-9.952576818578017,-0.3243060408701657,0.6487440208924625
4.410000000000011,-10.351187936973083,-0.3717336422994318,0.7803176667383092
4.420000000000002,-10.646457580681476,-0.4354651165778605,0.8937528471886695
4.430000000000007,-10.880061905453156,-0.4834406072694592,1.0039838117697868
4.440000000000012,-11.0029862552243,-0.4743743324479219,1.107528913588098
4.450000000000003,-11.005513164624,-0.3991614929226201,1.2151052112328695
4.460000000000008,-10.916177519184142,-0.3078989256769483,1.3069582791476548
4.469999999999999,-10.64674158439293,-0.2181060376446751,1.403376774492749
4.480000000000004,-10.243561551801552,-0.1691574258686351,1.491496201502569
4.490000000000009,-9.684929933332947,-0.1688620223567049,1.5258324003620662
4.5,-8.926376817801296,-0.2049389725248573,1.5077056757225555
4.510000000000005,-7.949893862956989,-0.2377514247124238,1.4608364864702992
4.52000000000001,-6.8767140739616615,-0.25048395819504,1.4282927375900214
4.530000000000001,-6.0063280985366,-0.2267446855997036,1.425561752767342
4.540000000000006,-5.153095013619253,-0.1467131013322538,1.4007036848923788
4.550000000000011,-4.241243845841535,-0.0009863741573655,1.3059886071591278
4.560000000000002,-3.4582846610539955,0.1734763694004814,1.1678482631623728
4.570000000000007,-2.7287014427169707,0.3439085332282797,1.0078278718698357
4.579999999999998,-2.0673650056883868,0.5210414704146191,0.8442634524485056
4.590000000000003,-1.4246083131812106,0.7119231506485427,0.6610539962862382
4.6000000000000085,-0.8968370037180275,0.875405872122913,0.4894590643747488
4.609999999999999,-0.4727668763203539,0.9862518596810668,0.3176700425813779
4.6200000000000045,-0.0810340783437215,1.0557781328118503,0.1183196256404743
4.63000000000001,0.266836826711249,1.0737004218737605,-0.1047686259220265
4.640000000000001,0.5554592523880347,1.058900375515586,-0.338003087435702
4.650000000000006,0.7491836428067697,1.0236511023523935,-0.5459317230805875
4.660000000000011,0.8708719594939975,0.9933618049843188,-0.7184160899815156
4.670000000000002,0.9081471301360048,0.9667119232314736,-0.8328146671866039
4.680000000000007,0.8970946556471268,0.9279125426361758,-0.9087330581657298
4.690000000000012,0.8499849613304304,0.8436911160554637,-0.9684204964006954
4.700000000000003,0.7998038969293817,0.7478122701094899,-0.9993354977646238
4.710000000000008,0.722973881930441,0.6249818823290226,-1.0180785396470509
4.719999999999999,0.6519215839077226,0.4984343250111306,-1.0199170072330983
4.730000000000004,0.5916887017595385,0.4028445091809831,-1.0001157326913517
4.740000000000009,0.5228831485664114,0.3033422729701633,-0.9592210339118062
4.75,0.4670263773213155,0.227612211161293,-0.9034637499904626
4.760000000000005,0.4168855693322994,0.1712137327175221,-0.8317124023107224
4.77000000000001,0.3803395527931775,0.1293946089256852,-0.7544987064126788
4.780000000000001,0.3607949594982457,0.1012645312676352,-0.6702481343803861
4.790000000000006,0.3862136318213958,0.0844501991693593,-0.5895058740932985
4.800000000000011,0.4358554606761401,0.0686905744405938,-0.524643489771612
4.810000000000002,0.536592381190413,0.0570565615242266,-0.4476838933905613
4.820000000000007,0.6810730084790385,0.0479132506703476,-0.375370727354907
4.829999999999998,0.8719072293986572,0.048624534158717,-0.3090510474630715
4.840000000000003,1.133917433656423,0.0629446405914513,-0.2473666487275434
4.8500000000000085,1.3861746238372203,0.0861263061531038,-0.2057122975057355
4.859999999999999,1.697035971923423,0.1118499861711769,-0.1825380305157269
4.8700000000000045,2.043008935025564,0.1427202523208549,-0.1716231758800459
4.88000000000001,2.4215135255914166,0.1765623916297995,-0.1662331150639229
4.890000000000001,2.851947953104842,0.2008227701540129,-0.1658888527558337
4.900000000000006,3.3450454653771065,0.2229997265378259,-0.1751258423645195
4.910000000000011,3.9173643778143727,0.2423641000585275,-0.2032070775507778
4.920000000000002,4.529832758823702,0.2713953980734171,-0.2484046462272384
4.930000000000007,5.195272253313066,0.2928537504461841,-0.3063319667843025
4.940000000000012,5.84848925449931,0.2962000188551349,-0.362819154133539
4.950000000000003,6.463494252100686,0.3034646575526499,-0.41786850639772
4.960000000000008,7.22110109587088,0.3158231290315282,-0.4784509526119686
4.969999999999999,7.920596845335555,0.3185691955100387,-0.5128758850134899
4.980000000000004,8.535629079087133,0.2982522755281565,-0.5143479503152106
4.990000000000009,9.096981904546093,0.2792896384954543,-0.5166028440170822
5.0,9.505424229913904,0.2621764213311199,-0.5324036408915429
5.010000000000005,9.8468897703742,0.2465094909955669,-0.5314081822975458
5.02000000000001,10.052978982260711,0.2379454676326579,-0.5117516635897712
5.030000000000001,10.184114094878629,0.2318328044830073,-0.4772017755918257
5.040000000000006,10.26467604992249,0.2419646584262977,-0.4141992826267253
5.050000000000011,10.23345697308183,0.2679768321639575,-0.2926858430701303
5.060000000000002,10.09913572852799,0.2753814476252857,-0.1394587185370702
5.070000000000007,9.877435262341422,0.2861728405932127,0.0059641913989653
5.079999999999998,9.5407108112399,0.2908461371008618,0.1537183287884327
5.090000000000003,9.107637710104328,0.3013222624607998,0.2876300147398548
5.1000000000000085,8.613360778717364,0.3342636568416934,0.3997011730720438
5.109999999999999,8.068365973061537,0.3418827850260545,0.4939474998069615
5.1200000000000045,7.5051318306347214,0.3625154763623403,0.5713294764103262
5.13000000000001,6.737688770520006,0.4126048703482675,0.6452389204623983
5.140000000000001,5.889424845661033,0.4413041735449942,0.6704482576644266
5.150000000000006,5.045135575219585,0.393752485613954,0.6308675030257374
5.160000000000011,4.083543092516778,0.3145332609185505,0.5644167718732168
5.170000000000002,3.0085511492920887,0.2181642110402347,0.459412122890202
5.180000000000007,1.914536363699264,0.1166869780958388,0.3458971647465834
5.190000000000012,1.0996381276502118,0.0339424077270342,0.2692456955843552
5.200000000000003,0.309518878739432,-0.0457223238657514,0.1927141493817767
5.210000000000008,-0.4662794231324159,-0.135171242593292,0.1217520520173601
5.219999999999999,-1.0583183456183636,-0.2146633169458729,0.0726854795010136
5.230000000000004,-1.5394670616173654,-0.2849158639307554,0.054670493995365
5.240000000000009,-1.8738718601019608,-0.3323367127968826,0.0763759232329476
5.25,-2.1701921674988727,-0.3317010512767703,0.1557406835224454
5.260000000000005,-2.3272498039824665,-0.2620635419260686,0.2328260356027102
5.27000000000001,-2.287756543501546,-0.1740059713139162,0.2875863973540356
5.280000000000001,-2.173528943904827,-0.0984653693943253,0.3534800878964446
5.290000000000006,-1.8946334809834813,-0.0618142314291357,0.4335791666672202
5.300000000000011,-1.485210843000672,-0.0205243945049049,0.497774572108852
5.310000000000002,-1.0546168739391613,0.0421096377361642,0.5317801256862645
5.320000000000007,-0.6226202144887621,0.0975541684505046,0.5364962631865023
5.329999999999998,-0.3669527093636143,0.1704088103065892,0.5430329999035094
5.340000000000003,-0.1820120324568396,0.2564874636229414,0.5239250771048355
5.3500000000000085,-0.0275594973109967,0.3198690387497941,0.429627807019018
5.359999999999999,0.0179690133937368,0.3960332463978638,0.3406218152047563
5.3700000000000045,0.0090506399975011,0.4407850823131789,0.2955091463821734
5.38000000000001,0.056124717006802,0.4348269052591872,0.2566727628052819
5.390000000000001,0.4970227906744675,0.3325232039811901,0.1775160905965391
5.400000000000006,0.684021180891125,0.3118339961117417,0.1479113641969217
5.410000000000011,0.351115865314702,0.3588192945857154,0.2210903268890306
5.420000000000002,0.0315952154334905,0.3576187950219344,0.3090840956797633
5.430000000000007,-0.0837700652507127,0.3002183959499291,0.3264370909272752
5.440000000000012,-0.1328540101085554,0.2620655471399322,0.3256925784312877
5.450000000000003,-0.2348000703670196,0.2643480559071653,0.3407760328478442
5.460000000000008,-0.417685571633081,0.2723297972081088,0.3752259840412632
5.469999999999999,-0.718410260463687,0.286795935009792,0.437360062995565
5.480000000000004,-0.9942260368973768,0.2749690707967397,0.488554087578169
5.490000000000009,-1.2000772245041462,0.262910266902419,0.4925410975480277
5.5,-1.313239246622954,0.2480635335950891,0.4532195955018193
5.510000000000005,-1.3296863573108368,0.2457676981170618,0.3892838215878487
5.52000000000001,-1.243197337508861,0.253415812792797,0.3279736022476733
5.530000000000001,-1.0838435759377136,0.2622884146131781,0.2818787777818586
5.540000000000006,-0.847329500717149,0.2676794101006028,0.2575340793117651
5.550000000000011,-0.5968974122418863,0.2639431604630102,0.2559398785240427
5.560000000000002,-0.3453799726532615,0.2928595626852338,0.2434177562563897
5.570000000000007,-0.0877608468097617,0.3316117197640877,0.2207406541977438
5.579999999999998,0.1463229267780096,0.3603206794603603,0.207167062478987
5.590000000000003,0.3251469647626638,0.3603870691380565,0.2176654817009249
5.6000000000000085,0.4624057938475684,0.3345313647887313,0.2243489508886954
5.609999999999999,0.5773105029170165,0.2946724346904192,0.1720492726732629
5.6200000000000045,0.636982099262203,0.2577853501251207,0.0787843446360409
5.63000000000001,0.6336757466327818,0.2298237037402706,-0.0383606650183963
5.640000000000001,0.6214427953409332,0.1793344342647053,-0.154762734886733
5.650000000000006,0.5996161028801077,0.1374520098924916,-0.2532294422430289
5.660000000000011,0.6013566635549379,0.0766524311136699,-0.3462575165009207
5.670000000000002,0.6569323258867443,0.0105507421507135,-0.3947099513925653
5.680000000000007,0.6814796097203485,-0.0384932812708757,-0.4341533943942109
5.690000000000012,0.6944565757597507,-0.0913493441586275,-0.4630213819994981
5.700000000000003,0.6444669697913,-0.1267454411602329,-0.4691180238761225
5.710000000000008,0.5185753198322971,-0.1425724414545634,-0.4637047433547108
5.719999999999999,0.3990244573050387,-0.1759588631857143,-0.4434485313328941
5.730000000000004,0.2644569457652079,-0.21480626424309,-0.4242895169186081
5.740000000000009,0.1828279448505325,-0.245260442963965,-0.4384778270947841
5.75,0.1374588258409849,-0.2721651015845489,-0.4704361218102144
5.760000000000005,0.1195730241225922,-0.2967495811918831,-0.4979127172888933
5.77000000000001,0.0115179793107427,-0.2644418197632167,-0.4939350936480359
5.780000000000001,-0.2620974478740552,-0.188246501235942,-0.4530407999324116
5.790000000000006,-0.4864499321512427,-0.1297236625693026,-0.4065105966375127
5.800000000000011,-0.6933652226925131,-0.0655761698849335,-0.3658864509604533
5.810000000000002,-0.8240173288970543,-0.0197965407445061,-0.3376883929818244
5.820000000000007,-0.8475655342892784,0.0007842730447886,-0.3201299610822858
5.829999999999998,-0.733252597587087,0.0030074628361327,-0.3321713006495959
5.840000000000003,-0.5614890375161427,0.0279689485649829,-0.3621385148506309
5.8500000000000085,-0.3948727215638698,0.0523600228457035,-0.372833229328396
5.859999999999999,-0.2368821043553894,0.0744830308983244,-0.3572623742537523
5.8700000000000045,-0.0943246046736173,0.1095815820099293,-0.3131103694303054
5.88000000000001,0.0674092509532521,0.1444119504782134,-0.2583289754095262
5.890000000000001,0.190552416088872,0.1740098385207295,-0.2163585371413353
5.900000000000006,0.2842909836523516,0.2220498891746271,-0.2127627535220757
5.910000000000011,0.335192657301895,0.2733045773928552,-0.2300019169754197
5.920000000000002,0.3613567056396505,0.3095332108836776,-0.2541107841797069
5.930000000000007,0.3774319507767011,0.323443487414164,-0.2482920397533566
5.940000000000012,0.3798526407200299,0.3228554337970263,-0.2195262522903922
5.950000000000003,0.3675914374147774,0.3288567747787178,-0.1768086313645425
5.960000000000008,0.3192270277710236,0.3376928251008497,-0.124617401107042
5.969999999999999,0.2246378426148188,0.3394308165874597,-0.0756237633983403
5.980000000000004,0.1176066503153884,0.3361138165955551,-0.0331118395529514
5.990000000000009,0.0081895835010196,0.3195753675995783,-0.0032203806145249
6.0,-0.1124134681533919,0.2931011190029943,0.0210523630340191
6.010000000000005,-0.2621190211556867,0.2875799202137682,0.0335294023658656
6.02000000000001,-0.4469638340840504,0.301298556422334,0.0587796985709188
6.030000000000001,-0.6044060051508983,0.3197521875038974,0.100100970101531
6.040000000000006,-0.6909646718308129,0.3316552772745901,0.1437808542711081
6.050000000000011,-0.6892421257197852,0.3328668852390879,0.1935206737886123
6.060000000000002,-0.6475693287531756,0.3348913385513009,0.242145531060279
6.070000000000007,-0.5423461291483996,0.3264384520619399,0.2870439269537397
6.079999999999998,-0.4062255556083098,0.3097454147583625,0.3154939937074202
6.090000000000003,-0.2256724093370719,0.3003589757662924,0.3222175341455121
6.1000000000000085,-0.0117359065255852,0.2983911621289484,0.3115536049283368
6.109999999999999,0.1233508262446565,0.3078639168717363,0.2974246325027103
6.1200000000000045,0.2196245995865899,0.3264100697246548,0.2862546415267119
6.13000000000001,0.2156298783667574,0.3527336577174248,0.2807276594161859
6.140000000000001,0.1665314821154336,0.3671256780301139,0.2797978480084345
6.150000000000006,0.1154578780941823,0.3590486849208154,0.2829204198735621
6.160000000000011,0.0896369846466576,0.3214596874256309,0.2857214016902226
6.170000000000002,0.0672603289330387,0.2816701556961895,0.2872975949417544
6.180000000000007,0.0487203683519288,0.2306099768167253,0.2793687199481366
6.190000000000012,0.0535790560084769,0.1710429245336987,0.2588719670992039
6.200000000000003,0.0627801664013903,0.1349870108465838,0.2272057365011219
6.210000000000008,0.0710977109563872,0.0919314566384522,0.1779165831668369
6.219999999999999,0.0508754910886759,0.0560113026569467,0.1371488376263295
6.230000000000004,0.0004681757297406,0.0537925287964746,0.1156961818549039
6.240000000000009,-0.086803769204855,0.0617057313314101,0.0925527931299083
6.25,-0.1697134048358255,0.0596484100378997,0.0941111563727818
6.260000000000005,-0.2361743665699126,0.0514070962276239,0.1069561203536862
6.27000000000001,-0.3090977234319309,0.0409210957987416,0.1048282522770185
6.280000000000001,-0.3635823357963275,0.0387662013517837,0.1024450500851507
6.290000000000006,-0.3847799219824374,0.0346247172110979,0.084433115694806
6.300000000000011,-0.3384724017560169,0.0053322523192524,0.066469783342054
6.310000000000002,-0.2476643623354203,-0.0436667515601306,0.0404586242777414
6.320000000000007,-0.1689065363416193,-0.0741128285336595,0.0200179366548256
6.329999999999998,-0.0928303052362068,-0.1024355531785905,0.013675897889198
6.340000000000003,-0.0412552535235689,-0.1170001107281463,0.0150876677237714
6.3500000000000085,-0.0332680193639916,-0.1321706084492324,0.0040912439551972
6.359999999999999,-0.0992698501604821,-0.1350187249985293,-0.0179846853796274
6.3700000000000045,-0.2000236048405873,-0.1429742385012418,-0.0399534831922562
6.38000000000001,-0.3152545665500642,-0.1359319806662994,-0.0603680750309093
6.390000000000001,-0.4436800282317031,-0.1220839205394634,-0.1005719850156665
6.400000000000006,-0.5094713952915272,-0.1061534053753539,-0.136251408467986
6.410000000000011,-0.517906643006519,-0.1080706480567824,-0.1554365456693683
6.420000000000002,-0.4902560188665911,-0.1077072210074372,-0.1646158975287729
6.430000000000007,-0.4645892097302643,-0.1098060063048958,-0.1503855164973459
6.440000000000012,-0.449930795993847,-0.118548467903011,-0.1137537905436314
6.450000000000003,-0.4678264047148718,-0.1420082648139334,-0.0595924853541902
6.460000000000008,-0.4890718414587157,-0.1618726066949211,-0.0061112063544008
6.469999999999999,-0.4989618351308572,-0.1743321874471721,0.0354305979995128
6.480000000000004,-0.4929247072047376,-0.1794412106706287,0.0789730905434648
6.490000000000009,-0.4516248747055019,-0.1870792570432804,0.120691267753258
6.5,-0.4267302097437537,-0.1750353672716997,0.1895935018875182
6.510000000000005,-0.4163924368005983,-0.167080110422534,0.264822049166568
6.52000000000001,-0.3788348904268117,-0.1614500638399314,0.3278327587157085
6.530000000000001,-0.3111615937736454,-0.17626256665516,0.3706472388726526
6.540000000000006,-0.2419289916938309,-0.1936089527698631,0.3812645999274486
6.550000000000011,-0.2118087913789465,-0.1805427720504493,0.3568368135043394
6.560000000000002,-0.2207332276894902,-0.1613109112152,0.3157354153089072
6.570000000000007,-0.293135575372028,-0.1363068049930215,0.2898742233250168
6.579999999999998,-0.4448580761394479,-0.1070867076251847,0.2785110129986693
6.590000000000003,-0.5898206233514068,-0.0799245967124465,0.2644488851186337
6.6000000000000085,-0.7500948130358538,-0.0600891103007668,0.2362875433932776
6.609999999999999,-0.8611302995705344,-0.0564204571003754,0.1939773294453159
6.6200000000000045,-0.8957093565779495,-0.0627093441585903,0.1528049049444544
6.63000000000001,-0.9090496915544932,-0.0638405179204055,0.1030360049912174
6.640000000000001,-0.8962825618275292,-0.0557700815482773,0.0466069361620242
6.650000000000006,-0.8573892306634914,-0.059884566828421,0.0177811051553063
6.660000000000011,-0.8007873024736709,-0.0794832487390971,0.0237299915743864
6.670000000000002,-0.7154697425762556,-0.1224755210906193,0.0571568716284264
6.680000000000007,-0.6345576635702119,-0.1504018503123984,0.0873049422425097
6.690000000000012,-0.6041836930416821,-0.144867995810488,0.0917780323562808
6.700000000000003,-0.5713924845182162,-0.1187333420367499,0.0759148438744111
6.710000000000008,-0.5170808712891228,-0.0788001097619299,0.0560551000551108
6.719999999999999,-0.3707308512012136,-0.0421771571796197,0.0219549391479339
6.730000000000004,-0.1696781744185729,-0.0065411440740842,-0.0257165744318742
6.740000000000009,0.0159314315590839,0.0061095387031543,-0.0659128064060933
6.75,0.0684491339135865,-0.0073843226645829,-0.0572000970832844
6.760000000000005,0.1957003578605525,0.033897907791851,-0.1344899639163148
6.77000000000001,0.329101406633542,0.0771835519020062,-0.2153521016339329
6.780000000000001,0.4253023674945274,0.1145486795533313,-0.284267303375693
6.790000000000006,0.4930298784260604,0.1380557486696335,-0.3415138063727246
6.800000000000011,0.5720331876387861,0.1306480263925873,-0.3913922752948321
6.810000000000002,0.6560118468315367,0.0961295744219305,-0.4273459637792067
6.820000000000007,0.7058518487748942,0.0383259983228505,-0.4431748278654828
6.829999999999998,0.6736415116028814,-0.0057274724969396,-0.4529008426219376
6.840000000000003,0.589342000756388,-0.0250619242876275,-0.4603232460045708
6.8500000000000085,0.4743718321434502,-0.0429291445190258,-0.4790278302024832
6.859999999999999,0.3593752570342913,-0.0607303236313031,-0.4756216939053972
6.8700000000000045,0.3117366378460739,-0.1089677976315927,-0.4632398998302325
6.88000000000001,0.2922085794730549,-0.1832378203101395,-0.4119383974910278
6.890000000000001,0.2616309978671939,-0.2525663807488525,-0.3393743209025953
6.900000000000006,0.2012980540760714,-0.2952129352148852,-0.2511854566409824
6.910000000000011,0.0973108128526899,-0.3336044393367807,-0.1554657526278417
6.920000000000002,-0.0549628817606132,-0.3683504608283791,-0.0553952677913489
6.930000000000007,-0.2158300448365229,-0.3873143630381774,0.0261671784548851
6.940000000000012,-0.3550541033983244,-0.4070723483950564,0.089874281870385
6.950000000000003,-0.4361428194007197,-0.4426811137125609,0.1379765414558532
6.960000000000008,-0.4945893051918595,-0.4780313634976945,0.1531451297174847
6.969999999999999,-0.5746442604257405,-0.469929246971458,0.1623120401129203
6.980000000000004,-0.6888062712209377,-0.4356534536440294,0.1715497722371598
6.990000000000009,-0.8002787989386202,-0.3906572388313412,0.1689701181634876
7.0,-0.8704169910476255,-0.3349633816423926,0.1587225440808289
7.010000000000005,-0.8836425469575417,-0.3033530233398762,0.1366210832469756
7.02000000000001,-0.8874712138144549,-0.2765208159343688,0.1129499105118016
7.030000000000001,-0.9085738241756716,-0.265432085263117,0.1014282174996425
7.040000000000006,-0.9508760418451614,-0.2717924467521643,0.0936977917400516
7.050000000000011,-1.0680993645521326,-0.2889833017521164,0.0855517648017993
7.060000000000002,-1.2976171393656522,-0.3093602966394924,0.0738712737798743
7.070000000000007,-1.7427697259167745,-0.3481965360992169,0.0558460891054675
7.079999999999998,-2.2830186877475103,-0.4067861272618185,0.0411991820949131
7.090000000000003,-2.870906113217365,-0.4770606541005626,0.0356859425751007
7.1000000000000085,-3.6822889475753775,-0.5849243054600152,0.031112947350516
7.109999999999999,-4.559443625366272,-0.701013525206695,0.0292738167539093
7.1200000000000045,-5.437650892784798,-0.8085421457105516,0.0308288563336193
7.13000000000001,-6.309102894008143,-0.8737331613845036,0.0275166455606261
7.140000000000001,-7.256712286380447,-0.9222401729287524,0.0251649970393499
7.150000000000006,-8.273426707404136,-0.9266029646491124,0.0436229868143624
7.160000000000011,-9.14072992913694,-0.8792959238487927,0.0539920165111947
7.170000000000002,-10.096848246120134,-0.8146717747225426,0.0755391801870016
7.180000000000007,-10.970667325428886,-0.7236099164331955,0.1042947263331993
7.190000000000012,-11.721675955045631,-0.6125997273844407,0.1234765628310812
7.200000000000003,-12.351338983613074,-0.5173704575902491,0.1443021304297174
7.210000000000008,-12.843847481090734,-0.3946168869004635,0.1744528344398654
7.219999999999999,-12.9911045220445,-0.2244817945531874,0.2074852961769688
7.230000000000004,-12.806585807737603,-0.0818555811711808,0.2161872125512604
7.240000000000009,-12.304264692715789,-0.0342964810515235,0.2078855182985018
7.25,-11.549951005118766,-0.0964133048646049,0.1672951496565314
7.260000000000005,-10.663327311279811,-0.194305863261944,0.1090460960732075
7.27000000000001,-9.559326800061983,-0.2717270655567174,0.0585254222789564
7.280000000000001,-8.414406839428773,-0.2878166901856426,0.0282269801568602
7.290000000000006,-6.936277498718596,-0.2388257112343085,-0.0117712930262213
7.300000000000011,-5.573409656580642,-0.1855441476402424,-0.0329406539473785
7.310000000000002,-4.36970033354174,-0.1493376264011315,-0.0433494219866997
7.320000000000007,-3.255570548887297,-0.1451561958559957,-0.0622276214367583
7.329999999999998,-2.158418366110951,-0.1531020474017384,-0.0387218711414563
7.340000000000003,-1.2086907959343562,-0.1416383212411232,0.0019818845672019
7.350000000000008,-0.498151680308516,-0.1151541930853482,0.0393149615482612
7.359999999999999,0.2132975123835707,-0.0788665165435836,0.0619898030829802
7.370000000000003,0.6215444313086018,-0.0297351034159855,0.0561101024642022
7.38000000000001,0.8574179589947294,0.0229164272880753,0.0428036383546412
7.390000000000001,0.9686703168151152,0.0875210817221834,0.0142492349965003
7.400000000000006,0.9805131372433228,0.1603545203219251,-0.0180457104904707
7.410000000000011,0.9223705458581456,0.2074656758763747,-0.0463822908973411
7.420000000000002,0.8314864234749847,0.2356079637852264,-0.0684814014523994
7.430000000000007,0.7152380286346436,0.2542153977230202,-0.1009696947592222
7.440000000000012,0.5721874705554587,0.2680407693720331,-0.1463686092216827
7.450000000000003,0.4416700380134652,0.2684813442579606,-0.1982502171602997
7.460000000000008,0.3021188237541342,0.2707601730910391,-0.2493482036127815
7.469999999999999,0.1887725689121762,0.2667520409067184,-0.2951391889615503
7.480000000000004,0.1325754685524703,0.2565906587431593,-0.3240436733268326
7.490000000000009,0.1265906471022801,0.2502436535647971,-0.3248817570519506
7.5,0.19477240082368,0.2388586017973335,-0.3076229422981003
7.510000000000005,0.3971845974977728,0.2401628235588533,-0.2648356873557518
7.52000000000001,0.701709953742727,0.2502395758499001,-0.2170404707548914
7.530000000000001,1.1161503132221993,0.2700749511658252,-0.1545742410994384
7.540000000000006,1.6469787540839098,0.2955331389035808,-0.0649198226239288
7.550000000000011,2.381301274380655,0.3353936865680583,0.055717393288274
7.560000000000002,3.1138772998921813,0.3921504868934323,0.1669087121680141
7.570000000000007,3.914231456437247,0.4814708841279456,0.277005928161659
7.579999999999998,4.797415125279207,0.6091572980935234,0.3859900868635747
7.590000000000003,5.851036793264584,0.7779505050467985,0.4841531827767916
7.600000000000008,6.968488203544725,0.9668322685312076,0.5610785244563922
7.609999999999999,7.976556910628939,1.1389544608505988,0.6066290495413145
7.620000000000003,9.139098183934417,1.341116330222931,0.6454357127283821
7.63000000000001,10.229523275290996,1.5210733027065897,0.6640927466233737
7.640000000000001,11.162290811149498,1.6690217339294828,0.6723939482806532
7.650000000000006,12.15455037089153,1.7920514562037375,0.6820669143453667
7.660000000000011,12.933476852288708,1.9176030555737436,0.6848539540576142
7.670000000000002,13.439806162183928,2.03718831017242,0.6734235652304953
7.680000000000007,13.727343073488832,2.1349809608891817,0.6336836103871
7.690000000000012,13.872280793334882,2.212930742285168,0.5687720789904371
7.700000000000003,13.850181851208886,2.2770720473048205,0.5004209259972058
7.710000000000008,13.722737598072184,2.295918668661718,0.454740008628322
7.719999999999999,13.59114337756259,2.227521044966582,0.4828559934710887
7.730000000000004,13.169987515185124,2.152458965746611,0.5481671697805633
7.740000000000009,12.620221718805627,2.044198186021817,0.612673501016026
7.75,12.030653623083072,1.926366059890408,0.6922625783077997
7.760000000000005,11.32846415750863,1.781263081490444,0.7711234423216676
7.77000000000001,10.401217577388003,1.5555349937626053,0.8681839105460091
7.780000000000001,9.51488539660517,1.2973983958873332,0.9912556330819888
7.790000000000006,8.629922445859037,1.0173936605946805,1.107348466987124
7.800000000000011,7.694730644693416,0.7666133723155977,1.1708615043648458
7.810000000000002,6.710702258623166,0.5425119690886485,1.1966347234924344
7.820000000000007,5.837314374146877,0.3841946471530539,1.1846561926279664
7.829999999999998,5.203213119924027,0.2818912119975013,1.1495514134651044
7.840000000000003,4.523660014312006,0.1628065522529179,1.0852431508537286
7.850000000000008,3.9150698833942847,0.0421961563354027,0.9989163717904744
7.859999999999999,3.3750234398662964,-0.0800860489679807,0.9104745439508836
7.870000000000003,2.8717306123878283,-0.2008360914549957,0.8168713202606896
7.88000000000001,2.359143375159505,-0.3108994337539355,0.7190588002596889
7.890000000000001,1.8610775610756487,-0.4084936191064006,0.6033585195045599
7.900000000000006,1.451337298822001,-0.4731314430481815,0.500475493198825
7.910000000000011,1.091890597087892,-0.5192611192924601,0.4016310525923004
7.920000000000002,0.7677374357433923,-0.5616096158436471,0.314542950142578
7.930000000000007,0.469698167571391,-0.6024105204677697,0.2465750847303879
7.940000000000012,0.2266228897409033,-0.6434952778603006,0.1949863706175515
7.950000000000003,0.0476744730180609,-0.6763203060681063,0.1545199139495859
7.960000000000008,-0.0865799511300196,-0.6939268800923072,0.1228254058190643
7.969999999999999,-0.1730662842754435,-0.6897522958216677,0.109259372345611
7.980000000000004,-0.2413223458991913,-0.672897081305766,0.1076293847157163
7.990000000000009,-0.2887874907484887,-0.6296371162167951,0.1217051875909008
8.0,-0.3232809489072888,-0.5768513216308857,0.1482280857462498
8.010000000000005,-0.3423552196228701,-0.5092808774537452,0.1755635291520077
8.02000000000001,-0.3521967761130696,-0.4472912192287183,0.1947773365611259
8.030000000000001,-0.3576507861661314,-0.3923077482466013,0.2043396260413267
8.040000000000006,-0.3754701522692942,-0.3454029620615719,0.2058299064904896
8.050000000000011,-0.405237484179791,-0.3160600917487659,0.198640655579486
8.060000000000002,-0.4592371437374386,-0.2912182801379655,0.1941392695106426
8.070000000000007,-0.5468009795480266,-0.2627793383882709,0.185534141753638
8.079999999999998,-0.6644734580514297,-0.2193321881652636,0.1694063092261446
8.090000000000003,-0.7720113871164225,-0.1801783110559778,0.1547334467157511
8.100000000000009,-0.8802515147379191,-0.1429472877950902,0.1426062892871214
8.11,-0.9889548507687066,-0.1072153819952643,0.1298832341512479
8.120000000000005,-1.09956966731844,-0.0771638593569535,0.1258136883382161
8.13000000000001,-1.2345775575415752,-0.0437716661060167,0.1259123051908592
8.14,-1.4168300415048631,-0.0073948467444588,0.1279430510031842
8.150000000000006,-1.624003542928477,0.0284928723052186,0.1381719223014796
8.16000000000001,-1.929517523134013,0.0632610480676054,0.1612535202572933
8.170000000000002,-2.2797393189425543,0.0944642156002421,0.18298675248146
8.180000000000007,-2.741937700923518,0.117638523747611,0.2333243495852405
8.190000000000012,-3.32925197723058,0.1329643385346596,0.3105833666445222
8.200000000000003,-3.967661515625468,0.1177954608320532,0.3741015424878763
8.210000000000008,-4.8289086436629285,0.0862440997794902,0.4416386909082378
8.219999999999999,-5.778167679552895,0.0884733772047475,0.496233866189838
8.230000000000004,-6.8106276540051285,0.120736003123125,0.538495513857224
8.240000000000009,-7.765088147720919,0.1672807459298573,0.5797843126288218
8.25,-8.950384909290252,0.2072544449612998,0.6421772146606801
8.260000000000005,-10.21248273955415,0.2267130059183864,0.7273034256633211
8.27000000000001,-11.277359120785093,0.22593482748263,0.8123269833310636
8.280000000000001,-12.305771771237607,0.2054818866598735,0.914387475811652
8.290000000000006,-13.08376507323154,0.1662443745977422,1.0277310477629658
8.300000000000011,-13.801083602347484,0.1059467756012435,1.1706139326176948
8.310000000000002,-14.416324535123806,0.0192344789362858,1.3169191925142272
8.320000000000007,-14.894403244232585,-0.0848173246695874,1.4734222230230622
8.329999999999998,-15.280027682059105,-0.168697440808191,1.6110353761573248
8.340000000000003,-15.486331145848142,-0.261216075244185,1.6769396940851815
8.350000000000009,-15.632920656654385,-0.3550869263836816,1.6745402822577304
8.36,-15.487332303971614,-0.4745985659528002,1.6096117324537338
8.370000000000005,-15.16206588145291,-0.563000745120901,1.5836462504275102
8.38000000000001,-14.644970629255113,-0.5770653003016559,1.4772069266728194
8.39,-13.922155548159283,-0.5576856110042859,1.2712810775673136
8.400000000000006,-13.031901053189154,-0.4797915855712504,1.0650263097598447
8.41000000000001,-11.9718606437309,-0.4060960795442671,0.8847396374984784
8.420000000000002,-10.593401288142667,-0.3533165381756971,0.7265509606230811
8.430000000000007,-8.789343135115393,-0.3253601867193634,0.5996917479990387
8.440000000000012,-7.068854387921065,-0.2329000569368661,0.4981139614236391
8.450000000000003,-5.34270534533092,-0.0699798778472264,0.4011082007472766
8.460000000000008,-3.955772214454421,0.1156713614316967,0.3290041310631132
8.469999999999999,-2.348282276706783,0.3763080865601642,0.2487363779437787
8.480000000000004,-0.9750236535772688,0.6215433795459331,0.1795383312797287
8.490000000000009,0.2108333006866647,0.8090754850442793,0.0978312949199794
8.5,1.420664182703618,0.9623026658326572,-0.0174848209094368
8.510000000000005,2.14988075955432,1.001380909299067,-0.1169607931767945
8.52000000000001,2.723266401156923,0.9957382937269472,-0.2163521661740419
8.530000000000001,3.095738100878489,0.950388433458216,-0.3153990672443245
8.540000000000006,3.2882153347158694,0.8963072142711803,-0.3886758555360836
8.550000000000011,3.2455359832507296,0.8353192304929375,-0.4467345529716269
8.560000000000002,3.0687037466993474,0.773384997086513,-0.503346441846686
8.570000000000007,2.711661248460448,0.6984391085003914,-0.557792235001004
8.579999999999998,2.356421792570578,0.6183721901341861,-0.6057471317633403
8.590000000000003,1.9421606964258975,0.5052775646327817,-0.6476385069194572
8.600000000000009,1.509202036437035,0.3805052303131108,-0.6675231996385438
8.61,1.0776850063049073,0.2575462554520215,-0.6727760000129165
8.620000000000005,0.6675011986457827,0.1407393389264537,-0.66756812736355
8.63000000000001,0.394260887790313,0.0755329897504079,-0.6445234430973936
8.64,0.1791044018207074,0.0431171448277625,-0.6079385812378141
8.650000000000006,0.0902154039343937,0.0539763959704892,-0.5645871224705481
8.66000000000001,0.1193300526795179,0.0887616472038042,-0.5132535652335024
8.670000000000002,0.2902371133724717,0.1386449967014741,-0.4575774878571631
8.680000000000007,0.6271047428597426,0.2067177834200204,-0.3963948724356351
8.690000000000012,1.161102054240942,0.2819699878915182,-0.3244606855693164
8.700000000000003,1.8519962368608536,0.3401923045618075,-0.2666081286350092
8.710000000000008,2.666737223998637,0.4049877323592006,-0.2092148637702762
8.719999999999999,3.502993179007217,0.4811702856029574,-0.1630065610391036
8.730000000000004,4.33802228085647,0.5635646636791284,-0.1217793543904245
8.740000000000009,5.417201017757322,0.6746891548860193,-0.0813375080701066
8.75,6.332474230600399,0.7731907220804859,-0.0538961061223526
8.760000000000005,7.36679802414376,0.8720708678654364,-0.02944351541586
8.77000000000001,8.321369793407477,0.9463876619376222,-0.0199034472114602
8.780000000000001,9.007592777144966,0.9846276904296916,-0.0166944499812846
8.790000000000006,9.625658426711512,0.9979385906034172,-0.0200350681691345
8.800000000000011,10.16347872316742,0.9969365398331804,-0.0287961731359739
8.810000000000002,10.550631971080827,0.9834358010615069,-0.0377822516150942
8.820000000000007,10.813030443716476,0.952250828092423,-0.0372850406173637
8.829999999999998,11.027856942887208,0.8971794943449006,-0.0185471184342412
8.840000000000003,11.135948534887714,0.8512985280044771,0.0112232123170542
8.850000000000009,11.185153634873874,0.8266186536757192,0.0486976681064615
8.86,11.196832098962206,0.8208980293858483,0.0864046378875025
8.870000000000005,11.175103449338282,0.8188839004668441,0.1300016023433398
8.88000000000001,11.083657022007571,0.8385843853655311,0.1947496116817025
8.89,11.07470075118906,0.8294164482889147,0.2593244523344647
8.900000000000006,10.9870012676913,0.8493900333792767,0.3154696837404712
8.91000000000001,10.8134365449933,0.8838849970748859,0.3572337143878132
8.920000000000002,10.57586801930706,0.9341806777801724,0.3672543260072093
8.930000000000007,10.269122710696626,0.9592520612576704,0.3798617045704869
8.940000000000012,9.86915969914858,0.943938975173734,0.4060811697127698
8.950000000000003,9.3098026815894,0.8814039759088765,0.44288483664686
8.960000000000008,8.618996204241956,0.7665755205932843,0.4794346494209542
8.969999999999999,8.000363967832946,0.6461132168760327,0.4975756051813351
8.980000000000004,7.3254562633764335,0.5123653408837499,0.5295981775897539
8.990000000000009,6.589295911373526,0.3585744519209894,0.5755543995064032
9.0,5.95418792117408,0.2283153425441568,0.6151995900926407
9.010000000000003,5.382188137556674,0.1199301392528507,0.6315198901014504
9.02000000000001,4.8698602948118666,0.031288697107831,0.627457165078855
9.03,4.363596111227668,-0.0466788496346263,0.6166650238366889
9.040000000000006,3.942729273327581,-0.1130460870180199,0.6003407314002733
9.050000000000011,3.533384324595642,-0.1828565536802012,0.5641310995372029
9.060000000000002,3.081893358013063,-0.263935310393467,0.4999511416799005
9.070000000000007,2.671592190146261,-0.3255238445713223,0.4140516099160114
9.079999999999998,2.2060502444006667,-0.3866163316612774,0.2919141016235326
9.090000000000003,1.7617809867963687,-0.4341838242345877,0.1574433627318242
9.100000000000009,1.284695546382896,-0.4682755043529281,0.0160870441355139
9.11,0.8549141324873277,-0.4945724054075028,-0.0910399390013973
9.120000000000005,0.5322627875556774,-0.5113328222539143,-0.1474893313922204
9.13000000000001,0.1855523445997372,-0.5340841050574608,-0.1823201790455496
9.14,-0.1136450525648692,-0.5500295027842067,-0.1867023010334708
9.150000000000006,-0.3818935286074396,-0.5565875185019683,-0.176911134435769
9.16000000000001,-0.6247468472841881,-0.5462274684163205,-0.164029688631818
9.170000000000002,-0.8341790503033909,-0.5235311147218057,-0.1498611642876327
9.180000000000009,-1.04109904073225,-0.4733178942696028,-0.123390009215874
9.190000000000012,-1.1877517289322168,-0.4099381909586078,-0.0970399672796341
9.200000000000005,-1.2945434449403608,-0.3480655090210618,-0.0602796277688844
9.210000000000008,-1.3747098292052855,-0.2954843946254714,-0.0210366821592074
9.22,-1.4468920351954682,-0.2595837822884106,0.0227775941613502
9.230000000000004,-1.5048127263382869,-0.2341294987503517,0.0528398212530669
9.240000000000007,-1.5456432211845086,-0.2145834305017086,0.0699656073117445
9.25,-1.5876909680169151,-0.1917822223159077,0.081294301465868
9.260000000000003,-1.6196808373336946,-0.1779382053469065,0.0807161184622927
9.27000000000001,-1.6518439268317788,-0.1671736466533761,0.0784477503542541
9.28,-1.6992282609063414,-0.1537898960686633,0.0697568555414471
9.290000000000006,-1.777982917496833,-0.1428664500025801,0.0653651075996196
9.300000000000011,-1.8946813191443128,-0.1350707360524649,0.0626509367623931
9.310000000000002,-2.0734816263202944,-0.1283806656152053,0.0697133657119641
9.320000000000007,-2.374325424899525,-0.1341568220086435,0.0890926968307382
9.329999999999998,-2.756285033120926,-0.1462550468650094,0.119379049479681
9.340000000000003,-3.269046014723108,-0.1707878230594856,0.1571835334154526
9.350000000000009,-3.936558553720014,-0.2066915404733262,0.2082649810372013
9.36,-4.7647901811309445,-0.2472245694158701,0.2690243948892228
9.370000000000005,-5.830991878498239,-0.300294838916325,0.3472831556073834
9.38000000000001,-6.849224027110821,-0.3512424840004041,0.4308574714468747
9.39,-8.041458135697457,-0.4134773327424471,0.5423420069025743
9.400000000000006,-9.444342619366427,-0.459099708955649,0.6741857385189023
9.41000000000001,-10.639086535538969,-0.4828276124436565,0.7623952904622313
9.420000000000002,-11.808617027134224,-0.5416309684304654,0.8539219251074088
9.430000000000009,-12.87612372716523,-0.6267917701683254,0.946398730874336
9.440000000000012,-13.885753589984253,-0.7352528578461855,1.0649153236220597
9.450000000000005,-14.578126844586722,-0.8347328347847203,1.175181947241722
9.460000000000008,-15.084604949791332,-0.9294814062432972,1.2974119147923628
9.47,-15.432861092482332,-1.0269137680026,1.410823378803496
9.480000000000004,-15.641447136909765,-1.1214536614038448,1.507257340130565
9.490000000000007,-15.681251724835567,-1.207650313134697,1.5322003276186222
9.5,-15.528116511422288,-1.2372767659357342,1.5069367561952147
9.510000000000003,-15.17948510605614,-1.2519978756276382,1.3905050602816218
9.52000000000001,-14.59922937550752,-1.2769078503472588,1.2594550171802914
9.53,-13.867229278967253,-1.2039479029766502,1.1631593962103215
9.540000000000006,-12.76018064125046,-1.049781653241494,0.9826299330672996
9.550000000000011,-11.424872059092616,-0.7948850180623258,0.8235721496466407
9.560000000000002,-10.009850657951883,-0.5100029905793654,0.7301108932743268
9.570000000000007,-8.358921675286132,-0.24307701638272,0.6421280549079919
9.579999999999998,-6.74952658518817,-0.0212074300622825,0.5633646433625749
9.590000000000003,-4.989500220618787,0.2251817657599047,0.5060853694378405
9.600000000000009,-3.3466906582548583,0.4883151893474757,0.4631210955878967
9.61,-1.828536834296404,0.7428587664671535,0.4125640374862556
9.620000000000005,-0.2987027590940898,0.9862576133101244,0.3350239049689338
9.63000000000001,0.9548085505295284,1.147131402141368,0.2379197995119619
9.64,1.874878439265023,1.2119022497682228,0.1316478372555522
9.650000000000006,2.5363013632748754,1.2184017261130546,0.0154510953889105
9.66000000000001,3.082306276800959,1.1526363181615862,-0.1176914468233557
9.670000000000002,3.3251303016994904,1.042487778719323,-0.2157506500987669
9.680000000000009,3.290982764962095,0.8996958210456261,-0.286341045597335
9.690000000000012,3.072842935598633,0.7349685566675367,-0.348951026601969
9.700000000000005,2.626930695273858,0.5573603491488958,-0.4056989990431746
9.710000000000008,2.1124508702382507,0.4034303543842317,-0.455773430731045
9.72,1.6733540301463328,0.2973860273159451,-0.4875949600783833
9.730000000000004,1.2401494367263617,0.1857412472688498,-0.5135692723275315
9.740000000000007,0.8656364166945767,0.0760748062006979,-0.5241121211646896
9.75,0.6155839309318232,-0.0128445218049776,-0.5222890264197095
9.760000000000003,0.4527056667081435,-0.0847380432342576,-0.5114784514455089
9.77000000000001,0.3704555309624235,-0.1411665014088885,-0.4920934100231569
9.78,0.3801279144692718,-0.1685344366913374,-0.4609512588588549
9.790000000000006,0.4802804241501665,-0.165286029146865,-0.4261282315936064
9.800000000000011,0.6790021151302384,-0.1338901259606139,-0.3819150078703663
9.810000000000002,1.054017708446087,-0.0650568026617883,-0.3287268928334944
9.820000000000007,1.5243255355719134,0.0190457974927638,-0.2840784127189054
9.829999999999998,2.0735911637595845,0.1121033596304123,-0.2469988643796475
9.840000000000003,2.68185710271045,0.2112111246488092,-0.2112540466653089
9.850000000000009,3.488055390267004,0.33678197475866,-0.1710374343343015
9.86,4.28301603591755,0.4532728774603305,-0.1479523074607051
9.870000000000005,5.1546258078222085,0.5601713888521859,-0.1463809160138753
9.88000000000001,6.16463926266583,0.6702321285247669,-0.152225501456296
9.89,6.968997529734097,0.7583335390904083,-0.1622843795637465
9.900000000000006,7.916411662324119,0.8614579576033344,-0.1808036565804441
9.91000000000001,8.670874884097715,0.9201573328454132,-0.1945896539810264
9.920000000000002,9.303389007729592,0.9634692147442028,-0.2101658051443928
9.930000000000009,9.941516920915277,0.9941727049237892,-0.235112886165632
9.940000000000012,10.425689894205536,1.0098970231119797,-0.2487984790768467
9.950000000000005,10.848752258826648,1.0157127535775397,-0.2586311660661068
9.960000000000008,11.11684358029418,1.0261044812538431,-0.2798484515210569
9.97,11.34309950438235,1.0232212648340095,-0.2965077398655573
9.980000000000004,11.445242441082211,1.029355348108732,-0.3080931757062693
9.990000000000007,11.49462322970889,1.0153353126435982,-0.3191895519575217
10.0,11.382948755230483,0.9935551384208912,-0.3105509366686376
10.010000000000003,11.2486422061565,0.934481559229869,-0.2845320379479378
10.02000000000001,11.082661488980204,0.8164302857014224,-0.2139287250673626
10.03,10.68016452107958,0.7213592143047232,-0.111897246360614
10.040000000000006,10.208479018964177,0.6176584907297613,-0.002373181163492
10.050000000000011,9.537069627019145,0.5060607216155567,0.1243532320553559
10.060000000000002,8.77080615975911,0.3693944631968983,0.2484887049188055
10.070000000000007,7.924001754515048,0.2236815698361119,0.373401894614375
10.079999999999998,6.951507078472422,0.0520771877359795,0.4756948087229728
10.090000000000003,5.862696870267822,-0.1626648330353916,0.5403594070425116
10.100000000000009,4.685940493276154,-0.3836103391102231,0.564846852383134
10.11,3.560109243793974,-0.5693220211270812,0.565639997370101
10.120000000000005,2.497529713173148,-0.6987901868032437,0.527627551288082
10.13000000000001,1.678814920938415,-0.7803118129235788,0.4672389654607019
10.14,0.8980425848096035,-0.8390640897581532,0.3836798462683799
10.150000000000006,0.1178230824871094,-0.8844363047320511,0.2880545391485382
10.16000000000001,-0.4690815657557159,-0.8981961801042794,0.200919058948155
10.170000000000002,-1.0898925299435085,-0.8776227225486308,0.0920996077667641
10.180000000000009,-1.5379404299518422,-0.810524805161011,-0.0143860517884775
10.190000000000012,-1.8007797832110253,-0.7358293457744252,-0.1042522914101402
10.200000000000005,-1.9543397165860297,-0.6451278550506927,-0.1697556096503961
10.210000000000008,-1.981677934225236,-0.5395741488385074,-0.1998741325593814
10.22,-1.925017733864202,-0.4440160032141585,-0.2130660970822184
10.230000000000004,-1.8064139757126696,-0.3489558507055197,-0.2080965344176919
10.240000000000007,-1.6643418744316592,-0.2767008588238651,-0.168796497242586
10.25,-1.529574382766358,-0.2314135133032451,-0.1157355478181942
10.260000000000003,-1.4347274365693568,-0.1950162477287403,-0.0652181290213619
10.27000000000001,-1.3718376897425164,-0.1686340812358353,-0.0137511869852927
10.28,-1.3672134471979565,-0.1649802235706918,0.0394494038106842
10.290000000000006,-1.3896648885629588,-0.1743530784707334,0.0979708852630102
10.300000000000011,-1.4306927438792592,-0.1917836454332497,0.159785717171882
10.310000000000002,-1.472516918571674,-0.2223102069616043,0.2244592496356504
10.320000000000007,-1.5319474031815103,-0.2582482949717849,0.2902427534480938
10.329999999999998,-1.5867634704564395,-0.2723015151959396,0.3317063925683257
10.340000000000003,-1.636260712257018,-0.2715665168130721,0.349118946192222
10.350000000000009,-1.66748673888495,-0.2725853287700013,0.3529117822664765
10.36,-1.6622206925494856,-0.279180823116557,0.3560586881761736
10.370000000000005,-1.6384311162280485,-0.2879209380027936,0.3654615813801855
10.38000000000001,-1.6054393774662397,-0.2757739260688047,0.3698168214648117
10.39,-1.5598736988706712,-0.2485315763156891,0.3734273233889235
10.400000000000006,-1.498394979685396,-0.2156867616659736,0.38564205754186
10.41000000000001,-1.4381614750054486,-0.1888210647567073,0.3989684782527644
10.420000000000002,-1.3743489672886615,-0.1667023051334193,0.4180343770348356
10.430000000000009,-1.3315373411327454,-0.1528144350598066,0.4484140968194545
10.440000000000012,-1.3301573000904483,-0.1304751513143814,0.4924964902068787
10.450000000000005,-1.352693169864612,-0.0862578009747178,0.5321490985066205
10.460000000000008,-1.3937059529004898,-0.025606466976997,0.5757627371543708
10.47,-1.425874360723653,0.0455968626625534,0.6227740024132961
10.480000000000004,-1.456015971028116,0.1231624954455146,0.6712039759193044
10.490000000000007,-1.4984865895927526,0.2309019189776717,0.7274731249557914
10.5,-1.5503657516283469,0.358561940124711,0.7765398458331462
10.510000000000003,-1.6447033182335011,0.5213488211420549,0.8190027149980479
10.52000000000001,-1.754528806917343,0.6752994225990901,0.8546371936016243
10.53,-1.879956816622318,0.8208855385511262,0.8926693481914155
10.540000000000006,-2.07424643967453,1.0038650768610096,0.9253714733358568
10.550000000000011,-2.2885477357137067,1.1686366008652644,0.9522169558199628
10.560000000000002,-2.5759840407273717,1.343091384448361,0.9817643981913462
10.570000000000007,-2.9248983763887324,1.5021207399042884,1.011249046336621
10.579999999999998,-3.4402649941714767,1.676396699282536,1.035022113193131
10.590000000000003,-4.167206461451786,1.850234648992668,1.0512061423313963
10.600000000000009,-4.883860856737575,1.950213055616376,1.0470991358785844
10.61,-5.656462741646341,1.993271002488275,1.033041614938071
10.620000000000005,-6.321005797851928,1.9934812928332517,1.0120587954142155
10.63000000000001,-7.100959488125135,1.9362344831696567,0.9745584965288528
10.64,-7.823131375374691,1.8460869996936065,0.9461014885405404
10.650000000000006,-8.417013868480039,1.70019628158299,0.9575667622874672
10.66000000000001,-9.004373347890274,1.457535131349507,0.9835795765956648
10.670000000000002,-9.359912077851806,1.1761124107971777,0.9921136010962828
10.680000000000009,-9.672956117315271,0.887272396688639,0.952321565334002
10.690000000000012,-9.921326974814043,0.5607439321832849,0.8224465761251907
10.700000000000005,-10.103003724374949,0.2759406662451681,0.6048239623383552
10.710000000000008,-10.124957872641378,0.0849247870481006,0.3444604274933638
10.72,-10.06172768614754,-0.001299664418061,0.0578794891598189
10.730000000000004,-9.864090216132697,-0.0518070997968475,-0.2485807817941676
10.740000000000007,-9.551846619668732,-0.0948510390107901,-0.4612730574915822
10.75,-9.170269897836627,-0.0825404182309205,-0.6464955807883506
10.760000000000003,-8.679456518952504,-0.0299907870225176,-0.8774866260281934
10.77000000000001,-8.097688405737788,0.1191970731149343,-1.1293880456427583
10.78,-7.482457692189596,0.3018549193380677,-1.3584059183088697
10.790000000000006,-6.936100716488873,0.4928014616272974,-1.5207544414263732
10.800000000000011,-6.2134248091688296,0.6749003941090217,-1.636081489751778
10.810000000000002,-5.3911228162823965,0.8140215500514753,-1.6828987382826075
10.820000000000007,-4.613909799883356,0.9050267345088524,-1.6900328162420284
10.829999999999998,-3.756855047643543,1.012609479343311,-1.6589102207066817
10.840000000000003,-2.9934427305935087,1.0760268129897512,-1.5946314332743106
10.850000000000009,-2.183095892379969,1.0869192044020948,-1.480559722018263
10.86,-1.3787108288855552,1.0795579273318674,-1.3373694462267782
10.870000000000005,-0.6734060480754426,1.0625764210358204,-1.196369262969334
10.88000000000001,0.0851089800628078,1.0300753054537244,-1.0432640141593332
10.89,0.7160452925463305,0.9920357594006096,-0.906044321594246
10.900000000000006,1.2096075205023198,0.959482600869551,-0.7936063383986209
10.91000000000001,1.5997481141994092,0.9296977737507082,-0.6872541263546241
10.920000000000002,1.9003548790330536,0.8861279980404678,-0.5739395836868597
10.930000000000009,2.1087089922394,0.8181118639084262,-0.4630177215663325
10.940000000000012,2.201585734123634,0.7419071589843813,-0.3720461662398747
10.950000000000005,2.2288281068973963,0.6428439132066993,-0.2709455891335557
10.960000000000008,2.157021724416152,0.5307196390155665,-0.1745958229761021
10.97,2.0131699947214274,0.4289793932156071,-0.0923157130372772
10.980000000000004,1.8190782037640143,0.3330267295347311,-0.0326171260396713
10.990000000000007,1.626304173716042,0.2528904537217136,0.0050254023287119
11.0,1.424312940912756,0.165319750090245,0.0292161307506321
11.010000000000003,1.2331709594503253,0.0849950176088418,0.0505327961367719
11.02000000000001,1.112923617958332,0.015807412956725,0.0720446368043848
11.03,1.0737653590072014,-0.0383432661414032,0.1035054106036781
11.040000000000006,1.1849435730413802,-0.0559635605656508,0.1391929300172719
11.050000000000011,1.4168293932783371,-0.046313865306931,0.1672348731169408
11.060000000000002,1.775565795530882,-0.0022698366873464,0.1821092986970017
11.070000000000007,2.400022737210291,0.0852870546433746,0.2100729426612503
11.079999999999998,3.1512760502866684,0.1771730361631843,0.2605012635417492
11.090000000000003,4.051658227661738,0.2401430908679151,0.3430321507507513
11.100000000000009,5.102398316281124,0.3053042830889875,0.4610581605725746
11.11,6.352968777805724,0.4021464514941824,0.5635260390760791
11.120000000000005,7.6181837510782175,0.5100666990800918,0.6451286315506126
11.13000000000001,8.635229994418694,0.5896489376743796,0.7269330472968657
11.14,9.746001832115263,0.6811635711363224,0.8471689572745181
11.150000000000006,10.821002409583452,0.7897364401455234,0.9802468943437308
11.16000000000001,11.638288470054464,0.8468077997889003,1.1123674329422202
11.170000000000002,12.240146700386209,0.8691074830983351,1.2359906382599
11.180000000000009,12.621382333059143,0.900100973578245,1.3346974250201953
11.190000000000012,12.734867882333202,0.9498792899153288,1.4049567959503428
11.200000000000005,12.597021228873183,1.0058425259605093,1.4268640253486409
11.210000000000008,12.2951408281564,1.0683312869172363,1.3937776280214296
11.22,11.844120705732214,1.1315323414565748,1.306575800580959
11.230000000000004,11.32003491153211,1.181820765527837,1.1991397641493868
11.240000000000007,10.613814251520107,1.1405515515739582,1.050011176071214
11.25,9.614993177450724,1.0716881463560877,0.8805415380020972
11.260000000000003,8.318227200933457,0.9043790580513008,0.7154192305566116
11.27000000000001,7.104439858773241,0.7091835344663439,0.5586257679491677
11.28,5.652002385979394,0.3505954358227278,0.4088821885439973
11.290000000000006,3.9839807571746304,-0.0999932082400665,0.2945227185694366
11.300000000000011,2.4571660411389926,-0.5162894192105344,0.2219091753734033
11.310000000000002,1.086024348919674,-0.8145880292961805,0.1454695004660563
11.320000000000007,-0.1824723084160101,-1.0740620460916248,0.051691896785358
11.329999999999998,-1.0292537027281945,-1.1876768991050377,-0.0176343170141776
11.340000000000003,-1.978506473391493,-1.3459762788297749,-0.0777901156751051
11.350000000000009,-2.181485700733753,-1.2200579534239784,-0.0913431235126436
11.36,-0.0140095715151474,-0.1938518855174266,0.031552601849977
11.370000000000005,0.1265676496648989,-0.1472765554585628,0.0405044157528547
11.38000000000001,0.0901239211753591,-0.1546090534844311,0.0378640800444756
11.39,0.1129633823589142,-0.1514095244386755,0.0392826772991332
11.400000000000006,0.1004771658122854,-0.1517985780246337,0.0383791317458498
11.41000000000001,0.1106515253016798,-0.1523531010060541,0.038692132526495
11.420000000000002,0.1056924961308874,-0.1503755478986005,0.0384526817399117
11.430000000000009,0.1097324624558593,-0.1530822037115174,0.0380738402189989
11.440000000000012,0.1084108899038483,-0.149447168849323,0.0381823452150956
11.450000000000005,0.1107948451038716,-0.1532568591629758,0.0372392015005165
11.460000000000008,0.1093772250877195,-0.1488610260108389,0.0374677139617218
11.47,0.1136418138553494,-0.1531466588064178,0.035961373823362
11.480000000000004,0.1092976010552029,-0.1474228349661665,0.0362951837857438
11.490000000000007,0.1307724593873074,-0.1477675273858239,0.0233738114972579
11.5,0.0838235316015774,-0.1199956509278623,0.0135123546415612
11.510000000000003,-0.239953515106808,0.0370304396278907,0.0445937020666802
11.52000000000001,-0.2540561381171236,0.0488397962639954,0.0492978847097367
11.53,-0.2524549436428412,0.0484847930257762,0.0498430805944471
11.540000000000006,-0.252066423771377,0.0503092311777986,0.0508119393946111
11.550000000000011,-0.2517431338974482,0.0503917403899359,0.0509708266942951
11.560000000000002,-0.2452304890067522,0.0511684080868659,0.051797571133943
11.570000000000007,-0.249453062735955,0.0545030999722731,0.0539137727266134
11.579999999999998,-0.2377477073711902,0.0539148853869972,0.0548719888847734
11.590000000000003,-0.2338182269525464,0.0750429011590821,0.0688756499923225
11.600000000000009,-0.1257295170758646,0.0823382021215457,0.0643270755674506
11.61,-0.0293343951745192,0.0648505965078699,0.0497343696298538
11.620000000000005,-0.0482905381363037,0.0666974527191477,0.049956992930028
11.63000000000001,-0.0375042964243259,0.063553660844258,0.0465868204113294
11.64,-0.0436520192559993,0.06414820335324,0.0458916403825722
11.650000000000006,-0.0395229870569885,0.0628826680291412,0.0442476576255519
11.66000000000001,-0.0419377461978437,0.0632097914206611,0.043590701197256
11.670000000000002,-0.0404711212125327,0.062510537092943,0.0430480882494894
11.680000000000009,-0.0408828850204153,0.0624554766294293,0.0424050882776762
11.690000000000012,-0.0405861473168234,0.0613647426908988,0.0427799235902752
11.700000000000005,-0.0394256467755871,0.060829089231788,0.0415869388208844
11.710000000000008,-0.0389961064117986,0.0568229040409593,0.0455252491952658
11.72,-0.0184536283418116,0.0485522026609453,0.0457360292159776
11.730000000000004,0.0859331497828973,0.0833745983376677,-0.011358940677286
11.740000000000007,0.0950506982002272,0.0880436202520777,-0.0162469620771166
11.75,0.095983234518218,0.0748845120021601,-0.0144251971935386
11.760000000000003,0.0939013078290954,0.0851928340076851,-0.0149797727006414
11.77000000000001,0.0966974941335866,0.0812754313653733,-0.015773248188454
11.78,0.0934794097935111,0.094572069350499,-0.01622131772843
11.790000000000006,0.0994155215220973,0.0765612068353115,-0.0163976063550636
11.800000000000011,0.0911688453191932,0.1016341995165584,-0.0163855231451691
11.810000000000002,0.1032860201188696,0.0664963807670615,-0.0167599066364439
11.820000000000007,0.0865340640575926,0.1166062458743935,-0.0163486309021695
11.829999999999998,0.1125123092831654,0.0444517010622853,-0.0170981140262852
11.840000000000003,0.0744879384825412,0.158226071192047,-0.0158687001816062
11.850000000000009,0.1548879646666035,-0.0349251917717883,-0.0194647501364083
11.86,-0.0588925773874871,0.6718101245732053,-0.0203156935635647
11.870000000000005,-0.847686308732842,2.995284102093434,0.0076105316053834
11.88000000000001,-0.8121859213628204,2.893529997018766,0.0199618591476883
11.89,-0.858674439117443,3.033269101633304,0.0272306589614845
11.900000000000006,-0.8359024701707836,2.964799458836322,0.0289429457358862
11.91000000000001,-0.8574188426343722,3.0307598647266367,0.03282745725532
11.920000000000002,-0.8435279691582798,2.985506527163246,0.0327324607671221
11.930000000000009,-0.8655428077733386,3.0609013765709943,0.0456360482139737
11.940000000000012,-0.8637537312180318,3.044099368465542,0.0470322704546009
11.950000000000005,-0.9534066321293908,3.4123054038345715,0.1459081712037007
11.960000000000008,-1.128551278501419,4.209442413959022,0.3974452013492018
11.97,-1.2991289321977386,5.16195692804239,0.6941502289078054
11.980000000000004,-1.4437733484440265,6.082403965072179,0.9501852109120716
11.990000000000007,-1.602603614643255,6.892593018142748,1.1378686462771888
12.0,-1.808717270622476,7.653944276140148,1.2838986660058709
12.010000000000003,-2.074275089700133,8.33493525401691,1.37744359806205
12.02000000000001,-2.3251786425695804,8.853403593347668,1.4298584416211984
12.03,-2.500931634312772,9.146577856501594,1.419053351897267
12.040000000000006,-2.622959746364047,9.360605147402852,1.40618698442607
12.050000000000011,-2.7062282452503035,9.35806683010241,1.3216905192454236
12.060000000000002,-2.742880933818576,9.139837256723151,1.1441175593968882
12.070000000000007,-2.6927650936366483,8.65538355957304,0.8717855061972707
12.079999999999998,-2.5132109819098964,8.003405334089576,0.5382442359539144
12.090000000000003,-2.2404778675824453,7.313980567991234,0.2623086720831725
12.100000000000009,-1.919322223952576,6.635219565563762,0.0610025220769032
12.11,-1.4597354868689238,5.980872023051343,-0.041100485207599
12.120000000000005,-0.9680765240755184,5.453184807849805,-0.0340618179555985
12.13000000000001,-0.5977550664385862,4.976905469511549,0.0431119087111791
12.14,-0.3475754747604138,4.442237890206932,0.0962814298198739
12.150000000000006,-0.2332222996992084,3.90525564813058,0.1045049983213128
12.16000000000001,-0.1966054239792045,3.2881332513155126,0.10023530541332
12.170000000000002,-0.2189370698443722,2.844283868927254,0.1189134248810231
12.180000000000009,-0.2833186677568456,2.4865349433236523,0.1447684532151363
12.190000000000012,-0.3790232051262935,2.135603320465924,0.1528404861437072
12.200000000000005,-0.4619074003369783,1.855774231675616,0.1604880483936989
12.210000000000008,-0.5615451639150452,1.5652861785537098,0.1742418340420072
12.22,-0.6569098113862841,1.2841474977457046,0.1956626765698473
12.230000000000004,-0.7567434754969038,0.9886845507356828,0.236106778499154
12.240000000000007,-0.8303740354377318,0.6756978605859042,0.2957308456522846
12.25,-0.8503114955901113,0.4138806558014751,0.3505416173198029
12.260000000000003,-0.8225831156892507,0.1490319627890987,0.4009406526291545
12.27000000000001,-0.7429663796850443,-0.1022979530427402,0.4510908283593852
12.28,-0.6268899976010827,-0.2989559226240845,0.4896270178224105
12.290000000000006,-0.4841928546229296,-0.4592132984819071,0.5260993470494907
12.300000000000011,-0.314373798505636,-0.5997863079031753,0.5513298067049998
12.310000000000002,-0.1086419998172221,-0.7397118963404464,0.5597118557735988
12.320000000000007,0.0759105819912544,-0.8436593081363783,0.5564971207289156
12.329999999999998,0.2544076034467101,-0.9402854863064268,0.5570418733240765
12.340000000000003,0.4079050891110719,-1.0256699250755292,0.5604291436351035
12.350000000000009,0.5124902028555691,-1.0906277764709884,0.5745222652605912
12.36,0.5823763065407974,-1.1451610551132827,0.599396475087841
12.370000000000005,0.629503306735955,-1.1896742812057777,0.6233606394472286
12.38000000000001,0.6651151206003357,-1.2385077012104844,0.6461768917116112
12.39,0.690440436107669,-1.3165826816769546,0.673987938510052
12.400000000000006,0.6966386730350766,-1.4172680892252176,0.7059260470179683
12.41000000000001,0.678529924497252,-1.5851155122838976,0.7536317726559428
12.420000000000002,0.6278927352745394,-1.8157352049167224,0.8241698287365915
12.430000000000009,0.5679720389296837,-2.1071796757539927,0.911212644478708
12.440000000000012,0.5336714413364639,-2.4197962426572333,0.9998076589912336
12.450000000000005,0.5651507732404145,-2.881791522763113,1.098692924065179
12.460000000000008,0.6700914965887317,-3.4181864323486977,1.1813358568278935
12.47,0.8156134775828127,-3.956949888894805,1.2623038019810255
12.480000000000004,0.9938432943048046,-4.542297164647178,1.3635628704030711
12.490000000000007,1.1807459383624754,-5.180131985488793,1.490957762411154
12.5,1.3619280564047307,-5.827748598543784,1.630297647026339
12.510000000000003,1.50621627989659,-6.326622052298758,1.740905920189116
12.52000000000001,1.6433497123932843,-6.836536937807975,1.853752759356712
12.53,1.7616489976000296,-7.352820524269589,1.95204975699552
12.540000000000006,1.8114727042080867,-7.802418067864603,2.027523930008258
12.550000000000011,1.808014971996944,-8.206134102900862,2.0832388268101445
12.560000000000002,1.7582330395774697,-8.57499167199055,2.130479710186404
12.570000000000007,1.649941082146012,-8.911897976202921,2.1656686097997286
12.579999999999998,1.4954717510701052,-9.152529239792493,2.1666167294484
12.590000000000003,1.2832814270556852,-9.30932734779556,2.077949091232121
12.600000000000009,1.0064164261850532,-9.405495184503256,1.8352191443641988
12.61,0.743099053035639,-9.43612652389266,1.5587151071274197
12.620000000000005,0.462437545721352,-9.463535707007068,1.363539667740372
12.63000000000001,0.1756535433400772,-9.454475216709056,1.230220481630008
12.64,-0.1502235997145556,-9.420066030420076,1.0890423775758844
12.650000000000006,-0.5624494215602274,-9.315331746507324,0.8752404574522566
12.66000000000001,-0.8840541194869009,-9.07514784631118,0.6173347937899205
12.670000000000002,-1.0473936607349923,-8.612956884726975,0.3040318463785091
12.680000000000009,-1.020753787437291,-8.049041921347781,0.0255710277116621
12.690000000000012,-0.892769234465324,-7.456376553832419,-0.1976541726791501
12.700000000000005,-0.806222887605807,-6.915882037092172,-0.399274421228814
12.710000000000008,-0.7892300787664596,-6.351164693112696,-0.5976117023557439
12.72,-0.8397313903105563,-5.823035084825617,-0.78594989424667
12.730000000000004,-0.856463772503762,-5.362802898024294,-0.9531109488556846
12.740000000000007,-0.818678095636738,-4.900048845166764,-1.0789036382949464
12.75,-0.7294216506579536,-4.445539860189328,-1.1461903142228378
12.760000000000003,-0.6703243550036948,-3.9933844456590855,-1.1875675366491991
12.77000000000001,-0.739240442113422,-3.607178652830487,-1.226400337331393
12.78,-0.8319774886065744,-3.1114486545497644,-1.2342306331251875
12.790000000000006,-0.9353361603565225,-2.561088167500819,-1.1528131662102818
12.800000000000011,-1.0350426597605955,-2.135140931597668,-1.058604722048052
12.810000000000002,-1.1566662169391326,-1.7119607250695394,-0.9261314143775904
12.820000000000007,-1.2555780365090523,-1.3326594629874902,-0.7907055906076451
12.829999999999998,-1.2532762473375278,-1.0304506210009896,-0.6599280706300309
12.840000000000003,-1.1864028609675237,-0.7421273590226842,-0.4918807823467155
12.850000000000009,-1.082375854608494,-0.5024435216828059,-0.3285945302169725
12.86,-0.9778739473072996,-0.274168812075762,-0.1662959477667751
12.870000000000005,-0.8552167700941568,-0.0752644453443199,-0.0042892739429409
12.88000000000001,-0.7111493503779626,0.1205771208089594,0.1571497512100023
12.89,-0.5811043480582845,0.2884133798591496,0.292516443858515
12.900000000000006,-0.4795080248287497,0.4293055838687765,0.3972100553354175
12.91000000000001,-0.4053419111740537,0.5482586091267427,0.474715902587317
12.920000000000002,-0.3457045329350044,0.6342842528397525,0.5265283150909931
12.930000000000009,-0.2815934898334857,0.7269388239196938,0.5655202969017235
12.940000000000012,-0.2286193158853686,0.7926489145404186,0.5963785109626826
12.950000000000005,-0.2012481524884214,0.8125047339685812,0.613417191619786
12.960000000000008,-0.1814649006707543,0.8189972913796533,0.6085041327765911
12.97,-0.1654482599350079,0.8195267928681657,0.5923215772534546
12.980000000000004,-0.1466112328700812,0.8330700877964616,0.5591140390563811
12.990000000000007,-0.1297046435255927,0.8714944848285553,0.511932178743394
13.0,-0.1232836312729575,0.9335152845588895,0.4504844049740285
13.010000000000003,-0.1281095325104807,1.0317366838887594,0.3749565313007605
13.02000000000001,-0.1725517393492013,1.188495438698176,0.2907589945532421
13.03,-0.2716867262974677,1.4294575053932526,0.199022935179401
13.040000000000006,-0.394917126086201,1.7198072496710397,0.1157537813277408
13.050000000000011,-0.5248941203589825,2.154821456365088,0.0358491072256815
13.060000000000002,-0.6236119396535927,2.7282186998795344,-0.0429190674897543
13.070000000000007,-0.6861756218387367,3.350718416056929,-0.0899414690551676
13.079999999999998,-0.7653854712749896,4.187464712701653,-0.1374263836145983
13.090000000000003,-0.890074099523391,5.134233625670227,-0.1366820711918888
13.100000000000009,-1.0903507310228395,6.003919348793619,-0.0951464107153097
13.11,-1.3797595019839823,6.880930063644448,0.0068682966122475
13.120000000000005,-1.6886587389379104,7.635032432354984,0.1554484099160044
13.13000000000001,-2.0277189929038046,8.367506873363789,0.36390078979482
13.14,-2.3066975574181527,8.988280923280199,0.6264339968975918
13.150000000000006,-2.5608992279426954,9.440193381286152,0.8993515167688019
13.16000000000001,-2.84365287368544,9.78391196773825,1.175134578085964
13.170000000000002,-3.0982298213209245,9.981287845600368,1.4157593381851417
13.180000000000009,-3.329385473093513,10.10136565460665,1.6041440774438112
13.190000000000012,-3.541273222535388,10.140059593688887,1.738383080766288
13.200000000000005,-3.707477765519071,10.13353742249613,1.8296470446772488
13.210000000000008,-3.819208051737608,10.054942701336625,1.8938935661755976
13.22,-3.882778572039266,9.890816709963168,1.9056465328564045
13.230000000000004,-3.9183975358981344,9.654257993091738,1.8792630147083336
13.240000000000007,-3.924305648508013,9.308875323483688,1.8094113333084836
13.25,-3.8338657060005152,8.922350651104512,1.7165298387973014
13.260000000000003,-3.6597823612770495,8.561515966710115,1.6142904548716317
13.27000000000001,-3.3766657435964147,8.155266199506592,1.4592639468592292
13.28,-2.978416299441149,7.754842589798953,1.2937982109967845
13.290000000000006,-2.419189810694707,7.290235330116916,1.1096007712552862
13.300000000000011,-1.8155634687399849,6.831667359113329,0.9557802866686592
13.310000000000002,-1.352396052717178,6.49786637807326,0.8640232023143218
13.320000000000007,-0.9307636068234378,6.097829473311383,0.7752079593576845
13.329999999999998,-0.650174809303802,5.682849569581812,0.6818257254678508
13.340000000000003,-0.4767792933220139,5.187201391901433,0.5548008325153354
13.350000000000009,-0.3739979350972167,4.583141636407636,0.3891072801597484
13.36,-0.273859991268342,3.921939381168544,0.2586816690208446
13.370000000000005,-0.1833205849776479,3.240668520947392,0.2099961399771473
13.38000000000001,-0.137604681110856,2.610377337033416,0.1705964545568209
13.39,-0.0877439321375749,2.003462420378196,0.1172498861213979
13.400000000000006,-0.062921475839919,1.462317449115357,0.0889238085012927
13.41000000000001,-0.0742135597422351,0.9461506227605904,0.0980630907253199
13.420000000000002,-0.0890703114491459,0.4300875715310863,0.1199057101590453
13.430000000000009,-0.0905737366142109,0.0836302622202304,0.1351131895102925
13.440000000000012,-0.0662135982958447,-0.2824165749628752,0.1364513557470207
13.450000000000005,-0.0208952204339332,-0.5388487102849414,0.1297232452246388
13.460000000000008,0.0300220903915794,-0.7291903577865708,0.1266669652360175
13.47,0.0869217993787757,-0.8899962645731824,0.1309336569829295
13.480000000000004,0.1381358736176513,-0.9876940655595484,0.1524765449531319
13.490000000000007,0.1827308328091129,-1.057171680833031,0.180056240846777
13.5,0.2247006488178533,-1.0898039968521804,0.2118540548832653
13.510000000000003,0.2693822901129417,-1.095042987668726,0.2413567394796832
13.52000000000001,0.2987030952456739,-1.0705838520635698,0.2621409506314207
13.53,0.3299777066387346,-1.03109499964079,0.2812252590202162
13.540000000000006,0.3668240443054844,-0.9761080598227634,0.3027608239140622
13.550000000000011,0.397887634680633,-0.9253909869666204,0.3254457855988788
13.560000000000002,0.4261534207729442,-0.8702869735038198,0.3549947669082624
13.570000000000007,0.4588543655542714,-0.8324972648039024,0.3846753922254311
13.579999999999998,0.4925006915154498,-0.843292111720403,0.4096791448268544
13.590000000000003,0.528601207460989,-0.9048435507793828,0.4284813781563012
13.600000000000009,0.5683145701652803,-1.0174647940368733,0.4402707394191056
13.61,0.6150134369851111,-1.1771957003146492,0.4481345596081832
13.620000000000005,0.6774477756861066,-1.3895170981251657,0.4517596565974655
13.63000000000001,0.7603280098015298,-1.6802452091291231,0.4572794915800445
13.64,0.8505657648779006,-1.9947739753075129,0.4656866004581271
13.650000000000006,0.9633138783788152,-2.360229877286814,0.4785286550720344
13.66000000000001,1.1314909014462038,-2.875455581508572,0.5043058209743105
13.670000000000002,1.292365142146484,-3.3888510353737487,0.5435980810534559
13.680000000000009,1.4209132942014904,-3.853561262507492,0.586391121086547
13.690000000000012,1.5290936808436146,-4.354953894118887,0.6434119391761801
13.700000000000005,1.6237860634395411,-4.895058463516079,0.7162483494710871
13.710000000000008,1.6927974254408824,-5.375857386972604,0.7904239334329313
13.72,1.7346690281800676,-5.842446578970989,0.8639324283663337
13.730000000000004,1.770835243514832,-6.345602714141963,0.9268973439000892
13.740000000000007,1.801646183834137,-6.834695150064393,0.9769339607053968
13.75,1.804160758190456,-7.277257086404842,1.0167713403942251
13.760000000000003,1.7637370105028194,-7.768381539074944,1.0523776057397545
13.77000000000001,1.695202042862828,-8.237926536190333,1.0747224228811287
13.78,1.5708987360318778,-8.7185011245515,1.0625662914628875
13.790000000000006,1.394386173508781,-9.07399603665802,1.0036233959517809
13.800000000000011,1.166056070485472,-9.346646748899898,0.8409082065656869
13.810000000000002,0.9090093981630966,-9.589071618728042,0.5843905618042327
13.820000000000007,0.6889382177142555,-9.752027462963952,0.323263853881496
13.829999999999998,0.4689263039613839,-9.8662356622034,0.0886048152364115
13.840000000000003,0.1966736416130365,-9.9269602647389,-0.1157149137616092
13.850000000000009,-0.1825180272543604,-9.93522921268094,-0.3141925257658525
13.86,-0.6300128745888706,-9.839076928782209,-0.5353524071297562
13.870000000000005,-1.0396395699676506,-9.647305467694654,-0.846461010881362
13.88000000000001,-1.3144923945894094,-9.393848358834136,-1.2078188017766855
13.89,-1.4140629271816243,-9.1110248597782,-1.5043830595448038
13.900000000000006,-1.5322462573271245,-8.903337564426252,-1.8319903985407775
13.91000000000001,-1.686813375203025,-8.610096974013718,-2.129654688012368
13.920000000000002,-1.7027024125957892,-7.981452304769363,-2.317796132832426
13.930000000000009,-1.7118538167853414,-7.379337557608816,-2.471910788067416
13.940000000000012,-1.665784741290932,-6.867473320229456,-2.583578274216028
13.950000000000005,-1.5766585517817315,-6.393250326820252,-2.7045665373532786
13.960000000000008,-1.4050034356261685,-5.91156918779035,-2.8419693859541475
13.97,-1.2020083953322045,-5.485772680802038,-2.959708892579401
13.980000000000004,-0.9988855799393992,-5.091250078158922,-3.017971591612579
13.990000000000007,-0.8141523562748085,-4.672522151326001,-3.027352811898805
14.0,-0.67224466704615,-4.222569002169286,-2.952025455453728
14.010000000000003,-0.6079332772184065,-3.819499868377613,-2.83419531519178
14.02000000000001,-0.5677165321827707,-3.37032566222923,-2.668885031459956
14.03,-0.529806804051461,-2.9335578767889072,-2.49610227762058
14.040000000000006,-0.4709358345497478,-2.552194644319896,-2.3330497185287933
14.050000000000011,-0.383114274701166,-2.145433178078066,-2.10159975938779
14.060000000000002,-0.3102950867354093,-1.8524276245565323,-1.8674850678109127
14.070000000000007,-0.2463797350625254,-1.5803127051542,-1.5729428961748204
14.079999999999998,-0.1975809539977044,-1.3196969283715778,-1.2571008104543997
14.090000000000003,-0.1725417584476863,-1.070611804702796,-0.9566109050949484
14.100000000000009,-0.1480151632882967,-0.8086077235786682,-0.6582105440631204
14.11,-0.1141093067710291,-0.5414496275037025,-0.3526857422588977
14.120000000000005,-0.0674855050043742,-0.30179334668862,-0.058107086274726
14.13000000000001,-0.0262562814348925,-0.1092854202656122,0.1930195622264734
14.14,0.0016757777294283,0.0731834873109159,0.4379399480763609
14.150000000000006,0.0048977126736096,0.2316977372553885,0.6707688005978444
14.16000000000001,-0.0137659706546775,0.3665569692163743,0.8903221923334391
14.170000000000002,-0.0448939585511954,0.4733233950136483,1.0387020980790895
14.180000000000009,-0.0758608233912717,0.5787126777574073,1.1587345301675738
14.190000000000012,-0.0932742330885741,0.695057688986033,1.23962336088127
14.200000000000005,-0.0955776207291946,0.8144402897515542,1.2987791932310693
14.210000000000008,-0.0899088266549552,0.9000725366981757,1.3249410553151966
14.22,-0.0894443791450277,0.9810836499457656,1.3321502546720752
14.230000000000004,-0.0896423432878013,1.04612426748321,1.3178075560450528
14.240000000000007,-0.1001940533453221,1.1395919818857774,1.2867053840423417
14.25,-0.1305897999490394,1.2885976433807629,1.2366993979954757
14.260000000000003,-0.2039689041996565,1.5407204748447751,1.1647163800048348
14.27000000000001,-0.3264066120703981,1.9541874277631148,1.0415108702975389
14.28,-0.4464439098526301,2.376709034667822,0.9256258771551326
14.290000000000006,-0.5193652061043627,2.8738827524281634,0.8109531438412833
14.300000000000011,-0.5191128779043684,3.530914281937449,0.7072864023600978
14.310000000000002,-0.4142372228437585,4.215114040929679,0.6272584109603588
14.320000000000007,-0.2713566398151335,5.047875632623143,0.5855711202255133
14.329999999999998,-0.1370880523312085,5.9011279931407365,0.5784876485375532
14.340000000000003,-0.1118690119298974,6.918339922321314,0.6293342316896425
14.350000000000009,-0.2319819668174453,8.006766354729006,0.752198670021425
14.36,-0.5357632733513193,8.899258654563738,0.96526119842899
14.370000000000005,-0.9865445428977172,9.681402275150631,1.2321314854053476
14.38000000000001,-1.606583900644554,10.290485021485042,1.5625542977121063
14.39,-2.280378012270971,10.717799249469133,1.9419982937203173
14.400000000000006,-2.8009376750178467,10.914188701588522,2.233975938930484
14.41000000000001,-3.405986461488937,11.080354863404828,2.548101488206803
14.420000000000002,-3.905376765904157,11.17775045760727,2.7764736168351565
14.430000000000009,-4.279338823451079,11.254952954139958,2.9301593160932105
14.440000000000012,-4.5767140833328215,11.295344114854345,3.029289062536493
14.450000000000005,-4.753881059435283,11.234960578739788,3.053663432356683
14.460000000000008,-4.799530807536436,11.01131328748512,3.0032165855204265
14.47,-4.77051751227586,10.667246658708688,2.882182472867752
14.480000000000004,-4.6874302558775005,10.179929623171171,2.694278046065246
14.490000000000007,-4.569878514694668,9.665751442978229,2.508015364187359
14.5,-4.4606881323094045,9.141716961801484,2.337410362844492
14.510000000000003,-4.253895248178888,8.510433775248657,2.1202661345468363
14.52000000000001,-3.873890237531754,7.839671785786605,1.8782586505006749
14.53,-3.252904223019897,6.981040169772582,1.612638998942492
14.540000000000006,-2.6414424972046424,6.233059796858233,1.419227416107874
14.550000000000011,-2.0870895969623744,5.535247505921915,1.2692143914532314
14.560000000000002,-1.5172624705650783,4.755193201766697,1.1262287734309269
14.570000000000007,-1.0771769829044389,4.089070355741337,1.0160219578712306
14.579999999999998,-0.6729269825227185,3.410768722661793,0.9175495671366984
14.590000000000003,-0.3306209813704025,2.775339298614476,0.8204113659916937
14.600000000000009,-0.0387820367884538,2.1298520525377667,0.7205822821881911
14.61,0.1904954412724713,1.4542421041105718,0.6241041019396565
14.620000000000005,0.32630639940032,0.9189710271967576,0.5545190070178546
14.63000000000001,0.4213175647457979,0.4284200131548145,0.4974652585660964
14.64,0.5024284124371844,-0.0322493582473361,0.4417946972679536
14.650000000000006,0.5458206590847792,-0.3747359238868721,0.4047460269748782
14.66000000000001,0.5524436912341301,-0.6677045266828925,0.3681600566275529
14.670000000000002,0.532242879781302,-0.8950290871895061,0.3257256761697377
14.680000000000009,0.4899141285538972,-1.0891786649117197,0.2789844163112738
14.690000000000012,0.4360595093516366,-1.2091298724638229,0.2475215413444172
14.700000000000005,0.3761837338760788,-1.296483335673218,0.2177121984692877
14.710000000000008,0.334037802633575,-1.3469973351063738,0.2001641514783825
14.72,0.3370179369734337,-1.3566296030140368,0.1958950657111327
14.730000000000004,0.3524509911962621,-1.3254022816754414,0.1945435029829745
14.740000000000007,0.3683300347532592,-1.2605504571765411,0.1948447605415905
14.75,0.4012400237588827,-1.1884353936707273,0.199048490459687
14.760000000000003,0.4446285608012665,-1.115679533693798,0.2172135981278943
14.77000000000001,0.4926959558517197,-1.057869236572992,0.2444646347344952
14.78,0.5596359011780184,-1.027951713756667,0.2843223580950906
14.790000000000006,0.6336275561023353,-1.0307842651191756,0.3234326667699592
14.800000000000011,0.729544497863761,-1.084060649874638,0.3699931543404423
14.810000000000002,0.8317934588161717,-1.189477997839343,0.4079209048876634
14.820000000000007,0.9629699869578848,-1.3934239006412423,0.4350099764066837
14.829999999999998,1.1230037322161863,-1.7201580187358707,0.4478695977176535
14.840000000000003,1.2806752030850217,-2.114511968605429,0.452158323647745
14.850000000000009,1.469308236099157,-2.5895760785381983,0.4809921740072151
14.86,1.7007188925082135,-3.152812875837003,0.5570516524589396
14.870000000000005,1.9714311861419092,-3.813863885127714,0.6730047302191386
14.88000000000001,2.1763469637396144,-4.401067853751883,0.7846883501678981
14.89,2.338907567742089,-4.932006467248155,0.8892379942869464
14.900000000000006,2.4830549189455446,-5.553362600819139,1.0284164435663663
14.91000000000001,2.56042402678564,-6.125998437412039,1.1666283566056082
14.920000000000002,2.572221469477162,-6.697256215036097,1.2965102720560164
14.930000000000009,2.5394928286143,-7.243430764449684,1.394925291498708
14.940000000000012,2.460257658825656,-7.837091066599297,1.455397627986556
14.950000000000005,2.330931688621962,-8.408058588718898,1.4872717168269027
14.960000000000008,2.159857163445609,-8.894603190403506,1.4900920591380946
14.97,1.920272405708331,-9.38999809132765,1.4471417020500823
14.980000000000004,1.6861400109702864,-9.73361649042556,1.3531988168360536
14.990000000000007,1.425203182886141,-9.990794240928992,1.1883024234575017
15.0,1.1702888371226492,-10.136582532451811,0.9713829173519536
15.010000000000003,0.9267939383510956,-10.213496802224943,0.7195699117460871
15.02000000000001,0.6890479925990758,-10.159475341128744,0.4125167768185461
15.03,0.5135084429293828,-10.01612901989272,0.1591006937859401
15.040000000000006,0.3032027979098461,-9.791569663405935,-0.0711438020524054
15.050000000000011,0.0407973723225156,-9.565011596050809,-0.2330282941450981
15.060000000000002,-0.241406051158354,-9.30999934924949,-0.3474678059816423
15.070000000000007,-0.4560794705501935,-8.919735115163045,-0.4347464915765002
15.079999999999998,-0.6251653548565699,-8.561070683310588,-0.4677666386596761
15.090000000000003,-0.785952580021156,-8.158646752598838,-0.5098298267543259
15.100000000000009,-0.880259811396978,-7.757940960734634,-0.5992891760851385
15.11,-0.8996834656550923,-7.412558732203554,-0.7415150789839761
15.120000000000005,-0.8497546554092897,-7.004547313634512,-0.93408309945384
15.13000000000001,-0.7551915920370253,-6.595279547945189,-1.1043078764243288
15.14,-0.6554496050005817,-6.204678670695534,-1.1967962921042092
15.150000000000006,-0.5915722912616537,-5.844794009522933,-1.2401050771107662
15.16000000000001,-0.5330587117630801,-5.427345570199615,-1.2485849780868672
15.170000000000002,-0.4803974254811136,-4.995170296321199,-1.2341854705883275
15.180000000000009,-0.4381748246879369,-4.596255502501338,-1.2080454210393905
15.190000000000012,-0.4188578386049826,-4.130131858949355,-1.1801693221003222
15.200000000000005,-0.4599516829319922,-3.685699301972878,-1.1266277976717594
15.210000000000008,-0.5436769542867946,-3.285145693267498,-1.0502033659627026
15.22,-0.65530008731456,-2.893510042639585,-0.967624261404272
15.230000000000004,-0.7537467846547142,-2.5468314383483377,-0.8928187883481121
15.240000000000007,-0.8588779559866963,-2.155507331125229,-0.8243291690322795
15.25,-0.9444650859839504,-1.7936564272546964,-0.7668179156183765
15.260000000000003,-0.9729715412271516,-1.443771191001029,-0.6994405061608109
15.27000000000001,-0.9441224254396504,-1.0793901671067383,-0.5866411809472929
15.28,-0.8401992554155366,-0.7720101502383345,-0.4232370982200684
15.290000000000006,-0.7159895602371517,-0.5186595732521183,-0.24376097633761
15.300000000000011,-0.5868264645291004,-0.2858891545126397,-0.0445876508791873
15.310000000000002,-0.4866710168569884,-0.0251563826999955,0.2086642159552519
15.320000000000007,-0.4489758533342229,0.2023254594362316,0.4257051768863311
15.329999999999998,-0.4606789921350956,0.4188531928804332,0.632949036861618
15.340000000000003,-0.4949483078178393,0.6175903402505517,0.8117575132242267
15.350000000000009,-0.5216203328711627,0.7905733077942376,0.9406247278121116
15.36,-0.5294450878984721,0.9744792343386988,1.040657965273595
15.370000000000005,-0.5092957555648149,1.1240796535855757,1.0994191522618937
15.38000000000001,-0.4661603126112266,1.277546041321544,1.1314314945362054
15.39,-0.4042926019868829,1.4694717802381827,1.1300220016016551
15.400000000000006,-0.3447056758209567,1.6537041791769864,1.1064984833130962
15.41000000000001,-0.2879668535911008,1.877359955447873,1.056708904335538
15.420000000000002,-0.2549027852193412,2.150708154030234,0.984463135803139
15.430000000000009,-0.2422050414582519,2.5308594977152405,0.8732222075599675
15.440000000000012,-0.2228385332567166,2.928616932772225,0.7580041539900757
15.450000000000005,-0.168313871918492,3.445664562179372,0.6191684542125735
15.460000000000008,-0.075259639728285,4.139122990313588,0.44820137547297
15.47,0.0347938538753981,4.890268297810185,0.2743576191769094
15.480000000000004,0.1014857899361766,5.720897202428527,0.101551295741458
15.490000000000007,0.1005946988795634,6.521559660926116,-0.028264719629896
15.5,0.0299005637296535,7.311080548098348,-0.1186403896598658
15.510000000000003,-0.0789712701169529,8.129338803856648,-0.1827932299151638
15.52000000000001,-0.2724670145069332,8.784508503616504,-0.2165035535583176
15.53,-0.6025829365220836,9.457588805545834,-0.2257175332903004
15.540000000000006,-0.9372418275154518,9.990993953665868,-0.1734191222242866
15.550000000000011,-1.2839747731143183,10.420796082141106,-0.0666178396830114
15.560000000000002,-1.6214691060181547,10.736234401117944,0.0846729979438122
15.570000000000007,-1.9807101963050364,10.962107286510571,0.2664246275838305
15.579999999999998,-2.38988578910644,11.152540517425322,0.4546158424804185
15.590000000000003,-2.7551915515992187,11.275771354012564,0.5997534134419107
15.600000000000009,-3.1052776848576773,11.37759004937363,0.7053410901701445
15.61,-3.4041986009460805,11.436915766052062,0.7768467711942587
15.620000000000005,-3.629420998389956,11.39732947775036,0.8584425707308575
15.63000000000001,-3.720837793413333,11.227956866472269,0.8919105911314869
15.64,-3.7268352566267073,10.972667365193493,0.8500370173833293
15.650000000000006,-3.69862277968778,10.57218370641069,0.7425099893077083
15.66000000000001,-3.692550117246612,10.131531818094205,0.6261343513011133
15.670000000000002,-3.721605436478124,9.53312090704331,0.4899131304789969
15.680000000000009,-3.666171965468198,8.765192571220792,0.321849804391726
15.690000000000012,-3.4407547572625528,7.96421760678707,0.160020142016721
15.700000000000005,-3.086384017269697,7.139839443284411,0.0427306764728679
15.710000000000008,-2.6258969336154383,6.42118946160329,0.021349760063243
15.72,-2.2004035332390868,5.750321082698679,0.0968286302417235
15.730000000000004,-1.8218420279692091,5.061575182785208,0.2133836536797065
15.740000000000007,-1.5048432099219513,4.415185335168497,0.3240498027699361
15.75,-1.1799057802688897,3.6206856827247935,0.4370763363026619
15.760000000000003,-0.911679074677896,2.798451654617183,0.5294447423556413
15.77000000000001,-0.7091615598836437,2.051457157205583,0.5901094025231708
15.78,-0.5435667328371485,1.4543217648322515,0.6204809281104922
15.790000000000006,-0.3474285444432928,0.8216890620880408,0.6412343283733897
15.800000000000011,-0.1314318049886749,0.2234574083530023,0.6563099898843431
15.810000000000002,0.0640699288999688,-0.2323156291200652,0.6607907959494306
15.820000000000007,0.253357437777914,-0.6755445806132027,0.6409862273052972
15.829999999999998,0.3929456989693952,-1.0114596980748838,0.5960773968545422
15.840000000000003,0.5055887773190751,-1.3282510303580666,0.527323834288756
15.850000000000009,0.5940091634535017,-1.5927124490066424,0.459065161012035
15.86,0.6517729055874754,-1.7996322536006597,0.3927345807329571
15.870000000000005,0.6900386056590978,-1.9784791815348444,0.3368144485335928
15.88000000000001,0.7127712517348738,-2.135900847509278,0.2946303480917911
15.89,0.7286903444579865,-2.2651669402116155,0.271518303023219
15.900000000000006,0.7486845480990539,-2.358443492601387,0.2679558642974465
15.91000000000001,0.789442966191397,-2.467012272577024,0.2771150780176988
15.920000000000002,0.8487452626567155,-2.5842896977184395,0.3083543976537992
15.930000000000009,0.9155220082370252,-2.7144883947291474,0.3458757505481439
15.940000000000012,1.033385738270163,-2.914022567905474,0.417519813796412
15.950000000000005,1.164931538554117,-3.1779325578665243,0.5421168430906393
15.960000000000008,1.312145910596275,-3.5014821493639032,0.7069213745060857
15.97,1.5024699564538089,-3.8934927265390606,0.9009944416259116
15.980000000000004,1.705555997445927,-4.295603001387682,1.0799076093860116
15.990000000000007,1.9393801842265368,-4.773425244489252,1.270762640519721
16.0,2.163149830455792,-5.252367320459388,1.4548736540349403
16.010000000000005,2.3660317906411703,-5.772370719805115,1.6485285173527895
16.02000000000001,2.55916711168011,-6.363663718160033,1.8566954013222048
16.03,2.6952179305550525,-6.936788652367908,2.016668193439874
16.040000000000006,2.751921392786931,-7.477060544884328,2.1392102540423767
16.05000000000001,2.7422777887539995,-8.027974194530417,2.225357694718743
16.060000000000002,2.6768281485991268,-8.64316519526627,2.267036899453604
16.070000000000007,2.5484197321154283,-9.155819819971056,2.253154888641745
16.08,2.333477900194632,-9.569221219802586,2.1952963874798974
16.090000000000003,2.0837716469160283,-9.868580254125064,2.094053256228895
