time,Gyr_X,Gyr_Y,Gyr_Z
0.0,-0.0139383925862444,0.0016573907521256,-0.005019693543129
0.0099999999999909,-0.0152997827671167,-0.0013591396571123,-0.0090007691980333
0.0200000000000102,-0.0138355181997828,0.0009344627162575,-0.0095574044205641
0.0300000000000011,-0.0165776556186276,0.0006098090895639,-0.0100434898524528
0.039999999999992,-0.0208241473432958,-0.0055906425631858,-0.0029546375808411
0.0500000000000113,-0.0211844220124039,0.0074813446983323,-0.0114469353960934
0.0600000000000022,-0.0206096607040657,-0.0055435380715427,-0.0104916211791148
0.0699999999999931,-0.0191596430068187,-0.0021959699717225,-0.0098525897263867
0.0800000000000125,-0.0188838647454599,0.0058412241384671,-0.0122180448432945
0.0900000000000034,-0.0167731592747006,0.0027859401080713,-0.0051146651930143
0.0999999999999943,-0.0180137498006663,-0.0016679616085499,-0.0068795598998439
0.1099999999999852,-0.0182361654364999,0.0049198662529457,-0.0029793779318179
0.1200000000000045,-0.0159640635250883,0.0058274828910442,-0.0014370114551491
0.1299999999999954,-0.0169579008621906,-0.0001173714334437,-0.0058081115122049
0.1399999999999863,-0.0168939889830957,-0.0008001772137136,-0.0068608541019387
0.1500000000000056,-0.0165638229640989,-0.0016021435066747,-0.0174868017048434
0.1599999999999966,-0.0169353339394439,-0.0016247755237057,-0.013675957159636
0.1699999999999875,-0.0175630768830685,-0.0043937948526109,-0.0149078530388345
0.1800000000000068,-0.0259305480812291,-0.0019286886396917,-0.0188120758540331
0.1899999999999977,-0.0177444889272526,8.60417920144563e-05,-0.0086187504032108
0.1999999999999886,-0.0174157856061785,0.0005481266887167,-0.009898801870778
0.2100000000000079,-0.0233045183299351,0.0040575084382715,-0.0113544819668739
0.2199999999999988,-0.0313531039487814,0.002557337999792,-0.0152976543668172
0.2299999999999897,-0.0218699409451517,-0.003493533152121,-0.0078271294400613
0.2400000000000091,-0.0229760524108364,-0.0003177639557682,-0.016859295344961
0.25,-0.0194421209895664,0.0046337599280352,-0.0102187561769618
0.2599999999999909,-0.0153252988914753,-0.003685976501707,-0.0089995028274103
0.2700000000000102,-0.014740774690109,0.0010537769583942,-0.0089131583607127
0.2800000000000011,-0.0187489843090028,0.0036118050982363,-0.0090008762570763
0.289999999999992,-0.0176977707097555,0.0009544722754006,-0.014550581741676
0.3000000000000113,-0.016980634661239,0.0061951621245202,-0.0057989976175239
0.3100000000000023,-0.0159946690115712,-0.000753320230428,-0.0063836040255239
0.3199999999999932,-0.0161304095607225,0.0002109341645203,0.0031181581763274
0.3300000000000125,-0.0158598844850072,0.0047177313575577,0.0018291957239562
0.3400000000000034,-0.0173803241406844,0.0058847833508465,-0.007056407563473
0.3499999999999943,-0.024107473430224,0.0043313546761174,-0.0151675994868287
0.3599999999999852,-0.0265236481098425,0.0148247484422769,-0.0152673813372485
0.3700000000000045,-0.0321526763980318,0.0150878498580928,-0.0170384535128882
0.3799999999999954,-0.0249075491737662,0.0073713767776249,-0.021241247185501
0.3899999999999863,-0.02720324086274,0.0075085151211448,-0.021055524971883
0.4000000000000057,-0.0201735325035974,0.0090804423080871,-0.019758193449605
0.4099999999999966,-0.0300594167147352,0.0006133260155789,-0.0105664857216033
0.4199999999999875,-0.025872065772174,0.0015990727411452,-0.0064834511622245
0.4300000000000068,-0.0220226052459132,0.0033920702346899,-0.0099593575057821
0.4399999999999977,-0.0193526675140575,0.0059154473087563,-0.0142869411536649
0.4499999999999886,-0.0201838829080829,0.0060913957007275,-0.0176203806940298
0.4600000000000079,-0.0203761325779157,0.0058777055025428,-0.0140635410432867
0.4699999999999988,-0.0175124100931665,-0.0008449157803683,-0.0117519837397748
0.4799999999999897,-0.0171184676401219,-0.0025931172403252,-0.0053709852428446
0.4900000000000091,-0.0162878061586773,-0.0063622793707289,-0.0005711044838624
0.5,-0.0195530544278433,-0.0060843060768542,-0.0014935496786481
0.5099999999999909,-0.0153077252936045,0.0065835221615717,0.0066384766392243
0.5200000000000102,-0.0191608749884927,0.00598110509146,0.0030190988476544
0.5300000000000011,-0.0177955177042592,-0.0001015550377046,0.0031969009429686
0.539999999999992,-0.0197872858374628,0.0039423692501647,-0.0002981456042704
0.5500000000000114,-0.021849630369038,0.0044379434002302,-0.0090918897191907
0.5600000000000023,-0.0189382027763423,0.0066339263742488,-0.0052798802057888
0.5699999999999932,-0.026483770335463,0.0034504535915508,-0.0127199451234872
0.5800000000000125,-0.0282718252523602,0.0066699501942979,-0.0164365025296867
0.5900000000000034,-0.0201931474901862,0.0076638457365278,-0.0165140058924776
0.5999999999999943,-0.0157959880023969,0.0044869947352114,-0.0012202391106779
0.6099999999999852,-0.0178250764242561,-0.0076057551869773,0.025126812693252
0.6200000000000045,-0.0159355766349057,-0.0072937631286506,0.0459708081129866
0.6299999999999955,-0.0174548469529759,-0.0025491928846926,0.0654856452485699
0.6399999999999864,-0.0168723406959047,0.0026952974692378,0.0773724784710268
0.6500000000000057,-0.013876410108542,0.004782971832062,0.0922739256032909
0.6599999999999966,-0.0168031452115686,0.002953716030675,0.102233557346287
0.6699999999999875,-0.0160560574197418,0.0041708918678319,0.1155304163215177
0.6800000000000068,-0.0175584838818167,0.0019564637279304,0.1240840110977006
0.6899999999999977,-0.0207013891942311,0.0082214562205818,0.1313968076384563
0.6999999999999886,-0.0159722806047385,0.0102761200010168,0.1402658747740711
0.710000000000008,-0.0164659279674211,-0.0004388908046902,0.1496061601482191
0.7199999999999989,-0.0142560309327281,-0.0023033797564971,0.1676349700251364
0.7299999999999898,-0.0140059754910853,-0.0049705824200023,0.1807614006783882
0.7400000000000091,-0.0135105499770142,-0.0079682839494658,0.1894856373266371
0.75,-0.0157341790341308,-0.004725156472466,0.1942233173835489
0.7599999999999909,-0.0182354755881388,-0.0082443988697959,0.1983943485240203
0.7700000000000102,-0.0243274804842139,0.0011211379374332,0.188722311735007
0.7800000000000011,-0.0165130387071792,0.0033475427569816,0.1811559443293642
0.789999999999992,-0.0209871184228747,0.0098110866954421,0.1686925023412111
0.8000000000000114,-0.0172060875047352,0.010176562852353,0.1587714699940584
0.8100000000000023,-0.0145426381166243,0.0054425632119559,0.157805298342116
0.8199999999999932,-0.0181779747593418,0.0011904782048521,0.1487961507781113
0.8300000000000125,-0.0153497380421511,-0.0035513265945347,0.1415694396275116
0.8400000000000034,-0.0166611525824355,-0.0056982911961184,0.1235143130401113
0.8499999999999943,-0.0158106123926735,-0.0106945396223629,0.102876581853924
0.8599999999999852,-0.0157314847416496,-0.003704439096019,0.0745263365891497
0.8700000000000045,-0.0168490916249929,0.0009582919913416,0.0478078180281531
0.8799999999999955,-0.0179700171993415,-0.0078065588536107,0.0176150557637518
0.8899999999999864,-0.0213492153956548,-0.0068284053446674,-0.0025022013850912
0.9000000000000057,-0.0192041195316103,-0.0032868646694593,-0.0235297574519366
0.9099999999999966,-0.0127950790221235,-0.0047880075798725,-0.0266268231860612
0.9199999999999876,-0.0124174882992769,-0.001592667878516,-0.0189480105006899
0.9300000000000068,-0.0156885172083768,-0.0015877008786303,-0.0189440275661879
0.9399999999999976,-0.0177100980732121,-0.0077937316800693,-0.0104860884702178
0.9499999999999886,-0.0181066788739679,-0.0054418338983146,-0.0109736282693027
0.960000000000008,-0.0177836441102573,-0.0032059156010799,-0.0076010069384699
0.9699999999999988,-0.0161761394001662,0.000233247311,-0.0071673000646056
0.9799999999999898,-0.0177559094288124,-0.0039660707553306,0.0018945108228779
0.9900000000000092,-0.0149201472415737,-0.0044696736919633,0.0020497694018173
1.0,-0.01640274511611,0.0071040570864723,-0.0036874973900682
1.009999999999991,-0.0132516554091356,-0.0015155023309946,-0.0073526442934567
1.0200000000000102,-0.0082931068491604,0.0020761991104351,-0.0137842135735674
1.0300000000000011,-0.0178211461417911,0.0027794256480654,-0.0132355180896114
1.039999999999992,-0.0159124637936937,-0.0015686216495453,-0.0081398955240204
1.0500000000000114,-0.0227133565258482,-0.0007867431135975,-0.0110315200683038
1.0600000000000025,-0.0151433430647547,-0.004071230476434,-0.0143134865049597
1.0699999999999932,-0.0136204288021135,0.0001291696239538,-0.0160876911831005
1.0800000000000125,-0.0188370123480495,-0.0070498002557588,-0.0146741248611052
1.0900000000000034,-0.0185962324920618,-0.0048640913449661,-0.0094779377528513
1.0999999999999943,-0.0191464826521821,0.0001318417354605,-0.0099146647058686
1.1099999999999852,-0.0180738113172142,0.0041096422464263,-0.0092520296459984
1.1200000000000043,-0.0162599843509187,-0.00048947393358,-0.0088232336762589
1.1299999999999957,-0.0176359345412886,-0.0003826839808262,-0.0082895304467214
1.1399999999999864,-0.0176729131557188,0.0029578553818986,-0.0137022941088891
1.1500000000000057,-0.0179630922504924,0.0098343339431449,-0.0128810630818341
1.1599999999999966,-0.0189388200489582,0.003191173273642,-0.0133933849211908
1.1699999999999875,-0.0157655184180644,0.0048617785852826,-0.0120424000594844
1.1800000000000068,-0.0166400817911831,0.0048448662477717,-0.0136172818344016
1.1899999999999975,-0.0195170381366737,0.000374785125056,-0.0186389826746224
1.1999999999999886,-0.016553208512246,0.0045566782614661,-0.018968452137838
1.210000000000008,-0.0176036552938445,0.0046067889212016,-0.0160948948970264
1.2199999999999989,-0.0189191402754869,0.000916106078318,-0.0103027370415239
1.2299999999999898,-0.0178672199131417,-0.0002895007680128,-0.0122714666667025
1.240000000000009,-0.0204684100658587,-0.0002002238885832,-0.0133380975900834
1.25,-0.0214315865645063,-0.0049049192393511,-0.0121827931709486
1.259999999999991,-0.0155026245588223,-0.0047517064837939,-0.0071714569358809
1.2700000000000102,-0.0178261883425302,-0.0012630702125929,-0.0068619896843309
1.2800000000000011,-0.0217116721595895,-0.0056701256025481,-0.0040628782098385
1.289999999999992,-0.0171509051223777,-0.0006724101798851,-0.0070683876675684
1.3000000000000114,-0.016640503110445,-0.0013540989335777,-0.0122325896426794
1.3100000000000025,-0.0161563547243662,-0.0013773763715339,-0.0129982447322564
1.3199999999999932,-0.0192739466512287,-0.0003059494081316,-0.0090289317837933
1.3300000000000125,-0.0166168810264858,0.0025534281271491,-0.0080582044697107
1.3400000000000034,-0.0228068173529837,-0.0035268277939335,-0.0215381814840287
1.3499999999999943,-0.0192574980260134,-0.0012808664372183,-0.015007896886048
1.3599999999999852,-0.0183185525653189,0.0037192586872342,-0.014084012473894
1.3700000000000043,-0.0173743954017898,0.0023833738713655,-0.0140089835903303
1.3799999999999957,-0.0193868751815124,0.0007113821382948,-0.0091591770513129
1.3899999999999864,-0.0165855065782734,0.009850556941126,-0.0195995108257003
1.4000000000000057,-0.0174402993668804,0.0010842228947326,-0.0081508567334177
1.4099999999999966,-0.0180162452538692,-0.0006086826042597,-0.0097723601598701
1.4199999999999875,-0.0171771248160953,0.003693179475261,-0.0104484219530337
1.4300000000000068,-0.0167562203814392,0.0050642693611896,-0.0079913183990756
1.4399999999999975,-0.0189932365528615,0.0058849494560077,-0.0064482332996334
1.4499999999999886,-0.0165842414173826,0.0033516777448247,-0.0044203946211627
1.460000000000008,-0.0204983022723487,0.0021680422575154,-0.0081817396090155
1.4699999999999989,-0.0205002406705807,0.0033990144791281,-0.0116032826422482
1.4799999999999898,-0.016070422336035,-0.0028566963709795,-0.0091792050684109
1.490000000000009,-0.0188215901019803,0.001573557429845,-0.0118584854490887
1.5,-0.0168850038445741,0.0054906845455019,-0.0108379021913349
1.509999999999991,-0.0175977248862229,-0.006066127299195,-0.0117352886003283
