time,Gyr_X,Gyr_Y,Gyr_Z
0.0,-0.0152407696136279,0.0025134761142917,-0.016395808868265
0.0100000000000051,-0.029183614591284,0.0231934932764887,-0.0033671863634519
0.019999999999996,-0.0419183918809101,0.0127003725527254,-0.005650527881731
0.0300000000000011,-0.0398116757418435,0.0102526283014164,-0.0058817248692713
0.0400000000000062,-0.0374614768611333,0.0186911232846977,-0.0004275343419421
0.0499999999999971,-0.0243781683085426,0.0269363967517137,0.0133820718996639
0.0600000000000022,-0.0312989802205531,0.021249089889478,0.0118959917072939
0.0700000000000073,-0.0230469598010193,0.0340360437125816,0.0274851510959897
0.0799999999999983,0.0006998825168553,0.0333855734311301,0.0134065453875586
0.0900000000000034,-0.0069486177591995,0.0280871432856331,0.00795035403409
0.1000000000000085,-0.0098823196941791,0.0280874415236581,0.0223381048914218
0.1099999999999994,-0.0213079564906926,0.0237707838610156,0.0106881850119375
0.1200000000000045,-0.0184815214135026,0.0400750465236288,0.0126789009337737
0.1299999999999954,-0.021532277008766,0.0307540911572133,0.0133012170126063
0.1400000000000005,-0.0237549776049399,0.0434929300537376,0.0171505537765765
0.1500000000000056,-0.0148395675506781,0.0421183211515057,0.0273584596169117
0.1599999999999966,-0.0326004331865057,0.0331107909880877,0.0252087043629653
0.1700000000000017,-0.0167810725528145,0.0395287319050538,0.0317815040121551
0.1800000000000068,-0.0219080787206248,0.0435561392498444,0.0224600200950991
0.1899999999999977,-0.004270606218698,0.048181332561955,0.0210833111721325
0.2000000000000028,-0.0111173443714998,0.041836134468164,0.0161601156845896
0.2100000000000079,-0.0111410728671067,0.0203949532187275,0.0176969131271079
0.2199999999999988,-0.035966886524238,0.0400416925017924,0.018032429542943
0.2300000000000039,-0.0467192199248183,0.0445020810478464,0.0224048586091486
0.2400000000000091,-0.0537644050367945,0.0331078792822888,0.0198543367793166
0.25,-0.0575418006367306,0.0427583420964524,0.038507039490759
0.2600000000000051,-0.0520521869574494,0.0314215702735573,0.0170635503051937
0.269999999999996,-0.0322305407799355,0.0358330872096488,0.0155522345560829
0.2800000000000011,-0.0344321105614316,0.0280098151071881,0.0185086403384901
0.2900000000000062,-0.0355301805149531,0.0167389266034394,0.0140428448254911
0.2999999999999971,-0.0360765144143165,0.0175709415606352,0.0077820051032915
0.3100000000000023,-0.0397486928208609,0.0322835871343496,0.0036451430362917
0.3200000000000074,-0.0289862092921919,0.0149573102846708,0.0022525967604937
0.3299999999999983,-0.0211998606511804,0.0272442022080344,0.0161329710983781
0.3400000000000034,-0.0043814077843749,0.0280123117709135,0.0044555303620585
0.3500000000000085,0.0021854025113489,0.0100336819113915,0.0056429837298211
0.3599999999999994,0.0202799395745684,0.0107326817981859,0.0137808184988567
0.3700000000000045,0.023520076969812,0.0171154703577136,0.005656350703574
0.3799999999999954,0.0150504175712009,0.0071079975686586,0.0039004892102002
0.3900000000000005,-0.004788074608784,0.0179609004666749,0.007804539182207
0.4000000000000057,-0.0279443949839038,0.0285223779799859,0.0207232940160464
0.4099999999999966,-0.0394049696574783,0.008456171756314,0.017066342638773
0.4200000000000017,-0.0369021165207726,0.0111019560732434,0.0295053349247445
0.4300000000000068,-0.0535690997151508,0.0206357647265161,0.0190404339273397
0.4399999999999977,-0.0405238798487176,0.0222320242308707,0.0294066910702005
0.4500000000000028,-0.0243272790038696,0.0251887393309592,0.0224378512169282
0.4600000000000079,-0.0326748103190844,0.0290946871276457,0.0319442143610319
0.4699999999999988,-0.0109530272700966,0.0244733986110314,0.0197444461859325
0.480000000000004,-0.004462845505621,0.0273911236229116,0.0361820274086303
0.4900000000000091,0.0076274005588009,0.0263970775247699,0.026642072366504
0.5,0.0040521913755716,0.0289659058468479,-0.0035340890225933
0.5100000000000051,0.0034545524120333,0.0350735533940134,0.0115865047181272
0.519999999999996,0.0097874356704266,0.0410899694699142,0.0159055181857432
0.5300000000000011,0.0222285095113552,0.0317319904479719,0.0042773569976624
0.5400000000000063,0.014055157933234,0.0375614389312679,0.0204146501498325
0.5499999999999972,0.0195367727308114,0.0525396166968941,0.0040969169524529
0.5600000000000023,0.0174905435497668,0.0496173410237391,0.0143407712223885
0.5700000000000074,0.009565152657387,0.0370051736326002,0.0261059156951999
0.5799999999999983,0.0175087016118375,0.0252573049804175,0.0154543097807308
0.5900000000000034,-0.0177599015389144,0.0247077659294149,0.0287876860425547
0.6000000000000085,-0.0163473590866136,0.0344832113678651,0.0175933681176346
0.6099999999999994,-0.0138151188138343,0.0279708081492893,0.0055686497573698
0.6200000000000045,-0.0252942028284674,0.0324592704723137,0.0195221505090204
0.6299999999999955,-0.0528449062539454,0.0249073189945237,0.0109385655606337
0.6400000000000006,-0.0465712681769712,0.0241124442629401,0.0153604059824139
0.6500000000000057,-0.0465836543614615,0.0270461367410712,0.0071504567853314
0.6599999999999966,-0.0507993296998467,0.0252663883485661,0.0012658335571133
0.6700000000000017,-0.0350964310946091,0.0403202121020683,0.0085685483371467
0.6800000000000068,-0.0195532338768394,0.0438268738835948,-0.0096494277020921
0.6899999999999977,-0.0196846834289073,0.0396897447813368,0.0019911365582393
0.7000000000000028,-0.0016142827913908,0.053718865593239,-0.0038103206492599
0.710000000000008,0.0090011278243851,0.0634769030701665,-0.001209532005768
0.7199999999999989,0.0289685812428026,0.0829474386822547,-0.0009161882027857
0.730000000000004,0.0519829705527629,0.0979044281906822,-0.0019093299452097
0.7400000000000091,0.0542822334393545,0.1383715428204089,0.0053972707615789
0.75,0.0660125306479287,0.1739898440552861,0.0221386784141294
0.7600000000000051,0.0932515114346236,0.2371646866923473,0.020236126932548
0.769999999999996,0.1062193733741808,0.3071858448656411,0.0456548446337896
0.7800000000000011,0.1019304273859512,0.4266479251078534,0.0675614122242886
0.7900000000000063,0.0776756722966577,0.5890549866375184,0.097754306440913
0.7999999999999972,0.0786456459226276,0.7972439873379117,0.1467078133294263
0.8100000000000023,0.0961886023621615,1.0905083106122484,0.2110815845280963
0.8200000000000074,0.1382599535101884,1.4777680940929143,0.289448851810809
0.8299999999999983,0.1859579839045641,2.014501731419351,0.3676915943240712
0.8400000000000034,0.2567123078763738,2.6381399465377107,0.4522868748758482
0.8500000000000085,0.3104849585147236,3.293693547054252,0.5674884296837188
0.8599999999999994,0.272824642947307,4.0356932061942015,0.7001800889119006
0.8700000000000045,0.1499844119042578,4.869218461898387,0.8560199220916442
0.8799999999999955,-0.085952191393543,5.737837186275432,1.0877545272460871
0.8900000000000006,-0.4540763525112326,6.5988534756865125,1.357051799161699
0.9000000000000057,-0.9569868710126164,7.356606293202437,1.7111623339880564
0.9099999999999966,-1.6103890769194995,7.972621770858941,2.105936220133725
0.9200000000000016,-2.4634258882388207,8.404641143537724,2.52621374265131
0.9300000000000068,-3.4113012232218414,8.668720429889232,2.943581449971561
0.9399999999999976,-4.432596677671662,8.787538448953306,3.406355932556908
0.9500000000000028,-5.378446778956887,8.835328849273651,3.836397506439712
0.960000000000008,-6.196691730732092,8.822733415186006,4.2253274657035735
0.9699999999999988,-6.884836465717705,8.780467015954375,4.554471554111185
0.980000000000004,-7.425062836729282,8.733595484312946,4.777514787413383
0.9900000000000092,-7.842553540678485,8.643277826018641,4.9159158841243045
1.0,-8.108179785701816,8.504932500362072,4.879834700642342
1.0100000000000051,-8.217299499702616,8.260599867001865,4.703540382863283
1.019999999999996,-8.158870164854596,7.95081031887823,4.370588318110937
1.0300000000000011,-8.004916510609137,7.573715074152408,3.898876383365653
1.0400000000000065,-7.714810925288789,7.173298991187012,3.388420124676346
1.0499999999999972,-7.305073032134434,6.81836498947418,2.8347174654105234
1.0600000000000025,-6.83458658014397,6.449234758783725,2.2358773002033883
1.0700000000000074,-6.386865255540386,6.032408298056317,1.654358068973346
1.0799999999999983,-5.850406040040433,5.641932449091301,1.058347279345864
1.0900000000000034,-5.270258419295695,5.295641966169496,0.4901385373281753
1.1000000000000083,-4.619659066507937,4.977879110525904,-0.0474592043548935
1.1099999999999994,-3.890410315996768,4.728974647063718,-0.5897488195598363
1.1200000000000043,-3.0741195256522804,4.457035033045031,-1.093090538664779
1.1299999999999957,-2.20637699864633,4.198607955429306,-1.524027649790807
1.1400000000000006,-1.2326475699217407,3.901041903356257,-1.8639490091835904
1.1500000000000057,-0.2389821677517172,3.631316287311932,-2.1717156423181265
1.1599999999999966,0.8147566036924401,3.3653190280569274,-2.4134550404115296
1.1700000000000017,1.9424500268924385,3.106177224169008,-2.6150557598397794
1.1800000000000068,3.136300732195913,2.8596436313978275,-2.8366770052683234
1.1899999999999975,4.3839432862688295,2.594627451700976,-3.03987809530621
1.2000000000000028,5.706052340970598,2.324082740619584,-3.281272848157547
1.210000000000008,7.088677451540804,1.9967956600351455,-3.5674508973974777
1.2199999999999989,8.494812113225306,1.5733926613513072,-3.894664469446347
1.230000000000004,9.79886515501271,1.0629449565900242,-4.197050749243749
1.240000000000009,10.907491762990098,0.45338913771874,-4.453660055959522
1.25,11.778201233851084,-0.1963279936218627,-4.670833325533311
1.2600000000000051,12.32284543944562,-0.8513746973160967,-4.769165286534612
1.269999999999996,12.54187119625884,-1.5505203398402705,-4.798512869986843
1.2800000000000011,12.453582690154718,-2.1945217834144177,-4.79529964378829
1.2900000000000065,12.160175208956554,-2.802941639296423,-4.726667713243128
1.2999999999999972,11.723479566227642,-3.313393374101753,-4.597509810019639
1.3100000000000025,11.240492144178454,-3.741624277639753,-4.428375013341471
1.3200000000000074,10.678857453840733,-4.115455665113406,-4.257944612568794
1.3299999999999983,10.095255967121686,-4.400894153986037,-4.09480742936453
1.3400000000000034,9.53208301350467,-4.626318473931241,-3.942352729140016
1.3500000000000083,9.021678926774982,-4.785198000430037,-3.793334686844743
1.3599999999999994,8.554659027986373,-4.875516471586666,-3.705060911542164
1.3700000000000043,8.125643422244096,-4.919574812528088,-3.5928508338611804
1.3799999999999957,7.781486094772167,-4.912732951278711,-3.4987740184449767
1.3900000000000006,7.489859849317338,-4.784006521994336,-3.4007780385290576
1.4000000000000057,7.316526481804153,-4.542263223051125,-3.2532362281727387
1.4099999999999966,7.217646862184198,-4.291711532015964,-3.0352969464155053
1.4200000000000017,7.135200728677811,-4.1075670734635565,-2.734374538449039
1.4300000000000068,7.058219903710333,-4.045551192439666,-2.3909503244854355
1.4399999999999975,6.931016317028982,-4.039105544547004,-2.0947594490895813
1.4500000000000028,6.855249222050772,-4.09478412566698,-1.85150487042038
1.460000000000008,6.701134676742605,-4.0364302322614805,-1.6711705477739194
1.4699999999999989,6.476794023723996,-3.781665596163,-1.501354313270605
1.480000000000004,6.167953871888077,-3.3889453558958573,-1.2863073683707886
1.490000000000009,5.717765859512691,-2.984428674793246,-1.0280047225071445
1.5,5.247440531643986,-2.663390809134525,-0.6976177969503481
1.5100000000000051,4.7081379323644486,-2.342118098697841,-0.3489902121342781
1.519999999999996,4.158824468958522,-1.979160129240756,-0.0425470243181218
1.5300000000000011,3.6748829723202823,-1.5619017619324298,0.2365692339138033
1.5400000000000065,3.286071495289691,-1.1018097204594397,0.5585823416491288
1.5499999999999972,3.0291557344047937,-0.5227960107176309,0.9395779491291912
1.5600000000000025,2.89972380581727,0.2441272916583569,1.4325167457178485
1.5700000000000074,2.8737227411090607,1.077339565622906,2.022359907946686
1.5799999999999983,2.8617360697067,1.9222779990114929,2.6151008984335897
1.5900000000000034,2.7568624818352307,2.744867245571113,3.2114811242860206
1.6000000000000083,2.580780042542171,3.511763569248896,3.773020147383801
1.6099999999999994,2.305933251738839,4.249685080637979,4.265318031240839
1.6200000000000043,1.9501193150230784,4.9714993739920414,4.681905428815253
1.6299999999999957,1.553979629745191,5.644256003622704,5.027980969091378
1.6400000000000006,1.1224816292684634,6.2336789272850925,5.308733366122035
1.6500000000000057,0.6523924867606766,6.76653231988011,5.508012962218454
1.6599999999999966,0.1747127064877985,7.271165180278211,5.6027326277871135
1.6700000000000017,-0.3852019119973257,7.663669025067836,5.631178703141864
1.6800000000000068,-0.9456187503049894,7.8967551006672,5.634161990051839
1.6899999999999975,-1.4847540107751178,8.007020210195025,5.60652174435724
1.7000000000000028,-2.028441598400719,8.038571594401072,5.531727566331958
1.710000000000008,-2.5823066382683604,8.064838017600739,5.444036262432976
1.7199999999999989,-3.1592692245868266,8.009534735207867,5.384650220803135
1.730000000000004,-3.710538180905407,7.96845633629507,5.404420601537858
1.740000000000009,-4.211766190427727,7.952121287566216,5.456266563342733
1.75,-4.6263897137060095,7.929724924418924,5.504457112806925
1.7600000000000051,-4.921501300793427,7.886411791523568,5.54058124011662
1.769999999999996,-5.161054733544515,7.810930993783169,5.60287261448032
1.7800000000000011,-5.341931863733656,7.748102050132739,5.6583096616332815
1.7900000000000065,-5.465842308289411,7.689205872870732,5.703455968566547
1.7999999999999972,-5.559913171169412,7.59612250476858,5.760606043939465
1.8100000000000025,-5.595073595481392,7.501125448921496,5.84630431912921
1.8200000000000076,-5.52833509229495,7.405210880755566,6.013506541348497
1.8299999999999983,-5.456230193515284,7.312580313735951,6.188236569554261
1.8400000000000036,-5.519277053737749,7.205545379983695,6.282020909297739
1.8500000000000083,-5.685892815030946,7.0292092757221125,6.25406270607549
1.8599999999999997,-5.801595920958151,6.810228450154376,6.132005797574823
1.8700000000000043,-5.844806082718573,6.584412147557752,5.908132643358591
1.8799999999999957,-5.888358694882166,6.367151008537209,5.651786689684423
1.8900000000000008,-5.844870653320165,6.093367001212445,5.292773670593225
1.9000000000000057,-5.776344047744102,5.8230591993580525,4.888742898635745
1.9099999999999968,-5.569972958381333,5.5572721051158265,4.4637198716664885
1.9200000000000017,-5.297862630681316,5.309389033083922,4.0049193114738
1.9300000000000068,-4.950845969082992,5.05950941549907,3.517633499688139
1.9399999999999975,-4.531895991805951,4.837500269736808,2.9932230848780748
1.9500000000000028,-4.07418406478648,4.642140787515452,2.439470044190441
1.960000000000008,-3.6006347341692475,4.483115036335243,1.8693765426487703
1.9699999999999989,-3.108983604097539,4.3107565555962815,1.3262982351214905
1.980000000000004,-2.5570239513570736,4.099502145319069,0.7850613732512737
1.990000000000009,-1.9016122651064864,3.903497486731132,0.2760572239281443
2.0,-1.1653641722269927,3.67822862283432,-0.1681593304839155
2.010000000000005,-0.348133644486388,3.465258479829214,-0.570740669752484
2.019999999999996,0.5765827092199134,3.2447649270253067,-0.882824853985198
2.030000000000001,1.5817574534403194,3.002036168646586,-1.1529261785910812
2.0400000000000063,2.622574956193556,2.740477148447952,-1.395321924015457
2.049999999999997,3.657689924254831,2.4949292807371077,-1.6184210332917133
2.0600000000000023,4.670616348969288,2.249692385033089,-1.8250745995402784
2.0700000000000074,5.626918076198077,2.0107181620663512,-1.9991827751165463
2.0799999999999983,6.545503060942815,1.7900602221051247,-2.196519862356393
2.0900000000000034,7.3892959141320915,1.526363199119512,-2.400904332799187
2.1000000000000085,8.143948076317654,1.2136962078673572,-2.624813470957565
2.1099999999999994,8.772703248047902,0.845196870618256,-2.855521967624106
2.1200000000000045,9.261086704433144,0.4574441765336576,-3.0688079557861063
2.1299999999999955,9.606520409073704,0.0593433116486815,-3.232824448882837
2.140000000000001,9.847771438834576,-0.3454699311178433,-3.320746647435156
2.1500000000000057,9.962581974313428,-0.752206148582875,-3.407807964123301
2.1599999999999966,10.00048761549044,-1.16027286171455,-3.4444783750708234
2.1700000000000017,9.955798563183926,-1.5809526876904103,-3.4522242705244586
2.180000000000007,9.871209573443336,-1.9834268203629928,-3.462327560111524
2.1899999999999977,9.756207542211936,-2.343544789727028,-3.444779380743954
2.200000000000003,9.658071577711366,-2.724491702035234,-3.383092683667978
2.210000000000008,9.561630369250206,-3.0474697811532647,-3.263137825400628
2.219999999999999,9.425869050692611,-3.349356056839373,-3.1258477108665583
2.230000000000004,9.219032334190686,-3.6157368439592297,-3.018876932547972
2.240000000000009,8.986962816077725,-3.8747477874471854,-2.944401202996798
2.25,8.737585786935,-4.126840273912092,-2.8853490946631792
2.260000000000005,8.521974159151007,-4.3912653376912445,-2.7938015227738786
2.269999999999996,8.305318067576192,-4.641284780698095,-2.688952426348485
2.280000000000001,8.136918147789206,-4.819139772115011,-2.564510550481772
2.2900000000000063,8.063302648698587,-4.965834812686599,-2.401396092452489
2.299999999999997,7.903482280467744,-4.957092151306204,-2.1837022182973684
2.3100000000000023,7.686931919097348,-4.890851871524845,-1.9283455995862129
2.3200000000000074,7.395132268409152,-4.806310774761269,-1.7200634663155907
2.3299999999999983,7.067889370056578,-4.75312685228496,-1.5441709383026934
2.3400000000000034,6.688266785213195,-4.7450271832748845,-1.3437619855366776
2.3500000000000085,6.233287234288243,-4.729251257237991,-1.101577611456558
2.3599999999999994,5.706701489768108,-4.749222720361398,-0.7986685590219669
2.3700000000000045,5.107248808570281,-4.768166815350736,-0.530845916046056
2.3799999999999955,4.436581227401867,-4.768396270803853,-0.3170452865140019
2.390000000000001,3.775190526480928,-4.732250475089332,-0.1704528902747755
2.4000000000000057,3.078658794828808,-4.663331375009306,-0.1270853307745942
2.4099999999999966,2.3852266247135288,-4.604283293354864,-0.1226521144664548
2.4200000000000017,1.7296079118622114,-4.519389557372392,-0.1852389790765914
2.430000000000007,1.1265358368145784,-4.472162040277879,-0.2842907311549708
2.4399999999999977,0.5850425770090877,-4.433646360949385,-0.42483040328422
2.450000000000003,0.1454372255336442,-4.36050799521781,-0.5629430126388202
2.460000000000008,-0.1873731217839403,-4.267234173513774,-0.6658979437056499
2.469999999999999,-0.4256247399267325,-4.13286629706464,-0.6911992871644431
2.480000000000004,-0.5461773664422728,-3.9633623387362498,-0.6249494096269352
2.490000000000009,-0.6000857295285023,-3.8008744547454616,-0.4453987123610476
2.5,-0.567850516532563,-3.6152934914933175,-0.2070027816074878
2.510000000000005,-0.4224659771791767,-3.4192422277334336,-0.0064032134034322
2.519999999999996,-0.1982239791597665,-3.2269055878524897,0.1839576575735679
2.530000000000001,0.0182285221274217,-3.0597358200602183,0.3178785652569559
2.5400000000000063,0.2390612785770557,-2.8940085724861166,0.4205105026265169
2.549999999999997,0.4068132419116126,-2.7078623247648865,0.545400807978357
2.5600000000000023,0.5499956803369482,-2.47824738558168,0.6828213748883074
2.5700000000000074,0.6811829257721936,-2.147245293847264,0.8524794214467363
2.5799999999999983,0.8537834172056397,-1.7575518700082924,1.0328331965213906
2.5900000000000034,1.0050249045457922,-1.3206073005243195,1.2538493506793684
2.6000000000000085,1.1069050605656618,-0.7973829242142911,1.5094709513451254
2.6099999999999994,1.2276629365854372,-0.2059331334995371,1.782948677354243
2.6200000000000045,1.4063106247209922,0.5028192620806121,2.089976149892565
2.6299999999999955,1.5675194010054687,1.21662865147787,2.517387163687921
2.640000000000001,1.652740321831559,1.9222956179566837,2.964185257807322
2.6500000000000057,1.6891436008813894,2.6208687411712166,3.5097869913029447
2.6599999999999966,1.641744817832506,3.32971543711092,4.096288941256844
2.6700000000000017,1.5307267702129883,4.041145363830818,4.699563080682878
2.680000000000007,1.2470665908374072,4.702764011594011,5.244127953237959
2.6899999999999977,0.7497970827435952,5.292828494245855,5.656239504848841
2.700000000000003,0.0786114959465286,5.782167717131374,5.9614388636724005
2.710000000000008,-0.6976748584733606,6.211199791136101,6.198269132753915
2.719999999999999,-1.4717200305680205,6.51988967066157,6.411675744267698
2.730000000000004,-2.2514793441650127,6.777035349065375,6.582429327602001
2.740000000000009,-2.9842455505814147,6.968699977446702,6.762113273885015
2.75,-3.6381546705924777,7.1121652610795,6.91710908166182
2.760000000000005,-4.21548653045745,7.211214404469054,7.0119550859936455
2.769999999999996,-4.754709214124824,7.269418733031902,7.118514486561412
2.780000000000001,-5.294564155606552,7.302937713215089,7.254814038514549
2.7900000000000063,-5.90503103064912,7.349517896898345,7.362439959467236
2.799999999999997,-6.458592262355391,7.415565398904962,7.404078490230737
2.8100000000000023,-6.872905446035862,7.4638312813012835,7.349559349064689
2.8200000000000074,-7.213542028453262,7.473175291867136,7.251930283528984
2.8299999999999983,-7.424129327207007,7.406531110203616,7.157388850332527
2.8400000000000034,-7.521614776268233,7.260218868383964,7.078109275654228
2.8500000000000085,-7.496200062371474,7.075462070690056,6.995042980451138
2.8599999999999994,-7.378909971482304,6.90103050999391,6.8782395494118544
2.8700000000000045,-7.226613850181583,6.625500105928175,6.637393874257445
2.8799999999999955,-7.003885190048999,6.363052635486294,6.238987695233437
2.890000000000001,-6.705920406727788,6.156478916611238,5.741874556249039
2.9000000000000057,-6.381660292204505,5.987087417650342,5.168582429280293
2.9099999999999966,-5.957956447627282,5.87302204737235,4.565121383886838
2.9200000000000017,-5.466258113611673,5.776546851279836,3.986154502917487
2.930000000000007,-4.966036176989826,5.65465665095434,3.376402803088431
2.9399999999999977,-4.36661967957901,5.474293510096237,2.715401184488169
2.950000000000003,-3.665586809832363,5.245660155809851,2.002192324453765
2.960000000000008,-2.944145264609049,4.94215339011204,1.2086511372359598
2.969999999999999,-2.2772287464879724,4.554929999351127,0.4047898315508572
2.980000000000004,-1.678725567888123,4.147626074342821,-0.2222845481180361
2.990000000000009,-1.1671871630132276,3.733499824593216,-0.695440117280955
3.0,-0.7399658085841908,3.3628120129348025,-1.0742322761875658
3.010000000000005,-0.3256534374184206,3.014844096640317,-1.344353857340722
3.019999999999996,0.0266738019568675,2.701868314751544,-1.544510362127426
3.030000000000001,0.3981238434735888,2.3704995229313424,-1.6811475335184958
3.0400000000000063,0.833391043484537,2.0101313220399644,-1.7922962265814542
3.049999999999997,1.335571166351292,1.6390504656094511,-1.9183887074550003
3.0600000000000023,1.8999907980285609,1.2754046684624751,-1.983205929414105
3.0700000000000074,2.531136538589596,0.9285130293781833,-2.0105518101293463
3.0799999999999983,3.1904078110366,0.6358455707847899,-2.060733874427018
3.0900000000000034,3.925720471936797,0.3929692572646008,-2.201920129424685
3.1000000000000085,4.716257045158442,0.1654236900473083,-2.420983227968013
3.1099999999999994,5.558958002389364,-0.057307762082516,-2.655846915395472
3.1200000000000045,6.489249395676721,-0.2698238442767239,-2.8707141714258424
3.1299999999999955,7.44614270625164,-0.5054019671780615,-3.0536944074754424
3.140000000000001,8.408458870346044,-0.770109591615726,-3.2464932126171298
3.1500000000000057,9.377818633162562,-0.9506231366603228,-3.46184024291573
3.1599999999999966,10.330546293724522,-1.1263317567653583,-3.6860459767653415
3.1700000000000017,11.197288030001772,-1.2435533934837062,-3.870446967358837
3.180000000000007,11.94648551468326,-1.320520770084026,-3.9511142930852823
3.1899999999999977,12.585395968933634,-1.425476085825442,-3.9371919237171302
3.200000000000003,13.071424993968307,-1.6127018803229038,-3.803895758675612
3.210000000000008,13.3430147442572,-1.878319420150832,-3.652448654127177
3.219999999999999,13.41633278007939,-2.210082017882677,-3.584509772123444
3.230000000000004,13.311366995607248,-2.5905535460130693,-3.554821569933156
3.240000000000009,13.037762452782523,-3.018285174346232,-3.476933874601622
3.25,12.585929011116674,-3.506163325250267,-3.368280208843089
3.260000000000005,12.090991811039355,-3.936519683378716,-3.140779772701265
3.269999999999996,11.558528545010754,-4.288319693103789,-2.784170862567126
3.280000000000001,11.003615941766382,-4.489469678826628,-2.3294348042994755
3.2900000000000063,10.535087005830915,-4.5679020642610855,-1.876213923046678
3.299999999999997,9.937384907175922,-4.523072237755667,-1.432115890318606
3.3100000000000023,9.27011241783609,-4.493914350907056,-1.0227784324739115
3.3200000000000074,8.552750532805346,-4.457400592866062,-0.6501528645208208
3.3299999999999983,7.817572983896455,-4.324797727209382,-0.2823548613834411
3.3400000000000034,7.131341998638386,-4.142687037299955,0.0189846988824955
3.3500000000000085,6.4936145172893305,-3.9383483035334215,0.3293674114764572
3.3599999999999994,5.9242502168557705,-3.76727205126365,0.6063049805257121
3.3700000000000045,5.311452782270504,-3.6286853523316025,0.8557301684710188
3.3799999999999955,4.705194632517971,-3.471729656079907,1.054335965896024
3.390000000000001,4.138660948286135,-3.211171377685171,1.1627986783191022
3.4000000000000057,3.588858227269433,-2.970047918127616,1.244055682875171
3.4099999999999966,3.050227124220062,-2.71883210092996,1.3135311453338203
3.4200000000000017,2.5411878462104305,-2.400742453564849,1.285124695042953
3.430000000000007,2.0572175451506083,-2.027691512008927,1.1931250904510071
3.4399999999999977,1.639192921639801,-1.5375284556864066,1.0635951355126965
3.450000000000003,1.2916347471252991,-0.933625435029067,0.9424378009678448
3.460000000000008,1.0082624834348144,-0.2058152052405521,0.8444022972194204
3.469999999999999,0.7497329744716245,0.5891288870461491,0.7458894819605925
3.480000000000004,0.4516992040732415,1.4141497593308971,0.6885986436995206
3.490000000000009,0.1296113983347935,2.275836834057648,0.6709772944218568
3.5,-0.1635053465007308,3.161639474027239,0.6888489103314781
3.510000000000005,-0.4492429876346545,4.093241606670669,0.7509969376678629
3.519999999999996,-0.6657750851427475,5.029676361156654,0.8545187220185191
3.530000000000001,-0.7872999983359736,5.998907879254756,0.9596999381430696
3.5400000000000063,-0.9016191339300352,6.872007586700011,0.995122767600254
3.549999999999997,-1.0906476596790269,7.670235275319357,0.9749649135506934
3.5600000000000023,-1.32809692939616,8.366123316140445,0.9416163087746428
3.5700000000000074,-1.5652858048236689,8.982751785295363,0.8480734539983232
3.5799999999999983,-1.827057348375904,9.53226325407556,0.7171104321887818
3.5900000000000034,-2.1546314603026917,10.02754933160328,0.5376155790316818
3.6000000000000085,-2.4494892534163366,10.50071913768708,0.2988075282243319
3.61,-2.6850550440047867,10.944407296323744,0.0422298836167209
3.620000000000005,-2.856252212595487,11.331543452668033,-0.2045988058882646
3.629999999999996,-2.9347576588041515,11.662940683934195,-0.3880457903865102
3.640000000000001,-2.903755286617299,11.875366070546631,-0.5512407645589945
3.6500000000000057,-2.85853196659995,11.929918912408676,-0.6803627048644494
3.6599999999999966,-2.760124542524645,11.81741633879374,-0.8469001151259016
3.6700000000000017,-2.5786795275114214,11.544543565460906,-1.0455960700795282
3.680000000000007,-2.332485126909112,11.14859165404415,-1.210871188706372
3.6899999999999977,-2.0029571396753467,10.584065581017612,-1.332843913295202
3.700000000000003,-1.6296112779730376,9.975183910623688,-1.405968610046809
3.710000000000008,-1.3010371048516731,9.294083593298271,-1.4011400022805456
3.719999999999999,-1.0635472237414565,8.630102694139165,-1.330033679910074
3.730000000000004,-0.925170785888406,7.986810793268115,-1.202951566310933
3.740000000000009,-0.9437328884600692,7.339288042546421,-1.1126783449468542
3.75,-1.110521824153791,6.674683384125204,-1.0778639051464685
3.760000000000005,-1.374681390178014,6.052327859259663,-1.0518457617572272
3.769999999999996,-1.6780508482211565,5.583966258703232,-1.0366831066358624
3.780000000000001,-2.0486174422313046,5.195184650516426,-0.971809452901041
3.7900000000000063,-2.5295475067197994,4.811569427957718,-0.8767940997846589
3.799999999999997,-3.1166379506784736,4.311001611755323,-0.801637968900647
3.8100000000000014,-3.69395855499613,3.739751541614512,-0.7697111728305126
3.820000000000008,-4.206250660360593,3.171026824037277,-0.7461122290599967
3.8299999999999983,-4.65957927879857,2.6506737853294253,-0.7579594163797405
3.8400000000000034,-5.0525049502337005,2.210319993758692,-0.8045514403490059
3.850000000000009,-5.394848539395431,1.8486517749236144,-0.9396428884427074
3.86,-5.632046034324059,1.5697489450749516,-1.1494449312121644
3.870000000000005,-5.711289725409599,1.373626531277132,-1.4144719855529546
3.879999999999996,-5.655961149985403,1.2701769897695192,-1.7241947492432663
3.890000000000001,-5.5279027397753975,1.193306779651732,-2.0638214025160657
3.9000000000000057,-5.274946442178007,1.1319624732449676,-2.4248643292104
3.9099999999999966,-4.954107642567679,1.0640232537924803,-2.862540796391514
3.9200000000000017,-4.597800849866218,0.9893859603735988,-3.3028627810582725
3.930000000000007,-4.178077051510605,0.8535957254339607,-3.732660854463592
3.9399999999999977,-3.701928537761938,0.6515150726013289,-4.114808098883385
3.950000000000003,-3.128619599010356,0.4367063194726045,-4.408980693790658
3.960000000000008,-2.4558470022584205,0.1686615168652077,-4.607001292477469
3.969999999999999,-1.7132785803968336,-0.0961982931774423,-4.717738143563002
3.980000000000004,-0.794750565860645,-0.3908418319578988,-4.818425008146868
3.990000000000009,0.2365647333292712,-0.7565066238654001,-4.881706636067411
4.0,1.3265196324832471,-1.2036238670497073,-5.002916582649872
4.010000000000005,2.483428711350832,-1.6784430988502306,-5.175293885731521
4.019999999999996,3.7463887492236334,-2.173384331631437,-5.444868222255961
4.030000000000001,5.029027831609522,-2.6251532486244984,-5.683379205709042
4.040000000000006,6.218069546361824,-3.0331614041588373,-5.749543068554905
4.049999999999997,7.370704403514861,-3.4165749339823432,-5.731543759171656
4.060000000000002,8.327063209745926,-3.7780764855479703,-5.623179462304535
4.070000000000007,9.102175455303968,-4.10938186506502,-5.433881882935621
4.079999999999998,9.683104000606646,-4.393704803337807,-5.201439850464208
4.090000000000003,10.010596519195431,-4.67848437773315,-4.954690157473609
4.1000000000000085,10.13771878860047,-5.031818228716971,-4.786945149439368
4.109999999999999,10.132180080805224,-5.474845084732968,-4.65613446306984
4.1200000000000045,10.02206248213257,-5.988355201287208,-4.430202013704804
4.129999999999996,9.80450442166887,-6.44512930160597,-4.167246028560083
4.140000000000001,9.425017253698364,-6.806503582065379,-3.86662922097288
4.150000000000006,9.029511626755893,-7.0814386712547055,-3.5608081527530757
4.159999999999997,8.603446552295305,-7.2568242144880255,-3.2598269162753373
4.170000000000002,8.197870958924957,-7.26294847612711,-2.9534709909407457
4.180000000000007,7.80218185172244,-7.133524598495212,-2.5922950464112726
4.189999999999998,7.227012698255257,-7.022220123119495,-2.1547203183566364
4.200000000000003,6.476580535810186,-6.95711472692432,-1.759416122009101
4.210000000000008,5.64702610747186,-6.9269069335096765,-1.3428169870639646
4.219999999999999,4.884769659220902,-6.889869626405743,-0.9310367670486882
4.230000000000004,4.263181093726337,-6.77417302602658,-0.5713353891889739
4.240000000000009,3.772372872716196,-6.514084195019692,-0.3514406199349601
4.25,3.44106842618786,-6.180123510728664,-0.2866649485907749
4.260000000000005,3.281852177069097,-5.855607007802262,-0.2812076439517372
4.269999999999996,3.2237300950801795,-5.546981461481815,-0.2271105111928513
4.280000000000001,3.2332802203779587,-5.223097031647738,-0.1310232010304886
4.290000000000006,3.3131439049891047,-4.875834742244911,0.0194290392267681
4.299999999999997,3.389352454292243,-4.477553490824794,0.2002568245339557
4.310000000000002,3.33954755274774,-4.027257345622533,0.334706161758912
4.320000000000007,3.153596059097139,-3.536102784036191,0.517528130750135
4.329999999999998,2.860564665271183,-2.977838262371236,0.7017326690585522
4.340000000000003,2.545927884630672,-2.337061814591719,0.9104639302041736
4.3500000000000085,2.223985779543153,-1.5968510573455204,1.1208542520695814
4.359999999999999,1.863438491812455,-0.8117175160457674,1.3810795934860742
4.3700000000000045,1.464765061856458,0.0240922225292095,1.666349957674547
4.379999999999996,1.0096140411686858,0.8666962710691177,2.000061908775957
4.390000000000001,0.5624084199801608,1.7357462977319602,2.407628292998421
4.400000000000006,0.1096887968496464,2.578648035649855,2.775880397865758
4.409999999999997,-0.3240788542496813,3.458147996482471,3.1457602855046125
4.420000000000002,-0.682596368466104,4.298975397568091,3.526327861638748
4.430000000000007,-1.0612673684328473,5.003814373004008,3.8895450313180704
4.439999999999998,-1.4385061286952523,5.547165834630406,4.256383025252511
4.450000000000003,-1.8215784146546723,5.914989905236651,4.609690525804692
4.460000000000008,-2.140050623730016,6.140947550616696,5.004374889652874
4.469999999999999,-2.4185642053538645,6.2764677383709175,5.448437203078282
4.480000000000004,-2.567591455906154,6.361093667643526,5.9137356608341065
4.490000000000009,-2.6067149942405656,6.38951416961966,6.347771237945151
4.5,-2.580087815207276,6.357125347684804,6.743803043189729
4.510000000000005,-2.535624544661574,6.25224464413021,7.125767081097482
4.519999999999996,-2.5604357247423115,6.08891029680681,7.415710887940063
4.530000000000001,-2.6611325704286264,5.878274904254383,7.680223787358646
4.540000000000006,-2.797211918148352,5.606798379908365,7.88292605235473
4.549999999999997,-2.8881577143384454,5.284559740883162,8.074969739304517
4.560000000000002,-2.941781216410393,4.858576411653643,8.311556093867027
4.570000000000007,-2.933742006123131,4.43766846190435,8.528277821513088
4.579999999999998,-2.888756178537345,4.047035953417683,8.69180507212082
4.590000000000003,-2.7868163198924725,3.658648117128013,8.784301316245086
4.6000000000000085,-2.600055444811012,3.273496801703322,8.796594721555957
4.609999999999999,-2.307872569797514,2.910785030173689,8.753276154477955
4.6200000000000045,-2.0080665798394706,2.6298867951888525,8.719715999103116
4.629999999999996,-1.7295567546811088,2.3462403353002026,8.690949464248094
4.640000000000001,-1.4977873648881976,2.128535279518046,8.62368503818275
4.650000000000006,-1.3782374342692216,1.9746713373882112,8.53996176055943
4.659999999999997,-1.3180627426979914,1.8431461476519344,8.39655207801873
4.670000000000002,-1.3124914258584297,1.7096207621660129,8.162177647993923
4.680000000000007,-1.3201458320021668,1.6245020870306583,7.857877692219675
4.689999999999998,-1.356621151820422,1.5476890405626385,7.444169524551275
4.700000000000003,-1.3859968951920698,1.5304975458980972,6.898634055784543
4.710000000000008,-1.389500597378191,1.5589368401926915,6.199912708193445
4.719999999999999,-1.3723047432070208,1.6227278067550777,5.3475005846215895
4.730000000000004,-1.3020431923295943,1.6729621386404585,4.384953976610798
4.740000000000009,-1.20357223056687,1.7792724398798334,3.419989792552068
4.75,-1.053044548615882,1.973854085167904,2.4187062189169914
4.760000000000005,-0.9296302652973368,2.1992986171482314,1.432038391445009
4.769999999999996,-0.7864014888656492,2.496588834856933,0.4713827603597175
4.780000000000001,-0.5821731073251679,2.7488219417259465,-0.4796895721362287
4.790000000000006,-0.3874753118714589,3.018370044819377,-1.4079542630038318
4.799999999999997,-0.1263055381904938,3.165955724794514,-2.2933967278788727
4.810000000000002,0.1858975266481154,3.310113797625511,-3.159310734212331
4.820000000000007,0.619138498755375,3.344887123804395,-3.965417749135409
4.829999999999998,1.1933788331771178,3.306855152607396,-4.754083160104006
4.840000000000003,1.904467855286172,3.2445695469518245,-5.506520142625368
4.8500000000000085,2.7138105718477195,3.1024948429197425,-6.189914195609156
4.859999999999999,3.557876485249558,2.852995432027746,-6.79498808190504
4.8700000000000045,4.400137463639791,2.4884964565600574,-7.296701706422004
4.879999999999996,5.238530694132249,2.0415006357246237,-7.675299521231041
4.890000000000001,6.037868142300141,1.5635508398911278,-7.929494029053455
4.900000000000006,6.788412687711871,1.1403819201296954,-8.017760634499178
4.909999999999997,7.422051223914126,0.7021426608684319,-7.934312656476604
4.920000000000002,7.966798005157333,0.2770762886091797,-7.735920429070721
4.930000000000007,8.42792156086357,-0.1301073571868744,-7.466624975972177
4.939999999999998,8.746388829453505,-0.5059172823150738,-7.20133826158381
4.950000000000003,8.981682019516864,-0.9524810439505906,-6.991888431634106
4.960000000000008,9.07589970986878,-1.4085664966298348,-6.842165971877392
4.969999999999999,9.07236726727144,-1.8710250433370528,-6.692013277201026
4.980000000000004,8.930094875117986,-2.325562109297592,-6.56073230497226
4.990000000000009,8.681424907019744,-2.728203190874772,-6.453898233239778
5.0,8.359491161183161,-3.0841160132470544,-6.383211741808259
5.010000000000005,8.048817389254875,-3.4383514111903506,-6.302247258656415
5.019999999999996,7.71495571765193,-3.748847029529246,-6.217667861137921
5.030000000000001,7.360282246991324,-4.048733517638405,-6.084594721414268
5.040000000000006,7.039877450992634,-4.306879887773412,-5.904044707530973
5.049999999999997,6.742076722412083,-4.521512123824645,-5.691728219432302
5.060000000000002,6.456842362294553,-4.724790867224156,-5.415509933336118
5.070000000000007,6.149990172050413,-4.857756633168978,-5.093168725915977
5.079999999999998,5.847335951584655,-4.990890721924564,-4.770608646353215
5.090000000000003,5.567876602844945,-5.085086874224312,-4.458373082384475
5.1000000000000085,5.316627185237751,-5.1400763037946575,-4.199436648538519
5.109999999999999,5.066162388402418,-5.15764779293903,-3.962446007023349
5.1200000000000045,4.84364431505675,-5.203005312569045,-3.7034912586314057
5.129999999999996,4.571188892020098,-5.193559597476269,-3.5198925742477307
5.140000000000001,4.257392429831668,-5.1192599344782845,-3.376708845254604
5.150000000000006,3.874976049647661,-4.961926996086355,-3.256041748499182
5.159999999999997,3.477749023608968,-4.76321018623874,-3.17431666739924
5.170000000000002,3.015305014161106,-4.592035357357132,-3.0894142350934186
5.180000000000007,2.516211146346195,-4.391881154346674,-3.0311512319606893
5.189999999999998,1.9699545428003584,-4.242642703312293,-2.9110811989441823
5.200000000000003,1.3697304610079482,-4.148730747688253,-2.7170305976331344
5.210000000000008,0.7664310496081188,-4.036700492482603,-2.45753620309306
5.219999999999999,0.2075691481376396,-3.761004752978099,-2.1402906140515543
5.230000000000004,-0.2809548200106447,-3.391471568237212,-1.7427426545820162
5.240000000000009,-0.7011901325564414,-2.994586861030788,-1.241300412385065
5.25,-1.0185367929663618,-2.606866119010209,-0.7043677819644496
5.260000000000005,-1.234801056179787,-2.2154381949964104,-0.072133353747283
5.269999999999996,-1.401832296373534,-1.822160989981544,0.6636178812432971
5.280000000000001,-1.5910853578904216,-1.4288736785410605,1.4664581354583888
5.290000000000006,-1.83662258441352,-0.9967172790406256,2.3010551243714965
5.299999999999997,-2.1205612381620123,-0.5414529295577092,3.1408741813402417
5.310000000000002,-2.3717683084241954,-0.1196639006876296,3.982573582113449
5.320000000000007,-2.5561478344068584,0.24319171044619,4.81310110614203
5.329999999999998,-2.668031473316242,0.5405731133701288,5.626843328850575
5.340000000000003,-2.7083501662766167,0.854747423013941,6.365479925688965
5.3500000000000085,-2.706786572063083,1.1845771568276302,7.031624274970812
5.359999999999999,-2.642530049906337,1.558468842735543,7.656581511087277
5.3700000000000045,-2.467148406499222,1.9614628969659869,8.193643629467141
5.379999999999996,-2.2362356738874607,2.3688281761246297,8.638215162669423
5.390000000000001,-1.913787034909364,2.7607968928755104,8.999182984727323
5.400000000000006,-1.511010252842997,3.179665956427506,9.217746645101116
5.409999999999997,-1.0407904134756754,3.5973674236185627,9.30386436252564
5.420000000000002,-0.5575038888603214,4.06024335050416,9.267265277180345
5.430000000000007,-0.127708493196065,4.592886173757204,9.087035587334672
5.439999999999998,0.206708231297284,5.180687012706176,8.801399967937703
5.450000000000003,0.4017096629986533,5.7672135702243965,8.463194205155697
5.460000000000008,0.4166686709309525,6.28317554113183,8.119910003234732
5.469999999999999,0.2237131753913828,6.67330566900248,7.804403143855511
5.480000000000004,-0.1720627251453153,6.881839994531499,7.521769083519624
5.490000000000009,-0.6579178405785217,7.002293111629233,7.297088649660636
5.5,-1.167185536858834,7.052942949542315,7.109245516122948
5.510000000000005,-1.6961614710894857,7.043730260184423,6.910591980375996
5.519999999999996,-2.202337518818116,6.967437837154496,6.698549914847493
5.530000000000001,-2.656389124121991,6.819304851521688,6.461838429284168
5.540000000000006,-3.0286739767847304,6.588715409863843,6.171067900359245
5.549999999999997,-3.303747062395068,6.3122802331848895,5.943746832393834
5.560000000000002,-3.5568763292566703,6.032307063006938,5.733903424198462
5.570000000000007,-3.687792874399516,5.758464664700845,5.525961217328349
5.579999999999998,-3.7487457335653,5.487348993860712,5.279672991630504
5.590000000000003,-3.692472553029448,5.148931352637038,5.009238744047571
5.6000000000000085,-3.4923606188559773,4.7450265856741645,4.70105367993773
5.609999999999999,-3.212678720468084,4.366045632877397,4.343593048906855
5.6200000000000045,-2.860082651289129,3.9912377744639738,4.016056315247214
5.629999999999996,-2.551711052139623,3.61598207279536,3.692916413072206
5.640000000000001,-2.1876653833702444,3.140586070173041,3.310388715283266
5.650000000000006,-1.898107134529692,2.601611756557334,2.8694558358043807
5.659999999999997,-1.6592057286682471,2.0060421716239425,2.406680701911076
5.670000000000002,-1.4761531092514064,1.4583239132514234,1.9516318897560128
5.680000000000007,-1.3776980274732695,0.9581869408001492,1.5392044639125158
5.689999999999998,-1.279184090594338,0.5910871862812007,1.1673657632052734
5.700000000000003,-1.1708556672325603,0.3096058497727291,0.8093454170474691
5.710000000000008,-1.0391867629916802,0.1517309864134656,0.4506927494233854
5.719999999999999,-0.914573648713236,0.1098058868694571,0.0616043480001783
5.730000000000004,-0.752060953784999,0.1819111774160668,-0.4046878176463391
5.740000000000009,-0.5757415163588504,0.3630869595358108,-0.9276860965820928
5.75,-0.3428455372358231,0.6107290950476975,-1.4765528343959753
5.760000000000005,-0.081439270778066,0.8878337880327403,-2.0428887432659617
5.769999999999996,0.2094399347010056,1.1564724096629684,-2.625131066765682
5.780000000000001,0.5382690989419529,1.4351723175818714,-3.190212557508572
5.790000000000006,0.8923080009347555,1.6670376008986985,-3.761493320582189
5.799999999999997,1.218455913700419,1.8685752378367924,-4.299748396564839
5.810000000000002,1.5737720369269137,1.990225410311989,-4.764814426339472
5.820000000000007,1.8894939875069896,2.0168892573953188,-5.166078042531503
5.829999999999998,2.244709908698716,1.9539076920017295,-5.440022173954325
5.840000000000003,2.5768978167860177,1.7556803275395358,-5.598251234156946
5.8500000000000085,2.895593633828423,1.4540392003172014,-5.694939914240722
5.859999999999999,3.2239844369672293,1.0673242765519009,-5.75461718905523
5.8700000000000045,3.5181426427222022,0.6852753728928845,-5.788907267373979
5.879999999999996,3.893968822389601,0.3191052937117714,-5.809398297872252
5.890000000000001,4.277410221144165,0.01565247790371,-5.847900008681743
5.900000000000006,4.734490619470886,-0.2850528730404,-5.888922812687616
5.909999999999997,5.241362115630796,-0.5616521075112407,-5.905421235694498
5.920000000000002,5.824771892678205,-0.8285568443155229,-5.927653506085654
5.930000000000007,6.4314316897417205,-1.102979649777452,-5.870839805333663
5.939999999999998,7.018716994615977,-1.3963131618549067,-5.734942219184832
5.950000000000003,7.524158739863241,-1.71271358718296,-5.592837124113579
5.960000000000008,7.929484157323476,-1.94915167774066,-5.501992923408128
5.969999999999999,8.207525970482227,-2.128438305203189,-5.508910086993052
5.980000000000004,8.384743290017475,-2.294755695322965,-5.588113992525498
5.990000000000009,8.4735034699783,-2.550771922537573,-5.654003802275547
6.0,8.493619330824803,-2.854505153160392,-5.619174051167894
6.010000000000005,8.48122175479842,-3.1276093580103725,-5.532939389601163
6.019999999999996,8.428460037995473,-3.413126312108843,-5.3362369582226
6.030000000000001,8.395065299593032,-3.61035231287368,-5.03219818981264
6.040000000000006,8.362363236015863,-3.724786984808968,-4.620232463954522
6.049999999999997,8.247670902162401,-3.8379567523103857,-4.102247743352642
6.060000000000002,8.01899576871285,-3.978854378781443,-3.501161338582412
6.070000000000007,7.671803165450968,-4.137325777596899,-2.925036393962147
6.079999999999998,7.152071181118104,-4.293196276628343,-2.4488240392657867
6.090000000000003,6.53433372114838,-4.440335304676234,-2.041586947805231
6.1000000000000085,5.862072831732235,-4.480628252645659,-1.7014167773226407
6.109999999999999,5.285123679220178,-4.389264950585722,-1.3813680275974192
6.1200000000000045,4.749439411966147,-4.172531027108828,-1.110581171285979
6.129999999999996,4.191155553381572,-3.923416071429421,-0.8665423512555106
6.140000000000001,3.5870283754584977,-3.718634733475402,-0.6452693971079525
6.150000000000006,3.015713285745301,-3.5665316461317977,-0.4451531906876046
6.159999999999997,2.567838488802244,-3.445563778708028,-0.234744514687846
6.170000000000002,2.3007515247466497,-3.208536434226693,0.0389021306008401
6.180000000000007,2.2010187827889163,-2.823988654815697,0.400569380772598
6.189999999999998,2.2696069243784804,-2.3533540716826136,0.878526803246572
6.200000000000003,2.408100454963163,-1.8736655618873168,1.4174025103511
6.210000000000008,2.56411413346092,-1.3742633411146514,1.972801467230409
6.219999999999999,2.705188229419596,-0.8645281942757733,2.496502127518165
6.230000000000004,2.8296785825804447,-0.2807429765813289,3.032050091219227
6.240000000000009,2.9155100809312824,0.4135520713911128,3.5496983231563486
6.25,2.8782388325713115,1.1671550305959597,4.038878202224172
6.260000000000005,2.638436764209991,1.9190717591220563,4.478505311197431
6.269999999999996,2.234661066366876,2.6405256364849774,4.840111288111349
6.280000000000001,1.7476880951362832,3.311747713828781,5.112225004763208
6.290000000000006,1.2713165753799602,3.951717339241493,5.290871567177532
6.299999999999997,0.83680395983565,4.6038534233098485,5.405037893691303
6.310000000000002,0.3644069213285089,5.185582299709988,5.427042660548518
6.320000000000007,-0.1450331803125198,5.731716041234247,5.403396562911665
6.329999999999998,-0.6311741148818089,6.183193116676073,5.336029145484188
6.340000000000003,-1.1018329121032508,6.546461578768529,5.24174447650335
6.3500000000000085,-1.4397288858618706,6.8371095972485785,5.0828058694736775
6.359999999999999,-1.6298196284758713,7.06621619250534,4.880299960826113
6.3700000000000045,-1.715306667395059,7.270613100404796,4.684091967475648
6.379999999999996,-1.746810807991232,7.456691518702279,4.500181315468874
6.390000000000001,-1.779967174659507,7.62307781757018,4.400337739401
6.400000000000006,-1.8741120877097253,7.7731635374918495,4.309712174630423
6.409999999999997,-1.9318863926849847,7.91551186477607,4.243784083401947
6.420000000000002,-1.9751920220055303,7.963681661386005,4.208594046891294
6.430000000000007,-1.9941597836560283,7.958080862504081,4.172945303253198
6.439999999999998,-2.0548725019607974,7.821363389678979,4.150609141753956
6.450000000000003,-2.1269824615192627,7.644663491557035,4.062480776865267
6.460000000000008,-2.205750186323772,7.461778305243317,4.047307919886034
6.469999999999999,-2.353544536995832,7.222683115202781,4.029526520030702
6.480000000000004,-2.51244956777457,6.965781389406657,3.948983137122444
6.490000000000009,-2.6931078120623573,6.669547675639071,3.8117121722610174
6.5,-2.8478281583871,6.400557936228751,3.630413496705134
6.510000000000005,-2.9498134142889145,6.193971158554915,3.4236196079539893
6.519999999999996,-3.00540754262795,6.035092709658839,3.22495352280012
6.530000000000001,-3.0327960701385006,5.9056405062666775,3.0509814560393798
6.540000000000006,-3.101387705140918,5.783827386654903,2.8934873525652165
6.549999999999997,-3.231554605464785,5.635358720061103,2.750896452862624
6.560000000000002,-3.346565217906289,5.4766233405335365,2.6056856775883435
6.570000000000007,-3.5253029939641647,5.303692144175068,2.4567213098166847
6.579999999999998,-3.7437517065201633,5.088617513869359,2.2380311584195782
6.590000000000003,-4.0235056056475065,4.777656374003634,1.934316904285524
6.6000000000000085,-4.280004215701591,4.484748084363903,1.5326327863278475
6.609999999999999,-4.491235803686735,4.226792146052516,1.1264155795206476
6.6200000000000045,-4.646290102910079,3.954688149425496,0.7048707177932004
6.629999999999996,-4.728666156252018,3.747562789908501,0.2724972507506523
6.640000000000001,-4.675331906665289,3.6556480481766216,-0.1129639497929427
6.650000000000006,-4.45396316208122,3.645392676829296,-0.456936197171278
6.659999999999997,-4.067263981989771,3.691756646250896,-0.7610948094640777
6.670000000000002,-3.533746019340359,3.744842918084015,-1.0865517335246635
6.680000000000007,-2.8367029088913007,3.842346498033903,-1.4971397282050587
6.689999999999998,-1.9422527555609383,3.954640629826335,-1.9272768955002404
6.700000000000003,-0.975560087841534,4.026608761674359,-2.393033567467197
6.710000000000008,0.040359897976604,4.022165897481105,-2.84551291134246
6.719999999999999,1.0020706012201808,3.939966085200557,-3.2854245341999238
6.730000000000004,1.962682809518523,3.79704632944388,-3.71254421860978
6.740000000000009,2.825604711873753,3.5292033133789844,-4.066236069059734
6.75,3.6488319636834174,3.14808710253932,-4.314976047812177
6.760000000000005,4.409583046675816,2.6395128751156167,-4.441455222067531
6.769999999999996,5.080233453195939,2.060056012070354,-4.512337239884928
6.780000000000001,5.737637938373323,1.449081109856277,-4.542954780928517
6.790000000000006,6.276917663704967,0.7590050985681239,-4.578953505155624
6.799999999999997,6.795275739266391,0.0673256062129499,-4.662861523621281
6.810000000000002,7.231560638498588,-0.6435514931800781,-4.735604360426781
6.820000000000007,7.664206512580701,-1.3043896668607124,-4.742886370816908
6.829999999999998,8.089520680274957,-1.8714746502845996,-4.633031379723502
6.840000000000003,8.560983073641978,-2.329257276264004,-4.449770701282139
6.8500000000000085,9.104725618315875,-2.7461112118974405,-4.190444541317315
6.859999999999999,9.628661262887462,-3.1907800570420943,-3.929276190572905
6.8700000000000045,10.124711692388962,-3.622201635476189,-3.683175080450361
6.879999999999996,10.437838728330204,-4.062551915892589,-3.419738773637792
6.890000000000001,10.597546757339012,-4.477673766125389,-3.1324032063723752
6.900000000000006,10.64366904669959,-4.902738101486735,-2.80224910055594
6.909999999999997,10.613514246166105,-5.322307178584882,-2.477585083235009
6.920000000000002,10.541317829637036,-5.688245543642065,-2.140166568951494
6.930000000000007,10.46507283075336,-5.994755826492778,-1.7560128512723483
6.939999999999998,10.343610950083573,-6.133295315794854,-1.264309424021234
6.950000000000003,10.14838310417544,-6.067767706941472,-0.7063868326962242
6.960000000000008,9.865553236336291,-5.769498416153764,-0.0899413296428949
6.969999999999999,9.39754973455627,-5.451694433302629,0.5040461952390245
6.980000000000004,8.702208815671607,-5.2899535224666,1.1113964716293416
6.990000000000009,7.823854020888004,-5.36702466054653,1.7585439046180855
7.0,6.850712659494868,-5.643020585009476,2.3603643148824784
7.010000000000005,6.058713822344434,-5.596689952927103,2.724767852914788
7.019999999999996,5.5112213902636,-5.119790319636659,2.7576311422481643
7.030000000000001,5.00151007265045,-4.580225565424688,2.5928858627419347
7.040000000000006,4.315850185723911,-4.21279642780647,2.449644467511891
7.049999999999997,3.5682776535464718,-3.9543346231362095,2.3342185487629656
7.060000000000002,2.88478905986915,-3.646262203342412,2.2105902525338768
7.070000000000007,2.3656666530889447,-3.1792755549506886,2.0494078202864783
7.079999999999998,1.9923915458319488,-2.5500259216289622,1.8346649984942371
7.090000000000003,1.7553222140533984,-1.7665283022297218,1.598327862930316
7.1000000000000085,1.6465738248894697,-0.9137496426399124,1.398103558438088
7.109999999999999,1.6377190634263403,-0.0139786343634237,1.303007822879981
7.1200000000000045,1.7317212388913352,0.9641004305529582,1.3117656212628823
7.129999999999996,1.8142927525822392,1.9569679723310185,1.4306399638712233
7.140000000000001,1.82774529856177,2.9854928575952937,1.5762394589006834
7.150000000000006,1.73379866290964,3.956389247334208,1.7402944342807145
7.159999999999997,1.4803259461050666,4.834977566298578,1.8839986671506603
7.170000000000002,1.1179137826924963,5.591050555851485,2.0381905309695023
7.180000000000007,0.7695280772344641,6.287479111459709,2.196536299481642
7.189999999999998,0.4381034578273993,6.886564565939242,2.393305024932702
7.200000000000003,0.1631667920087093,7.411564679283628,2.5774576754841423
7.210000000000008,-0.1054407747174725,7.898914365592257,2.715580737255431
7.219999999999999,-0.3900651104624031,8.261743690301765,2.7982428506995807
7.230000000000004,-0.6940158213701529,8.506236106410459,2.7801407302194123
7.240000000000009,-1.008339359588794,8.604669349691445,2.6616249205004365
7.25,-1.2398077323567611,8.606221072422885,2.55397619871938
7.260000000000005,-1.348299584113845,8.5915327731385,2.539556726511779
7.269999999999996,-1.343627208436569,8.582319462028964,2.559619674848487
7.280000000000001,-1.2947328460299057,8.58054973203839,2.627692464512384
7.290000000000006,-1.2119539006691398,8.520745929467543,2.6883847454302727
7.299999999999997,-1.2604347185902478,8.367051319086714,2.692816562151789
7.310000000000002,-1.528176751435082,8.072354134887519,2.622167901748789
7.320000000000007,-1.9475605234000088,7.693406512341316,2.570922431925484
7.329999999999998,-2.4066461489215425,7.301785546646297,2.5209678379898817
7.340000000000003,-2.8202192342569563,6.918175479785243,2.564624263933771
7.350000000000008,-3.0972627238877166,6.588064454697681,2.620300362633719
7.359999999999999,-3.26087834300954,6.326893474414605,2.7541513607892507
7.370000000000003,-3.405347884579236,6.131272881026385,2.909661160469407
7.3799999999999955,-3.569297835840532,5.989474440436256,3.1096620315615877
7.390000000000001,-3.6932451206733337,5.8337676964135445,3.328770335684563
7.400000000000006,-3.752268622265112,5.637174784729108,3.522383348359914
7.409999999999997,-3.793814450047792,5.440131662059042,3.7433011252502415
7.420000000000002,-3.8619700983378062,5.22964163563034,3.9224554787854378
7.430000000000007,-4.067668121534473,4.929779182445775,3.980534636480612
7.439999999999998,-4.362159762880262,4.600486691695079,3.952088292093969
7.450000000000003,-4.614708615294843,4.1897148675094895,3.8324598684396434
7.460000000000008,-4.761297016697578,3.794025431907616,3.637280680385147
7.469999999999999,-4.729066777423547,3.458533925635803,3.4489520267583003
7.480000000000004,-4.481281877278537,3.1662865656035244,3.24135084794842
7.490000000000009,-4.108269700701382,2.970848611941912,2.950752833780639
7.5,-3.5874210665168262,2.7770154017783053,2.543526142207279
7.510000000000005,-2.884092525772473,2.655964300123211,2.0576291810821203
7.519999999999996,-2.100868165547197,2.5644621149339746,1.4564563399683632
7.530000000000001,-1.2888442000374598,2.459336373470322,0.7735302408129264
7.540000000000006,-0.5321189705357778,2.3259181638582818,0.0261510007495541
7.549999999999997,0.2174678649384331,2.099137601390752,-0.7711634528395528
7.560000000000002,0.9200930224101967,1.740115510422965,-1.6078240654590612
7.570000000000007,1.541161256868223,1.2267649515015056,-2.472854409218163
7.579999999999998,2.1266443989865937,0.6246047309496107,-3.3549270334339947
7.590000000000003,2.7332055931120065,-0.0326101228422153,-4.225377248699564
7.600000000000008,3.381965544408043,-0.6844684858716753,-5.036341904425378
7.609999999999999,4.113069901014679,-1.3476367443141024,-5.759902204270693
7.620000000000003,4.82158917181967,-2.0091053877006178,-6.449269894714166
7.6299999999999955,5.460551752187784,-2.7015793608872984,-7.003420685649636
7.640000000000001,5.9868638095602895,-3.3531633333992312,-7.493377115873304
7.650000000000006,6.380598142162143,-3.9355045554763466,-7.912196604881034
7.659999999999997,6.658375988112065,-4.450196898098365,-8.22855228647994
7.670000000000002,6.856501009320842,-4.887230143608647,-8.419684256770262
7.680000000000007,6.987272205345187,-5.204433294798,-8.523508416117432
7.689999999999998,7.1186116823309336,-5.397334945428264,-8.5185442097942
7.700000000000003,7.2482561027957,-5.499194618855288,-8.409552988994237
7.710000000000008,7.373400144161714,-5.527170040582132,-8.24695394949387
7.719999999999999,7.531613818166551,-5.582519090607089,-7.933945242261887
7.730000000000004,7.63188231403571,-5.692369257144092,-7.563753393825265
7.740000000000009,7.691608810262291,-5.842458988114715,-7.170924395612439
7.75,7.659853577938212,-6.022621091561287,-6.802941898535639
7.760000000000005,7.4817189230206065,-6.200075317450642,-6.491059207127962
7.769999999999996,7.143229007862025,-6.360637003654698,-6.233191348520626
7.780000000000001,6.676479377337515,-6.431537317565593,-6.016342086108242
7.790000000000006,6.143611042740151,-6.385309519203334,-5.814920206265983
7.799999999999997,5.65356588507814,-6.2999582591453445,-5.597535347052282
7.810000000000002,5.294302062290966,-6.178569755473133,-5.329135643074634
7.820000000000007,4.996600465664565,-6.024851750603505,-5.022929060300156
7.829999999999998,4.734732094958501,-5.87541193721338,-4.727786876584747
7.840000000000003,4.491435417851501,-5.6891662004430295,-4.453256321029572
7.850000000000008,4.120330196285315,-5.531157923688707,-4.2272948627402425
7.859999999999999,3.648025768523777,-5.5010195884101645,-4.018223005679348
7.870000000000003,3.0906843289084813,-5.462488148371436,-3.7874425266269536
7.8799999999999955,2.6375813178340874,-5.384921468582543,-3.5334281090953974
7.890000000000001,2.256951641431067,-5.179097205933728,-3.3132582175212093
7.900000000000006,1.864898842092832,-4.874051647499666,-3.087358584338656
7.909999999999997,1.438842284918165,-4.575817880733468,-2.882969203678887
7.920000000000002,0.9264366500065684,-4.303808231944298,-2.599678629817298
7.930000000000007,0.4151533442645935,-4.0140875937602,-2.237696052832506
7.939999999999998,-0.0066641866302888,-3.694518108357728,-1.772956469953188
7.950000000000003,-0.3970563488601129,-3.3536601590622945,-1.2434328807031971
7.960000000000008,-0.7762299055595361,-2.8978015788399194,-0.6322539915181505
7.969999999999999,-1.1552443315602283,-2.3513388401039697,0.0844870222906772
7.980000000000004,-1.5313477747748627,-1.7846788759744998,0.8844115472524076
7.990000000000009,-1.7931251113608595,-1.2408456904837892,1.731289974660699
8.0,-2.099622950897269,-0.7122114017226601,2.63752077551353
8.010000000000005,-2.459219061427572,-0.2011220277205052,3.583961174524123
8.019999999999996,-2.843242064486542,0.3510690581278472,4.560773953381316
8.030000000000001,-3.1702359980558388,0.9395527622780124,5.511308517689299
8.040000000000006,-3.4517363908487084,1.5262115093413395,6.427174557277284
8.049999999999997,-3.615246954873416,2.116604034422734,7.275962680780305
8.060000000000002,-3.615161729345974,2.766819988498112,8.080117187868407
8.070000000000007,-3.4208764205596567,3.4738429535215447,8.742240087056315
8.079999999999998,-3.0651880925371606,4.214881482909766,9.247484235128873
8.090000000000003,-2.595652364960871,4.934334645874343,9.611514212380964
8.100000000000009,-2.137964823788826,5.661667023176417,9.797681208067605
8.11,-1.793111726514807,6.333636873709676,9.870366191965129
8.120000000000005,-1.5880197411592665,6.850956114388777,9.752753591155956
8.129999999999995,-1.5542090949052547,7.2746616995669,9.465652594668768
8.14,-1.5786608653970196,7.672863763389215,9.073450084703774
8.150000000000006,-1.72850823990746,8.015774708393783,8.650245368890264
8.159999999999997,-1.9735219339414567,8.322296759580704,8.275608704914799
8.170000000000002,-2.4171050160319068,8.557264736529785,7.995955929400176
8.180000000000007,-3.009253400631272,8.605123235549703,7.767313030843571
8.189999999999998,-3.5877554361080017,8.38089311204733,7.526468432660332
8.200000000000003,-4.037679312094528,7.946522048747906,7.180155329464938
8.210000000000008,-4.251698935793597,7.401045720685326,6.7152049131977325
8.219999999999999,-4.230476330778885,6.7767140431589805,6.144680855410924
8.230000000000004,-4.055085480508124,6.106858314296515,5.530514849526207
8.240000000000009,-3.80555735589125,5.432723081109812,4.91443133851245
8.25,-3.5056516659372354,4.8004686763687054,4.340177200354588
8.260000000000005,-3.133767598930328,4.119392777703436,3.80735865452938
8.269999999999996,-2.7842428341147984,3.2916992641031952,3.117416094302676
8.280000000000001,-2.504776013599888,2.2700616107204667,2.234584149114048
8.290000000000006,-2.249761430782104,1.243725508611042,1.2648569817979023
8.299999999999997,-1.9597737907775192,0.3568199141526942,0.4061086603696865
8.310000000000002,-1.4963590818268886,-0.3234870182031072,-0.3615499075885844
8.320000000000007,-0.8781704561689041,-0.8406464317572693,-1.0880713014223344
8.329999999999998,-0.1683839068327917,-1.1892490318750475,-1.8182930106719188
8.340000000000003,0.5345150935273114,-1.3368358996194112,-2.5912702599196287
8.350000000000009,1.2007742675586983,-1.316610227117056,-3.338805517610144
8.36,1.846441098865172,-1.2159759991021286,-4.0437760671973
8.370000000000005,2.4422387938411285,-1.0474390479230309,-4.665334852431781
8.379999999999995,3.0472702716745155,-0.8176023418008449,-5.14046465069665
8.39,3.555426004364179,-0.6746969455685069,-5.446363327556834
8.400000000000006,4.03089944856446,-0.5664883784604777,-5.5974480859794085
8.409999999999997,4.525761601166567,-0.5288711846586734,-5.656443316404549
8.420000000000002,4.961094745727968,-0.5967117849202873,-5.573906699830101
8.430000000000007,5.323758821562278,-0.768785614871228,-5.460175703210433
8.439999999999998,5.699634432326647,-0.9700145530548364,-5.277382419987696
8.450000000000003,6.0860310638750725,-1.2286993445087968,-5.029384345058396
8.460000000000008,6.481182586573523,-1.5622643711143342,-4.763388265113103
8.469999999999999,6.891578601328432,-1.9126492230602967,-4.47883796168691
8.480000000000004,7.275335596223988,-2.3063972088952207,-4.162187148312404
8.490000000000009,7.676535373304766,-2.670370648656749,-3.7951989055551394
8.5,8.021337679014048,-3.0685049102229374,-3.438675313401112
8.510000000000005,8.362777727101337,-3.4769662125074383,-3.089784460577526
8.519999999999996,8.56463269361799,-3.849715504588714,-2.796466005325025
8.530000000000001,8.630898566623838,-4.121021524435923,-2.5800506497195297
8.540000000000006,8.588557860536126,-4.2252268271246525,-2.401289019748072
8.549999999999997,8.490082662223177,-4.132244420164505,-2.26353155581392
8.560000000000002,8.286664433342821,-3.89955340634608,-2.099726199968015
8.570000000000007,8.069247227531225,-3.629890703194501,-1.8605814784420325
8.579999999999998,7.884897253251257,-3.359297952487274,-1.5863777079422994
8.590000000000003,7.672956960411574,-3.228485487062657,-1.2691619061720156
8.600000000000009,7.370978813653333,-3.259077580069872,-0.8499947299718401
8.61,6.927529755545892,-3.3835814468707057,-0.332846928163795
8.620000000000005,6.387694549525684,-3.444299685929199,0.1967137099169354
8.629999999999995,5.795906557214109,-3.372275874312859,0.7668769339220594
8.64,5.1976282519062345,-3.100290073868044,1.35979831690612
8.650000000000006,4.552846051161857,-2.6350458357825564,1.8677715738808085
8.659999999999997,3.859899235961316,-2.078854633167308,2.3371762562235854
8.670000000000002,3.13556303139126,-1.5174048362084525,2.8212314128332188
8.680000000000007,2.426707869148569,-1.0191279585553117,3.2889848928685907
8.689999999999998,1.7202225922124916,-0.5077860724635836,3.7124320997570575
8.700000000000003,1.0969894722562532,0.029406091099129,4.082451680475301
8.710000000000008,0.5606591290354056,0.6152656361187835,4.408376165203412
8.719999999999999,0.0362269806594636,1.3056904024058953,4.695784422204478
8.730000000000004,-0.5871338225088939,2.0261023866432417,4.968423991476565
8.740000000000009,-1.329033744914652,2.708329276773494,5.133344542957234
8.75,-2.0357280142605814,3.347032737239869,5.182238657975447
8.760000000000005,-2.7067185077465763,3.840474962979644,5.124599312856523
8.769999999999996,-3.2759136288669706,4.212276684675495,5.015064508561014
8.780000000000001,-3.818510178986432,4.561681729504036,4.860375952595775
8.790000000000006,-4.356025894660218,4.935901524538716,4.71126353177768
8.799999999999997,-4.915730768169564,5.323991728374208,4.557062273144904
8.810000000000002,-5.553140891868336,5.67322039528372,4.333324986360441
8.820000000000007,-6.270264438135913,5.95227848267349,4.0987265965066655
8.829999999999998,-6.867640288876455,6.197294701196316,3.94574522700476
8.840000000000003,-7.344503053066077,6.456187985142998,3.861048666846056
8.850000000000009,-7.726190007772269,6.695707976866398,3.916504200137996
8.86,-8.002798393224666,6.875937403875337,4.006441519722073
8.870000000000005,-8.237926407110443,7.014757933738518,4.156560859489703
8.879999999999995,-8.396330716264108,7.058480876592904,4.304595594363585
8.89,-8.520714607998897,7.029009311245701,4.417063759261734
8.900000000000006,-8.467550879711682,6.9503890757784905,4.472574975172488
8.909999999999997,-8.206350223928142,6.817924351888896,4.472515437557577
8.920000000000002,-7.762373542291883,6.6778226824840745,4.389989090597937
8.930000000000007,-7.263855650720019,6.544306247550121,4.242540939144673
8.939999999999998,-6.638727528218109,6.433861649571814,4.0612022909553245
8.950000000000003,-5.847459338662214,6.274434542697806,3.8299856902070695
8.960000000000008,-4.920819305028601,6.087331024271304,3.453957774287068
8.969999999999999,-3.910902030866336,5.887226644750672,2.9566974113632947
8.980000000000004,-2.9528724829637327,5.660979299834676,2.3618009359716257
8.990000000000009,-2.0388557018260127,5.4609434352528,1.6676796469184736
9.0,-1.1775463379099869,5.214294198683976,0.8943254099963729
9.010000000000003,-0.3388518940210647,4.893711323165286,0.0152970658941102
9.019999999999996,0.4724397173707932,4.53755891162411,-0.8603755683475843
9.03,1.3372330307462237,4.123567083308579,-1.7890697641430526
9.040000000000006,2.2010674928793,3.603918847363728,-2.7679814901723083
9.049999999999995,3.0877034619221937,3.083557196488655,-3.680956959488805
9.060000000000002,3.97995262986522,2.5239551392694795,-4.482756070061816
9.070000000000007,4.858252320618875,1.8793665100502333,-5.1239460439896405
9.079999999999998,5.710500101223215,1.2019615177955043,-5.532365456058474
9.090000000000003,6.470344919846164,0.5242481992496012,-5.729924136035328
9.100000000000009,7.133455431596011,-0.105318089710909,-5.714700953324225
9.11,7.648121729437961,-0.6806609942135107,-5.536720749142156
9.120000000000005,8.032901482409367,-1.195618988228716,-5.281515473888779
9.129999999999995,8.307765103095104,-1.683795669476719,-5.002514170295448
9.14,8.538017681144778,-2.088429330379206,-4.690370847152166
9.150000000000006,8.739979998341552,-2.422864543211279,-4.368752331195137
9.159999999999997,8.957940766926482,-2.7167972670192087,-4.062309690157059
9.170000000000002,9.212782541458951,-2.9412584019650665,-3.7986325236699305
9.180000000000009,9.482104837370716,-3.167235380771309,-3.5873364058258854
9.189999999999998,9.78436553320904,-3.377535186932585,-3.403455249966213
9.200000000000005,10.04152189599393,-3.5936677035153863,-3.180947364566888
9.210000000000008,10.304144124349248,-3.7491527655306687,-2.8729004554238378
9.22,10.534510339347191,-3.835798199954946,-2.433272523590197
9.230000000000004,10.713295273841302,-3.842581882953502,-1.8355987448783724
9.240000000000007,10.757878445930842,-3.7176802703995535,-1.1346382470112908
9.25,10.63538766410604,-3.519480308986665,-0.4332058036895738
9.260000000000003,10.368762979674251,-3.2416962218144385,0.2368354605551925
9.269999999999996,9.958716591262933,-2.9042081101487853,0.9097339953066726
9.28,9.384845117218257,-2.5965020597069164,1.6029533667289604
9.290000000000006,8.693664856224576,-2.293978173213972,2.254679099830171
9.299999999999995,7.811897219409626,-2.05961859888216,2.776478705431995
9.310000000000002,6.888272462757568,-1.9097967334831365,3.1689593782583616
9.320000000000007,5.902101895370225,-1.761491343656308,3.433597350024346
9.329999999999998,4.89684433811012,-1.6501487798735808,3.608845486955717
9.340000000000003,3.932346281805704,-1.5576046982424174,3.7230285594251193
9.350000000000009,3.1162873432557365,-1.4675571452195555,3.782352846055842
9.36,2.4879046398223736,-1.354257769368828,3.801774138366002
9.370000000000005,2.046490833534756,-1.1762898285409054,3.799710870427577
9.379999999999995,1.7795724787971596,-0.9165308791972312,3.7133647458818015
9.39,1.6048106621354914,-0.5568351766543096,3.542436971297728
9.400000000000006,1.5281710690006094,-0.1226061587319224,3.272018522356528
9.409999999999997,1.534088175706529,0.3535837442374107,2.9101209127257195
9.420000000000002,1.5667573733789757,0.926645898821614,2.5691187989857265
9.430000000000009,1.624643129381342,1.5531775849908476,2.248781431635406
9.439999999999998,1.638956314891256,2.2476853834879917,1.9572879733005657
9.450000000000005,1.586980239123539,2.994997704768673,1.6767687586498876
9.460000000000008,1.4023492742889363,3.717615656134333,1.371193510870229
9.47,1.080623950636829,4.428986581830661,1.0743253982136904
9.480000000000004,0.6570674445527633,5.071420261693389,0.7809054952142372
9.490000000000007,0.2006832354418161,5.670315257754172,0.5051497493422683
9.5,-0.2126277967328835,6.163907250613372,0.1906987720787895
9.510000000000003,-0.5014162816442704,6.632465782806474,-0.1423814653174782
9.519999999999996,-0.693503391255386,7.080179809251442,-0.47564220067199
9.53,-0.7861421037976908,7.502471793184221,-0.7935677504061918
9.540000000000006,-0.7913109708182319,7.891669216034058,-1.0831131333102388
9.549999999999995,-0.7397384425493465,8.23266215085194,-1.3860058735635348
9.560000000000002,-0.663480974881521,8.553291843247765,-1.651637163695626
9.570000000000007,-0.6381552578816574,8.828934203207137,-1.8816469742204385
9.579999999999998,-0.6477866209038765,9.033358823090744,-2.085654013539376
9.590000000000003,-0.6223621848958055,9.13987968683451,-2.2479827875431537
9.600000000000009,-0.5498220039248108,9.085798497266088,-2.3806267389595392
9.61,-0.4393551229607866,8.922735161349104,-2.5101634008953413
9.620000000000005,-0.2629535220312018,8.701200187197314,-2.679712338996356
9.629999999999995,-0.0809789689873333,8.430063131896395,-2.816114616919808
9.64,0.0354338932955184,8.182121407826063,-2.898921492997051
9.650000000000006,0.1233292381145636,7.94819026164826,-2.915840548085283
9.659999999999997,0.1497469153750196,7.737098319640834,-2.8894248635888817
9.670000000000002,0.1733476122022827,7.548362134358846,-2.8942817823672624
9.680000000000009,0.1280919071533623,7.318236550418176,-2.903663859258876
9.689999999999998,-0.1095030374423452,6.997967058373232,-2.9351771040840955
9.700000000000005,-0.5383292409608474,6.560226623819104,-2.965044030682498
9.710000000000008,-1.0561008067094646,6.100649866575762,-2.99111865086456
9.72,-1.5863011823224549,5.68037300450082,-3.023567771057995
9.730000000000004,-1.9965007381932856,5.333444226651727,-3.030820551927844
9.740000000000007,-2.343397016263583,5.002880525194628,-2.9925753716729617
9.75,-2.7606112698155134,4.582632828980994,-2.967744132419968
9.760000000000003,-3.319416679152708,3.995777310207419,-2.94479119110043
9.769999999999996,-4.010690691926183,3.2784565973823074,-2.9214509244754807
9.78,-4.706323972436736,2.541828327026459,-2.8743256914993944
9.790000000000006,-5.336372909142712,1.8516334056186683,-2.8183973472829567
9.799999999999995,-5.837729120276236,1.2320024136108616,-2.84706580105066
9.810000000000002,-6.133969686778339,0.6808621277179383,-2.927699622643876
9.820000000000007,-6.251247033190221,0.2335574532310457,-3.058947503898618
9.829999999999998,-6.214373478269014,-0.1250905990586207,-3.2294440321357576
9.840000000000003,-6.004367944499324,-0.4022627004936109,-3.4195849962166327
9.850000000000009,-5.614987575451501,-0.6374797609680081,-3.6382386781402265
9.86,-5.053459159795196,-0.846479596519516,-3.862566496457579
9.870000000000005,-4.319638489060875,-1.0734261149446198,-4.113203490967793
9.879999999999995,-3.501599929312703,-1.337801893598796,-4.348877167777265
9.89,-2.6477659010762813,-1.6701088299595783,-4.633398765935936
9.900000000000006,-1.7339774820188587,-1.9981315532259964,-4.953653017037034
9.909999999999997,-0.7135342921332458,-2.3415575750088653,-5.190524206041586
9.920000000000002,0.3732067515875386,-2.7300058661755653,-5.394988237060845
9.930000000000009,1.4846115028745273,-3.2070091903786317,-5.587202784298548
9.939999999999998,2.6317007703909887,-3.698666433417477,-5.792655955347444
9.950000000000005,3.814583604019407,-4.186797798066193,-5.946200016774799
9.960000000000008,5.003407160793572,-4.66289748068128,-6.01233376159442
9.97,6.1445734397367255,-5.046650835367347,-5.999788651021334
9.980000000000004,7.223002219714898,-5.3727097545550215,-5.955051333913334
9.990000000000007,8.156554457891554,-5.678765723114934,-5.753868887361317
10.0,8.911576819827255,-6.025291365249225,-5.406858278117083
10.010000000000003,9.514443907860691,-6.391774591036247,-5.008695694306018
10.019999999999996,9.991823653853976,-6.704955625071196,-4.527571289660441
10.03,10.256227051981398,-6.962934543037154,-3.971803278109336
10.040000000000006,10.270160999077827,-7.265404286004549,-3.352729934164948
10.049999999999995,10.028992459656548,-7.562906032874419,-2.7706564484257497
10.060000000000002,9.656629159770176,-7.828986201321465,-2.1940864628495382
10.070000000000007,9.30182340598796,-7.929517111672704,-1.6275088043664363
10.079999999999998,8.957589158350611,-7.864526546365411,-1.01541902643078
10.090000000000003,8.490872085889285,-7.718324497766187,-0.3578549649495485
10.100000000000009,7.820246685299837,-7.7311693891755695,0.334213476558722
10.11,7.038550013778647,-7.770297584054275,0.968957347079205
10.120000000000005,6.274007535202361,-7.791847356649839,1.5388992087531017
10.129999999999995,5.605877537950751,-7.618279396007812,1.993848135463272
10.14,5.056143085322264,-7.212060800103515,2.3257195415893634
10.150000000000006,4.547386248380247,-6.704550871293575,2.558434649042812
10.159999999999997,3.9101326445640807,-6.237873028538591,2.7355494970713803
10.170000000000002,3.123354240408424,-5.849914655521269,2.8277712665515145
10.180000000000009,2.162317042899484,-5.536514080321046,2.82693935101238
10.189999999999998,1.3006335326519385,-5.268246086672078,2.719388674943548
10.200000000000005,0.5632651332807592,-5.020124226843142,2.4853186057800576
10.210000000000008,0.0024495648733313,-4.760257899944527,2.208681748522223
10.22,-0.3944516426761523,-4.410621937093349,1.9600036562230891
10.230000000000004,-0.5705161612045797,-3.976434409249743,1.7191521326640464
10.240000000000007,-0.518585174816717,-3.424931067899597,1.4939840593804683
10.25,-0.3408690516947472,-2.834243573578798,1.308621570161219
10.260000000000003,-0.1484049700779519,-2.2282905141231915,1.1814192261365903
10.269999999999996,0.0582417133853763,-1.6126011077729907,1.0570186446609724
10.28,0.3564552567872214,-0.9525273383832858,0.9556375375532044
10.290000000000006,0.6947590451796608,-0.2505902197897214,0.9110601756201452
10.299999999999995,1.0313659730851217,0.4696843866215753,0.8708587129734613
10.310000000000002,1.357379483154285,1.245566936103161,0.8668933008072004
10.320000000000007,1.6479959273559208,2.001673486563123,0.8854757729287185
10.329999999999998,1.8778128334760176,2.77986456678956,0.9065360642194872
10.340000000000003,2.028086210266486,3.5346169186874024,0.9003674488840061
10.350000000000009,2.0778105342009066,4.2902181186981165,0.8505645850000696
10.36,2.036994668155462,5.078228277371404,0.7693688415065781
10.370000000000005,1.964362889154704,5.815034386552599,0.6771043112303758
10.379999999999995,1.918918965320617,6.568311968089722,0.5820963227318585
10.39,1.9557961344978585,7.2844307390180125,0.4449012075643472
10.400000000000006,2.120187644499167,8.004471149190518,0.2737205810315404
10.409999999999997,2.3755088867414136,8.67410987134776,0.0523103391729595
10.420000000000002,2.6348401369323,9.348086575242789,-0.2625455796558485
10.430000000000009,2.8948271685547806,9.956012751265186,-0.6896447979797481
10.439999999999998,3.1093085182169338,10.451911270192715,-1.1888072398001408
10.450000000000005,3.3427647471018123,10.871801269327094,-1.7586526752072102
10.460000000000008,3.628581892869877,11.15349297864416,-2.4072938543608124
10.47,3.978846314802021,11.306045164569811,-3.09863001538098
10.480000000000004,4.312039093619096,11.286503070354598,-3.7787900698656745
10.490000000000007,4.605067706365442,11.116089867310066,-4.474729645703295
10.5,4.916592849911637,10.857420823745962,-5.123071085973957
10.510000000000003,5.248099476885724,10.466709969240878,-5.719710579966693
10.519999999999996,5.5194565658961645,9.934749186014118,-6.219308529309981
10.53,5.577276738238479,9.30173274755433,-6.617577162509173
10.540000000000006,5.376007752210518,8.5614136168685,-6.916690384812348
10.549999999999995,4.925202928763691,7.733292384006853,-7.08863161906182
10.560000000000002,4.132933539244213,6.858363057558114,-7.144262230587263
10.570000000000007,2.9874472073485854,5.985812731022627,-7.068532162060807
10.579999999999998,1.4808638501210054,5.160478645021048,-6.808100907605434
10.590000000000003,-0.2375889881219932,4.425949590544286,-6.340632478481205
10.600000000000009,-2.0155328108391606,3.851322315496168,-5.753275732015141
10.61,-3.720764953554663,3.3814059373511025,-5.113348269106937
10.620000000000005,-5.2417213306491455,2.9400823084753607,-4.440527586627193
10.629999999999995,-6.453541087622604,2.54281872493832,-3.841173800895855
10.64,-7.293203416589036,2.177743338297528,-3.320735645684409
10.650000000000006,-7.779152471813952,1.853477200788255,-2.8424597534624803
10.659999999999997,-7.925042588119484,1.5892705311423123,-2.4464294005169847
10.670000000000002,-7.788134031426187,1.3123660548677196,-2.0635356618154423
10.680000000000009,-7.481452034987318,0.9676849078797446,-1.7354388437601111
10.689999999999998,-7.037474509623732,0.5832502920001222,-1.4643574981902625
10.700000000000005,-6.463656822875885,0.1951343230749058,-1.232192224931805
10.710000000000008,-5.878686965022448,-0.2195443709582568,-1.0706518803905942
10.72,-5.307463007212206,-0.6466024465511402,-1.0092474489989094
10.730000000000004,-4.705470819318277,-1.1047269081706204,-1.0513148292328869
10.740000000000007,-4.023490295833526,-1.541520642524192,-1.2415661228806874
10.75,-3.170858325885056,-1.8930856191841163,-1.5099990791774738
10.760000000000003,-2.22500622525901,-2.187902793621519,-1.8683921355753397
10.769999999999996,-1.2329405430463984,-2.4487202215243498,-2.3032020405007123
10.78,-0.2229953467875916,-2.74378307267063,-2.7602219444035123
10.790000000000006,0.7515676718879664,-3.0670655670969165,-3.236546368860588
10.799999999999995,1.614210886892244,-3.464079858192877,-3.6407417734611207
10.810000000000002,2.3646601984392497,-3.906665078388264,-3.9554872981531424
10.820000000000007,2.9645712025798647,-4.350472426442984,-4.203619047684619
10.829999999999998,3.428648490702958,-4.80284147005142,-4.427714973219682
10.840000000000003,3.7484468731194656,-5.262653386111482,-4.653198288477993
10.850000000000009,3.995620880197791,-5.660412333948441,-4.8899420070821895
10.86,4.254579318615347,-5.992822671452143,-5.016029305911688
10.870000000000005,4.52349967103746,-6.260108711077372,-5.035912740530853
10.879999999999995,4.847256269883478,-6.461787128742706,-4.975576024603522
10.89,5.124828242055467,-6.6316932869558585,-4.8351877698261765
10.900000000000006,5.352018215490486,-6.791788583772895,-4.688294023556807
10.909999999999997,5.518095809086881,-6.983102325944273,-4.549509582317487
10.920000000000002,5.633747045520348,-7.163115100689793,-4.380593326544278
10.930000000000009,5.670777383018424,-7.341004619742088,-4.186322583504385
10.939999999999998,5.727854674127471,-7.446767033674657,-3.957036225879443
10.950000000000005,5.7708797683579816,-7.430914751020257,-3.632480246768719
10.960000000000008,5.797581320237171,-7.301577154816491,-3.2434367014031458
10.97,5.808166620992143,-7.098039128110101,-2.8360401306656926
10.980000000000004,5.603026801802696,-7.0714508047203815,-2.406834151409321
10.990000000000007,5.250203204346132,-7.187029877431544,-1.9355464352508407
11.0,4.796269778582169,-7.406103708438222,-1.4751563197911777
11.010000000000003,4.374600202697971,-7.627361775960343,-1.05294766184803
11.019999999999996,4.093469953395993,-7.603444802441249,-0.683131360381428
11.03,3.966697409793956,-7.334549863932891,-0.4192789034927729
11.040000000000006,3.909031006524977,-7.008578145743731,-0.2085795015253205
11.049999999999995,3.83816609301146,-6.691723277017911,-0.0342423935150806
11.060000000000002,3.714844724602933,-6.370077938367127,0.1337265095871533
11.070000000000007,3.5549182880469634,-6.099318116653267,0.2688113083836286
11.079999999999998,3.407927130206488,-5.798258604534428,0.4004782997617869
11.090000000000003,3.2352518924216964,-5.433066940798891,0.5447236218380964
11.100000000000009,2.970337805092057,-5.041615857148196,0.6801640918898816
11.11,2.579576745061285,-4.643882939241835,0.8152687361506583
11.120000000000005,2.1254313227803032,-4.190070769836189,0.9354798296660406
11.129999999999995,1.6562965761100534,-3.672967097807008,0.9960363641762686
11.14,1.3587048030594735,-3.0818673224279194,1.0073613494790368
11.150000000000006,1.2215760501517754,-2.4479442158187505,1.0573039043395531
11.159999999999997,1.2276136789104577,-1.766762113984902,1.1160691858005187
11.170000000000002,1.2815305406781234,-0.9974284192804758,1.1831706114568643
11.180000000000009,1.3984595093092325,-0.1346060987962759,1.247274463949012
11.189999999999998,1.5914552431824012,0.7820053216123751,1.352032120248035
11.200000000000005,1.843897201352925,1.759694820513654,1.4867833844199037
11.210000000000008,2.1098279041924184,2.7407157575027616,1.6591538986230183
11.22,2.369145486723077,3.712352129472341,1.818618280270689
11.230000000000004,2.5348464997869007,4.624945649191918,1.985042881052521
11.240000000000007,2.5167955332560235,5.460057965803341,2.09387586456728
11.25,2.372022705640708,6.266797279186682,2.192732835481443
11.260000000000003,2.171569522419906,6.98481824302717,2.270711139473108
11.269999999999996,1.9338397517449004,7.648337135192207,2.295613092578498
11.28,1.7249069168560751,8.249162454112488,2.271737202269639
11.290000000000006,1.5714865618632112,8.765074091207799,2.184503848407658
11.299999999999995,1.4990061740139804,9.172815427025794,2.022969568434825
11.310000000000002,1.4250746500119404,9.521335844751484,1.7685501068935368
11.320000000000007,1.384663628360498,9.836656951375913,1.4604307171407385
11.329999999999998,1.3947625806598507,10.098663543280134,1.0420671201315388
11.340000000000003,1.4405833113201074,10.311047878276858,0.5857422071210034
11.350000000000009,1.467848906134248,10.4975692970534,0.096572271584979
11.36,1.517631770868962,10.60133639245479,-0.4156860929728004
11.370000000000005,1.5495946088531731,10.661105215244636,-0.9204675501324884
11.379999999999995,1.5475674941041009,10.67475820053615,-1.3859160400085713
11.39,1.5133975094430865,10.644130939582594,-1.821352254126264
11.400000000000006,1.3944793471541712,10.52744700938423,-2.2021396607550585
11.409999999999997,1.14548741805206,10.29460522391081,-2.5204766192545374
11.420000000000002,0.7635805999991226,10.002538298743062,-2.7864767645019075
11.430000000000009,0.2785233968858926,9.588066637197633,-2.9692383597650127
11.439999999999998,-0.2923171422596043,9.159080876868478,-3.091955244494321
11.450000000000005,-0.9129229893881776,8.668334243239322,-3.170202332297832
11.460000000000008,-1.543234385294831,8.105111466376359,-3.182270788729087
11.47,-2.191661698960682,7.456549182107659,-3.1605013803480664
11.480000000000004,-2.8486367795040723,6.778307388430743,-3.092359940176362
11.490000000000007,-3.504757291073793,6.087994938935549,-2.955271936774595
11.5,-4.1002753281949165,5.34761200485294,-2.7426041950251245
11.510000000000003,-4.676539958764447,4.62302512321911,-2.504342742324273
11.519999999999996,-5.149724750093372,3.9329888159813584,-2.248564865101671
11.53,-5.472580771821711,3.2906125707174287,-2.0195409112511102
11.540000000000006,-5.632116519385956,2.726533182532453,-1.860942785825957
11.549999999999995,-5.689966785737309,2.2479602909464584,-1.7607395637467462
11.560000000000002,-5.694158264780183,1.7368926731362448,-1.7259187549280155
11.570000000000007,-5.557132345645031,1.1691974410152826,-1.7056056399468045
11.579999999999998,-5.3924466681828,0.5508366854724429,-1.761395004273541
11.590000000000003,-5.136486478023194,-0.0601998850258087,-1.9130243621807463
11.600000000000009,-4.772126746561913,-0.6036820091697854,-2.083369466453008
11.61,-4.267291674617352,-1.0690064060877802,-2.304444919379395
11.620000000000005,-3.661269680515953,-1.4820082238171508,-2.532641778576133
11.629999999999995,-3.0013008283115714,-1.8517586468769744,-2.804833677404074
11.64,-2.316400108632789,-2.173884453554773,-3.081996404120032
11.650000000000006,-1.5923660912497533,-2.470922915194085,-3.394217807448084
11.659999999999997,-0.8758133314566283,-2.762480059303629,-3.6834512912829904
11.670000000000002,-0.1186211378120478,-2.984417909266828,-3.9570605421027247
11.680000000000009,0.641182338896428,-3.208966249688419,-4.233850063888911
11.689999999999998,1.3996433922365568,-3.451208729906741,-4.545254842800073
11.700000000000005,2.1188405422777263,-3.705958813609797,-4.8735241564694505
11.710000000000008,2.7829926860067915,-3.952638103997085,-5.134029548765995
11.72,3.3908944653717112,-4.173135774507659,-5.319417661935501
11.730000000000004,3.9472970370206415,-4.41059839672244,-5.411435752745581
11.740000000000007,4.402591088293412,-4.659212692067425,-5.463168609623133
11.75,4.795680955628701,-4.88261900129613,-5.450799849950763
11.760000000000003,5.123208742548561,-5.02077157173962,-5.401218524299715
11.769999999999996,5.338569386079004,-5.159127022556131,-5.308118596635788
11.78,5.491671611343247,-5.2633951150024965,-5.227117123692397
11.790000000000006,5.541493353863224,-5.404856918189671,-5.149295620369215
11.799999999999995,5.500786684040549,-5.5299380994490654,-5.037154384618728
11.810000000000002,5.395496205361558,-5.588307980593382,-4.863986700781349
11.820000000000007,5.243623768356217,-5.601741926658623,-4.658704970734495
11.829999999999998,5.221280014506562,-5.529881385895169,-4.444258985216468
11.840000000000003,5.269491651265057,-5.4207658248589645,-4.1866380203259
11.850000000000009,5.2451402667959535,-5.333717700780412,-3.923955015021096
11.86,5.0902191077687045,-5.295986820575314,-3.644042970882556
11.870000000000005,4.889804680121515,-5.295128389032151,-3.3585185682551746
11.879999999999995,4.723584218179918,-5.303307561183563,-3.0427264945124644
11.89,4.611545226053901,-5.277673993712019,-2.704762217913607
11.900000000000006,4.589822631387386,-5.198947471154537,-2.381904127706606
11.909999999999997,4.61617719450854,-5.056316018729135,-2.137894088787529
11.920000000000002,4.679134135463121,-4.874132738551354,-1.950954006324557
11.930000000000009,4.759812158394765,-4.659054157497677,-1.7998897948430563
11.939999999999998,4.828346424684978,-4.431603210533635,-1.6518746405297515
11.950000000000005,4.859215541577405,-4.145122607745715,-1.4727536670167614
11.960000000000008,4.877944875842109,-3.8298139163056506,-1.255059413328763
11.97,4.852940874591578,-3.4939107031374865,-1.037665000593859
11.980000000000004,4.72885884876152,-3.1190122664235727,-0.8315630895843994
11.990000000000007,4.5129004639957,-2.704977442884224,-0.6401733993818876
12.0,4.280200375929453,-2.26176895245618,-0.4754487822373623
12.010000000000003,3.996051562501275,-1.7768211994907142,-0.3327191303474677
12.019999999999996,3.6892146940499626,-1.2453687588891835,-0.1637656196700934
12.03,3.368316757289193,-0.645600673940774,0.0129622802102134
12.040000000000006,3.0391660228262407,0.0376963824486433,0.2199524797531117
12.049999999999995,2.599988291406447,0.7161868465159964,0.4252301965920083
12.060000000000002,2.107765688169575,1.4152473378170032,0.666715762886459
12.070000000000007,1.626741831021546,2.164769516691005,0.9070161889134856
12.079999999999998,1.2310472773712149,2.951773432469777,1.1922014809356771
12.090000000000003,0.91733959573886,3.7676273104019513,1.5260426199764028
12.100000000000009,0.6431602080208093,4.581120638995427,1.8204759908047117
12.11,0.3472994750013302,5.314134039714729,2.0357239989249925
12.120000000000005,0.0019187891271487,5.962402048321855,2.139294116649121
12.129999999999995,-0.3206381534610389,6.536172427902156,2.2111472089055373
12.14,-0.5502173392421197,7.055199741701234,2.236316600953746
12.150000000000006,-0.712657270160941,7.512252668841461,2.2193696482238785
12.159999999999997,-0.7644252233025167,7.9142379103293345,2.1396025197865054
12.170000000000002,-0.7748672688053558,8.300064308441671,2.008948964052074
12.180000000000009,-0.7541132765403704,8.607385614230385,1.8478164373215669
12.189999999999998,-0.7360133704146458,8.867343902614659,1.6447331887709922
12.200000000000005,-0.7746190111330282,9.071451418791964,1.4065565120395924
12.210000000000008,-0.8397018236395496,9.169516045429775,1.171418762020929
12.22,-0.9708802210939526,9.206796031685812,0.9150684227910278
12.230000000000004,-1.1434971466586126,9.181759054431945,0.6261753591245802
12.240000000000007,-1.3175642975609638,9.12130573548322,0.3710727921592889
12.25,-1.524862427802114,9.046157382515494,0.1467684116234985
12.260000000000003,-1.7122729410566788,8.957302469445445,-0.0211687548782485
12.269999999999996,-1.932516503531628,8.80723379216018,-0.1390741722737898
12.28,-2.161751567836095,8.657387912196603,-0.2334290744357176
12.290000000000006,-2.4266855456141787,8.435338767380994,-0.319883855167197
12.299999999999995,-2.71612613122703,8.208179057648293,-0.4021544026017604
12.310000000000002,-3.0403594334113517,7.929382489370992,-0.5375743075621855
12.320000000000007,-3.381101803052201,7.622915836006925,-0.6853654954130491
12.329999999999998,-3.7509136350151193,7.317275013607015,-0.8626591809629776
12.340000000000003,-4.129410133400138,6.960934676356944,-1.027778960942042
12.350000000000009,-4.441346896967815,6.556547632360486,-1.1871438890915371
12.36,-4.745201074774769,6.131344177670893,-1.3085507285790303
12.370000000000005,-4.968016322225656,5.664772656101271,-1.4010225245678405
12.379999999999995,-5.120335714285814,5.159342592206726,-1.4872104251056828
12.39,-5.218599916852072,4.674387714725401,-1.5867455489622737
12.400000000000006,-5.24593630679334,4.168914069966766,-1.7114679742900216
12.409999999999997,-5.208944394595149,3.7388516832622183,-1.8297823656513288
12.420000000000002,-5.0317773580640806,3.288218712609351,-1.9346539144594848
12.430000000000009,-4.785589676329229,2.766223534643613,-2.0337246730940435
12.439999999999998,-4.433217505981109,2.2182038722196995,-2.1391788902736133
12.450000000000005,-3.998572724732823,1.639676261831598,-2.275739263659413
12.460000000000008,-3.5528728865793573,0.9926717676561048,-2.4501360044331446
12.47,-3.0171085452783863,0.3820617645471201,-2.6343254796938385
12.480000000000004,-2.448356270635973,-0.2525782363890742,-2.80013407214997
12.490000000000007,-1.8551274928008163,-0.887463349705512,-2.9567032331378447
12.5,-1.2194438190987358,-1.4755850416653935,-3.048800466622263
12.510000000000003,-0.5555018388880822,-2.023596724022952,-3.1052326078899104
12.519999999999996,0.1614328873326493,-2.5279555393109785,-3.1712669140505536
12.53,0.8799698527620027,-3.013764130320223,-3.2488600768590694
12.540000000000006,1.629297148337188,-3.479621075927674,-3.349637461187503
12.549999999999995,2.3452390752565524,-3.9257314867060855,-3.468084508397711
12.560000000000002,3.0516648056460904,-4.351314713157352,-3.5933199857239004
12.570000000000007,3.7276967173582554,-4.756888544994325,-3.743940838941524
12.579999999999998,4.37291014256583,-5.105996461664385,-3.90496956601372
12.590000000000003,4.984360667387025,-5.438771257806847,-4.024713273563149
12.600000000000009,5.596846426205042,-5.6729638999656125,-4.054855180828005
12.61,6.231166467328748,-5.824076286873953,-4.062614955625265
12.620000000000005,6.745489563372703,-5.983680014240902,-3.9703950942112183
12.629999999999995,7.241027239370767,-6.073283462135724,-3.829536864779148
12.64,7.625746173656362,-6.138695903757216,-3.627425517649137
12.650000000000006,7.94092308568741,-6.17144537950412,-3.37032167279282
12.659999999999997,8.2204131730342,-6.161583984766459,-3.07073609755912
12.670000000000002,8.42856603968738,-6.073718616061244,-2.711537012998648
12.680000000000009,8.603218839194284,-6.015730608631166,-2.294063338991674
12.689999999999998,8.72312906428451,-5.915828375177692,-1.8351742420498072
12.700000000000005,8.765176512436229,-5.765363794457762,-1.3605546311729373
12.710000000000008,8.71964863164569,-5.595487153306199,-0.8987080299805621
12.72,8.578627760082265,-5.419275159305416,-0.4244629622767599
12.730000000000004,8.282914389542912,-5.236003462715261,0.0527322173933817
12.740000000000007,7.813056427922219,-5.01429231123781,0.5472979539529583
12.75,7.078486035969017,-4.787516759383011,1.0055547492980983
12.760000000000003,6.066226499722452,-4.532983028635209,1.385155084033777
12.769999999999996,4.906088260539655,-4.264856062791176,1.6732239564303315
12.78,3.687164966024953,-4.032810604524997,1.8392860902148749
12.790000000000006,2.514922787470704,-3.7952838227662458,1.8969138213654195
12.799999999999995,1.4986758119602963,-3.552237720602041,1.913888567922721
12.810000000000002,0.7156272312133525,-3.2808156215809894,1.8729595736118527
12.820000000000007,0.1023407596323994,-2.934970561949532,1.7885383186815165
12.829999999999998,-0.3732345803140495,-2.5629070776471496,1.7199698873774778
12.840000000000003,-0.7852687744745198,-2.132891282080856,1.617047514365083
12.850000000000009,-1.115818000756046,-1.6347072644491352,1.5563124917447355
12.86,-1.4278047304164545,-1.095976051789974,1.4757269049312638
12.870000000000005,-1.609529943344497,-0.5256319947316972,1.3753895485435372
12.879999999999995,-1.6569298656575164,0.0353255256689518,1.279527767027427
12.89,-1.6294306918647683,0.5791579613127603,1.2011120550655787
12.900000000000006,-1.5498100523587417,1.0567986284288176,1.1339018377179253
12.909999999999997,-1.52574387549197,1.5084777966264873,1.04143813533512
12.920000000000002,-1.5594181993731482,1.925735361891744,0.953636028414832
12.930000000000009,-1.5872268527957272,2.270209920796272,0.8730329096814654
12.939999999999998,-1.6146686359514968,2.5337456142784225,0.8380053560105172
12.950000000000005,-1.6616816070152878,2.6974235607109067,0.7991374850814452
12.960000000000008,-1.7101789098478457,2.776985606956146,0.7718330462259039
12.97,-1.7843890675527687,2.776464165474437,0.7277282237208538
12.980000000000004,-1.8925832560887663,2.7793539581232745,0.6806729260980093
12.990000000000007,-2.0226790501795926,2.745159830418205,0.5812067989998099
13.0,-2.1557238531967875,2.687824804545975,0.5288036313560351
13.010000000000003,-2.24841934687347,2.602901978154449,0.4614470422729383
13.019999999999996,-2.2847163430837467,2.51870908185325,0.4003737649467618
13.03,-2.2676367879804453,2.4742311792814946,0.3635806886345032
13.040000000000006,-2.250115476422336,2.449225295738702,0.320722459554993
13.049999999999995,-2.193476334034017,2.4548816464781447,0.272630503979183
13.060000000000002,-2.106563079883737,2.476563088445669,0.2375594763362568
13.070000000000007,-1.9997675383554023,2.4945454981951998,0.2177484125914753
13.079999999999998,-1.88576547472698,2.518466019035804,0.1946325069538252
13.090000000000003,-1.745892716272771,2.5329526094208963,0.1601841670089933
13.100000000000009,-1.6093883799902609,2.5240085567922668,0.1478730550706301
13.11,-1.5060305208259854,2.545739680988709,0.1299171966254603
13.120000000000005,-1.370716382134575,2.5500567136471517,0.1375997380300044
13.129999999999995,-1.2735681967728818,2.5485835646710027,0.1503442321371854
13.14,-1.2120469180906064,2.538618639153915,0.1793094521046471
13.150000000000006,-1.1425850568836,2.491094907367723,0.2249952160596167
13.159999999999997,-1.1145324114346506,2.412061268952291,0.2513421285858244
13.170000000000002,-1.0879392764170106,2.300354836472377,0.3168225141566099
13.180000000000009,-1.0469136380252286,2.1792245105399424,0.3687901179794039
13.189999999999998,-0.949817257592126,2.044575474999266,0.4415180437113126
13.200000000000005,-0.8372363963696918,1.9132623794222328,0.4880902239291221
13.210000000000008,-0.7023321428363302,1.7736062030839022,0.5404851432106645
13.22,-0.5296159220402227,1.614642312439947,0.5886721928586387
13.230000000000004,-0.3277471031157572,1.458194557026988,0.603072643522501
13.240000000000007,-0.1237654749208164,1.2817563784594062,0.6249803591032478
13.25,0.0890758189979151,1.0836676301085963,0.6046147685590658
13.260000000000003,0.2707794592310351,0.890078813285537,0.5940471413079736
13.269999999999996,0.437539823427437,0.694975563574497,0.5613948382941767
13.28,0.5587833933579396,0.5297013625572699,0.5420687415454334
13.290000000000006,0.6712919481830969,0.4067175602546841,0.4884737650284141
13.299999999999995,0.7752547954498387,0.2603971189289218,0.4344492201984807
13.310000000000002,0.851227898752009,0.1433166693248296,0.3780820908490855
13.320000000000007,0.899322751841816,0.0218528616667091,0.3259292934957531
13.329999999999998,0.9398873316369964,-0.0703442463792719,0.2894834014640216
13.340000000000003,0.9705821904048388,-0.1710733206067069,0.2632540151273552
13.350000000000009,0.9980122902796704,-0.2436376968893084,0.2242577564294139
13.36,0.9775678534961676,-0.3104831371622544,0.1862642167869604
13.370000000000005,0.9342506494605428,-0.3628704273448376,0.1772676886840479
13.379999999999995,0.9024677100517688,-0.4108776703611522,0.1711882031682342
13.39,0.8339330833377666,-0.4575855717824688,0.1658168425611192
13.400000000000006,0.7354189927408935,-0.480265994737904,0.1584519671578596
13.409999999999997,0.6499143370787129,-0.534625607476367,0.1451683655722654
13.420000000000002,0.5368249687127576,-0.5577638289064688,0.1223708524244673
13.430000000000009,0.4074809899923359,-0.5702371026755866,0.1222888513677099
13.439999999999998,0.3093366290725479,-0.581141326496521,0.1163851621341516
13.450000000000005,0.1794551648976244,-0.5892351654102695,0.1003579642305603
13.460000000000008,0.0782013398537493,-0.5782451007876591,0.0874562144970195
13.47,-0.0465290233113231,-0.577604241401887,0.0869111508755254
13.480000000000004,-0.155363791127216,-0.5638041164789265,0.0772844102124417
13.490000000000007,-0.2759819721122937,-0.5413311263138173,0.0723153930476206
13.5,-0.4036552643499212,-0.5164578451526497,0.063647463615327
13.510000000000003,-0.4933744561309096,-0.4691088824159581,0.0471605899367269
13.519999999999996,-0.5844665761453176,-0.4430745715888263,0.057573593850119
13.53,-0.6448105065427706,-0.413334878584602,0.0656148202802892
13.540000000000006,-0.7073763387392829,-0.3766270264935059,0.0864673705946479
13.549999999999995,-0.7221637275160571,-0.3435622979226559,0.0805948738253476
13.560000000000002,-0.7239632744166633,-0.3000375059951647,0.0926485363189305
13.570000000000007,-0.7296066975450249,-0.27324843590588,0.1050310816201872
13.579999999999998,-0.7301212757468483,-0.2404878419273702,0.1304599325234187
13.590000000000003,-0.7315098258538241,-0.2000308914077289,0.1474159501428833
13.600000000000009,-0.6938398996442059,-0.1505924610379138,0.1405741885131138
13.61,-0.6598077178919151,-0.1250575300593417,0.157556440482607
13.620000000000005,-0.6246849808435908,-0.0984222006083294,0.1604723340901982
13.629999999999995,-0.5918353784551761,-0.0521380351805894,0.150994277061121
13.64,-0.5577242367858227,-0.0234189074954972,0.1550236150238906
13.650000000000006,-0.5313494511289807,-0.0204089745053274,0.1647938269979713
13.659999999999997,-0.4728516766833793,-0.0002770450696697,0.1667031213593912
13.670000000000002,-0.4349361481619353,-0.0013424295075001,0.1606711487941087
13.680000000000009,-0.3789090744588154,-0.0038974260851554,0.1482126821364245
13.689999999999998,-0.3438264959904696,0.0023588889824193,0.1321750313000204
13.700000000000005,-0.329481116201353,-0.0026500028338025,0.1220970583732001
13.710000000000008,-0.2922080573539917,-0.0090352856660334,0.1207751868948347
13.72,-0.2509978029988599,-0.0028210426532378,0.0752520699366647
13.730000000000004,-0.1931602526140976,-0.0204611299327233,0.0612560318245011
13.740000000000007,-0.1552147320997231,-0.0237362749874872,0.0608255415129953
13.75,-0.1381915231029067,-0.0311628792031714,0.0340897322059022
13.760000000000003,-0.0881156492179141,-0.0308695276737514,0.0171426433047118
13.769999999999996,-0.0692263438252851,-0.0318384186157581,0.0100324139900458
13.78,-0.053672394802641,-0.0479100226115605,-0.0108654818631304
13.790000000000006,-0.0400657231877565,-0.0685267151994597,-0.0106773788175412
13.799999999999995,-0.0378089712953313,-0.0542552010208212,-0.0281120242506668
13.810000000000002,-0.0160040715530624,-0.0489544026630709,-0.052641533774396
13.820000000000007,-0.0053051380653224,-0.0631691755635457,-0.0526982243760166
13.829999999999998,0.0104695764455479,-0.0744485213156698,-0.0545701768042889
13.840000000000003,-0.0007479146779026,-0.0632835795445687,-0.0626622202450699
13.850000000000009,0.0110838560765454,-0.0410049680157604,-0.0651292646124277
13.86,0.027511794821198,-0.0567140248650273,-0.0535510543824993
13.870000000000005,0.0065002976401456,-0.0511955471196579,-0.0510752163149986
13.879999999999995,0.013793779590494,-0.0338713525058086,-0.0468371965256058
13.89,0.022848137034021,-0.0283503293288732,-0.0313623169710028
13.900000000000006,0.022265511863445,-0.0216489738393156,-0.0396797869908268
13.909999999999997,0.0087060187717619,-0.0115814382645721,-0.0415524457604514
13.920000000000002,0.0055644770005659,0.001426884704607,-0.027740578959421
13.930000000000009,-0.0132048071802648,0.01210854943588,-0.0251686122603887
13.939999999999998,-0.043500508164027,0.0158638711032464,-0.0049758539779741
13.950000000000005,-0.0591574126126702,0.0222028976198207,0.0123305978358022
13.960000000000008,-0.0872200291904255,0.0303409890139694,0.0177118798916024
13.97,-0.1192873523810487,0.0374395443710242,0.028180154882608
13.980000000000004,-0.1434695402297425,0.0506161572832475,0.0409083366456526
13.990000000000007,-0.1628209555760773,0.0598990790396554,0.0435789541509068
14.0,-0.183927623795933,0.0684677902468881,0.0379173136543327
14.010000000000003,-0.2042638214042439,0.0640371034402819,0.0343040639369975
14.019999999999996,-0.195815666720395,0.067989815214531,0.0475330528012279
14.03,-0.180804265443247,0.0798542532970714,0.0484099676770148
14.040000000000006,-0.1769538230157881,0.0995709221955335,0.0607809398472938
14.049999999999995,-0.1818993814963687,0.0886584303469067,0.0487214101208438
14.060000000000002,-0.1775231231371178,0.102150214355565,0.0616196105911306
14.070000000000007,-0.1735063650302344,0.111219903582886,0.0720796690394717
14.079999999999998,-0.1680684814949405,0.1080667387155065,0.0482295251048723
14.090000000000003,-0.1501546653035618,0.10063732899605,0.0496831549526181
14.100000000000009,-0.1341886173177132,0.1152216538880033,0.0392778396644964
14.11,-0.1269825103758717,0.11101165906443,0.034426656730424
14.120000000000005,-0.1090017481989593,0.1101219893837862,0.0206519317655171
14.129999999999995,-0.1000920011460858,0.1161964268041417,0.0111997395035404
14.14,-0.087492803466202,0.0946171962495708,0.012651617668935
14.150000000000006,-0.0813381604904181,0.1110327943690856,0.0074877552398296
14.159999999999997,-0.0820360266514283,0.1015488693934878,0.0020645024359209
14.170000000000002,-0.0625116357377244,0.0972393012375546,0.0011806269941354
14.180000000000009,-0.0607757868186422,0.094693207350232,0.0055508979486955
14.189999999999998,-0.0446808519848723,0.0886734060944439,0.0019149899467346
14.200000000000005,-0.0287403851464419,0.0826718875881401,-0.0016158272606981
14.210000000000008,-0.0098518528496095,0.0680699036949365,-0.0036157780121067
14.22,-0.0057492897330973,0.0654591873620802,0.0018953622604752
14.230000000000004,0.0219262382699025,0.0734686545347698,0.0066679739149857
14.240000000000007,0.0241997976081967,0.0612240852108753,0.0070754396637041
14.25,0.0160532477599137,0.0544115541007794,-0.0039051087644541
14.260000000000003,0.0063822447930332,0.06028029471544,0.0055350652205181
14.269999999999996,-0.0299577694852494,0.0412954725486596,-0.0027513285875091
14.28,-0.0227048855193903,0.053210073027158,-0.0100126009179496
14.290000000000006,-0.0213410110164431,0.058719593972279,0.0112174178060363
14.299999999999995,-0.0345676625102411,0.0480421471981898,0.0060423795663135
14.310000000000002,-0.0284088284531077,0.0413712670034112,0.0173994300792852
14.320000000000007,-0.0330006191702263,0.0532945884313834,0.0149320346082001
14.329999999999998,-0.0343199411101519,0.0404141786870809,-0.0002503994207613
14.340000000000003,-0.0292153640073087,0.0533174541215951,-0.002649405082708
14.350000000000009,-0.0580847579159305,0.0445750666835276,-0.0142850184884273
14.36,-0.0485511332430769,0.0359817301450238,-0.0085819691960396
14.370000000000005,-0.0688176220517816,0.0444819428428881,-0.0107489847731395
14.379999999999995,-0.0625490398425931,0.0550345811670178,-0.0261203909518449
14.39,-0.0686176313629868,0.0521264075580956,-0.0284633630230865
14.400000000000006,-0.0949942740569527,0.0480146682402573,-0.0399921822888678
14.409999999999997,-0.0969659725412869,0.0371957451356299,-0.0247142382516338
14.420000000000002,-0.0939471639312105,0.0195642161063388,-0.0337223470717707
14.430000000000009,-0.1120051288658469,0.0292336690191699,-0.0272359330946426
14.439999999999998,-0.1008677914795186,0.0265407953050604,-0.0425270053768755
14.450000000000005,-0.1003746472905873,0.0274422392708685,-0.0387519144824299
14.460000000000008,-0.0983337252086003,0.0301164196957068,-0.0302566421489985
14.47,-0.0860987561347781,0.0256867289321147,-0.0476599635821417
14.480000000000004,-0.1111498244594496,0.0300882014337999,-0.0584195390287358
14.490000000000007,-0.0897905272868694,0.0342812903864654,-0.0431746638547935
14.5,-0.0778446570930446,0.0138883973504278,-0.0260329184464483
14.510000000000003,-0.0634682761103702,0.0257252753418394,-0.0212269703408168
14.519999999999996,-0.0621949816841916,0.0278502121203834,-0.0095038617882222
14.53,-0.0493251271359569,0.0223035406281773,-0.0133201773362892
14.540000000000006,-0.0339677177977178,0.0262598783684458,-0.0027109513393321
14.549999999999995,-0.0247634309449773,0.0207133047342423,0.0068979241874333
14.560000000000002,-0.0235247865085667,0.0159797870642954,0.0086252103296099
14.570000000000007,-0.0197088103238894,0.0138664313189924,0.0299036453885442
14.579999999999998,-0.0147555063654416,0.0142856062098608,0.0111290331868808
14.590000000000003,-0.0176054000915569,0.015516380026357,0.0141013565910847
14.600000000000009,-0.0274566262835979,0.0194614173051094,0.0234353897890106
14.61,-0.045057867553097,0.0119203125905714,0.0214419120557584
14.620000000000005,-0.0320558083988655,0.0108632470875231,0.0304605425571305
14.629999999999995,-0.0444312226186191,0.0162897256474885,0.0427092212530346
14.64,-0.0420068827792152,0.0057169443746488,0.0392688579810114
14.650000000000006,-0.0367741540517329,0.0014652079490181,0.0145449541010903
14.659999999999997,-0.0462283739867633,-0.0011959089696033,0.0251092771594765
14.670000000000002,-0.0385793797268595,-0.0176423766265213,0.0270439496272646
14.680000000000009,-0.0274916809729979,-0.0036859482698085,0.0160921311559375
14.689999999999998,-0.0296767477352479,-0.0021338888707487,0.0234804004103516
14.700000000000005,-0.0186670374477035,-0.0113421959774449,0.019500832598227
14.710000000000008,-0.0164846730018693,-0.0004251632722859,0.0287351094704286
14.72,-0.0171004720007324,-0.0094734681975754,0.0326508785010291
14.730000000000004,-0.041359080091531,-0.0179049968220571,0.0360586051664533
14.740000000000007,-0.0311510725147641,-0.0077330809040167,0.026534000151232
14.75,-0.0368936660637762,-0.0093337054272637,0.0254192241609811
14.760000000000003,-0.0490167068197989,-0.0111599613995654,0.0425076126766352
14.769999999999996,-0.0527777161157332,-0.0051650965026216,0.0131677488634869
14.78,-0.0432477660615927,-0.006838152106302,0.0168437805535354
14.790000000000006,-0.0173896319678988,0.0027032656988075,0.0085001251422379
14.799999999999995,-0.0183677749645303,-0.0006602813218495,0.0175514008849945
14.810000000000002,-0.0204841923836829,0.0165965464835775,0.025215127175111
14.820000000000007,-0.0085296980863486,0.0028481879686035,0.0192878577692484
14.829999999999998,-0.0127746653187746,0.0183945105140149,0.0330240203169885
14.840000000000003,-0.0042133190864252,0.0149763642768594,0.0316139969536652
14.850000000000009,-0.0038179249882955,0.0149687778802237,0.019681357330551
14.86,-0.0127514609278979,0.0113977225202874,0.0202978696162099
14.870000000000005,0.0102723317145496,0.0081519691254209,0.0212556299515751
14.879999999999995,0.006898333618783,0.0165670144318605,0.0158081838790113
14.89,-0.0065718265261585,0.0063825254913912,0.0151097933236351
14.900000000000006,0.0055573700780194,-0.0008772005322876,7.394360667781455e-05
14.909999999999997,-0.0026487367240731,0.0046680451914202,-0.0158930601223582
14.920000000000002,0.0074401527668805,-0.0130801344588998,0.0019460043168627
14.930000000000009,0.0104644373843886,-0.0090096833461333,-0.003684752661916
14.939999999999998,0.0201469699688996,-0.0044964333956391,-0.0157305849275355
14.950000000000005,0.0440860923398543,-0.0192018326499083,0.0004406059261395
14.960000000000008,0.0183787399899106,-0.0080175962324546,-0.0121058270964262
14.97,0.0549133941674015,-0.0191540576222278,-0.0138341895324098
14.980000000000004,0.0697386788481676,-0.0217020499571703,-0.0035480132279616
14.990000000000007,0.0479846417329293,-0.0148545561286143,-0.0270692532835951
15.0,0.0525075000854054,-0.0236212808292575,-0.0369234987098351
15.010000000000003,0.0443343330915169,-0.0278077245629591,-0.0164340958139311
15.019999999999996,0.0380319890607029,-0.0253674952918867,-0.0191595602005532
15.03,0.0488538542003812,-0.0321265321736408,-0.0199593489678605
15.040000000000006,0.0414894085514007,-0.0218811844001342,-0.017485269395519
15.049999999999995,0.0514573176079782,-0.0122320880674356,-0.0217572795648695
15.060000000000002,0.0397113453882509,-0.023592474280953,-0.019293788229087
15.070000000000007,0.0370624116140435,-0.017442473574152,-0.0030364735198346
15.079999999999998,0.0448170699684818,-0.0105425452610985,-0.0132641563119592
15.090000000000003,0.0300283307784188,-0.0001941320148537,-0.0108829089419989
15.100000000000009,0.022692831858934,-0.0045528238593508,-0.0203118799712437
15.11,0.0124382397184777,-0.0106896245990544,-0.0141529549620073
15.120000000000005,0.0049505424911157,-0.0080717295251654,-0.0211729082534251
15.129999999999995,-0.013203567478253,-0.0073258789045232,-0.0191890714046895
15.14,-0.001224629568725,-0.0107008675669197,-0.0247366039120123
15.150000000000006,0.0164336796054228,-0.0176469285162713,-0.0404217593443071
15.159999999999997,0.0128907382304592,-0.0045901994682948,-0.0249196181065324
15.170000000000002,0.008005094857871,0.0118519629440705,-0.0200286773735192
