time,Gyr_X,Gyr_Y,Gyr_Z
0.0,0.001631,0.026667,-0.000401
0.009999999999998,0.001549,0.022351,0.006658
0.0200000000000031,-0.005478,0.010196,0.006714
0.0300000000000011,-0.010053,0.019708,0.013767
0.0399999999999991,-0.007206,0.015355,0.003164
0.0499999999999971,-0.003453,0.010145,-0.009203
0.0600000000000022,-0.007489,0.032705,0.015468
0.0700000000000002,-0.00636,0.006739,0.00848
0.0799999999999983,-0.005597,0.018873,0.01198
0.0899999999999963,0.005058,0.005082,0.014601
0.1000000000000014,0.000139,0.010183,-0.012703
0.1099999999999994,-0.012693,0.023179,0.010284
0.1199999999999974,0.006897,0.020631,0.004856
0.1300000000000025,-0.008908,0.017088,-0.002958
0.1400000000000005,-0.019598,0.020514,-0.00025
0.1499999999999985,-0.006156,0.001516,-0.00383
0.1599999999999966,-0.005486,0.006745,0.008491
0.1700000000000017,-0.005657,0.015422,0.017289
0.1799999999999997,-0.000192,0.017144,0.006656
0.1899999999999977,-0.014214,0.004968,0.000615
0.2000000000000028,0.008663,0.01891,0.006592
0.2100000000000008,0.005882,0.022373,0.013651
0.2199999999999988,-0.003824,0.013684,0.013746
0.2299999999999968,-0.013592,0.013642,0.01557
0.240000000000002,-0.010033,0.005011,0.017338
0.25,-0.005665,0.027522,0.013735
0.259999999999998,-0.007246,0.010199,0.006744
0.2700000000000031,0.001502,0.009392,0.013742
0.2800000000000011,-0.010889,0.011945,0.012065
0.2899999999999991,-0.012612,0.018843,0.006763
0.2999999999999971,-0.003726,0.018866,0.004929
0.3100000000000023,-0.005438,0.022297,0.000512
0.3200000000000003,-0.002828,0.01885,0.0049
0.3299999999999983,-0.0108,0.025734,0.003176
0.3399999999999963,-0.0143,0.00929,0.005017
0.3500000000000014,0.001574,0.017151,0.006658
0.3599999999999994,-0.008879,-0.001928,0.000617
0.3699999999999974,-0.015985,0.004972,-0.000219
0.3800000000000025,-0.012499,0.00154,0.005059
0.3900000000000005,1.1e-05,0.005024,-0.002978
0.3999999999999986,-0.005254,0.006711,-0.006497
0.4099999999999966,-0.003527,0.013607,-0.003924
0.4200000000000017,-0.019619,0.015285,0.004975
0.4299999999999997,-0.014537,0.032652,0.011942
0.4399999999999977,-0.009265,0.020593,0.019008
0.4500000000000028,-0.004014,0.023228,0.022527
0.4600000000000008,-0.003771,0.007622,0.015537
0.4699999999999988,-0.012729,0.011917,0.020872
0.4799999999999969,-0.01627,0.009297,0.019105
0.490000000000002,-0.01834,0.022317,0.033198
0.5,-0.016515,0.018877,0.027915
0.509999999999998,0.008288,0.018993,0.028664
0.5200000000000031,-0.002002,0.009399,0.012043
0.5300000000000011,0.00056,0.018921,0.015522
0.5399999999999991,-0.007432,0.015411,0.0182
0.5499999999999972,-0.003708,0.018816,0.004885
0.5600000000000023,-0.002095,0.002404,0.020752
0.5700000000000003,-0.020114,0.023143,0.036705
0.5799999999999983,-0.016509,0.027514,0.031423
0.5899999999999963,-0.009614,0.022366,0.045429
0.6000000000000014,-0.010182,0.019041,0.080717
0.6099999999999994,0.003773,0.015691,0.096548
0.6199999999999974,-0.005136,0.012189,0.10368
0.6300000000000026,0.009132,0.012183,0.101788
0.6400000000000006,-0.008783,0.019064,0.110728
0.6499999999999986,-0.008931,0.026882,0.115986
0.6599999999999966,-0.019718,0.02949,0.123126
0.6700000000000017,-0.008242,0.029557,0.12307
0.6799999999999997,-0.001816,0.01398,0.114274
0.6899999999999977,-0.003485,0.016561,0.108995
0.7000000000000028,-0.019338,0.013919,0.105613
0.7100000000000009,-0.00334,0.020937,0.096725
0.7199999999999989,-0.003107,0.017391,0.087902
0.7299999999999969,-0.017283,0.010299,0.093144
0.740000000000002,-0.016016,0.013002,0.117784
0.75,-0.019008,0.017425,0.135501
0.759999999999998,-0.004839,0.020954,0.134542
0.7700000000000031,-0.014347,0.007015,0.12668
0.7800000000000011,-0.011847,0.009643,0.135471
0.7899999999999991,0.004984,0.014004,0.135333
0.7999999999999972,-0.021832,0.020865,0.147855
0.8100000000000023,0.004901,0.027859,0.137068
0.8200000000000003,-0.024999,0.019067,0.12673
0.8299999999999983,-0.015245,0.019111,0.124926
0.8399999999999963,-0.028554,0.012124,0.128572
0.8500000000000014,-0.060933,0.032886,0.15175
0.8599999999999994,-0.059113,0.027739,0.148282
0.8699999999999974,-0.073043,0.018994,0.134266
0.8800000000000026,-0.080001,0.012008,0.12898
0.8900000000000006,-0.083277,0.015362,0.113952
0.8999999999999986,-0.099634,0.013449,0.08581
0.9099999999999966,-0.105948,0.02901,0.088489
0.9200000000000016,-0.120189,0.028998,0.092172
0.9299999999999996,-0.130967,0.025586,0.09937
0.9399999999999976,-0.127453,0.020453,0.099371
0.9500000000000028,-0.143726,0.026512,0.117087
0.9600000000000009,-0.127319,0.016955,0.090502
0.9699999999999988,-0.138924,0.011726,0.101191
0.9799999999999968,-0.148293,0.0116,0.079189
0.990000000000002,-0.149943,0.008949,0.071215
1.0,-0.152502,0.02189,0.063272
1.009999999999998,-0.164269,0.020172,0.081921
1.0200000000000031,-0.178519,0.021007,0.089103
1.0300000000000011,-0.164099,0.028802,0.067796
1.0399999999999991,-0.187155,0.035657,0.063515
1.0499999999999972,-0.178059,0.043462,0.047622
1.0600000000000025,-0.190362,0.027009,0.047823
1.0700000000000005,-0.208333,0.033044,0.061155
1.0799999999999983,-0.209922,0.02784,0.049709
1.0899999999999963,-0.213256,0.025173,0.034691
1.1000000000000014,-0.190188,0.03562,0.02918
1.1099999999999994,-0.216637,0.03724,0.023212
1.1199999999999974,-0.170693,0.030511,0.032584
1.1300000000000026,-0.130722,0.034056,0.026936
1.1400000000000006,-0.108841,0.050612,0.039058
1.1499999999999986,-0.078629,0.056771,0.03177
1.1599999999999966,-0.079016,0.058575,0.059984
1.1700000000000017,-0.062879,0.074109,0.045694
1.1799999999999995,-0.078626,0.084385,0.029934
1.1899999999999975,-0.073063,0.070518,0.019348
1.2000000000000028,-0.055012,0.093037,-0.012556
1.2100000000000009,-0.027926,0.140851,-0.003948
1.2199999999999989,-0.01039,0.16433,-0.002299
1.2299999999999969,-0.039784,0.200465,-0.004051
1.240000000000002,-0.067598,0.216867,0.01376
1.25,-0.084787,0.228089,0.03855
1.259999999999998,-0.08183,0.26879,0.064843
1.2700000000000031,0.0173,0.237268,0.088208
1.2800000000000011,0.019991,0.282505,0.108363
1.2899999999999991,0.047549,0.293696,0.122232
1.2999999999999972,0.090637,0.311188,0.129715
1.3100000000000025,0.058453,0.325876,0.133477
1.3200000000000005,0.053266,0.344806,0.130845
1.3299999999999983,0.071656,0.369241,0.130755
1.3399999999999963,0.138374,0.395448,0.098528
1.3500000000000014,0.187757,0.437195,0.094571
1.3599999999999994,0.221977,0.466786,0.106663
1.3699999999999974,0.22995,0.449556,0.10843
1.3800000000000026,0.21604,0.425274,0.098047
1.3900000000000006,0.159079,0.383591,0.125835
1.3999999999999986,0.072334,0.343442,0.136197
1.4099999999999966,0.021461,0.296453,0.117214
1.4200000000000017,-0.024344,0.242606,0.121152
1.4299999999999995,-0.065672,0.214689,0.109112
1.4399999999999975,-0.074888,0.15582,0.091746
1.4500000000000028,-0.107418,0.118529,0.08508
1.4600000000000009,-0.134215,0.05782,0.062515
1.4699999999999989,-0.149543,0.003205,0.041612
1.4799999999999969,-0.151924,-0.046992,0.040879
1.490000000000002,-0.122178,-0.087621,0.022231
1.5,-0.098744,-0.123044,0.008045
1.509999999999998,-0.027314,-0.141889,-0.020614
1.5200000000000031,0.029735,-0.150401,-0.038638
1.5300000000000011,0.095544,-0.174459,-0.045275
1.5399999999999991,0.133688,-0.203753,-0.037556
1.5499999999999972,0.183113,-0.246764,-0.009554
1.5600000000000025,0.206781,-0.270839,0.013281
1.5700000000000005,0.25611,-0.275819,0.030531
1.5799999999999983,0.278828,-0.282635,0.051481
1.5899999999999963,0.315696,-0.275556,0.072321
1.6000000000000014,0.335303,-0.277255,0.066879
1.6099999999999994,0.363561,-0.270236,0.07283
1.6199999999999974,0.351274,-0.280692,0.070301
1.6300000000000026,0.363718,-0.287569,0.07026
1.6400000000000006,0.34732,-0.273738,0.096798
1.6499999999999986,0.334691,-0.287594,0.118963
1.6599999999999966,0.305588,-0.2599,0.158763
1.6700000000000017,0.302604,-0.246043,0.175455
1.6799999999999995,0.290436,-0.207939,0.203624
1.6899999999999975,0.262412,-0.199451,0.179093
1.7000000000000028,0.233959,-0.156323,0.173004
1.7100000000000009,0.233226,-0.111424,0.149963
1.7199999999999989,0.228554,-0.092398,0.160531
1.7299999999999969,0.203838,-0.083867,0.153646
1.740000000000002,0.179004,-0.06322,0.150245
1.75,0.182181,-0.044136,0.167809
1.759999999999998,0.181448,-0.018071,0.204771
1.7700000000000031,0.195448,0.020047,0.202798
1.7800000000000011,0.186241,0.054648,0.213331
1.7899999999999991,0.165755,0.080518,0.211619
1.7999999999999972,0.166772,0.110748,0.19389
1.8100000000000025,0.154332,0.121087,0.195739
1.8200000000000005,0.126026,0.12532,0.194217
1.8299999999999983,0.098126,0.10441,0.171575
1.8399999999999963,0.080154,0.08711,0.192923
1.8500000000000012,0.070956,0.085429,0.212394
1.8599999999999997,0.053135,0.09058,0.214274
1.8699999999999972,0.026385,0.090534,0.22329
1.8800000000000023,0.02104,0.097442,0.221537
1.8900000000000008,-0.014394,0.104245,0.218257
1.8999999999999984,-0.042389,0.114469,0.190225
1.9099999999999968,-0.07692,0.124724,0.184278
1.9200000000000017,-0.104368,0.141062,0.178276
1.93,-0.125258,0.127958,0.159062
1.9399999999999975,-0.120208,0.144465,0.170472
1.9500000000000028,-0.118937,0.158261,0.138708
1.9600000000000009,-0.093247,0.185181,0.127904
1.9699999999999989,-0.107479,0.193797,0.12711
1.9799999999999969,-0.109136,0.204146,0.114748
1.990000000000002,-0.114476,0.222272,0.109423
2.0,-0.156886,0.235048,0.099097
2.009999999999998,-0.147878,0.236778,0.091993
2.020000000000003,-0.145185,0.235067,0.092913
2.030000000000001,-0.16005,0.21425,0.089592
2.039999999999999,-0.114011,0.21273,0.092848
2.049999999999997,-0.089045,0.197265,0.086569
2.0600000000000023,-0.096985,0.181691,0.088437
2.0700000000000003,-0.072195,0.159318,0.095363
2.0799999999999983,-0.064164,0.152427,0.09356
2.0899999999999963,-0.035941,0.133539,0.106632
2.1000000000000014,-0.007241,0.116279,0.091477
2.1099999999999994,0.0166,0.093898,0.105483
2.119999999999997,0.0283,0.068851,0.098408
2.1300000000000026,0.02826,0.064575,0.096634
2.140000000000001,0.00393,0.043654,0.068591
2.1499999999999986,0.007467,0.05831,0.066703
2.1599999999999966,0.008093,0.048644,0.03319
2.1700000000000017,0.043229,0.02445,0.003907
2.18,0.058763,0.020987,-0.027913
2.1899999999999977,0.077266,-0.008285,-0.014707
2.200000000000003,0.078686,-0.031698,-0.044636
2.210000000000001,0.089551,-0.044681,-0.053533
2.219999999999999,0.079075,-0.075862,-0.05692
2.229999999999997,0.070397,-0.091511,-0.06213
2.240000000000002,0.079385,-0.108774,-0.07007
2.25,0.024456,-0.136615,-0.063398
2.259999999999998,-0.014341,-0.157528,-0.070108
2.270000000000003,-0.053539,-0.174927,-0.052165
2.280000000000001,-0.094339,-0.178545,-0.048377
2.289999999999999,-0.145619,-0.190862,-0.051547
2.299999999999997,-0.170442,-0.187479,-0.049638
2.3100000000000023,-0.192277,-0.208374,-0.067034
2.3200000000000003,-0.230149,-0.1948,-0.085443
2.3299999999999983,-0.255996,-0.205255,-0.066747
2.3399999999999963,-0.258269,-0.207056,-0.086074
2.3500000000000014,-0.25783,-0.213211,-0.107244
2.3599999999999994,-0.24349,-0.19504,-0.119739
2.369999999999997,-0.194589,-0.196619,-0.128891
2.3800000000000026,-0.16516,-0.180967,-0.146753
2.390000000000001,-0.129565,-0.161812,-0.164657
2.3999999999999986,-0.085064,-0.134,-0.187956
2.4099999999999966,-0.037372,-0.109585,-0.186563
2.4200000000000017,-0.013569,-0.093919,-0.184978
2.43,0.048587,-0.050338,-0.151994
2.4399999999999977,0.079053,-0.036313,-0.122258
2.450000000000003,0.070353,-0.020656,-0.079894
2.460000000000001,0.071255,-0.010112,-0.025214
2.469999999999999,0.052499,-0.013447,0.045516
2.479999999999997,0.041108,-0.00124,0.093227
2.490000000000002,0.040343,-0.008018,0.147081
2.5,0.044642,-0.000894,0.211451
2.509999999999998,0.059788,0.001044,0.26162
2.520000000000003,0.073988,0.00298,0.3153
2.530000000000001,0.100655,0.010119,0.362667
2.539999999999999,0.105047,0.037958,0.411929
2.549999999999997,0.142367,0.045056,0.462714
2.5600000000000023,0.149898,0.045982,0.489029
2.5700000000000003,0.140363,0.064219,0.518954
2.5799999999999983,0.125563,0.10057,0.54363
2.5899999999999963,0.077358,0.101294,0.566882
2.6000000000000014,0.019829,0.128025,0.613084
2.6099999999999994,-0.017682,0.139196,0.630989
2.619999999999997,-0.037533,0.14527,0.655864
2.6300000000000026,-0.045311,0.166132,0.699997
2.640000000000001,-0.056794,0.171283,0.697435
2.6499999999999986,-0.057968,0.18348,0.708918
2.6599999999999966,-0.056326,0.199097,0.71065
2.6700000000000017,-0.098736,0.203242,0.700356
2.68,-0.100843,0.207598,0.719743
2.6899999999999977,-0.08354,0.216374,0.744285
2.700000000000003,-0.112287,0.24054,0.763831
2.710000000000001,-0.090753,0.2442,0.804256
2.719999999999999,-0.088417,0.254668,0.821886
2.729999999999997,-0.066112,0.254021,0.869359
2.740000000000002,-0.088677,0.270439,0.890637
2.75,-0.107887,0.27048,0.929569
2.759999999999998,-0.09641,0.25843,0.935688
2.770000000000003,-0.129543,0.253172,0.961485
2.780000000000001,-0.131512,0.249722,0.976477
2.789999999999999,-0.1208,0.242806,0.975518
2.799999999999997,-0.1182,0.239371,0.982575
2.8100000000000023,-0.125095,0.223751,0.977385
2.8200000000000003,-0.106451,0.21343,0.979921
2.8299999999999983,-0.081244,0.177146,0.964852
2.8399999999999963,-0.074259,0.156438,0.977204
2.8500000000000014,-0.051005,0.126188,0.971776
2.8599999999999994,-0.042389,0.102959,0.994743
2.869999999999997,-0.061397,0.077748,0.972042
2.8800000000000026,-0.050342,0.050903,0.952612
2.890000000000001,-0.028804,0.012895,0.945495
2.8999999999999986,-0.019638,-0.002682,0.929597
2.9099999999999966,0.017873,-0.009499,0.911745
2.9200000000000017,0.047247,-0.031894,0.911626
2.93,0.085543,-0.050807,0.906138
2.9399999999999977,0.1488,-0.076553,0.88989
2.950000000000003,0.176143,-0.078151,0.895859
2.960000000000001,0.176155,-0.09197,0.895007
2.969999999999999,0.208055,-0.095312,0.891253
2.979999999999997,0.213221,-0.108236,0.900944
2.990000000000002,0.221208,-0.114261,0.898252
3.0,0.218345,-0.109066,0.90882
3.009999999999998,0.230679,-0.099523,0.910448
3.020000000000003,0.252553,-0.108939,0.931429
3.030000000000001,0.277333,-0.108865,0.934758
3.039999999999999,0.280397,-0.108083,0.910035
3.049999999999997,0.338995,-0.104451,0.901679
3.0600000000000023,0.365467,-0.103505,0.90763
3.0700000000000003,0.390265,-0.129373,0.914532
3.0799999999999983,0.384779,-0.136289,0.925144
3.0899999999999963,0.363339,-0.152764,0.939435
3.1000000000000014,0.309999,-0.169328,0.953985
3.1099999999999994,0.276229,-0.157307,0.954207
3.119999999999997,0.24767,-0.162535,0.966782
3.1300000000000026,0.223503,-0.147886,0.976604
3.140000000000001,0.227783,-0.114117,0.974737
3.1499999999999986,0.225876,-0.088098,0.973892
3.1599999999999966,0.248431,-0.036054,0.987728
3.1700000000000017,0.228744,-0.010138,0.993118
3.18,0.234184,0.01579,0.977125
3.1899999999999977,0.275637,0.048826,0.978492
3.200000000000003,0.276101,0.092123,0.990701
3.210000000000001,0.257928,0.138825,1.00394
3.219999999999999,0.238913,0.166512,1.019914
3.229999999999997,0.198494,0.201065,1.043087
3.240000000000002,0.177473,0.233981,1.074062
3.25,0.145985,0.244325,1.106027
3.259999999999998,0.15081,0.270331,1.13502
3.270000000000003,0.146959,0.306655,1.147288
3.280000000000001,0.164332,0.306747,1.173599
3.289999999999999,0.179321,0.324946,1.17431
3.299999999999997,0.174566,0.341403,1.191949
3.3100000000000023,0.165553,0.341381,1.203465
3.3200000000000003,0.165542,0.337891,1.207847
3.3299999999999983,0.157065,0.327365,1.18846
3.3399999999999963,0.10932,0.313282,1.186979
3.3500000000000014,0.089884,0.282915,1.192445
3.3599999999999994,0.055217,0.292331,1.19447
3.369999999999997,0.035594,0.282801,1.206188
3.3800000000000026,-0.004113,0.257558,1.209255
3.390000000000001,-0.024919,0.237488,1.193586
3.3999999999999986,-0.025897,0.21068,1.210389
3.4099999999999966,-0.026868,0.203757,1.216534
3.4200000000000017,-0.050437,0.202036,1.251974
3.43,-0.020606,0.164208,1.284617
3.4399999999999977,-0.025771,0.134858,1.28582
3.450000000000003,-0.05534,0.103607,1.261566
3.460000000000001,-0.081234,0.040271,1.238935
3.469999999999999,-0.09469,0.001103,1.203688
3.479999999999997,-0.125578,-0.057042,1.212711
3.490000000000002,-0.204287,-0.102376,1.218569
3.5,-0.305467,-0.152049,1.247566
3.509999999999998,-0.392813,-0.209374,1.304736
3.520000000000003,-0.454371,-0.265686,1.358282
3.530000000000001,-0.460715,-0.299325,1.38496
3.539999999999999,-0.421581,-0.3147,1.384794
3.549999999999997,-0.302259,-0.322946,1.348733
3.5600000000000023,-0.179962,-0.291498,1.275448
3.5700000000000003,-0.041671,-0.24795,1.194021
3.5799999999999983,0.049486,-0.211512,1.126995
3.5899999999999963,0.068206,-0.197853,1.054434
3.6000000000000014,0.033334,-0.180838,1.009629
3.61,-0.041932,-0.200325,0.953767
3.619999999999997,-0.094112,-0.210877,0.950702
3.6300000000000026,-0.142682,-0.210167,0.941426
3.640000000000001,-0.12612,-0.207573,0.900806
3.649999999999999,-0.095642,-0.190197,0.872357
3.6599999999999966,-0.050856,-0.171082,0.834948
3.6700000000000017,-0.03962,-0.157295,0.791625
3.68,-0.026513,-0.133998,0.737698
3.6899999999999977,-0.015228,-0.102937,0.682854
3.700000000000003,-0.00071,-0.075292,0.649135
3.710000000000001,0.005084,-0.060672,0.610236
3.719999999999999,0.013984,-0.03301,0.59596
3.729999999999997,-0.003552,0.001452,0.569513
3.740000000000002,0.001903,0.029119,0.550011
3.75,0.004228,0.052366,0.507614
3.759999999999998,-0.011637,0.065237,0.499759
3.770000000000003,-0.023918,0.084146,0.486547
3.780000000000001,-0.006703,0.113671,0.509262
3.789999999999999,0.010694,0.114652,0.52851
3.799999999999997,0.013858,0.14153,0.543394
3.8100000000000014,-0.007804,0.160518,0.563748
3.82,-0.036122,0.144808,0.56746
3.8299999999999983,-0.059623,0.172462,0.588718
3.839999999999996,-0.096671,0.177485,0.576627
3.8500000000000014,-0.121957,0.18079,0.548604
3.86,-0.099657,0.201614,0.53079
3.869999999999997,-0.101479,0.232772,0.522832
3.8800000000000026,-0.058461,0.253598,0.484567
3.890000000000001,-0.042305,0.279551,0.46323
3.899999999999999,-0.035067,0.307205,0.44371
3.9099999999999966,-0.028825,0.315878,0.436619
3.9200000000000017,-0.042297,0.328842,0.442878
3.93,-0.079597,0.33132,0.447552
3.9399999999999977,-0.088373,0.352013,0.436975
3.950000000000003,-0.098869,0.348484,0.43087
3.960000000000001,-0.098811,0.339807,0.431751
3.969999999999999,-0.10316,0.339776,0.428265
3.979999999999997,-0.112561,0.291287,0.423182
3.990000000000002,-0.121127,0.273935,0.410079
4.0,-0.113909,0.270506,0.400353
4.009999999999998,-0.089172,0.260251,0.407268
4.020000000000003,-0.07304,0.24125,0.401895
4.030000000000001,-0.04954,0.225691,0.376189
4.039999999999999,-0.024535,0.199829,0.370804
4.049999999999997,-0.016986,0.177306,0.347
4.060000000000002,-0.048804,0.140885,0.352613
4.07,-0.077379,0.154703,0.360751
4.079999999999998,-0.054912,0.124521,0.347486
4.089999999999996,-0.054004,0.13751,0.340414
4.100000000000001,-0.015063,0.141104,0.341873
4.109999999999999,0.033129,0.136012,0.320359
4.119999999999997,0.065018,0.153432,0.313928
4.130000000000003,0.127935,0.160602,0.309083
4.140000000000001,0.144634,0.162459,0.315175
4.149999999999999,0.194279,0.17475,0.306858
4.159999999999997,0.212706,0.202543,0.30845
4.170000000000002,0.21211,0.197297,0.290821
4.18,0.239598,0.212037,0.283456
4.189999999999998,0.229808,0.212821,0.285209
4.200000000000003,0.194303,0.228253,0.283651
4.210000000000001,0.190931,0.221318,0.274023
4.219999999999999,0.157497,0.240187,0.253966
4.229999999999997,0.122613,0.236511,0.220745
4.240000000000002,0.113884,0.236463,0.213788
4.25,0.09631,0.248485,0.203325
4.259999999999998,0.105101,0.252846,0.210316
4.270000000000003,0.103239,0.243343,0.222715
4.280000000000001,0.108656,0.226056,0.224515
4.289999999999999,0.092257,0.215705,0.259966
4.299999999999997,0.062953,0.197449,0.270824
4.310000000000002,0.028304,0.168806,0.287023
4.32,0.017579,0.153202,0.300342
4.329999999999998,-0.008219,0.131486,0.315532
4.339999999999996,-0.020106,0.113335,0.34561
4.350000000000001,-0.041587,0.097733,0.365184
4.359999999999999,-0.043588,0.087424,0.382889
4.369999999999997,-0.098003,0.057062,0.417756
4.380000000000003,-0.099027,0.055372,0.427482
4.390000000000001,-0.083,0.059729,0.421153
4.399999999999999,-0.084667,0.068327,0.41316
4.409999999999997,-0.050786,0.06839,0.400533
4.420000000000002,0.002596,0.073704,0.385995
4.43,0.031137,0.073767,0.37434
4.439999999999998,0.054541,0.070325,0.350397
4.450000000000003,0.083205,0.049622,0.334383
4.460000000000001,0.08316,0.054817,0.33437
4.469999999999999,0.089174,0.020136,0.299131
4.479999999999997,0.110837,0.018415,0.27252
4.490000000000002,0.120065,0.0028,0.253047
4.5,0.130953,0.009691,0.233515
4.509999999999998,0.119091,-0.024154,0.208108
4.520000000000003,0.098232,-0.021697,0.179143
4.530000000000001,0.079139,-0.035654,0.154642
4.539999999999999,0.036914,-0.054864,0.137362
4.549999999999997,-0.01786,-0.056796,0.125432
4.560000000000002,-0.075167,-0.073468,0.111771
4.57,-0.118478,-0.072797,0.106748
4.579999999999998,-0.177765,-0.078217,0.103635
4.589999999999996,-0.2193,-0.069745,0.093313
4.600000000000001,-0.231074,-0.036884,0.098611
4.609999999999999,-0.205601,-0.01425,0.104579
4.619999999999997,-0.189063,0.011805,0.114095
4.630000000000003,-0.160074,0.036164,0.120882
4.640000000000001,-0.162092,0.05175,0.131424
4.649999999999999,-0.162187,0.056932,0.138437
4.659999999999997,-0.202904,0.067127,0.135145
4.670000000000002,-0.22083,0.079178,0.146696
4.68,-0.197175,0.086208,0.16325
4.689999999999998,-0.204543,0.112158,0.17471
4.700000000000003,-0.182708,0.123535,0.192173
4.710000000000001,-0.149499,0.134983,0.217497
4.719999999999999,-0.172551,0.127987,0.220326
4.729999999999997,-0.176549,0.122863,0.251228
4.740000000000002,-0.175298,0.131597,0.28116
4.75,-0.180984,0.14461,0.300553
4.759999999999998,-0.17045,0.15245,0.304859
4.770000000000003,-0.170771,0.152502,0.326906
4.780000000000001,-0.171622,0.13089,0.332264
4.789999999999999,-0.179172,0.117997,0.367664
4.799999999999997,-0.19115,0.092963,0.406626
4.810000000000002,-0.210825,0.081679,0.42266
4.82,-0.198003,0.051563,0.463217
4.829999999999998,-0.1638,0.037076,0.491246
4.839999999999996,-0.145352,0.037187,0.501705
4.850000000000001,-0.091719,0.027099,0.531341
4.859999999999999,-0.070338,0.015076,0.52771
4.869999999999997,-0.032287,0.018723,0.52924
4.880000000000003,0.002644,-0.009714,0.512338
4.890000000000001,0.039124,-0.01565,0.504164
4.899999999999999,0.061266,-0.039773,0.51466
4.909999999999997,0.070312,-0.069169,0.513799
4.920000000000002,0.050433,-0.067596,0.481314
4.93,0.024357,-0.103938,0.518609
4.940000000000005,0.033518,-0.141987,0.509809
4.949999999999996,0.017537,-0.166242,0.518782
4.960000000000001,0.040504,-0.169595,0.522153
4.970000000000006,0.070558,-0.185034,0.530792
4.979999999999997,0.10606,-0.183208,0.526103
4.990000000000002,0.150335,-0.203797,0.535542
4.999999999999993,0.154069,-0.212454,0.526729
5.009999999999998,0.120681,-0.24893,0.521773
5.020000000000003,0.076122,-0.304536,0.49928
5.029999999999994,0.019263,-0.337746,0.462697
5.039999999999999,-0.038933,-0.358791,0.452531
5.050000000000004,-0.130569,-0.404198,0.436499
5.059999999999995,-0.176291,-0.422622,0.421826
5.07,-0.207525,-0.437582,0.384125
5.080000000000005,-0.210818,-0.452373,0.373556
5.089999999999996,-0.205303,-0.437752,0.358433
5.100000000000001,-0.210626,-0.439546,0.361976
5.110000000000007,-0.193057,-0.425655,0.37062
5.119999999999997,-0.171684,-0.427332,0.366959
5.130000000000003,-0.134282,-0.395219,0.343728
5.1399999999999935,-0.093923,-0.364721,0.358383
5.149999999999999,-0.04879,-0.343786,0.354485
5.160000000000004,0.010491,-0.298607,0.344251
5.169999999999995,0.047478,-0.256963,0.347413
5.18,0.077233,-0.234319,0.366583
5.190000000000005,0.074281,-0.192776,0.373585
5.199999999999996,0.096395,-0.185771,0.375196
5.210000000000001,0.09188,-0.15637,0.369871
5.220000000000006,0.128209,-0.133746,0.35987
5.229999999999997,0.117744,-0.114785,0.339608
5.240000000000002,0.096053,-0.096626,0.359116
5.249999999999993,0.066154,-0.075164,0.336333
5.259999999999998,0.03243,-0.075282,0.339207
5.270000000000003,-0.006715,-0.049476,0.340295
5.279999999999994,-0.042243,-0.021951,0.336931
5.289999999999999,-0.035361,0.005769,0.342121
5.300000000000004,-0.040553,0.019558,0.329787
5.309999999999995,-0.057021,0.050722,0.352759
5.32,-0.054186,0.068002,0.335058
5.330000000000005,-0.079212,0.097356,0.340464
5.339999999999996,-0.090615,0.114582,0.328161
5.350000000000001,-0.139041,0.110877,0.311747
5.360000000000007,-0.13458,0.122979,0.307272
5.369999999999997,-0.140518,0.141064,0.284347
5.380000000000003,-0.13759,0.121148,0.272033
5.3899999999999935,-0.141801,0.131475,0.252633
5.399999999999999,-0.131785,0.14011,0.231375
5.410000000000004,-0.122808,0.121112,0.229601
5.419999999999995,-0.110181,0.126315,0.212758
5.43,-0.129726,0.127982,0.215546
5.440000000000005,-0.088708,0.129815,0.197629
5.449999999999996,-0.092196,0.09695,0.20481
5.460000000000001,-0.098694,0.093533,0.224283
5.470000000000006,-0.095987,0.067607,0.227858
5.479999999999997,-0.089029,0.057292,0.238415
5.490000000000002,-0.060718,0.059131,0.239958
5.499999999999993,-0.057442,0.054004,0.259341
5.509999999999998,-0.022218,0.047259,0.274986
5.520000000000003,0.034337,0.045767,0.283399
5.529999999999994,0.053775,0.034624,0.288588
5.539999999999999,0.096159,0.031365,0.297127
5.550000000000004,0.10928,0.040966,0.303187
5.559999999999995,0.1154,0.041021,0.306685
5.57,0.110549,0.031423,0.278537
5.580000000000005,0.106028,0.037488,0.28121
5.589999999999996,0.068199,0.007922,0.272742
5.600000000000001,0.063583,0.020927,0.279815
5.610000000000007,0.058916,0.017507,0.295735
5.619999999999997,0.032527,0.010461,0.285346
5.630000000000003,0.034327,0.028607,0.278213
5.6399999999999935,0.043059,0.026929,0.286966
5.649999999999999,0.034992,0.026929,0.293208
5.660000000000004,0.044652,0.03045,0.297552
5.669999999999995,0.039161,0.051219,0.302838
5.68,0.052284,0.061683,0.310667
5.690000000000005,0.063749,0.08422,0.307894
5.699999999999996,0.084007,0.089498,0.314791
5.710000000000001,0.091925,0.11719,0.310239
5.720000000000006,0.094571,0.09643,0.319948
5.729999999999997,0.068507,0.09466,0.346587
5.740000000000002,0.069983,0.103347,0.365951
5.749999999999993,0.05117,0.084289,0.389067
5.759999999999998,0.039245,0.049703,0.429779
5.770000000000003,0.047737,0.039391,0.458811
5.779999999999994,0.047544,-0.00729,0.487999
5.789999999999999,0.037977,-0.021059,0.539213
5.800000000000004,0.018437,-0.046209,0.551734
5.809999999999995,0.013913,-0.052257,0.560604
5.82,0.005732,-0.040142,0.57122
5.830000000000005,-0.003918,-0.071304,0.574902
5.839999999999996,-0.016509,-0.057483,0.582006
5.850000000000001,-0.013627,-0.041092,0.562543
5.860000000000007,0.020346,-0.05056,0.546426
5.869999999999997,0.03258,-0.019404,0.549754
5.880000000000003,0.070026,0.003986,0.529111
5.8899999999999935,0.1039,0.015269,0.513822
5.899999999999999,0.122085,0.014357,0.485468
5.910000000000004,0.127304,0.046363,0.480938
5.919999999999995,0.114841,0.061882,0.480107
5.93,0.10768,0.06618,0.483681
5.940000000000005,0.100626,0.084284,0.474857
5.949999999999996,0.06868,0.082426,0.478598
5.960000000000001,0.047126,0.116976,0.484836
5.970000000000006,0.029583,0.116888,0.471731
5.979999999999997,0.031009,0.144645,0.483131
5.990000000000002,-0.002639,0.144533,0.480725
5.999999999999993,-0.009571,0.155737,0.464884
6.009999999999998,-0.043437,0.179004,0.468599
6.020000000000003,-0.059169,0.194482,0.447512
6.029999999999994,-0.080086,0.196098,0.422985
6.039999999999999,-0.082537,0.213377,0.401823
6.050000000000004,-0.083159,0.211625,0.384217
6.059999999999995,-0.08452,0.231448,0.348919
6.07,-0.07207,0.245319,0.339976
6.080000000000005,-0.079716,0.256468,0.313539
6.089999999999996,-0.092913,0.271966,0.301254
6.100000000000001,-0.129764,0.267432,0.278594
6.110000000000007,-0.161542,0.258651,0.273559
6.119999999999997,-0.180872,0.262891,0.261362
6.130000000000003,-0.217756,0.261,0.240495
6.1399999999999935,-0.242471,0.250533,0.238947
6.149999999999999,-0.261706,0.242634,0.226752
6.160000000000004,-0.300606,0.24161,0.223509
6.169999999999995,-0.296553,0.225965,0.195284
6.18,-0.322929,0.205959,0.188468
6.190000000000005,-0.342387,0.21196,0.183317
6.199999999999996,-0.335208,0.210266,0.176228
6.210000000000001,-0.336894,0.225828,0.164746
6.220000000000006,-0.308537,0.234582,0.161879
6.229999999999997,-0.301304,0.247531,0.150313
6.240000000000002,-0.280856,0.236331,0.151054
6.249999999999993,-0.268562,0.232927,0.16155
6.259999999999998,-0.252983,0.234627,0.128813
6.270000000000003,-0.224671,0.233025,0.131274
6.279999999999994,-0.211318,0.220098,0.131212
6.289999999999999,-0.180028,0.227087,0.109817
6.300000000000004,-0.167387,0.203743,0.102735
6.309999999999995,-0.174903,0.17941,0.081678
6.32,-0.186162,0.14646,0.076543
6.330000000000005,-0.198625,0.120498,0.089056
6.339999999999996,-0.177106,0.108439,0.075714
6.350000000000001,-0.168087,0.085975,0.07219
6.360000000000007,-0.145026,0.082604,0.07117
6.369999999999997,-0.122219,0.076687,0.086906
6.380000000000003,-0.098673,0.036905,0.067429
6.3899999999999935,-0.081739,0.020522,0.065587
6.399999999999999,-0.068382,0.008433,0.063721
6.410000000000004,-0.067356,-0.011488,0.060205
6.419999999999995,-0.076979,-0.01589,0.053197
6.43,-0.091042,-0.034997,0.051562
6.440000000000005,-0.09625,-0.057521,0.050771
6.449999999999996,-0.096443,-0.050564,0.060457
6.460000000000001,-0.096266,-0.076515,0.056998
6.470000000000006,-0.085711,-0.085106,0.06577
6.479999999999997,-0.088918,-0.068596,0.096615
6.490000000000002,-0.079072,-0.089344,0.096568
6.499999999999993,-0.088339,-0.072902,0.118604
6.509999999999998,-0.102532,-0.079874,0.122231
6.520000000000003,-0.095645,-0.065985,0.130962
6.529999999999994,-0.088588,-0.07461,0.136219
6.539999999999999,-0.065552,-0.076263,0.137825
6.550000000000004,-0.051484,-0.074469,0.144776
6.559999999999995,-0.024018,-0.064007,0.14279
6.57,-0.02829,-0.080498,0.139311
6.580000000000005,-0.03708,-0.091801,0.139383
6.589999999999996,-0.038623,-0.117786,0.132382
6.600000000000001,-0.046653,-0.103953,0.130654
6.610000000000007,-0.051201,-0.103922,0.13777
6.619999999999997,-0.060882,-0.107415,0.133451
6.630000000000003,-0.052921,-0.110824,0.134309
6.6399999999999935,-0.040387,-0.117708,0.127195
6.649999999999999,-0.053251,-0.096909,0.149298
6.660000000000004,-0.060434,-0.096895,0.15554
6.669999999999995,-0.044618,-0.079504,0.158935
6.68,-0.032305,-0.063007,0.160584
6.690000000000005,-0.0003,-0.06118,0.155072
6.699999999999996,0.029615,-0.049794,0.167181
6.710000000000001,0.033007,-0.045427,0.172417
6.720000000000006,0.047152,-0.0411,0.175801
6.729999999999997,0.072713,-0.047923,0.187089
6.740000000000002,0.092597,-0.052921,0.217851
6.749999999999993,0.119096,-0.056236,0.221242
6.759999999999998,0.12595,-0.066525,0.237121
6.770000000000003,0.11017,-0.068341,0.226649
6.779999999999994,0.090803,-0.077091,0.222377
6.789999999999999,0.089249,-0.077149,0.209141
6.800000000000004,0.077168,-0.082454,0.190698
6.809999999999995,0.077273,-0.070369,0.179199
6.82,0.07031,-0.073878,0.17219
6.830000000000005,0.059834,-0.099887,0.16966
6.839999999999996,0.058104,-0.084335,0.161689
6.850000000000001,0.051325,-0.096513,0.144129
6.860000000000007,0.053131,-0.082676,0.137924
6.869999999999997,0.040812,-0.0836,0.133614
6.880000000000003,0.051581,-0.072339,0.121167
6.8899999999999935,0.05027,-0.07069,0.092078
6.899999999999999,0.045306,-0.060389,0.068287
6.910000000000004,0.070398,-0.084548,0.059362
6.919999999999995,0.065002,-0.08108,0.064706
6.93,0.072471,-0.070721,0.035552
6.940000000000005,0.093555,-0.080961,0.049558
6.949999999999996,0.089551,-0.081038,0.022263
6.960000000000001,0.084976,-0.091398,0.036444
6.970000000000006,0.107575,-0.08793,0.007196
6.979999999999997,0.12297,-0.096561,-0.009613
6.990000000000002,0.135634,-0.098279,-0.025565
6.999999999999993,0.150299,-0.096565,-0.059171
7.009999999999998,0.18815,-0.107767,-0.099096
7.020000000000003,0.213764,-0.098304,-0.155736
7.029999999999994,0.23912,-0.112146,-0.18675
7.039999999999999,0.274244,-0.128555,-0.218713
7.050000000000004,0.271404,-0.158961,-0.254782
7.059999999999995,0.293923,-0.145111,-0.285844
7.07,0.292783,-0.174617,-0.31927
7.080000000000005,0.284221,-0.179892,-0.338596
7.089999999999996,0.266106,-0.209444,-0.361311
7.100000000000001,0.242349,-0.213029,-0.371722
7.110000000000007,0.227374,-0.230408,-0.371598
7.119999999999997,0.225149,-0.239153,-0.397162
7.130000000000003,0.219937,-0.235745,-0.405096
7.1399999999999935,0.183754,-0.234181,-0.415445
7.149999999999999,0.187033,-0.236018,-0.456043
7.160000000000004,0.162051,-0.236939,-0.445287
7.169999999999995,0.14264,-0.224059,-0.455774
7.18,0.118537,-0.210286,-0.448583
7.190000000000005,0.091362,-0.215625,-0.466005
7.199999999999996,0.057483,-0.217443,-0.453418
7.210000000000001,0.018188,-0.189034,-0.447091
7.220000000000006,-0.009414,-0.181347,-0.440781
7.229999999999997,-0.048722,-0.152046,-0.426486
7.240000000000002,-0.05693,-0.122639,-0.417681
7.249999999999993,-0.072992,-0.105396,-0.414089
7.259999999999998,-0.078369,-0.100211,-0.410527
7.270000000000003,-0.112025,-0.077847,-0.417387
7.279999999999994,-0.105138,-0.051844,-0.411318
7.289999999999999,-0.092689,-0.031052,-0.421152
7.300000000000004,-0.092862,-0.012872,-0.415919
7.309999999999995,-0.084109,0.020865,-0.419643
7.32,-0.070163,0.053792,-0.415455
7.330000000000005,-0.056062,0.09016,-0.42183
7.339999999999996,-0.059917,0.107494,-0.407734
7.350000000000001,-0.060149,0.142136,-0.406028
7.3600000000000065,-0.07419,0.159385,-0.422682
7.369999999999997,-0.083301,0.169787,-0.409399
7.380000000000003,-0.085134,0.19402,-0.412953
7.3899999999999935,-0.077807,0.213031,-0.434214
7.399999999999999,-0.067731,0.221649,-0.459005
7.410000000000004,-0.039531,0.259821,-0.462816
7.419999999999995,-0.015587,0.278947,-0.473594
7.43,0.000318,0.287689,-0.477223
7.440000000000005,0.02717,0.291227,-0.49677
7.449999999999996,-0.000865,0.268625,-0.511455
7.460000000000001,-0.027491,0.278935,-0.517455
7.470000000000006,-0.076872,0.2597,-0.531182
7.479999999999997,-0.13883,0.256851,-0.535184
7.490000000000002,-0.160021,0.238597,-0.532352
7.499999999999993,-0.170254,0.228963,-0.551643
7.509999999999998,-0.180459,0.22105,-0.572711
7.520000000000003,-0.162783,0.22285,-0.571071
7.529999999999994,-0.156236,0.218482,-0.594046
7.539999999999999,-0.121576,0.198673,-0.594278
7.550000000000004,-0.132197,0.19688,-0.594236
7.559999999999995,-0.137529,0.184752,-0.588889
7.57,-0.181641,0.170722,-0.595594
7.580000000000005,-0.224295,0.16972,-0.585589
7.589999999999996,-0.238004,0.147954,-0.605736
7.600000000000001,-0.252154,0.151357,-0.60387
7.6100000000000065,-0.233936,0.16689,-0.635772
7.619999999999997,-0.222827,0.151277,-0.656968
7.630000000000003,-0.191139,0.153845,-0.69954
7.6399999999999935,-0.168817,0.140899,-0.708529
7.649999999999999,-0.173641,0.119984,-0.736747
7.660000000000004,-0.193032,0.114657,-0.74374
7.669999999999995,-0.233535,0.095414,-0.754054
7.68,-0.28634,0.102061,-0.778431
7.690000000000005,-0.30526,0.092377,-0.811812
7.699999999999996,-0.326066,0.114669,-0.847036
7.710000000000001,-0.321916,0.146513,-0.893937
7.720000000000006,-0.312987,0.155139,-0.900243
7.729999999999997,-0.287813,0.174161,-0.93049
7.740000000000002,-0.248684,0.209721,-0.953811
7.749999999999993,-0.226172,0.222701,-0.984021
7.759999999999998,-0.246394,0.247674,-1.003349
7.770000000000003,-0.244315,0.263205,-1.029847
7.779999999999994,-0.24839,0.289941,-1.06161
7.789999999999999,-0.242843,0.314134,-1.084622
7.800000000000004,-0.218757,0.321124,-1.098903
7.809999999999995,-0.221243,0.336677,-1.11652
7.82,-0.22535,0.343555,-1.141159
7.830000000000005,-0.234984,0.355624,-1.153441
7.839999999999996,-0.219763,0.357397,-1.165875
7.850000000000001,-0.205723,0.351451,-1.155331
7.8600000000000065,-0.166876,0.33783,-1.138723
7.869999999999997,-0.143754,0.321485,-1.139698
7.880000000000003,-0.106637,0.291396,-1.124877
7.8899999999999935,-0.096684,0.251658,-1.123906
7.899999999999999,-0.085099,0.20936,-1.11148
7.910000000000004,-0.059666,0.161124,-1.074449
7.919999999999995,0.001451,0.096528,-1.046456
7.93,0.05256,0.044047,-1.004313
7.940000000000005,0.094794,-0.042198,-0.955021
7.949999999999996,0.138576,-0.100718,-0.904059
7.960000000000001,0.195414,-0.133213,-0.847968
7.970000000000006,0.223318,-0.171071,-0.812845
7.979999999999997,0.239859,-0.210714,-0.786431
7.990000000000002,0.272091,-0.217404,-0.749608
7.999999999999993,0.29774,-0.243231,-0.736489
8.009999999999998,0.334703,-0.25862,-0.712909
8.020000000000003,0.37694,-0.274847,-0.685828
8.029999999999994,0.427087,-0.277243,-0.667731
8.04,0.452207,-0.278828,-0.641554
8.050000000000004,0.465302,-0.256308,-0.644425
8.059999999999995,0.466151,-0.258074,-0.644477
8.07,0.429024,-0.261694,-0.650381
8.080000000000005,0.402535,-0.267848,-0.653689
8.089999999999996,0.374258,-0.258441,-0.660553
8.100000000000001,0.353367,-0.253411,-0.685115
8.110000000000007,0.330494,-0.254416,-0.696427
8.119999999999997,0.31277,-0.238086,-0.702549
8.130000000000003,0.314548,-0.205261,-0.715933
8.139999999999993,0.288752,-0.17943,-0.720282
8.149999999999999,0.262775,-0.155292,-0.716675
8.160000000000004,0.18293,-0.122728,-0.721512
8.169999999999995,0.122767,-0.093537,-0.729941
8.18,0.065173,-0.071267,-0.73134
8.190000000000005,0.018322,-0.031696,-0.742547
8.199999999999996,-0.009504,0.004583,-0.730071
8.21,-0.070358,0.025062,-0.754389
8.220000000000006,-0.098115,0.082088,-0.753435
8.229999999999997,-0.128877,0.123439,-0.772689
8.240000000000002,-0.149609,0.141419,-0.803389
8.249999999999993,-0.160013,0.159451,-0.816582
8.259999999999998,-0.142017,0.17154,-0.834361
8.270000000000003,-0.141719,0.187044,-0.857328
8.279999999999994,-0.119966,0.202587,-0.895463
8.29,-0.119776,0.199102,-0.905131
8.300000000000004,-0.131242,0.200785,-0.906777
8.309999999999995,-0.094674,0.20952,-0.920246
8.32,-0.043522,0.220127,-0.905625
8.330000000000005,-0.025577,0.21669,-0.919887
8.339999999999996,-0.013119,0.201151,-0.921746
8.350000000000001,-0.03767,0.192365,-0.934778
8.360000000000007,-0.078856,0.160959,-0.948562
8.369999999999997,-0.105926,0.133077,-0.958912
8.380000000000003,-0.148046,0.099134,-0.969084
8.389999999999993,-0.156492,0.060997,-0.980376
8.399999999999999,-0.149654,0.042761,-1.014785
8.410000000000004,-0.175259,0.035779,-1.015418
8.419999999999995,-0.162325,0.040965,-1.049857
8.43,-0.138922,0.021995,-1.0667
8.440000000000005,-0.115471,0.028963,-1.095054
8.449999999999996,-0.082927,0.012602,-1.128645
8.46,-0.057412,0.001357,-1.165738
8.470000000000006,-0.051176,-0.040283,-1.206168
8.479999999999997,-0.056194,-0.059413,-1.216687
8.490000000000002,-0.005952,-0.097406,-1.24344
8.499999999999993,0.032192,-0.105927,-1.243698
8.509999999999998,0.03335,-0.116333,-1.259536
8.520000000000003,0.060756,-0.152508,-1.241068
8.529999999999994,0.082637,-0.164514,-1.22447
8.54,0.068296,-0.167148,-1.212033
8.550000000000004,0.081431,-0.218074,-1.189057
8.559999999999995,0.038571,-0.236333,-1.167555
8.57,-0.006493,-0.272017,-1.156596
8.580000000000005,-0.021495,-0.287665,-1.149419
8.589999999999996,-0.062928,-0.319851,-1.152591
8.600000000000001,-0.06979,-0.350252,-1.159603
8.610000000000007,-0.111041,-0.378181,-1.176029
8.619999999999997,-0.118748,-0.397238,-1.190876
8.630000000000003,-0.08507,-0.405664,-1.196311
8.639999999999993,-0.044439,-0.388955,-1.198323
8.649999999999999,-0.009986,-0.367108,-1.209179
8.660000000000004,-0.010318,-0.356613,-1.202155
8.669999999999995,0.001157,-0.301201,-1.223535
8.68,-0.072186,-0.281453,-1.233842
8.690000000000005,-0.162131,-0.236058,-1.261518
8.699999999999996,-0.149196,-0.211964,-1.273989
8.71,-0.074313,-0.203156,-1.279717
8.720000000000006,0.003739,-0.217494,-1.288913
8.729999999999997,0.025376,-0.225033,-1.266072
8.740000000000002,0.034712,-0.240395,-1.243155
8.749999999999993,0.052015,-0.222097,-1.230993
8.759999999999998,0.09392,-0.215729,-1.19953
8.770000000000003,0.115151,-0.198369,-1.205064
8.779999999999994,0.130899,-0.194001,-1.189305
8.79,0.120104,-0.227758,-1.159952
8.800000000000004,0.121358,-0.234586,-1.118451
8.809999999999995,0.114269,-0.263081,-1.054054
8.82,0.077698,-0.2605,-0.982498
8.830000000000005,0.048127,-0.270881,-0.903062
8.839999999999996,0.023188,-0.27948,-0.835889
8.850000000000001,0.010449,-0.277599,-0.755498
8.860000000000007,0.013548,-0.260033,-0.677015
8.869999999999997,0.021498,-0.242556,-0.622443
8.880000000000003,0.068655,-0.228442,-0.576987
8.889999999999993,0.10851,-0.197025,-0.530664
8.899999999999999,0.130634,-0.154435,-0.489566
8.910000000000004,0.105305,-0.117238,-0.470094
8.919999999999995,0.058475,-0.067991,-0.43461
8.93,0.00858,-0.022337,-0.426448
8.940000000000005,-0.064088,0.015413,-0.433085
8.949999999999996,-0.107341,0.055147,-0.400257
8.96,-0.162239,0.086062,-0.415021
8.970000000000006,-0.211802,0.108362,-0.4298
8.979999999999997,-0.247167,0.146274,-0.449074
8.990000000000002,-0.234745,0.196482,-0.466897
8.999999999999993,-0.211928,0.248502,-0.468906
9.009999999999998,-0.175086,0.295397,-0.462223
9.020000000000003,-0.177213,0.342137,-0.45528
9.029999999999994,-0.195041,0.380138,-0.463172
9.04,-0.177863,0.439971,-0.44841
9.050000000000004,-0.170633,0.478938,-0.4714
9.059999999999995,-0.18894,0.522103,-0.504803
9.07,-0.193376,0.551513,-0.514505
9.080000000000004,-0.179108,0.579225,-0.531444
9.089999999999996,-0.181817,0.587879,-0.531454
9.1,-0.140319,0.610561,-0.531799
9.110000000000008,-0.106677,0.622777,-0.532078
9.119999999999996,-0.087341,0.6246,-0.519851
9.130000000000004,-0.053672,0.586714,-0.505816
9.139999999999992,-0.062125,0.555484,-0.523322
9.15,-0.08011,0.539923,-0.501987
9.160000000000004,-0.085227,0.496657,-0.501841
9.169999999999996,-0.113578,0.481006,-0.495397
9.18,-0.106126,0.43429,-0.500572
9.190000000000005,-0.123509,0.403064,-0.51001
9.199999999999996,-0.124948,0.332139,-0.507134
9.21,-0.140891,0.280193,-0.489278
9.220000000000006,-0.130835,0.207532,-0.486562
9.229999999999997,-0.130733,0.152177,-0.477648
9.240000000000002,-0.119304,0.07789,-0.451127
9.249999999999991,-0.152185,0.041462,-0.435865
9.259999999999998,-0.149833,0.019052,-0.412024
9.270000000000003,-0.169587,-0.020694,-0.385294
9.279999999999994,-0.166306,-0.029212,-0.369369
9.29,-0.168267,-0.054209,-0.35162
9.300000000000004,-0.165063,-0.039422,-0.337578
9.309999999999995,-0.170436,-0.067132,-0.325192
9.32,-0.17382,-0.071516,-0.334004
9.330000000000004,-0.172303,-0.053292,-0.32346
9.339999999999996,-0.165079,-0.035951,-0.33937
9.35,-0.159299,-0.034119,-0.312952
9.360000000000008,-0.156947,-0.008153,-0.298948
9.369999999999996,-0.137239,-0.009857,-0.309668
9.380000000000004,-0.121257,-0.008071,-0.308886
9.389999999999992,-0.136238,-0.032328,-0.304287
9.4,-0.117461,-0.030596,-0.316838
9.410000000000004,-0.11104,-0.06351,-0.320402
9.419999999999996,-0.079071,-0.058248,-0.325947
9.43,-0.028547,-0.07188,-0.321817
9.440000000000005,-0.021302,-0.090903,-0.323576
9.449999999999996,0.016107,-0.087371,-0.335339
9.46,0.012793,-0.104755,-0.34237
9.470000000000006,0.026734,-0.118528,-0.324854
9.479999999999997,0.004191,-0.161947,-0.342278
9.490000000000002,0.000641,-0.167131,-0.342253
9.499999999999991,-0.022326,-0.165478,-0.347361
9.509999999999998,-0.029874,-0.13599,-0.326156
9.520000000000003,-0.008924,-0.135873,-0.306926
9.529999999999994,0.012158,-0.111618,-0.304568
9.54,0.034804,-0.077828,-0.291677
9.550000000000004,0.06676,-0.049235,-0.303476
9.559999999999995,0.128638,-0.042095,-0.297803
9.57,0.132174,-0.014443,-0.306743
9.580000000000004,0.185274,-0.009059,-0.303573
9.589999999999996,0.17449,0.00823,-0.294599
9.6,0.163448,0.021261,-0.271593
9.610000000000008,0.152443,0.036002,-0.24858
9.619999999999996,0.12606,0.013381,-0.251861
9.630000000000004,0.133136,0.016016,-0.250111
9.639999999999992,0.089854,0.004572,-0.255098
9.65,0.075095,-0.005919,-0.271736
9.660000000000004,0.089354,-0.023173,-0.271786
9.669999999999996,0.096278,-0.02832,-0.25859
9.68,0.122851,-0.02304,-0.258769
9.690000000000005,0.110198,-0.005824,-0.237504
9.699999999999996,0.0299,-0.051064,-0.17329
9.71,-0.048408,-0.081532,-0.142657
9.720000000000006,-0.045915,-0.109768,-0.08091
9.729999999999997,-0.011082,-0.118106,-0.04945
9.740000000000002,0.024029,-0.119652,-0.031274
9.749999999999991,0.083475,-0.121186,-0.036151
9.759999999999998,0.136869,-0.107868,0.003984
9.770000000000003,0.172449,-0.093028,-0.010405
9.779999999999994,0.196995,-0.077365,0.007039
9.79,0.181822,-0.063562,0.012466
9.800000000000004,0.184285,-0.059208,0.028347
9.809999999999995,0.178163,-0.077395,0.030229
9.82,0.154055,-0.065354,0.039183
9.830000000000004,0.121971,-0.080988,0.058893
9.839999999999996,0.112765,-0.120752,0.096982
9.85,0.060488,-0.134813,0.103554
9.860000000000008,0.029072,-0.164275,0.141775
9.869999999999996,-0.005013,-0.179859,0.169406
9.880000000000004,-0.009111,-0.209144,0.210062
9.889999999999992,0.010002,-0.221946,0.234634
9.9,0.059548,-0.250249,0.244915
9.910000000000004,0.098433,-0.266554,0.255169
9.919999999999996,0.104093,-0.303847,0.247192
9.93,0.020923,-0.319823,0.252181
9.940000000000005,-0.043398,-0.361624,0.242188
9.949999999999996,-0.045836,-0.391865,0.238867
9.96,-0.079618,-0.418723,0.25512
9.970000000000006,-0.102489,-0.440434,0.249178
9.979999999999997,-0.118384,-0.458663,0.252859
9.990000000000002,-0.136166,-0.493298,0.268049
9.999999999999991,-0.17479,-0.496971,0.245382
10.009999999999998,-0.155503,-0.496901,0.25575
10.020000000000003,-0.150437,-0.50382,0.270592
10.029999999999994,-0.130753,-0.510759,0.259777
10.04,-0.135054,-0.502174,0.248305
10.050000000000004,-0.157152,-0.491898,0.244948
10.059999999999995,-0.159751,-0.45904,0.2335
10.07,-0.166284,-0.431324,0.246722
10.080000000000004,-0.16273,-0.401911,0.235136
10.089999999999996,-0.194705,-0.362239,0.225525
10.1,-0.187578,-0.339721,0.214838
10.110000000000008,-0.194876,-0.303404,0.21833
10.119999999999996,-0.184575,-0.263562,0.225176
10.130000000000004,-0.170882,-0.234069,0.245233
10.139999999999992,-0.166549,-0.19952,0.23886
10.15,-0.174522,-0.164171,0.223738
10.160000000000004,-0.186435,-0.126306,0.182242
10.169999999999996,-0.205844,-0.095222,0.17536
10.18,-0.192528,-0.074359,0.17092
10.190000000000005,-0.197298,-0.045764,0.185024
10.199999999999996,-0.178192,-0.012776,0.198013
10.21,-0.165897,-0.009275,0.1987
10.220000000000006,-0.134036,0.018489,0.187726
10.229999999999997,-0.141299,0.029722,0.190341
10.240000000000002,-0.127242,0.077327,0.181283
10.249999999999991,-0.108431,0.098975,0.158175
10.259999999999998,-0.126939,0.131721,0.142347
10.270000000000003,-0.123217,0.170582,0.124606
10.279999999999994,-0.114226,0.198253,0.112153
10.29,-0.066334,0.230426,0.097656
10.300000000000004,-0.029587,0.274775,0.117639
10.309999999999995,0.026466,0.312345,0.142792
10.32,0.056868,0.375695,0.158288
10.330000000000004,0.060979,0.41035,0.166978
10.339999999999996,0.062627,0.459648,0.158004
10.35,0.057343,0.489858,0.143821
10.360000000000008,0.040875,0.531356,0.163202
10.369999999999996,0.040767,0.565945,0.158692
10.380000000000004,0.061772,0.57299,0.173531
10.389999999999992,0.072237,0.586916,0.180522
10.4,0.066678,0.592155,0.196478
10.410000000000004,0.077163,0.600877,0.205238
10.419999999999996,0.096607,0.578504,0.219326
10.43,0.085616,0.571652,0.245929
10.440000000000005,0.10861,0.544082,0.26173
10.449999999999996,0.144076,0.507943,0.270446
10.46,0.146247,0.47675,0.258197
10.470000000000006,0.204734,0.452734,0.270236
10.479999999999997,0.208381,0.419123,0.26245
10.490000000000002,0.207115,0.380223,0.237939
10.499999999999991,0.189963,0.354145,0.212555
10.509999999999998,0.165772,0.319345,0.186335
10.520000000000003,0.14658,0.277746,0.179554
10.529999999999994,0.145225,0.241393,0.165612
10.54,0.138641,0.201566,0.148215
10.550000000000004,0.137554,0.170341,0.113065
10.559999999999995,0.118668,0.128643,0.08504
10.57,0.099988,0.10678,0.037524
10.580000000000004,0.077812,0.095286,-0.020564
10.589999999999996,0.06818,0.05699,-0.075146
10.6,0.058585,0.039479,-0.136755
10.610000000000008,0.042071,0.011605,-0.20703
10.619999999999996,0.016158,0.016636,-0.249094
10.630000000000004,0.009848,0.007871,-0.298363
10.639999999999992,-0.009101,-0.021665,-0.328146
10.65,-0.021125,-0.028703,-0.351002
10.660000000000004,-0.056085,-0.047944,-0.37454
10.669999999999996,-0.051861,-0.075711,-0.410665
10.68,-0.065845,-0.085319,-0.417581
10.690000000000005,-0.080366,-0.102744,-0.44738
10.699999999999996,-0.070721,-0.104395,-0.440346
10.71,-0.073228,-0.110489,-0.447371
10.720000000000006,-0.091151,-0.10882,-0.432293
10.729999999999997,-0.075918,-0.112309,-0.433313
10.740000000000002,-0.033366,-0.112178,-0.433637
10.749999999999991,-0.021029,-0.113848,-0.433741
10.759999999999998,-0.005217,-0.099958,-0.432144
10.770000000000003,0.024755,-0.089494,-0.421819
10.779999999999994,0.056578,-0.08937,-0.413198
10.79,0.09944,-0.063173,-0.383539
10.800000000000004,0.11313,-0.050506,-0.33488
10.809999999999995,0.163794,-0.015784,-0.263946
10.82,0.239333,-0.008585,-0.226857
10.830000000000004,0.283083,0.020146,-0.20181
10.839999999999996,0.294427,0.053963,-0.20372
10.85,0.312746,0.075679,-0.199546
10.860000000000008,0.303754,0.124092,-0.211065
10.869999999999996,0.280165,0.169934,-0.19692
10.880000000000004,0.246166,0.188003,-0.184392
10.889999999999992,0.200183,0.211153,-0.196458
10.9,0.171422,0.216308,-0.170704
10.910000000000004,0.158872,0.254343,-0.167123
10.919999999999996,0.155111,0.257865,-0.146755
10.93,0.142842,0.259542,-0.155447
10.940000000000005,0.158793,0.27688,-0.163531
10.949999999999996,0.147097,0.288957,-0.157305
10.96,0.116369,0.282726,-0.173824
10.970000000000006,0.105993,0.278336,-0.192251
10.979999999999997,0.07982,0.270399,-0.218516
10.990000000000002,0.053525,0.269395,-0.237744
10.999999999999991,0.040416,0.285741,-0.254456
11.009999999999998,0.020464,0.28129,-0.281618
11.020000000000003,0.017024,0.298577,-0.295703
11.029999999999994,0.01195,0.31065,-0.316815
11.04,0.036037,0.299517,-0.322152
11.050000000000004,0.050354,0.303865,-0.328418
11.059999999999995,0.03878,0.317676,-0.327468
11.07,0.042176,0.290068,-0.311552
11.080000000000004,0.039073,0.27615,-0.337973
11.089999999999996,0.036568,0.278021,-0.292987
11.1,0.016989,0.267616,-0.284868
11.110000000000008,0.011566,0.265904,-0.27954
11.119999999999996,-0.000822,0.253771,-0.277645
11.130000000000004,-0.008298,0.259009,-0.252878
11.139999999999992,0.009193,0.236635,-0.226451
11.15,-0.005299,0.224537,-0.20072
11.160000000000004,0.003248,0.212504,-0.176961
11.169999999999996,0.022294,0.178079,-0.136441
11.18,0.025487,0.160863,-0.108217
11.190000000000005,0.014788,0.1401,-0.098388
11.199999999999996,-0.003243,0.122811,-0.073525
11.21,-0.012266,0.112435,-0.058437
11.220000000000006,-0.037644,0.095148,-0.013231
11.229999999999997,-0.035681,0.078704,-0.01848
11.240000000000002,-0.039183,0.051864,-0.010467
11.249999999999991,-0.023965,0.041518,-0.015822
11.259999999999998,-0.03125,0.03721,-0.001635
11.270000000000003,-0.026567,0.015569,-0.01043
11.279999999999994,-0.056687,-0.000962,-0.005782
11.29,-0.045974,-0.005261,-0.008509
11.300000000000004,-0.058197,-0.013967,-0.017199
11.309999999999995,-0.058242,-0.020009,-0.010984
11.32,-0.054728,-0.015659,-0.010111
11.330000000000004,-0.061525,-0.017468,-0.029462
11.339999999999996,-0.08269,-0.008926,-0.038171
11.35,-0.066484,-0.020153,-0.050617
11.360000000000008,-0.050552,-0.001074,-0.05431
11.369999999999996,-0.108725,-0.01085,-0.067979
11.380000000000004,-0.064286,-0.000328,-0.080658
11.389999999999992,-0.043633,-0.000287,-0.100199
11.4,-0.04622,-0.004619,-0.106341
11.410000000000004,-0.046226,0.013511,-0.112587
11.419999999999996,-0.047691,0.011697,-0.132008
11.43,-0.031685,0.01174,-0.135658
11.440000000000005,-0.027716,0.009093,-0.162121
11.449999999999996,-0.042144,0.028994,-0.151441
11.46,-0.02591,0.025555,-0.169177
11.470000000000006,-0.02609,0.025582,-0.156844
11.479999999999997,-0.011703,0.010033,-0.165734
11.490000000000002,-0.009935,0.011762,-0.165758
11.499999999999991,0.003987,0.030857,-0.153566
11.509999999999998,0.014735,0.006657,-0.151827
11.520000000000003,0.02551,0.018766,-0.166061
11.529999999999994,0.011564,0.0083,-0.177406
11.54,0.021178,0.004885,-0.167788
11.550000000000004,0.020363,0.004847,-0.173106
11.559999999999995,0.011465,-0.007317,-0.16511
11.57,0.025536,-0.02542,-0.151957
11.580000000000004,0.016723,-0.024605,-0.155436
11.589999999999996,0.031032,-0.048798,-0.155492
11.6,0.036133,-0.050481,-0.139651
11.610000000000008,0.042206,-0.059085,-0.127318
11.619999999999996,0.046929,-0.073819,-0.140538
11.630000000000004,0.038734,-0.061707,-0.129043
11.639999999999992,0.030685,-0.053942,-0.126353
11.65,0.034885,-0.057348,-0.109619
11.660000000000004,0.017864,-0.048725,-0.100705
11.669999999999996,0.023058,-0.048683,-0.093701
11.68,0.013884,-0.039147,-0.077783
11.690000000000005,0.010274,-0.029637,-0.077775
11.699999999999996,0.022445,-0.01831,-0.067295
11.71,0.026519,-0.017366,-0.045278
11.720000000000006,0.037724,0.005211,-0.034847
11.729999999999997,0.037348,0.020833,-0.016381
11.740000000000002,0.039155,0.012181,-0.016382
11.749999999999991,0.028414,0.005254,-0.007454
11.759999999999998,0.033395,0.015705,0.010126
11.770000000000003,0.049188,0.022708,0.017047
11.779999999999994,0.020908,0.0226,0.011964
11.79,0.03652,0.034829,0.029469
11.800000000000004,0.022352,0.027864,0.031367
11.809999999999995,0.020511,0.03651,0.033127
11.82,0.011612,0.03474,0.036707
11.830000000000004,-0.006,0.038113,0.028885
11.839999999999996,-0.016613,0.029424,0.031623
11.85,-0.013267,0.043303,0.040383
11.860000000000008,-0.017761,0.030319,0.049258
11.869999999999996,-0.034611,0.039766,0.047587
11.880000000000004,-0.038145,0.027653,0.051177
11.889999999999992,-0.031255,0.025988,0.064366
11.9,-0.036418,0.015564,0.058252
11.910000000000004,-0.039253,0.029411,0.067061
11.919999999999996,-0.036644,0.031157,0.071452
11.93,-0.048891,0.016399,0.067183
11.940000000000005,-0.035844,0.038108,0.077627
11.949999999999996,-0.042149,0.035511,0.085614
11.96,-0.043938,0.044145,0.082935
11.970000000000006,-0.040246,0.039804,0.074087
11.979999999999997,-0.049099,0.04323,0.071491
11.990000000000002,-0.045721,0.041552,0.081176
11.999999999999991,-0.036916,0.047639,0.082856
12.009999999999998,-0.042151,0.041555,0.079378
12.020000000000003,-0.014905,0.044298,0.092415
12.029999999999994,-0.025541,0.033893,0.095167
12.04,-0.024742,0.046881,0.096896
12.050000000000004,-0.024719,0.031324,0.100478
12.059999999999995,-0.033392,0.027811,0.089986
12.07,-0.029986,0.027864,0.098798
12.080000000000004,-0.019318,0.020972,0.098732
12.089999999999996,-0.021133,0.031348,0.096952
12.1,-0.019348,0.015783,0.100495
12.110000000000008,-0.017467,0.020955,0.091652
12.119999999999996,-0.01562,0.016624,0.088123
12.130000000000004,-0.034979,0.013077,0.081231
12.139999999999992,-0.011621,0.005331,0.063469
12.15,-0.01871,0.015684,0.06086
12.160000000000004,-0.018531,0.002696,0.052957
12.169999999999996,-0.024799,-0.001632,0.058298
12.18,-0.038854,-0.020726,0.056671
12.190000000000005,-0.027359,-0.003389,0.053019
12.199999999999996,-0.016665,-0.00595,0.04943
12.21,-0.032573,0.003487,0.044228
12.220000000000006,-0.036098,-0.006051,0.046035
12.229999999999997,-0.030799,-0.013822,0.048646
12.240000000000002,-0.030468,0.005124,0.022131
12.249999999999991,-0.055399,0.00333,0.03202
12.259999999999998,-0.055423,0.011986,0.032009
12.270000000000003,-0.053653,0.023241,0.029333
12.279999999999994,-0.050163,0.017205,0.03637
12.29,-0.076724,0.036126,0.02945
12.300000000000004,-0.067963,0.03272,0.035569
12.309999999999995,-0.050179,0.036226,0.030143
12.32,-0.057294,0.041389,0.030182
12.330000000000004,-0.023965,0.040709,0.05289
12.339999999999996,-0.023841,0.020805,0.051174
12.35,-0.023689,0.025972,0.038813
12.360000000000008,-0.001115,0.023552,0.068644
12.369999999999996,-0.013422,0.013971,0.0652
12.380000000000004,0.000651,0.033066,0.065051
12.389999999999992,-0.00974,0.007053,0.058136
12.4,-0.022078,0.007862,0.053817
12.410000000000004,-0.020357,0.008741,0.056447
12.419999999999996,-0.003423,0.000144,0.052832
12.43,0.001114,0.007055,0.043966
12.440000000000005,-0.017414,-0.004276,0.043235
12.449999999999996,-0.006566,4e-05,0.028145
12.46,-0.027153,-1.1e-05,0.042382
12.470000000000006,-0.019906,0.003445,0.029967
12.479999999999997,-0.024461,-0.018169,0.044144
12.490000000000002,-0.024153,-0.00526,0.019404
12.499999999999991,-0.032159,-9.6e-05,0.019441
12.509999999999998,-0.034709,-0.017418,0.017732
12.520000000000003,-0.030311,-0.007029,0.015897
12.529999999999994,-0.021487,-0.019106,0.022902
12.54,-0.024647,-0.024378,6e-06
12.550000000000004,-0.01072,-0.011316,0.012223
12.559999999999995,8.4e-05,-0.022547,0.005129
12.57,0.003621,-0.019072,0.003336
12.580000000000004,-0.007058,-0.017376,0.005163
12.589999999999996,-0.014337,-0.001807,0.012227
12.6,0.005492,-0.012171,-0.006408
12.610000000000008,0.001857,-0.00093,-0.003763
12.619999999999996,0.00459,0.003382,-0.009086
12.630000000000004,-0.00159,0.010267,-0.012597
12.639999999999992,0.01255,0.017238,-0.012719
12.65,0.023188,0.018987,-0.014583
12.660000000000004,0.023171,0.01898,-0.012818
12.669999999999996,0.0289,0.015474,-0.038406
12.68,0.025195,0.027598,-0.03134
12.690000000000005,0.041281,0.023311,-0.039378
12.699999999999996,0.04648,0.036321,-0.035923
12.71,0.037704,0.040594,-0.042049
12.720000000000006,0.03785,0.033649,-0.049091
12.729999999999997,0.055612,0.033708,-0.051864
12.740000000000002,0.021136,0.044812,-0.060463
12.749999999999991,0.037907,0.046614,-0.057055
12.759999999999998,0.026354,0.057824,-0.05876
12.770000000000003,0.025555,0.070775,-0.069367
12.779999999999994,0.016394,0.067349,-0.048992
12.79,0.023854,0.067327,-0.072834
12.800000000000004,0.014866,0.071653,-0.064822
12.809999999999995,-0.002032,0.053442,-0.054968
12.82,0.004988,0.055223,-0.051481
12.830000000000004,0.01828,0.033639,-0.043599
12.839999999999996,0.00975,0.03444,-0.067321
12.85,0.038362,0.025868,-0.080699
12.860000000000008,0.048595,0.036367,-0.058727
12.869999999999996,0.023891,0.032808,-0.063817
12.880000000000004,0.023903,0.034524,-0.063825
