time,Gyr_X,Gyr_Y,Gyr_Z
0.0,-0.017605,0.007389,-0.017839
0.0100000000000051,0.008902,0.010098,-0.0145
0.019999999999996,-0.010661,0.012631,-0.010847
0.0300000000000011,0.017623,0.015331,-0.007536
0.0400000000000062,0.004242,0.013555,-0.000395
0.0499999999999971,0.013874,0.01534,0.006591
0.0600000000000022,0.01836,0.025727,-0.000515
0.0699999999999931,0.000901,-0.000315,-0.008251
0.0799999999999983,-0.005494,0.015259,-0.000297
0.0900000000000034,0.007162,0.006616,-0.014472
0.0999999999999943,-0.01046,0.011716,-0.022299
0.1099999999999994,-0.012484,0.004826,-0.003769
0.1200000000000045,-0.024789,0.001301,-0.008972
0.1299999999999954,-0.028288,0.003017,-0.012475
0.1400000000000005,-0.035508,0.004732,-0.003615
0.1500000000000056,-0.021115,-0.007361,-0.013387
0.1599999999999966,-0.017826,-0.007296,0.003363
0.1700000000000017,-0.040722,-0.009137,-0.005295
0.1799999999999926,-0.019466,-0.002137,-0.008105
0.1899999999999977,-0.023043,-0.012522,-0.002779
0.2000000000000028,-0.021307,0.004777,-0.005488
0.2099999999999937,-0.017802,0.003057,-0.001997
0.2199999999999988,-0.015971,-0.009046,-0.001978
0.2300000000000039,0.010537,0.004903,-0.0022
0.2399999999999948,0.013942,0.004948,0.0066
0.25,0.019472,0.005795,-0.007546
0.2600000000000051,0.040793,-0.015759,-0.004122
0.269999999999996,0.054778,0.005939,0.001017
0.2800000000000011,0.067288,-0.003551,-0.002577
0.2900000000000062,0.077022,0.010319,-0.00709
0.2999999999999971,0.086702,-0.006053,0.000822
0.3100000000000023,0.079408,2e-06,0.011436
0.3199999999999932,0.093765,-0.001713,-0.001013
0.3299999999999983,0.100666,0.012177,0.007735
0.3400000000000034,0.102476,6.9e-05,0.009522
0.3499999999999943,0.084582,3e-05,0.021109
0.3599999999999994,0.063396,0.012054,0.011539
0.3700000000000045,0.065189,0.005148,0.011548
0.3799999999999954,0.047631,-0.00619,0.004635
0.3900000000000005,0.026304,0.006705,0.004748
0.4000000000000057,0.001636,0.005727,-0.003894
0.4099999999999966,-0.019994,-0.00207,0.022727
0.4200000000000017,-0.04112,-0.000428,0.012296
0.4299999999999926,-0.056169,-0.012576,0.015966
0.4399999999999977,-0.056218,0.004719,0.014154
0.4500000000000028,-0.052838,0.008216,0.024701
0.4599999999999937,-0.050771,0.00298,0.007054
0.4699999999999988,-0.051614,0.0047,0.003538
0.480000000000004,-0.025071,0.01171,0.003326
0.4899999999999949,-0.042788,0.032379,-0.002781
0.5,-0.048245,0.020274,0.010509
0.5100000000000051,-0.033962,0.011662,0.005132
0.519999999999996,-0.032073,0.005601,-0.000148
0.5300000000000011,-0.035661,-0.000462,0.005176
0.5400000000000063,-0.040785,0.011573,-0.009817
0.5499999999999972,-0.026773,0.003013,0.003337
0.5600000000000023,-0.019654,0.004768,0.000637
0.5699999999999932,-0.024886,0.003007,-0.003733
0.5799999999999983,-0.019476,-0.008221,-0.006382
0.5900000000000034,-0.021207,-0.015146,-0.006345
0.5999999999999943,-0.021189,-0.012554,-0.009001
0.6099999999999994,-0.026549,0.009056,-0.014301
0.6200000000000045,-0.030032,-0.009116,-0.012464
0.6299999999999955,-0.027469,0.001291,-0.009851
0.6400000000000006,-0.035466,0.001259,-0.008929
0.6500000000000057,-0.040797,0.001245,-0.008006
0.6599999999999966,-0.038329,0.027223,-0.003676
0.6700000000000017,-0.032232,0.027258,0.003336
0.6799999999999926,-0.023625,0.029069,0.019159
0.6899999999999977,-0.028816,0.0394,0.007703
0.7000000000000028,-0.01919,0.036004,0.015578
0.7099999999999937,-0.023659,0.027346,0.020912
0.7199999999999989,-0.029017,0.044612,0.017359
0.730000000000004,-0.052181,0.042818,0.026339
0.7399999999999949,-0.074555,0.058327,0.037034
0.75,-0.089411,0.035739,0.031883
0.7600000000000051,-0.095555,0.021872,0.033723
0.769999999999996,-0.107204,0.022723,0.04351
0.7800000000000011,-0.098074,0.028762,0.024912
0.7900000000000063,-0.088215,0.028791,0.017801
0.7999999999999972,-0.081095,0.034006,0.014216
0.8100000000000023,-0.074135,0.023689,0.025664
0.8199999999999932,-0.071391,0.049628,0.011486
0.8299999999999983,-0.055242,0.03928,0.001703
0.8400000000000034,-0.071275,0.04269,0.007984
0.8499999999999943,-0.062551,0.036689,0.021174
0.8599999999999994,-0.058158,0.044493,0.022901
0.8700000000000045,-0.071242,0.032299,0.014201
0.8799999999999955,-0.053691,0.049687,0.019331
0.8900000000000006,-0.034512,0.044643,0.041278
0.9000000000000057,-0.027326,0.032553,0.038617
0.9099999999999966,-0.017061,0.043032,0.059691
0.9200000000000016,-0.025058,0.049064,0.059736
0.9299999999999926,-0.041614,0.03772,0.045772
0.9399999999999976,-0.046107,0.055015,0.044008
0.9500000000000028,-0.034918,0.062043,0.062442
0.9599999999999936,-0.050667,0.061943,0.049314
0.9699999999999988,-0.04913,0.062003,0.063423
0.980000000000004,-0.04288,0.06375,0.058087
0.9899999999999948,-0.051074,0.070689,0.068722
1.0,-0.034891,0.058594,0.056281
1.0100000000000051,-0.041784,0.055059,0.043956
1.019999999999996,-0.007992,0.049971,0.038437
1.0300000000000011,-0.000733,0.054288,0.026022
1.0400000000000065,0.026011,0.053489,0.013479
1.0499999999999972,0.049196,0.046625,0.004503
1.0600000000000025,0.064257,0.046675,0.002625
1.0699999999999932,0.082237,0.019893,-0.006259
1.0799999999999983,0.067164,0.039718,-0.011499
1.0900000000000034,0.068177,0.005986,-0.007887
1.0999999999999943,0.058637,0.003327,-0.021937
1.1099999999999994,0.03027,0.003231,-0.020854
1.1200000000000043,0.010925,-0.008975,-0.025099
1.1299999999999957,-0.012951,0.009939,-0.032027
1.1400000000000006,-0.035001,-0.002257,-0.034473
1.1500000000000057,-0.048164,-0.005771,-0.041404
1.1599999999999966,-0.068424,0.006257,-0.052736
1.1700000000000017,-0.080011,-0.001549,-0.045583
1.1799999999999926,-0.079048,0.021772,-0.058004
1.1899999999999975,-0.093694,0.026975,-0.029701
1.2000000000000028,-0.102799,0.026964,-0.013781
1.2099999999999935,-0.130395,0.038986,-0.008326
1.2199999999999989,-0.154465,0.05795,-0.002018
1.230000000000004,-0.157905,0.054461,-0.005515
1.2399999999999949,-0.140334,0.056273,0.006682
1.25,-0.09876,0.06505,0.010747
1.2600000000000051,-0.028495,0.053117,-0.000328
1.269999999999996,0.036145,0.056794,0.002722
1.2800000000000011,0.13821,0.043297,-0.005028
1.2900000000000065,0.22146,0.050553,-0.007364
1.2999999999999972,0.313586,0.0561,-0.012421
1.3100000000000025,0.363393,0.056255,-0.026862
1.3199999999999932,0.404415,0.073656,-0.052755
1.3299999999999983,0.392194,0.061481,-0.063221
1.3400000000000034,0.410057,0.075372,-0.079246
1.3499999999999943,0.392598,0.057997,-0.091395
1.3599999999999994,0.374687,0.075271,-0.085994
1.3700000000000043,0.349601,0.095996,-0.076138
1.3799999999999957,0.306946,0.09416,-0.069625
1.3900000000000006,0.244718,0.099166,-0.060376
1.4000000000000057,0.204526,0.11637,-0.047795
1.4099999999999966,0.12557,0.117817,-0.04374
1.4200000000000017,0.054566,0.107185,-0.030884
1.4299999999999926,-0.027071,0.115536,-0.024172
1.4399999999999975,-0.097874,0.112653,-0.028099
1.4500000000000028,-0.140543,0.108218,-0.017189
1.4599999999999935,-0.176319,0.123727,0.000686
1.4699999999999989,-0.213546,0.118418,0.006273
1.480000000000004,-0.236724,0.120091,0.017017
1.4899999999999949,-0.291771,0.149328,0.017369
1.5,-0.334349,0.140563,0.022998
1.5100000000000051,-0.355868,0.173397,0.030133
1.519999999999996,-0.336504,0.187323,0.035257
1.5300000000000011,-0.30987,0.187386,0.035053
1.5400000000000065,-0.26557,0.192721,0.034718
1.5499999999999972,-0.216381,0.211986,0.055475
1.5600000000000025,-0.161323,0.213877,0.048025
1.5699999999999932,-0.097627,0.209773,0.057271
1.5799999999999983,-0.058741,0.196944,0.067588
1.5900000000000034,-0.032142,0.184932,0.066524
1.5999999999999943,-0.004867,0.169503,0.080462
1.6099999999999994,0.020312,0.16864,0.055558
1.6200000000000043,0.014466,0.15557,0.036206
1.6299999999999957,0.041577,0.117523,0.013168
1.6400000000000006,0.089642,0.10642,0.000517
1.6500000000000057,0.099799,0.096017,-0.025982
1.6599999999999966,0.143501,0.07282,-0.038533
1.6700000000000017,0.171217,0.068608,-0.054534
1.6799999999999926,0.189888,0.048812,-0.052814
1.6899999999999975,0.179547,0.047018,-0.072118
1.7000000000000028,0.165501,0.036581,-0.08081
1.7099999999999935,0.151071,0.008909,-0.057741
1.7199999999999989,0.101679,0.001785,-0.071502
1.730000000000004,0.058943,-0.024269,-0.052647
1.7399999999999949,-0.006628,-0.026274,-0.04423
1.75,-0.055391,-0.036808,-0.036758
1.7600000000000051,-0.107622,-0.012799,-0.043468
1.769999999999996,-0.152453,0.007893,-0.012312
1.7800000000000011,-0.179752,0.01989,-0.02801
1.7900000000000065,-0.187789,0.038877,-0.029757
1.7999999999999972,-0.192389,0.063134,-0.035965
1.8100000000000025,-0.212451,0.045724,-0.051652
1.8199999999999927,-0.24062,0.047351,-0.070877
1.8299999999999983,-0.238771,0.038726,-0.07173
1.8400000000000036,-0.215589,0.024942,-0.070974
1.8499999999999943,-0.176631,0.044079,-0.069525
1.8599999999999997,-0.100477,0.066795,-0.064805
1.8700000000000043,-0.083996,0.087648,-0.04558
1.8799999999999957,-0.076267,0.108448,-0.035135
1.8900000000000008,-0.083952,0.137919,-0.003406
1.9000000000000057,-0.0912,0.163852,9.7e-05
1.9099999999999968,-0.066698,0.176101,0.014873
1.9200000000000017,-0.016916,0.181475,0.000433
1.9299999999999928,0.052105,0.212907,-0.009806
1.9399999999999975,0.11435,0.201044,-0.026044
1.9500000000000028,0.144438,0.202924,-0.027979
1.9599999999999935,0.159743,0.201216,-0.043925
1.9699999999999989,0.162587,0.190808,-0.050962
1.980000000000004,0.134858,0.188996,-0.031366
1.9899999999999949,0.125127,0.199311,-0.033075
2.0,0.124166,0.213154,-0.029542
2.010000000000005,0.152249,0.237522,-0.015628
2.019999999999996,0.151197,0.263493,-0.015686
2.030000000000001,0.161567,0.268801,-0.005196
2.0400000000000063,0.134521,0.303411,0.00903
2.049999999999997,0.109145,0.318148,0.040956
2.0600000000000023,0.090441,0.337978,0.042811
2.069999999999993,0.062567,0.353528,0.065924
2.0799999999999983,0.037737,0.379382,0.056324
2.0900000000000034,0.026585,0.403648,0.080158
2.0999999999999943,0.047578,0.446125,0.081642
2.1099999999999994,0.0685,0.454032,0.10086
2.1200000000000045,0.0929,0.478399,0.120027
2.1299999999999955,0.110095,0.532156,0.136502
2.140000000000001,0.140731,0.566929,0.149433
2.1500000000000057,0.20518,0.58542,0.1525
2.1599999999999966,0.230363,0.633229,0.168166
2.1700000000000017,0.234153,0.69393,0.187432
2.1799999999999926,0.228041,0.74766,0.215548
2.1899999999999977,0.156729,0.784611,0.228281
2.200000000000003,0.10326,0.809508,0.239179
2.2099999999999937,0.052065,0.817217,0.281871
2.219999999999999,0.029342,0.828469,0.317307
2.230000000000004,-0.019797,0.842187,0.342311
2.239999999999995,-0.037128,0.864699,0.368813
2.25,-0.046502,0.874308,0.400617
2.260000000000005,-0.069659,0.89071,0.404304
2.269999999999996,-0.068331,0.916764,0.423685
2.280000000000001,-0.072024,0.910763,0.434376
2.2900000000000063,-0.053202,0.917902,0.47483
2.299999999999997,-0.096977,0.934249,0.493628
2.3100000000000023,-0.119497,0.948071,0.514039
2.319999999999993,-0.139633,0.961992,0.551241
2.3299999999999983,-0.131379,0.989829,0.584685
2.3400000000000034,-0.111981,1.034913,0.575651
2.3499999999999943,-0.069733,1.042085,0.587699
2.3599999999999994,-0.064307,1.059426,0.571769
2.3700000000000045,-0.092842,1.054181,0.584361
2.3799999999999955,-0.12417,1.061048,0.602229
2.390000000000001,-0.148125,1.060975,0.605953
2.4000000000000057,-0.171293,1.040178,0.621149
2.4099999999999966,-0.148653,1.034951,0.583
2.4200000000000017,-0.083816,1.036003,0.517454
2.4299999999999926,-0.148826,1.112105,0.521478
2.4399999999999977,-0.259025,1.164539,0.518602
2.450000000000003,-0.324958,1.200624,0.524202
2.4599999999999937,-0.369434,1.224712,0.528022
2.469999999999999,-0.428407,1.249656,0.556613
2.480000000000004,-0.462631,1.297182,0.581441
2.489999999999995,-0.469846,1.331795,0.583247
2.5,-0.441579,1.367385,0.577705
2.510000000000005,-0.420239,1.395146,0.561601
2.519999999999996,-0.426582,1.434084,0.557146
2.530000000000001,-0.425591,1.467815,0.54034
2.5400000000000063,-0.441663,1.50842,0.536829
2.549999999999997,-0.441258,1.529115,0.505051
2.5600000000000023,-0.41556,1.570748,0.496041
2.569999999999993,-0.401967,1.58637,0.473092
2.5799999999999983,-0.329613,1.630007,0.476133
2.5900000000000034,-0.276299,1.63112,0.461705
2.5999999999999943,-0.262535,1.643417,0.482821
2.6099999999999994,-0.245491,1.654733,0.461562
2.6200000000000045,-0.253531,1.656474,0.462521
2.6299999999999955,-0.262268,1.66941,0.447556
2.640000000000001,-0.254893,1.67723,0.426369
2.6500000000000057,-0.225845,1.675511,0.381204
2.6599999999999966,-0.187405,1.69034,0.353622
2.6700000000000017,-0.15081,1.67579,0.339369
2.6799999999999926,-0.113347,1.66643,0.323335
2.6899999999999977,-0.0887,1.651907,0.333835
2.700000000000003,-0.056963,1.639137,0.342488
2.7099999999999937,-0.022309,1.60127,0.345043
2.719999999999999,0.012334,1.603996,0.337754
2.730000000000004,0.064792,1.554031,0.343708
2.739999999999995,0.136974,1.525716,0.327447
2.75,0.224104,1.495761,0.316375
2.760000000000005,0.285511,1.442397,0.30815
2.769999999999996,0.340317,1.395832,0.264654
2.780000000000001,0.359908,1.387293,0.250417
2.7900000000000063,0.371788,1.395965,0.215055
2.799999999999997,0.372855,1.389068,0.199248
2.8100000000000023,0.353249,1.364793,0.210029
2.819999999999993,0.362098,1.326777,0.219768
2.8299999999999983,0.357052,1.292128,0.21286
2.8400000000000034,0.341272,1.263494,0.212137
2.8499999999999943,0.323867,1.262538,0.191111
2.8599999999999994,0.313587,1.24002,0.17455
2.8700000000000045,0.31388,1.245224,0.146373
2.8799999999999955,0.280301,1.222681,0.137028
2.890000000000001,0.258868,1.24168,0.133627
2.9000000000000057,0.234994,1.239848,0.128504
2.9099999999999966,0.218147,1.231988,0.132157
2.9200000000000017,0.189966,1.228353,0.123482
2.9299999999999926,0.145985,1.187485,0.118574
2.9399999999999977,0.116055,1.168335,0.11
2.950000000000003,0.1118,1.151072,0.097783
2.9599999999999937,0.091035,1.156377,0.115676
2.969999999999999,0.051565,1.161382,0.08067
2.980000000000004,0.080413,1.176232,0.094507
2.989999999999995,0.094486,1.175402,0.101381
3.0,0.126603,1.192782,0.085278
3.010000000000005,0.12007,1.176229,0.048246
3.019999999999996,0.100599,1.177153,0.048564
3.030000000000001,0.081163,1.1547,0.047091
3.0400000000000063,0.075151,1.159942,0.082261
3.049999999999997,0.071914,1.184113,0.05582
3.0600000000000023,0.091494,1.182348,0.047621
3.069999999999993,0.104079,1.160773,0.050339
3.0799999999999983,0.130978,1.125388,0.039679
3.0900000000000034,0.143643,1.059651,0.037892
3.0999999999999943,0.168127,1.046964,0.059077
3.1099999999999994,0.16829,1.001159,0.052088
3.1200000000000045,0.166499,0.983966,0.055785
3.1299999999999955,0.17033,0.949331,0.039024
3.140000000000001,0.163532,0.923387,0.033085
3.1500000000000057,0.158463,0.871425,0.028774
3.1599999999999966,0.132038,0.817617,0.035133
3.1700000000000017,0.10747,0.74496,0.048004
3.1799999999999926,0.097385,0.66186,0.041257
3.1899999999999977,0.090697,0.577015,0.039711
3.200000000000003,0.075372,0.512891,0.020614
3.2099999999999937,0.081391,0.429834,0.003214
3.219999999999999,0.108568,0.341686,-0.009058
3.230000000000004,0.091351,0.244753,-0.013953
3.239999999999995,0.063255,0.158205,-0.008224
3.25,0.030953,0.080197,-0.016651
3.260000000000005,-0.009902,0.002071,-0.040915
3.269999999999996,-0.023499,-0.075911,-0.051226
3.280000000000001,-0.031983,-0.134781,-0.055398
3.2900000000000063,-0.027837,-0.204871,-0.071975
3.299999999999997,-0.013732,-0.255777,-0.050731
3.3100000000000023,0.027526,-0.326584,-0.059633
3.319999999999993,0.050464,-0.369737,-0.03681
3.3299999999999983,0.092567,-0.412913,-0.049372
3.3400000000000034,0.123992,-0.473383,-0.054719
3.3499999999999943,0.156262,-0.513089,-0.067182
3.3599999999999994,0.199099,-0.588208,-0.063778
3.3700000000000045,0.22562,-0.601947,-0.056013
3.3799999999999955,0.256037,-0.659827,-0.055212
3.390000000000001,0.249174,-0.675465,-0.063063
3.4000000000000057,0.257427,-0.715275,-0.067446
3.4099999999999966,0.256785,-0.751655,-0.070023
3.4200000000000017,0.196646,-0.79084,-0.06161
3.4299999999999926,0.190127,-0.854986,-0.075553
3.4399999999999977,0.14779,-0.902789,-0.069896
3.450000000000003,0.174761,-0.947764,-0.078824
3.4599999999999937,0.178606,-0.994508,-0.080493
3.469999999999999,0.184061,-1.031685,-0.075122
3.480000000000004,0.191241,-1.089579,-0.060887
3.489999999999995,0.187905,-1.157916,-0.053634
3.5,0.159571,-1.222875,-0.032127
3.510000000000005,0.117086,-1.264578,-0.01676
3.519999999999996,0.084031,-1.320236,-0.029686
3.530000000000001,0.068657,-1.377524,-0.041828
3.5400000000000063,0.069131,-1.413935,-0.059371
3.549999999999997,0.098043,-1.4554,-0.084131
3.5600000000000023,0.099812,-1.498606,-0.071682
3.569999999999993,0.07162,-1.552341,-0.064314
3.5799999999999983,0.030883,-1.597493,-0.048994
3.5900000000000034,-0.016003,-1.639238,-0.035383
3.5999999999999943,-0.072832,-1.705389,-0.05162
3.61,-0.065134,-1.748804,-0.064861
3.620000000000005,-0.065289,-1.806925,-0.085935
3.629999999999996,-0.026742,-1.831942,-0.107334
3.640000000000001,0.005364,-1.86643,-0.109212
3.6500000000000057,0.029869,-1.902598,-0.077545
3.6599999999999966,0.070796,-1.923273,-0.08134
3.6700000000000017,0.072638,-1.968289,-0.068919
3.6799999999999926,0.072862,-1.975289,-0.07684
3.6899999999999977,0.064698,-1.989346,-0.109398
3.700000000000003,0.036791,-2.040626,-0.114476
3.7099999999999937,0.012367,-2.058102,-0.13018
3.719999999999999,-0.0312,-2.090405,-0.165109
3.730000000000004,-0.05408,-2.106111,-0.166702
3.739999999999995,-0.071398,-2.128772,-0.178858
3.75,-0.074895,-2.132328,-0.175313
3.760000000000005,-0.048238,-2.14442,-0.174646
3.769999999999996,-0.050073,-2.142713,-0.168522
3.780000000000001,-0.061068,-2.161882,-0.191357
3.7900000000000063,-0.053096,-2.160197,-0.186234
3.799999999999997,-0.065407,-2.172467,-0.184495
3.8100000000000014,-0.067057,-2.172563,-0.189857
3.819999999999993,-0.056318,-2.159632,-0.197048
3.8299999999999983,-0.031446,-2.144911,-0.202565
3.8400000000000034,0.003609,-2.128362,-0.179955
3.8499999999999934,0.037706,-2.100545,-0.15739
3.86,0.049258,-2.06851,-0.169052
3.870000000000005,0.080059,-2.040668,-0.159633
3.879999999999996,0.072331,-2.002743,-0.186233
3.890000000000001,0.072228,-1.964786,-0.189983
3.9000000000000057,0.07929,-1.937196,-0.195505
3.9099999999999966,0.096605,-1.925062,-0.171029
3.9200000000000017,0.139668,-1.893815,-0.157343
3.9299999999999926,0.189903,-1.865986,-0.1481
3.9399999999999977,0.255816,-1.839739,-0.118644
3.950000000000003,0.302237,-1.799708,-0.09526
3.9599999999999937,0.332765,-1.770131,-0.072662
3.969999999999999,0.344097,-1.737246,-0.07292
3.980000000000004,0.341874,-1.715609,-0.053655
3.989999999999995,0.325529,-1.688859,-0.038702
4.0,0.328232,-1.677683,-0.043199
4.010000000000005,0.350389,-1.661258,-0.045201
4.019999999999996,0.373149,-1.653405,-0.029548
4.030000000000001,0.362246,-1.642186,-0.015393
4.040000000000006,0.358481,-1.626614,-0.006599
4.049999999999997,0.357958,-1.60754,0.02153
4.060000000000002,0.338384,-1.619785,0.030394
4.069999999999993,0.295588,-1.636425,0.05266
4.079999999999998,0.254057,-1.63928,0.045818
4.090000000000003,0.230194,-1.651512,0.04512
4.099999999999994,0.173872,-1.684661,0.033226
4.109999999999999,0.161805,-1.684801,0.015628
4.1200000000000045,0.12336,-1.693738,-0.014142
4.129999999999996,0.10408,-1.726747,-0.017532
4.140000000000001,0.07068,-1.752903,-0.027894
4.150000000000006,0.067337,-1.753001,-0.045586
4.159999999999997,0.035534,-1.772186,-0.048891
4.170000000000002,0.027097,-1.786132,-0.075288
4.179999999999993,0.022139,-1.791406,-0.096433
4.189999999999998,0.0048,-1.791547,-0.119278
4.200000000000003,-0.012828,-1.786484,-0.124525
4.209999999999994,-0.00529,-1.788331,-0.153746
4.219999999999999,-0.020743,-1.808458,-0.18104
4.230000000000004,-0.010324,-1.823153,-0.165332
4.239999999999995,0.003887,-1.814521,-0.170833
4.25,0.025078,-1.816191,-0.164864
4.260000000000005,0.042871,-1.819601,-0.165875
4.269999999999996,0.046606,-1.830017,-0.17295
4.280000000000001,0.069975,-1.828298,-0.196104
4.290000000000006,0.070365,-1.845719,-0.217309
4.299999999999997,0.0866,-1.843193,-0.238673
4.310000000000002,0.083224,-1.851103,-0.249324
4.319999999999993,0.06016,-1.85122,-0.252767
4.329999999999998,0.026291,-1.840067,-0.247305
4.340000000000003,-0.018179,-1.844516,-0.238197
4.349999999999994,-0.063142,-1.834193,-0.200917
4.359999999999999,-0.090835,-1.827392,-0.190245
4.3700000000000045,-0.088202,-1.827445,-0.19033
4.379999999999996,-0.092921,-1.791176,-0.183405
4.390000000000001,-0.066482,-1.767742,-0.183692
4.400000000000006,-0.05693,-1.757325,-0.173226
4.409999999999997,-0.064227,-1.759974,-0.159157
4.420000000000002,-0.077583,-1.772184,-0.151204
4.429999999999993,-0.089574,-1.761788,-0.123854
4.439999999999998,-0.080552,-1.741035,-0.14164
4.450000000000003,-0.074464,-1.746201,-0.132911
4.459999999999994,-0.082674,-1.739323,-0.120607
4.469999999999999,-0.059517,-1.729797,-0.133214
4.480000000000004,-0.031015,-1.751404,-0.135214
4.489999999999995,-0.016961,-1.741044,-0.130162
4.5,0.001927,-1.761852,-0.141808
4.510000000000005,0.016947,-1.780851,-0.13577
4.519999999999996,0.06665,-1.777261,-0.146791
4.530000000000001,0.101933,-1.79097,-0.135609
4.540000000000006,0.107253,-1.787511,-0.139217
4.549999999999997,0.147736,-1.767418,-0.131634
4.560000000000002,0.174029,-1.749985,-0.120424
4.569999999999993,0.204933,-1.742095,-0.11629
4.579999999999998,0.22162,-1.738586,-0.109408
4.590000000000003,0.230135,-1.733343,-0.093682
4.599999999999994,0.213914,-1.733385,-0.079524
4.609999999999999,0.206341,-1.716075,-0.054877
4.6200000000000045,0.221759,-1.691799,-0.031336
4.629999999999996,0.21294,-1.673762,-0.041993
4.640000000000001,0.242787,-1.643402,-0.032629
4.650000000000006,0.242522,-1.613981,-0.025665
4.659999999999997,0.26027,-1.577583,-0.042632
4.670000000000002,0.261035,-1.55835,0.009316
4.679999999999993,0.228833,-1.523824,0.009403
4.689999999999998,0.207687,-1.477097,0.039372
4.700000000000003,0.174399,-1.451227,0.062433
4.709999999999994,0.131272,-1.406365,0.088169
4.719999999999999,0.111478,-1.357965,0.091723
4.730000000000004,0.10858,-1.35101,0.103177
4.739999999999995,0.094859,-1.293061,0.108389
4.75,0.087493,-1.240304,0.105633
4.760000000000005,0.070244,-1.202268,0.119743
4.769999999999996,0.060249,-1.164239,0.123214
4.780000000000001,0.059839,-1.108838,0.129222
4.790000000000006,0.043033,-1.060328,0.166222
4.799999999999997,0.016395,-1.018928,0.153919
4.810000000000002,-0.014162,-0.977527,0.166284
4.819999999999993,-0.033802,-0.936152,0.159158
4.829999999999998,-0.078056,-0.885354,0.138132
4.840000000000003,-0.092096,-0.811964,0.104528
4.849999999999994,-0.112499,-0.756725,0.087765
4.859999999999999,-0.117217,-0.71002,0.091186
4.8700000000000045,-0.133283,-0.682401,0.090312
4.879999999999996,-0.16597,-0.637604,0.070086
4.890000000000001,-0.182961,-0.597881,0.067432
4.900000000000006,-0.189977,-0.568541,0.053278
4.909999999999997,-0.199059,-0.505427,0.046121
4.920000000000002,-0.186945,-0.461235,0.049455
4.929999999999993,-0.199621,-0.393799,0.045856
4.939999999999998,-0.197787,-0.355769,0.031634
4.950000000000003,-0.19269,-0.301266,0.029661
4.959999999999994,-0.199811,-0.264139,0.019867
4.969999999999999,-0.187611,-0.217402,0.015202
4.980000000000004,-0.203934,-0.145662,0.015104
4.989999999999995,-0.205693,-0.09295,-0.002661
5.0,-0.201627,-0.046196,0.007774
5.010000000000005,-0.175225,-0.00456,0.005733
5.019999999999996,-0.179924,0.050827,0.003888
5.030000000000001,-0.138734,0.10642,0.013179
5.040000000000006,-0.119478,0.145466,0.016507
5.049999999999997,-0.109951,0.200017,0.014556
5.060000000000002,-0.095144,0.243332,0.018748
5.069999999999993,-0.060853,0.310914,0.014799
5.079999999999998,-0.031035,0.359481,0.019768
5.090000000000003,-0.000324,0.408902,0.022939
5.099999999999994,0.001971,0.473807,0.024512
5.109999999999999,0.014205,0.529214,0.015467
5.1200000000000045,0.02717,0.581213,0.018793
5.129999999999996,0.040919,0.660913,0.022076
5.140000000000001,0.040976,0.700703,0.0097
5.150000000000006,0.052213,0.764793,0.011296
5.159999999999997,0.057624,0.806292,-0.006467
5.170000000000002,0.046694,0.871993,-0.008314
5.179999999999993,0.054321,0.917005,-0.000561
5.189999999999998,0.062949,0.95767,0.000111
5.200000000000003,0.07401,1.032123,0.005124
5.209999999999994,0.064867,1.103898,0.001488
5.219999999999999,0.05603,1.162686,-0.015296
5.230000000000004,0.054099,1.226726,-0.017982
5.239999999999995,0.012802,1.269819,-0.051208
5.25,0.017219,1.311353,-0.061882
5.260000000000005,0.015279,1.354626,-0.065453
5.269999999999996,0.003167,1.394281,-0.095429
5.280000000000001,0.017035,1.455755,-0.093897
5.290000000000006,0.009984,1.492891,-0.108043
5.299999999999997,0.015306,1.541335,-0.12406
5.310000000000002,-0.00365,1.593221,-0.116085
5.319999999999993,-0.022368,1.620877,-0.115065
5.329999999999998,-0.03209,1.665846,-0.127346
5.340000000000003,-0.029823,1.690194,-0.106128
5.349999999999994,-0.017635,1.718006,-0.098234
5.359999999999999,-0.000127,1.757937,-0.095703
5.3700000000000045,0.006816,1.761481,-0.086881
5.379999999999996,0.020771,1.789262,-0.081718
5.390000000000001,0.031015,1.81359,-0.063298
5.400000000000006,0.029782,1.835281,-0.04477
5.409999999999997,0.024957,1.849182,-0.018261
5.420000000000002,0.028914,1.872668,0.011746
5.429999999999993,0.015514,1.889979,0.018072
5.439999999999998,0.00679,1.888245,0.01382
5.450000000000003,-0.023189,1.884717,0.008849
5.459999999999994,-0.051272,1.888062,-0.009443
5.469999999999999,-0.100649,1.870577,-0.019595
5.480000000000004,-0.13424,1.87562,-0.022864
5.489999999999995,-0.154675,1.85827,-0.009383
5.5,-0.16965,1.865151,-0.014491
5.510000000000005,-0.202423,1.840891,-0.005293
5.519999999999996,-0.217603,1.813281,0.012609
5.530000000000001,-0.258543,1.802866,0.030646
5.540000000000006,-0.285879,1.788982,0.029186
5.549999999999997,-0.338068,1.778441,0.030514
5.560000000000002,-0.3558,1.762823,0.040412
5.569999999999993,-0.355843,1.759365,0.047516
5.579999999999998,-0.327233,1.735202,0.043902
5.590000000000003,-0.297491,1.730187,0.073732
5.599999999999994,-0.249507,1.69923,0.077032
5.609999999999999,-0.228433,1.702829,0.089244
5.6200000000000045,-0.18046,1.686592,0.088991
5.629999999999996,-0.157046,1.675435,0.07131
5.640000000000001,-0.128851,1.679079,0.080865
5.650000000000006,-0.115381,1.673087,0.069367
5.659999999999997,-0.093335,1.687918,0.070105
5.670000000000002,-0.100604,1.693106,0.079847
5.679999999999993,-0.1006,1.693112,0.080761
5.689999999999998,-0.092093,1.703597,0.10099
5.700000000000003,-0.10402,1.712322,0.125823
5.709999999999994,-0.11242,1.739228,0.14708
5.719999999999999,-0.092323,1.753248,0.162873
5.730000000000004,-0.060659,1.754338,0.17861
5.739999999999995,-0.057445,1.779524,0.192696
5.75,-0.069233,1.794277,0.205147
5.760000000000005,-0.070838,1.794276,0.19284
5.769999999999996,-0.094203,1.813278,0.208835
5.780000000000001,-0.099533,1.806363,0.212448
5.790000000000006,-0.105281,1.830676,0.2319
5.799999999999997,-0.103753,1.82128,0.249631
5.810000000000002,-0.10749,1.836069,0.255002
5.819999999999993,-0.10082,1.834496,0.281495
5.829999999999998,-0.104475,1.846634,0.28506
5.840000000000003,-0.118923,1.860489,0.300166
5.849999999999994,-0.109089,1.868318,0.293063
5.859999999999999,-0.111764,1.874408,0.29225
5.8700000000000045,-0.091496,1.872846,0.297483
5.879999999999996,-0.096103,1.85737,0.31175
5.890000000000001,-0.109377,1.834912,0.317288
5.900000000000006,-0.117647,1.826368,0.33863
5.909999999999997,-0.121109,1.809132,0.335246
5.920000000000002,-0.145211,1.803945,0.346061
5.929999999999993,-0.135616,1.798855,0.356635
5.939999999999998,-0.1356,1.798894,0.35494
5.950000000000003,-0.126639,1.793774,0.34789
5.959999999999994,-0.114221,1.786984,0.346131
5.969999999999999,-0.126834,1.759409,0.365774
5.980000000000004,-0.124304,1.746556,0.374683
5.989999999999995,-0.134051,1.74572,0.37307
6.0,-0.150213,1.74055,0.38912
6.010000000000005,-0.145015,1.749275,0.396181
6.019999999999996,-0.138057,1.749358,0.40679
6.030000000000001,-0.120239,1.749441,0.397896
6.040000000000006,-0.103517,1.746099,0.403107
6.049999999999997,-0.106013,1.751274,0.389029
6.060000000000002,-0.116505,1.739169,0.380369
6.069999999999993,-0.146671,1.735667,0.380632
6.079999999999998,-0.171439,1.7408,0.375523
6.090000000000003,-0.206703,1.706976,0.375912
6.099999999999994,-0.250787,1.71113,0.362149
6.109999999999999,-0.278877,1.700621,0.350066
6.1200000000000045,-0.305306,1.700508,0.338809
6.129999999999996,-0.34748,1.700315,0.313561
6.140000000000001,-0.356649,1.69865,0.33307
6.150000000000006,-0.371552,1.682177,0.328853
6.159999999999997,-0.393859,1.679556,0.342283
6.170000000000002,-0.372524,1.679648,0.339525
6.179999999999993,-0.348539,1.665055,0.34032
6.189999999999998,-0.303465,1.681696,0.341765
6.200000000000003,-0.277615,1.652398,0.339926
6.209999999999994,-0.246349,1.626587,0.33101
6.219999999999999,-0.23102,1.626667,0.311572
6.230000000000004,-0.22832,1.587833,0.316977
6.239999999999995,-0.222566,1.575738,0.287032
6.25,-0.22249,1.554171,0.286264
6.260000000000005,-0.225867,1.543785,0.275745
6.269999999999996,-0.209911,1.530921,0.274832
6.280000000000001,-0.191952,1.538755,0.255306
6.290000000000006,-0.187953,1.512793,0.232437
6.299999999999997,-0.202797,1.524857,0.211391
6.310000000000002,-0.237162,1.514369,0.197568
6.319999999999993,-0.254685,1.505661,0.183618
6.329999999999998,-0.275945,1.476209,0.190913
6.340000000000003,-0.314801,1.478642,0.182376
6.349999999999994,-0.309528,1.469169,0.190324
6.359999999999999,-0.294291,1.478724,0.178774
6.3700000000000045,-0.236262,1.465935,0.152896
6.379999999999996,-0.199234,1.474788,0.155272
6.390000000000001,-0.165509,1.474979,0.144522
6.400000000000006,-0.165584,1.509641,0.130354
6.409999999999997,-0.188856,1.532129,0.132229
6.420000000000002,-0.229914,1.557993,0.139462
6.429999999999993,-0.268786,1.569109,0.130946
6.439999999999998,-0.316803,1.543914,0.150757
6.450000000000003,-0.332658,1.533496,0.145623
6.459999999999994,-0.351427,1.516208,0.158183
6.469999999999999,-0.33504,1.509515,0.188179
6.480000000000004,-0.326514,1.50619,0.210219
6.489999999999995,-0.275393,1.494333,0.231064
6.5,-0.205493,1.501505,0.231388
6.510000000000005,-0.149911,1.503491,0.250428
6.519999999999996,-0.091365,1.489836,0.244691
6.530000000000001,-0.043595,1.493526,0.244387
6.540000000000006,-0.018724,1.490212,0.228377
6.549999999999997,0.000785,1.473086,0.228403
6.560000000000002,0.001195,1.49402,0.244332
6.569999999999993,-0.022017,1.494859,0.256863
6.579999999999998,-0.028372,1.492314,0.269371
6.590000000000003,-0.044258,1.439457,0.285424
6.599999999999994,-0.059982,1.40565,0.288304
6.609999999999999,-0.070525,1.335597,0.29823
6.6200000000000045,-0.070435,1.294953,0.287604
6.629999999999996,-0.037008,1.277057,0.310553
6.640000000000001,-0.021156,1.260675,0.316535
6.650000000000006,0.033764,1.237585,0.327821
6.659999999999997,0.063745,1.19024,0.350727
6.670000000000002,0.078225,1.112409,0.350677
6.679999999999993,0.0675,1.084794,0.363288
6.689999999999998,0.054282,1.043218,0.358065
6.700000000000003,0.037568,1.024154,0.358282
6.709999999999994,0.031136,0.987787,0.328546
6.719999999999999,0.018932,0.970358,0.317091
6.730000000000004,0.000313,0.925195,0.274118
6.739999999999995,-0.028166,0.889463,0.231126
6.75,-0.055442,0.829771,0.23598
6.760000000000005,-0.059696,0.777856,0.23612
6.769999999999996,-0.05499,0.737158,0.228191
6.780000000000001,-0.058215,0.695589,0.218607
6.790000000000006,-0.01522,0.658489,0.199878
6.799999999999997,0.012708,0.61357,0.184828
6.810000000000002,0.030834,0.572065,0.168033
6.819999999999993,0.018076,0.518405,0.150713
6.829999999999998,-0.00616,0.457673,0.128924
6.840000000000003,-0.00785,0.417846,0.132474
6.849999999999994,-0.033864,0.355393,0.115145
6.859999999999999,-0.037683,0.291265,0.099453
6.8700000000000045,-0.021891,0.199522,0.085461
6.879999999999996,-0.003207,0.093925,0.059127
6.890000000000001,0.031161,-0.008065,0.045942
6.900000000000006,0.051393,-0.136027,0.038242
6.909999999999997,0.073204,-0.269152,0.045522
6.920000000000002,0.102003,-0.405685,0.059833
6.929999999999993,0.127179,-0.502439,0.065256
6.939999999999998,0.163487,-0.61135,0.042406
6.950000000000003,0.192567,-0.735816,0.036413
6.959999999999994,0.212786,-0.857735,0.030449
6.969999999999999,0.222702,-0.978905,0.002474
6.980000000000004,0.211181,-1.109643,-0.012133
6.989999999999995,0.208521,-1.237771,-0.028597
7.0,0.179212,-1.366004,-0.03871
7.010000000000005,0.151248,-1.459753,-0.087711
7.019999999999996,0.165394,-1.575754,-0.099881
7.030000000000001,0.178312,-1.686665,-0.149081
7.040000000000006,0.17295,-1.762945,-0.174438
7.049999999999997,0.177286,-1.87376,-0.187463
7.060000000000002,0.167695,-1.986374,-0.217142
7.069999999999993,0.104772,-2.070617,-0.242981
7.079999999999998,0.04033,-2.173957,-0.275812
7.090000000000003,-0.022565,-2.266046,-0.294551
7.099999999999994,-0.0589,-2.338201,-0.318873
7.109999999999999,-0.084631,-2.436249,-0.335293
7.1200000000000045,-0.085611,-2.517763,-0.353696
7.129999999999996,-0.033911,-2.586877,-0.345999
7.140000000000001,-0.009842,-2.656155,-0.38747
7.150000000000006,0.024742,-2.699434,-0.431711
7.159999999999997,0.057313,-2.746982,-0.458263
7.170000000000002,0.059278,-2.785952,-0.452019
7.179999999999993,0.061649,-2.812053,-0.47406
7.189999999999998,0.059401,-2.817429,-0.488233
7.200000000000003,0.042998,-2.836708,-0.501427
7.209999999999994,0.038033,-2.835176,-0.520029
7.219999999999999,0.036235,-2.843918,-0.511247
7.230000000000004,0.070058,-2.865489,-0.511465
7.239999999999995,0.106767,-2.855819,-0.478278
7.25,0.144531,-2.86519,-0.448598
7.260000000000005,0.16671,-2.846968,-0.449709
7.269999999999996,0.187928,-2.822677,-0.447285
7.280000000000001,0.239141,-2.796557,-0.440697
7.290000000000006,0.25866,-2.741232,-0.458692
7.299999999999997,0.314906,-2.690911,-0.441665
7.310000000000002,0.364323,-2.651078,-0.438712
7.319999999999993,0.402635,-2.61639,-0.405718
7.329999999999998,0.42217,-2.60937,-0.353114
7.340000000000003,0.441919,-2.591925,-0.316332
7.349999999999994,0.438556,-2.569309,-0.274008
7.359999999999999,0.426691,-2.556309,-0.252761
7.370000000000003,0.420479,-2.505211,-0.208778
7.3799999999999955,0.409227,-2.441264,-0.185997
7.390000000000001,0.43623,-2.392822,-0.168803
7.400000000000006,0.464958,-2.347826,-0.151658
7.409999999999997,0.456437,-2.316751,-0.128903
7.420000000000002,0.442405,-2.294241,-0.088363
7.429999999999993,0.415465,-2.268352,-0.070611
7.439999999999998,0.397277,-2.258854,-0.037887
7.450000000000003,0.402135,-2.209524,-0.01955
7.459999999999994,0.417915,-2.161936,-0.021553
7.469999999999999,0.445962,-2.113422,-0.019263
7.480000000000004,0.456029,-2.07275,-0.001047
7.489999999999995,0.429137,-2.062554,0.011276
7.5,0.386616,-2.05592,0.007867
7.510000000000005,0.358548,-2.069081,-0.003408
7.519999999999996,0.305489,-2.058925,-0.010989
7.530000000000001,0.254814,-2.035764,-0.007183
7.540000000000006,0.191691,-2.025629,0.003768
7.549999999999997,0.120161,-2.027717,-0.013446
7.560000000000002,0.053572,-2.017641,-0.009597
7.569999999999993,-0.004676,-2.033569,-0.018125
7.579999999999998,-0.045248,-2.030393,-0.026782
7.590000000000003,-0.061553,-2.030643,-0.054974
7.599999999999994,-0.084388,-2.020476,-0.067264
7.609999999999999,-0.049616,-2.01009,-0.08347
7.620000000000003,-0.00668,-2.015245,-0.108497
7.6299999999999955,0.071354,-1.990755,-0.125885
7.640000000000001,0.133505,-1.9983,-0.13779
7.650000000000006,0.163312,-1.991199,-0.123959
7.659999999999997,0.17893,-2.024969,-0.150515
7.670000000000002,0.173735,-2.02161,-0.159411
7.679999999999993,0.159908,-2.035661,-0.17525
7.689999999999998,0.132603,-2.047166,-0.179585
7.700000000000003,0.110288,-2.072537,-0.217386
7.709999999999994,0.089802,-2.082133,-0.210218
7.719999999999999,0.074968,-2.093478,-0.22599
7.730000000000004,0.06589,-2.07532,-0.222459
7.739999999999995,0.0499,-2.090088,-0.218835
7.75,0.023227,-2.08673,-0.214296
7.760000000000005,0.012771,-2.085073,-0.22929
7.769999999999996,-0.003142,-2.093813,-0.229226
7.780000000000001,-0.002801,-2.125071,-0.241584
7.790000000000006,-0.025724,-2.128717,-0.248562
7.799999999999997,-0.059495,-2.134933,-0.241341
7.810000000000002,-0.082734,-2.125489,-0.23418
7.819999999999993,-0.10241,-2.130709,-0.225235
7.829999999999998,-0.101066,-2.121985,-0.203254
7.840000000000003,-0.103749,-2.099521,-0.21126
7.849999999999994,-0.094148,-2.096885,-0.20432
7.859999999999999,-0.096234,-2.077001,-0.1903
7.870000000000003,-0.092841,-2.051072,-0.190458
7.8799999999999955,-0.110827,-2.025174,-0.183393
7.890000000000001,-0.141295,-2.007944,-0.169164
7.900000000000006,-0.153919,-2.002763,-0.160316
7.909999999999997,-0.193288,-2.00115,-0.138083
7.920000000000002,-0.228891,-1.989216,-0.131795
7.929999999999993,-0.283177,-1.97216,-0.1192
7.939999999999998,-0.297388,-1.969689,-0.115642
7.950000000000003,-0.314387,-1.960314,-0.105054
7.959999999999994,-0.328808,-1.943108,-0.097177
7.969999999999999,-0.325315,-1.906838,-0.105299
7.980000000000004,-0.300603,-1.900716,-0.102919
7.989999999999995,-0.297991,-1.886022,-0.105684
8.0,-0.294584,-1.899821,-0.095142
8.010000000000005,-0.297346,-1.89292,-0.09432
8.019999999999996,-0.30973,-1.870547,-0.105829
8.030000000000001,-0.301035,-1.815174,-0.118421
8.040000000000006,-0.306545,-1.777146,-0.120277
8.049999999999997,-0.305055,-1.735614,-0.120442
8.060000000000002,-0.305392,-1.707072,-0.111781
8.069999999999993,-0.311125,-1.675106,-0.097836
8.079999999999998,-0.338348,-1.638841,-0.069609
8.090000000000003,-0.352952,-1.572294,-0.064451
8.099999999999994,-0.36753,-1.504879,-0.05926
8.11,-0.360832,-1.439978,-0.054211
8.120000000000005,-0.363041,-1.358657,-0.052651
8.129999999999995,-0.354975,-1.270308,-0.031805
8.14,-0.343114,-1.192355,-0.026843
8.150000000000006,-0.345513,-1.097163,-0.021837
8.159999999999997,-0.326571,-1.000212,-0.018749
8.170000000000002,-0.346738,-0.898213,-0.00568
8.179999999999993,-0.336489,-0.808256,-0.007782
8.189999999999998,-0.351201,-0.711435,-0.001788
8.200000000000003,-0.367415,-0.628473,-0.010742
8.209999999999994,-0.36767,-0.564453,-0.01712
8.219999999999999,-0.369626,-0.495252,-0.030528
8.230000000000004,-0.356087,-0.42074,-0.014949
8.239999999999995,-0.33172,-0.344525,-0.010053
8.25,-0.305517,-0.252752,-0.013122
8.260000000000005,-0.275766,-0.174784,-0.011774
8.269999999999996,-0.2494,-0.10721,-0.019185
8.280000000000001,-0.230214,-0.022358,-0.027466
8.290000000000006,-0.220108,0.057313,-0.018906
8.299999999999997,-0.20779,0.12827,-0.035032
8.310000000000002,-0.18314,0.195844,-0.045935
8.319999999999993,-0.17562,0.278959,-0.040876
8.329999999999998,-0.155476,0.334413,-0.041131
8.340000000000003,-0.152194,0.403627,-0.046615
8.349999999999994,-0.121071,0.47476,-0.020552
8.36,-0.071146,0.532094,-0.001637
8.370000000000005,-0.036858,0.596253,-0.004666
8.379999999999995,0.009317,0.664021,0.025737
8.39,0.064978,0.723079,0.018199
8.400000000000006,0.112192,0.79343,0.037138
8.409999999999997,0.150797,0.849863,0.043821
8.420000000000002,0.186265,0.91569,0.021377
8.429999999999993,0.213366,0.94697,0.034349
8.439999999999998,0.242061,0.999059,0.049919
8.450000000000003,0.252333,1.080444,0.046144
8.459999999999994,0.267728,1.132519,0.067148
8.469999999999999,0.274707,1.193106,0.05641
8.480000000000004,0.274692,1.226842,0.049325
8.489999999999995,0.278626,1.286618,0.06509
8.5,0.288374,1.31953,0.055305
8.510000000000005,0.301103,1.342022,0.027884
8.519999999999996,0.320447,1.399189,0.018821
8.530000000000001,0.336724,1.442448,-0.016613
8.540000000000006,0.313709,1.471783,-0.027071
8.549999999999997,0.282019,1.506263,-0.051558
8.560000000000002,0.216796,1.540597,-0.084629
8.569999999999993,0.159175,1.580191,-0.094853
8.579999999999998,0.102528,1.618041,-0.108574
8.590000000000003,0.067192,1.641256,-0.119766
8.599999999999994,0.050338,1.668884,-0.124049
8.61,0.025415,1.702571,-0.123866
8.620000000000005,0.013864,1.718131,-0.123765
8.629999999999995,-0.013411,1.752594,-0.143034
8.64,-0.029114,1.783651,-0.165882
8.650000000000006,-0.057584,1.818154,-0.167509
8.659999999999997,-0.072252,1.864881,-0.149837
8.670000000000002,-0.079452,1.899482,-0.151574
8.679999999999993,-0.088988,1.942847,-0.119781
8.689999999999998,-0.101348,1.949785,-0.123122
8.700000000000003,-0.117735,1.958544,-0.096439
8.709999999999994,-0.137268,1.973258,-0.096228
8.719999999999999,-0.179939,1.996518,-0.088861
8.730000000000004,-0.213466,1.999868,-0.093864
8.739999999999995,-0.236715,2.001576,-0.076009
8.75,-0.235823,2.011986,-0.075976
8.760000000000005,-0.245294,2.024042,-0.097046
8.769999999999996,-0.256315,2.042265,-0.078437
8.780000000000001,-0.270699,2.079453,-0.077489
8.790000000000006,-0.290347,2.076846,-0.064925
8.799999999999997,-0.310087,2.074258,-0.043529
8.810000000000002,-0.30784,2.0666,-0.009941
8.819999999999993,-0.311493,2.062338,0.002522
8.829999999999998,-0.319873,2.072811,0.027306
8.840000000000003,-0.307552,2.059099,0.039671
8.849999999999994,-0.314837,2.063469,0.052111
8.86,-0.30228,2.062636,0.04414
8.870000000000005,-0.297079,2.059204,0.055627
8.879999999999995,-0.246225,2.045637,0.097682
8.89,-0.206196,2.042475,0.148615
8.900000000000006,-0.122673,2.046399,0.191299
8.909999999999997,-0.065426,2.040669,0.2183
8.920000000000002,-0.003836,2.034996,0.249697
8.929999999999993,0.027804,2.026616,0.268115
8.939999999999998,0.015417,2.005927,0.272792
8.950000000000003,0.033128,1.981861,0.279876
8.959999999999994,0.031521,1.971512,0.270291
8.969999999999999,0.024468,1.942136,0.27665
8.980000000000004,0.026271,1.947379,0.271394
8.989999999999995,0.038897,1.933612,0.259046
9.0,0.026568,1.93103,0.253925
9.010000000000003,-0.008699,1.940466,0.238376
9.019999999999996,-0.033192,1.9136,0.224601
9.03,-0.075802,1.89882,0.233841
9.040000000000006,-0.099845,1.890149,0.24291
9.049999999999995,-0.132832,1.884898,0.257289
9.060000000000002,-0.139865,1.883175,0.25477
9.069999999999991,-0.15785,1.883179,0.273475
9.079999999999998,-0.154649,1.893638,0.292855
9.090000000000003,-0.219763,1.900426,0.319799
9.099999999999994,-0.256405,1.90903,0.337728
9.11,-0.320138,1.896737,0.336506
9.120000000000005,-0.404769,1.900036,0.361848
9.129999999999995,-0.485561,1.889483,0.371313
9.14,-0.542592,1.860047,0.400108
9.150000000000006,-0.581998,1.816814,0.44201
9.159999999999997,-0.587465,1.796091,0.462457
9.170000000000002,-0.548496,1.7824,0.473739
9.179999999999993,-0.525324,1.763409,0.476267
9.189999999999998,-0.503871,1.763436,0.467287
9.200000000000005,-0.491762,1.750605,0.491967
9.209999999999994,-0.500529,1.725551,0.492144
9.22,-0.474098,1.724033,0.499096
9.230000000000004,-0.433264,1.70177,0.497161
9.239999999999997,-0.369534,1.693445,0.50122
9.25,-0.305308,1.67808,0.477034
9.260000000000003,-0.241001,1.66873,0.444862
9.269999999999996,-0.203586,1.680092,0.426946
9.28,-0.183841,1.669791,0.410999
9.290000000000006,-0.156738,1.657752,0.377375
9.299999999999995,-0.153331,1.634507,0.389798
9.310000000000002,-0.123129,1.637263,0.380823
9.319999999999991,-0.101329,1.626923,0.34723
9.329999999999998,-0.056954,1.64441,0.334576
9.340000000000003,-0.033284,1.646166,0.291247
9.349999999999994,-0.031464,1.656574,0.281536
9.36,0.000811,1.654929,0.253115
9.370000000000005,0.025744,1.656762,0.238854
9.379999999999995,0.050715,1.643044,0.228182
9.39,0.068441,1.665651,0.21928
9.400000000000006,0.086906,1.6398,0.226216
9.409999999999997,0.232333,1.593632,0.239506
9.420000000000002,0.382697,1.575096,0.20863
9.429999999999993,0.510057,1.589474,0.218321
9.439999999999998,0.573892,1.616558,0.207287
9.450000000000005,0.570016,1.622737,0.221481
9.459999999999994,0.54517,1.638274,0.209301
9.47,0.505259,1.631294,0.204344
9.480000000000004,0.422369,1.616286,0.173223
9.489999999999997,0.338518,1.608168,0.148254
9.5,0.244997,1.576664,0.130522
9.510000000000003,0.153573,1.566708,0.087123
9.519999999999996,0.076178,1.567284,0.048127
9.53,-0.001508,1.567004,0.026667
9.540000000000006,-0.068394,1.592638,-0.017898
9.549999999999995,-0.119306,1.600219,-0.048297
9.560000000000002,-0.163569,1.625055,-0.06409
9.569999999999991,-0.170524,1.640527,-0.071158
9.579999999999998,-0.177614,1.630181,-0.065714
9.590000000000003,-0.184451,1.614669,-0.076929
9.599999999999994,-0.159312,1.601855,-0.091913
9.61,-0.185946,1.616467,-0.101532
9.620000000000005,-0.164597,1.618234,-0.112366
9.629999999999995,-0.169466,1.603454,-0.130794
9.64,-0.14282,1.606216,-0.140603
9.650000000000006,-0.133668,1.569938,-0.151137
9.659999999999997,-0.12449,1.538911,-0.162441
9.670000000000002,-0.114002,1.516529,-0.150093
9.679999999999993,-0.103561,1.497599,-0.128956
9.689999999999998,-0.091343,1.470064,-0.109504
9.700000000000005,-0.075512,1.46324,-0.106102
9.709999999999994,-0.05423,1.430545,-0.098998
9.72,-0.039448,1.396112,-0.074258
9.730000000000004,-0.031595,1.359928,-0.052937
9.739999999999997,-0.014039,1.32024,-0.031837
9.75,-0.012532,1.300359,-0.012484
9.760000000000003,-0.012479,1.289112,-0.010742
9.769999999999996,-0.02197,1.249299,-0.012291
9.78,-0.042482,1.247502,-0.008697
9.790000000000006,-0.064749,1.231959,0.002152
9.799999999999995,-0.097065,1.20757,-0.025823
9.810000000000002,-0.138694,1.198727,-0.027369
9.819999999999991,-0.138047,1.184952,-0.013255
9.829999999999998,-0.113782,1.197285,0.012182
9.840000000000003,-0.092844,1.199161,0.034139
9.849999999999994,-0.055222,1.21494,0.058537
9.86,0.001075,1.239502,0.070433
9.870000000000005,0.012141,1.260379,0.084328
9.879999999999995,0.003939,1.256935,0.094917
9.89,-0.013779,1.249979,0.101293
9.900000000000006,-0.044751,1.24124,0.109561
9.909999999999997,-0.030296,1.221291,0.102416
9.920000000000002,-0.037302,1.176321,0.110559
9.929999999999993,0.001869,1.118582,0.113155
9.939999999999998,-0.0086,1.087427,0.10714
9.950000000000005,-0.013366,1.051143,0.134526
9.959999999999994,-0.047745,1.00608,0.134907
9.97,-0.102575,0.948811,0.14691
9.980000000000004,-0.141562,0.863942,0.174737
9.989999999999997,-0.162656,0.786056,0.185695
10.0,-0.157206,0.696189,0.201796
10.010000000000003,-0.15012,0.592492,0.231958
10.019999999999996,-0.116014,0.507808,0.229243
10.03,-0.10121,0.436848,0.215185
10.040000000000006,-0.029218,0.345251,0.171657
10.049999999999995,0.037106,0.258918,0.148507
10.060000000000002,0.107435,0.16909,0.095385
10.069999999999991,0.137987,0.07926,0.090121
10.079999999999998,0.148095,-0.008933,0.08848
10.090000000000003,0.156725,-0.114488,0.076314
10.099999999999994,0.150063,-0.204474,0.074851
10.11,0.122016,-0.299722,0.087655
10.120000000000005,0.12508,-0.414708,0.102145
10.129999999999995,0.147868,-0.515893,0.096066
10.14,0.172469,-0.623117,0.085564
10.150000000000006,0.18005,-0.70962,0.079553
10.159999999999997,0.20288,-0.794406,0.061923
10.170000000000002,0.228205,-0.877463,0.056575
10.179999999999993,0.269546,-0.962161,0.049442
10.189999999999998,0.295117,-1.053841,0.035426
10.200000000000005,0.325583,-1.147135,0.044302
10.209999999999994,0.326008,-1.211222,0.042676
10.22,0.336313,-1.278756,0.028623
10.230000000000004,0.337578,-1.341942,0.025232
10.239999999999997,0.369282,-1.404045,0.060451
10.25,0.365336,-1.484584,0.06068
10.260000000000003,0.390352,-1.551997,0.073028
10.269999999999996,0.390496,-1.622965,0.092577
10.28,0.396932,-1.715546,0.113882
10.290000000000006,0.365621,-1.773738,0.100098
10.299999999999995,0.346538,-1.847423,0.100355
10.310000000000002,0.352732,-1.922767,0.070526
10.319999999999991,0.357059,-1.974786,0.038845
10.329999999999998,0.361136,-2.031967,0.028345
10.340000000000003,0.342291,-2.099636,0.013642
10.349999999999994,0.327251,-2.163708,0.037729
10.36,0.274199,-2.236589,0.057669
10.370000000000005,0.22362,-2.271358,0.074835
10.379999999999995,0.167062,-2.285458,0.071691
10.39,0.119865,-2.30486,0.039347
10.400000000000006,0.061836,-2.32425,0.022133
10.409999999999997,0.007696,-2.364386,-0.010854
10.420000000000002,-0.007721,-2.407768,-0.028222
10.429999999999993,-0.041101,-2.445159,-0.031474
10.439999999999998,-0.023088,-2.473761,-0.035155
10.450000000000005,-0.023935,-2.498095,-0.021104
10.459999999999994,-0.031236,-2.519103,-0.050207
10.47,-0.019927,-2.550417,-0.077641
10.480000000000004,-0.021145,-2.550608,-0.11124
10.489999999999997,-0.023406,-2.542063,-0.138607
10.5,-0.050495,-2.557809,-0.153344
10.510000000000003,-0.041603,-2.565652,-0.149964
10.519999999999996,-0.071437,-2.544318,-0.173801
10.53,-0.091583,-2.54451,-0.185218
10.540000000000006,-0.135008,-2.532626,-0.181444
10.549999999999995,-0.1364,-2.526698,-0.202637
10.560000000000002,-0.136494,-2.503387,-0.19919
10.569999999999991,-0.130981,-2.461904,-0.220461
10.579999999999998,-0.126563,-2.422169,-0.227667
10.590000000000003,-0.079592,-2.37112,-0.238833
10.599999999999994,-0.035448,-2.342524,-0.235857
10.61,0.008646,-2.281873,-0.241694
10.620000000000005,0.027645,-2.243712,-0.220772
10.629999999999995,0.052892,-2.207284,-0.199885
10.64,0.076015,-2.165563,-0.157793
10.650000000000006,0.110936,-2.110038,-0.138806
10.659999999999997,0.126293,-2.071894,-0.109113
10.670000000000002,0.112027,-2.01753,-0.116266
10.679999999999993,0.132143,-1.965633,-0.111345
10.689999999999998,0.131343,-1.952763,-0.121185
10.700000000000005,0.145026,-1.91636,-0.103815
10.709999999999994,0.162642,-1.876372,-0.055573
10.72,0.142527,-1.858186,-0.023754
10.730000000000004,0.133153,-1.824403,0.000957
10.739999999999997,0.118547,-1.796732,0.023923
10.75,0.083319,-1.767405,0.061064
10.760000000000003,0.060305,-1.734731,0.054003
10.769999999999996,0.032017,-1.721146,0.052254
10.78,0.028652,-1.714379,0.043328
10.790000000000006,0.035909,-1.710957,0.032676
10.799999999999995,0.051815,-1.724726,0.037902
10.810000000000002,0.09766,-1.721042,0.047286
10.819999999999991,0.118453,-1.70531,0.070924
10.829999999999998,0.180936,-1.715384,0.103126
10.840000000000003,0.206904,-1.715361,0.086135
10.849999999999994,0.206794,-1.720601,0.095767
10.86,0.245963,-1.73792,0.092742
10.870000000000005,0.273092,-1.74839,0.062475
10.879999999999995,0.287611,-1.75362,0.041178
10.89,0.286004,-1.762311,0.030633
10.900000000000006,0.30185,-1.772625,0.037565
10.909999999999997,0.321803,-1.805514,0.014489
10.920000000000002,0.306675,-1.815926,0.018099
10.929999999999993,0.318308,-1.826284,0.010955
10.939999999999998,0.312943,-1.828081,0.012711
10.950000000000005,0.314979,-1.826491,-0.003258
10.959999999999994,0.323966,-1.805842,-0.0176
10.97,0.31887,-1.793893,-0.035329
10.980000000000004,0.308344,-1.793991,-0.042358
10.989999999999997,0.264137,-1.788967,-0.054441
11.0,0.241947,-1.804573,-0.054281
11.010000000000003,0.190324,-1.820298,-0.038051
11.019999999999996,0.146827,-1.813604,-0.036083
11.03,0.12697,-1.813742,-0.009617
11.040000000000006,0.100052,-1.810466,0.016874
11.049999999999995,0.101091,-1.801983,0.00966
11.060000000000002,0.103881,-1.79689,0.000688
11.069999999999991,0.095295,-1.787449,-0.020488
11.079999999999998,0.108171,-1.797827,-0.052337
11.090000000000003,0.120079,-1.819475,-0.075359
11.099999999999994,0.103449,-1.836898,-0.090289
11.11,0.096342,-1.849109,-0.089427
11.11999999999999,0.096374,-1.849228,-0.09218
11.13000000000001,0.099962,-1.851047,-0.090468
11.14,0.152744,-1.823162,-0.077755
11.149999999999991,0.170585,-1.798926,-0.095624
11.16000000000001,0.189829,-1.787547,-0.08701
11.170000000000002,0.207549,-1.793535,-0.089823
11.179999999999993,0.213002,-1.790121,-0.104946
11.190000000000012,0.241317,-1.791783,-0.108754
11.200000000000005,0.242156,-1.798737,-0.105274
11.209999999999994,0.230387,-1.787532,-0.094669
11.220000000000011,0.226368,-1.777979,-0.069133
11.230000000000004,0.214071,-1.769409,-0.083215
11.239999999999997,0.158691,-1.745357,-0.065315
11.249999999999986,0.122995,-1.726473,-0.057249
11.260000000000003,0.080329,-1.714543,-0.051746
11.269999999999996,0.021505,-1.69916,-0.034679
11.279999999999989,-0.042648,-1.666541,-0.021166
11.290000000000006,-0.088902,-1.656336,-0.013862
11.299999999999995,-0.110215,-1.620114,-0.021753
11.309999999999988,-0.140232,-1.623724,-0.027744
11.320000000000007,-0.152832,-1.619441,-0.018909
11.329999999999998,-0.131468,-1.616822,-0.031492
11.33999999999999,-0.133788,-1.594272,-0.008652
11.350000000000009,-0.153505,-1.568385,-0.00686
11.36,-0.180495,-1.518284,0.001987
11.36999999999999,-0.212882,-1.485452,0.023293
11.38000000000001,-0.269956,-1.442372,0.032369
11.39,-0.271242,-1.42675,0.052592
11.399999999999991,-0.291829,-1.388786,0.056124
11.41000000000001,-0.269203,-1.353213,0.072585
11.420000000000002,-0.267724,-1.30045,0.074161
11.429999999999993,-0.250182,-1.267538,0.072125
11.440000000000012,-0.257713,-1.227727,0.087042
11.450000000000005,-0.264652,-1.199228,0.066735
11.459999999999994,-0.297116,-1.163774,0.090675
11.470000000000011,-0.288042,-1.160311,0.072043
11.480000000000004,-0.311467,-1.143074,0.089723
11.489999999999997,-0.292156,-1.115374,0.091205
11.499999999999986,-0.261992,-1.104109,0.085617
11.510000000000003,-0.223171,-1.080659,0.088773
11.519999999999996,-0.193443,-1.028632,0.097244
11.529999999999989,-0.147425,-0.973112,0.078258
11.540000000000006,-0.105443,-0.93479,0.096397
11.549999999999995,-0.105914,-0.889725,0.108639
11.559999999999988,-0.091142,-0.867133,0.118149
11.570000000000007,-0.109017,-0.830006,0.115489
11.579999999999998,-0.120945,-0.801471,0.133976
11.58999999999999,-0.156186,-0.760178,0.110277
11.600000000000009,-0.165842,-0.699738,0.085494
11.61,-0.16336,-0.647844,0.081849
11.61999999999999,-0.170471,-0.609818,0.071263
11.63000000000001,-0.133247,-0.569887,0.055046
11.64,-0.129863,-0.519702,0.047804
11.649999999999991,-0.136838,-0.485179,0.028327
11.66000000000001,-0.1473,-0.429956,-0.000889
11.670000000000002,-0.161547,-0.371265,-0.015986
11.679999999999993,-0.187959,-0.319594,-0.042456
11.690000000000012,-0.197075,-0.240104,-0.049685
11.700000000000005,-0.211599,-0.165748,-0.051526
11.709999999999994,-0.232975,-0.07935,-0.072764
11.720000000000011,-0.24987,-0.018877,-0.088685
11.730000000000004,-0.277477,0.041566,-0.099243
11.739999999999997,-0.316491,0.09675,-0.115896
11.749999999999986,-0.345335,0.155489,-0.103541
11.760000000000003,-0.350018,0.213421,-0.10632
11.769999999999996,-0.33725,0.285299,-0.09425
11.779999999999989,-0.346566,0.345004,-0.081972
11.790000000000006,-0.350637,0.405629,-0.065304
11.799999999999995,-0.320911,0.460309,-0.055034
11.809999999999988,-0.294717,0.490765,-0.037624
11.820000000000007,-0.28439,0.548795,-0.035187
11.829999999999998,-0.250987,0.576627,-0.025787
11.83999999999999,-0.194624,0.630471,-0.020139
11.850000000000009,-0.133003,0.684354,-0.010977
11.86,-0.069467,0.731306,-0.008872
11.86999999999999,-0.048472,0.78504,-0.009134
11.88000000000001,0.002514,0.819905,0.006321
11.89,0.01269,0.863296,0.022942
11.899999999999991,0.023442,0.89966,0.006066
11.91000000000001,0.02302,0.974119,0.011223
11.920000000000002,0.04235,1.01403,0.008397
11.929999999999993,0.043811,1.079825,0.008287
11.940000000000012,0.067157,1.150921,0.02477
11.950000000000005,0.074414,1.218507,0.051054
11.959999999999994,0.076071,1.266949,0.043896
11.970000000000011,0.077664,1.311936,0.042908
11.980000000000004,0.082705,1.369038,0.043599
11.989999999999997,0.083581,1.419173,0.027588
11.999999999999986,0.087811,1.486674,0.020383
12.010000000000003,0.080301,1.568874,0.024708
12.019999999999996,0.074583,1.628626,0.035285
12.029999999999989,0.055119,1.670107,0.022174
12.040000000000006,0.026676,1.708137,0.018865
12.049999999999995,0.017943,1.749654,-0.001367
12.059999999999988,0.017869,1.77565,-0.00402
12.070000000000007,-0.00305,1.817039,-0.039198
12.079999999999998,-0.018288,1.872347,-0.045363
12.08999999999999,-0.036838,1.91896,-0.065585
12.100000000000009,-0.049688,1.953593,-0.047868
12.11,-0.068045,2.005517,-0.021366
12.11999999999999,-0.087811,2.041863,-0.010635
12.13000000000001,-0.126003,2.073793,-0.008576
12.14,-0.128734,2.098087,-0.004952
12.149999999999991,-0.170367,2.122234,-0.008108
12.16000000000001,-0.192258,2.128223,-0.023751
12.170000000000002,-0.233705,2.136716,-0.036633
12.179999999999993,-0.261001,2.12275,-0.040776
12.190000000000012,-0.301769,2.131234,-0.038725
12.200000000000005,-0.321306,2.139826,-0.033265
12.209999999999994,-0.328736,2.173609,-0.015587
12.220000000000011,-0.340365,2.203922,-0.013703
12.230000000000004,-0.350381,2.231707,-0.002983
12.239999999999997,-0.346864,2.25432,-0.008213
12.249999999999986,-0.37305,2.288995,0.01317
12.260000000000003,-0.399414,2.321932,0.045081
12.269999999999996,-0.396218,2.349703,0.059115
12.279999999999989,-0.424916,2.370444,0.078722
12.290000000000006,-0.400933,2.401821,0.124394
12.299999999999995,-0.354489,2.424572,0.151384
12.309999999999988,-0.334814,2.454217,0.190967
12.320000000000007,-0.328437,2.485566,0.232436
12.329999999999998,-0.309902,2.497823,0.236807
12.33999999999999,-0.291929,2.53523,0.266633
12.350000000000009,-0.2958,2.556935,0.280768
12.36,-0.288852,2.576058,0.283374
12.36999999999999,-0.278585,2.593495,0.301844
12.38000000000001,-0.285951,2.607373,0.317796
12.39,-0.261381,2.621374,0.330015
12.399999999999991,-0.25123,2.631914,0.358196
12.41000000000001,-0.248928,2.63205,0.38118
12.420000000000002,-0.260621,2.613103,0.398163
12.429999999999993,-0.256397,2.580381,0.422124
12.440000000000012,-0.236227,2.584017,0.434412
12.450000000000005,-0.190395,2.569565,0.455357
12.459999999999994,-0.172624,2.558402,0.455291
12.470000000000011,-0.168278,2.532542,0.4677
12.480000000000004,-0.178215,2.504977,0.486438
12.489999999999997,-0.217264,2.449646,0.505503
12.499999999999986,-0.252909,2.383967,0.536016
12.510000000000003,-0.290408,2.336415,0.57001
12.519999999999996,-0.278595,2.274208,0.571902
12.529999999999989,-0.233073,2.211225,0.573535
12.540000000000006,-0.172136,2.162948,0.546837
12.549999999999995,-0.127011,2.095591,0.515025
12.559999999999988,-0.078625,2.05595,0.490165
12.570000000000007,-0.025104,2.018097,0.47231
12.579999999999998,0.019271,1.970753,0.4757
12.58999999999999,0.040434,1.956226,0.480948
12.600000000000009,0.046619,1.932979,0.482758
12.61,0.057343,1.91489,0.479208
12.61999999999999,0.051638,1.866415,0.463538
12.63000000000001,0.017632,1.823018,0.44277
12.64,-0.000304,1.780528,0.413086
12.649999999999991,0.002787,1.755456,0.388514
12.66000000000001,-0.026129,1.736312,0.370304
12.670000000000002,-0.013799,1.76059,0.36223
12.679999999999993,-0.013689,1.770103,0.346327
12.690000000000012,-0.001088,1.783136,0.325073
12.700000000000005,-0.014213,1.77278,0.315598
12.709999999999994,-0.041386,1.773561,0.294697
12.720000000000011,-0.047793,1.765686,0.25161
12.730000000000004,-0.051678,1.786356,0.207542
12.739999999999997,-0.065873,1.804468,0.204099
12.749999999999986,-0.078579,1.817287,0.161827
12.760000000000003,-0.101551,1.818955,0.154953
12.769999999999996,-0.117119,1.82062,0.126895
12.779999999999989,-0.127679,1.816292,0.12174
12.790000000000006,-0.163096,1.825719,0.117653
12.799999999999995,-0.17349,1.827423,0.101045
12.809999999999988,-0.212659,1.829095,0.109265
12.820000000000007,-0.198209,1.81447,0.094274
12.829999999999998,-0.208676,1.785913,0.092686
12.83999999999999,-0.215652,1.794543,0.081254
12.850000000000009,-0.236423,1.765045,0.053278
12.86,-0.266406,1.752874,0.043869
12.86999999999999,-0.260983,1.728731,0.042196
12.88000000000001,-0.26776,1.709655,0.028231
12.89,-0.246393,1.68465,0.031708
12.899999999999991,-0.20716,1.657971,0.024484
12.91000000000001,-0.182416,1.630461,0.036805
12.920000000000002,-0.152167,1.589152,0.039475
12.929999999999993,-0.102295,1.544388,0.031305
12.940000000000012,-0.056123,1.513441,0.02925
12.950000000000005,-0.052011,1.475346,0.002838
12.959999999999994,-0.043225,1.454487,-0.042156
12.970000000000011,-0.01298,1.394607,-0.094456
12.980000000000004,0.111902,1.332815,-0.12492
12.989999999999997,0.209915,1.289101,-0.156308
12.999999999999986,0.245431,1.282352,-0.164497
13.010000000000003,0.260933,1.325801,-0.161159
13.019999999999996,0.247926,1.351863,-0.141714
13.029999999999989,0.212024,1.386403,-0.131902
13.040000000000006,0.177279,1.418265,-0.136237
13.049999999999995,0.131885,1.389637,-0.112852
13.059999999999988,0.088711,1.389483,-0.126547
13.070000000000007,0.040937,1.398123,-0.077701
13.079999999999998,-0.001485,1.383283,-0.081787
13.08999999999999,-0.040535,1.387483,-0.078037
13.100000000000009,-0.058028,1.3726,-0.085036
13.11,-0.020333,1.37528,-0.11167
13.11999999999999,0.015268,1.351241,-0.111749
13.13000000000001,0.034402,1.331501,-0.083593
13.14,0.069879,1.282392,-0.078393
13.149999999999991,0.062089,1.270483,-0.041214
13.16000000000001,0.093667,1.249131,-0.021045
13.170000000000002,0.06213,1.244818,0.010055
13.179999999999993,0.039765,1.224058,0.033231
13.190000000000012,0.011612,1.194499,0.03259
13.200000000000005,0.020019,1.154654,0.015839
13.209999999999994,0.032111,1.090755,-0.001558
13.220000000000011,0.040368,1.04757,-0.015626
13.230000000000004,0.007603,0.981802,-0.002887
13.239999999999997,-0.022236,0.943621,-0.01143
13.249999999999986,-0.116019,0.872333,0.005271
13.260000000000003,-0.187542,0.802007,0.016616
13.269999999999996,-0.230692,0.733526,0.024233
13.279999999999989,-0.223798,0.673103,0.056141
13.290000000000006,-0.235724,0.596919,0.04937
13.299999999999995,-0.19449,0.507964,0.04399
13.309999999999988,-0.189841,0.417165,0.054681
13.320000000000007,-0.170811,0.341065,0.048478
13.329999999999998,-0.17408,0.26836,0.056577
13.33999999999999,-0.181957,0.16957,0.030412
13.350000000000009,-0.172634,0.08652,0.032361
13.36,-0.143695,-0.025835,0.03252
13.36999999999999,-0.083857,-0.093127,0.021706
13.38000000000001,-0.035881,-0.174219,0.033932
13.39,0.020312,-0.255311,0.031994
13.399999999999991,0.071787,-0.349349,0.056577
13.41000000000001,0.116548,-0.408927,0.047583
13.420000000000002,0.129681,-0.502399,0.033593
13.429999999999993,0.146106,-0.611359,0.039032
13.440000000000012,0.163122,-0.693641,-0.004136
13.450000000000005,0.168995,-0.784518,-0.010154
13.459999999999994,0.16073,-0.860762,-0.022278
13.470000000000011,0.144447,-0.94913,-0.027247
13.480000000000004,0.14949,-1.025329,-0.039438
13.489999999999997,0.159492,-1.092806,-0.030523
13.499999999999986,0.173377,-1.176757,-0.03748
13.510000000000003,0.184279,-1.236437,-0.033017
13.519999999999996,0.231583,-1.302047,-0.034101
13.529999999999989,0.231546,-1.381604,-0.005736
13.540000000000006,0.243408,-1.449089,-0.003934
13.549999999999995,0.265008,-1.519996,0.003132
13.559999999999988,0.268488,-1.584857,0.03678
13.570000000000007,0.275903,-1.658421,0.045722
13.579999999999998,0.256612,-1.708722,0.052119
13.58999999999999,0.27635,-1.765811,0.054694
13.600000000000009,0.287166,-1.817713,0.058198
13.61,0.319667,-1.871321,0.03513
13.61999999999999,0.308251,-1.918069,0.042375
13.63000000000001,0.284888,-1.987438,0.030364
13.64,0.279599,-2.035909,0.049052
13.649999999999991,0.248014,-2.073317,0.046691
13.66000000000001,0.204134,-2.132425,0.043532
13.670000000000002,0.171834,-2.150862,0.024309
13.679999999999993,0.120028,-2.184045,0.012363
13.690000000000012,0.124181,-2.218758,-0.008724
13.700000000000005,0.155119,-2.265504,-0.040533
13.709999999999994,0.206978,-2.286179,-0.058436
13.720000000000011,0.269524,-2.318898,-0.080803
13.730000000000004,0.33701,-2.342897,-0.083891
13.739999999999997,0.362154,-2.349808,-0.103514
13.749999999999986,0.388935,-2.382632,-0.105444
13.760000000000003,0.374909,-2.405236,-0.105333
13.769999999999996,0.32804,-2.434004,-0.096119
13.779999999999989,0.30007,-2.471447,-0.10119
13.790000000000006,0.231101,-2.504699,-0.093705
13.799999999999995,0.164649,-2.524923,-0.083603
13.809999999999988,0.118541,-2.534635,-0.075354
13.820000000000007,0.134742,-2.518187,-0.093976
13.829999999999998,0.17603,-2.489604,-0.135754
13.83999999999999,0.238098,-2.458297,-0.148654
13.850000000000009,0.291828,-2.447883,-0.189704
13.86,0.330032,-2.427083,-0.202445
13.86999999999999,0.309767,-2.421217,-0.209459
13.88000000000001,0.275114,-2.405011,-0.204073
13.89,0.238917,-2.427716,-0.199434
13.899999999999991,0.219568,-2.416599,-0.207278
13.91000000000001,0.177044,-2.441871,-0.197259
13.920000000000002,0.160107,-2.429899,-0.192843
13.929999999999993,0.145767,-2.391971,-0.192912
13.940000000000012,0.102689,-2.374829,-0.159232
13.950000000000005,0.036385,-2.363093,-0.168606
13.959999999999994,-0.010986,-2.339089,-0.144638
13.970000000000011,-0.052802,-2.334102,-0.128571
13.980000000000004,-0.064511,-2.323791,-0.112698
13.989999999999997,-0.05654,-2.32555,-0.107533
13.999999999999986,-0.030218,-2.316822,-0.093713
14.010000000000003,0.027859,-2.290677,-0.076636
14.019999999999996,0.080701,-2.269741,-0.06126
14.029999999999989,0.131034,-2.24279,-0.05735
14.040000000000006,0.165554,-2.205552,-0.064813
14.049999999999995,0.145984,-2.200482,-0.060349
14.059999999999988,0.144331,-2.195379,-0.071046
14.070000000000007,0.119447,-2.188598,-0.067473
14.079999999999998,0.12659,-2.181757,-0.072055
14.08999999999999,0.126418,-2.174946,-0.062515
14.100000000000009,0.130267,-2.168189,-0.082067
14.11,0.154962,-2.137035,-0.080612
14.11999999999999,0.212138,-2.133509,-0.111956
14.13000000000001,0.205016,-2.114536,-0.118175
14.14,0.20431,-2.09905,-0.136796
14.149999999999991,0.191081,-2.094818,-0.14293
14.16000000000001,0.197357,-2.105209,-0.14386
14.170000000000002,0.216786,-2.100854,-0.143231
14.179999999999993,0.258664,-2.109443,-0.159479
14.190000000000012,0.265925,-2.088748,-0.180814
14.200000000000005,0.268483,-2.076641,-0.180008
14.209999999999994,0.264655,-2.061056,-0.169478
14.220000000000011,0.236944,-2.019642,-0.170327
14.230000000000004,0.204429,-1.998926,-0.140237
14.239999999999997,0.158173,-1.995635,-0.129373
14.249999999999986,0.158675,-1.973143,-0.111848
14.260000000000003,0.180587,-1.954072,-0.103319
14.269999999999996,0.194599,-1.94024,-0.096488
14.279999999999989,0.219703,-1.897048,-0.128573
14.290000000000006,0.219348,-1.859847,-0.118113
14.299999999999995,0.206767,-1.814928,-0.125248
14.309999999999988,0.178433,-1.76752,-0.145524
14.320000000000007,0.135637,-1.746915,-0.135617
14.329999999999998,0.125024,-1.76346,-0.130304
14.33999999999999,0.138128,-1.759995,-0.119926
14.350000000000009,0.137491,-1.756647,-0.137646
14.36,0.153405,-1.764418,-0.136064
14.36999999999999,0.139101,-1.738537,-0.141393
14.38000000000001,0.094486,-1.733468,-0.125277
14.39,0.042958,-1.692128,-0.131218
14.399999999999991,0.018242,-1.695702,-0.13902
14.41000000000001,-0.017233,-1.697596,-0.138828
14.420000000000002,-0.026259,-1.69423,-0.130051
14.429999999999993,-0.03981,-1.675306,-0.120404
14.440000000000012,-0.06207,-1.680628,-0.112377
14.450000000000005,-0.032116,-1.670155,-0.106496
14.459999999999994,-0.054787,-1.639047,-0.084413
14.470000000000011,-0.033887,-1.616434,-0.071427
14.480000000000004,-0.013156,-1.592079,-0.046993
14.489999999999997,0.001731,-1.584254,-0.039243
14.499999999999986,-0.009347,-1.578235,-0.011045
14.510000000000003,0.006321,-1.567828,0.004615
14.519999999999996,0.013397,-1.563513,0.004533
14.529999999999989,0.039503,-1.545171,0.027232
14.540000000000006,0.032211,-1.519178,0.028999
14.549999999999995,0.031933,-1.46807,0.025332
14.559999999999988,0.035145,-1.456726,0.039366
14.570000000000007,0.027665,-1.437671,0.054296
14.579999999999998,0.031898,-1.432489,0.063859
14.58999999999999,0.032676,-1.432538,0.070835
14.600000000000009,0.033588,-1.414469,0.063628
14.61,0.005845,-1.394678,0.074311
14.61999999999999,0.015633,-1.403304,0.072462
14.63000000000001,-0.00702,-1.370442,0.093668
14.64,-0.003453,-1.351415,0.08475
14.649999999999991,0.005045,-1.330583,0.098715
14.66000000000001,0.026274,-1.327939,0.095857
14.670000000000002,0.074615,-1.299194,0.108624
14.679999999999993,0.117761,-1.265288,0.113497
14.690000000000012,0.124744,-1.25228,0.116925
14.700000000000005,0.156414,-1.215821,0.118338
14.709999999999994,0.12635,-1.202123,0.10789
14.720000000000011,0.113119,-1.200468,0.100886
14.730000000000004,0.102596,-1.19537,0.090316
14.739999999999997,0.117753,-1.183251,0.076915
14.749999999999986,0.112469,-1.160819,0.065412
14.760000000000003,0.109419,-1.127918,0.076799
14.769999999999996,0.104773,-1.069091,0.066954
14.779999999999989,0.093867,-1.025858,0.068667
14.790000000000006,0.124026,-0.999839,0.055104
14.799999999999995,0.127251,-0.965213,0.062888
14.809999999999988,0.160589,-0.91146,0.066032
14.820000000000007,0.17649,-0.882034,0.057894
14.829999999999998,0.215061,-0.831698,0.06542
14.83999999999999,0.257247,-0.748492,0.056081
14.850000000000009,0.278143,-0.675716,0.052227
14.86,0.276439,-0.621241,0.027435
14.86999999999999,0.262531,-0.561498,0.045003
14.88000000000001,0.202643,-0.505388,0.059406
14.89,0.154754,-0.47357,0.050815
14.899999999999991,0.104027,-0.413207,0.046614
14.91000000000001,0.076397,-0.34242,0.036039
14.920000000000002,0.048708,-0.275082,0.029869
14.929999999999993,0.041458,-0.214569,0.020959
14.940000000000012,0.047593,-0.150562,0.002213
14.950000000000005,0.02744,-0.096907,0.024235
14.959999999999994,-0.005534,-0.029558,0.011927
14.970000000000011,-0.024631,0.019738,0.028696
14.980000000000004,-0.04978,0.084536,0.03136
14.989999999999997,-0.051798,0.135559,0.033008
14.999999999999986,-0.044695,0.17447,0.020509
15.010000000000003,-0.048576,0.246265,0.018581
15.019999999999996,-0.054014,0.279974,0.014981
15.029999999999989,-0.054275,0.337028,0.012999
15.040000000000006,-0.092897,0.39398,0.028941
15.049999999999995,-0.113959,0.452597,-0.002872
15.059999999999988,-0.12593,0.539054,0.000501
15.070000000000007,-0.120784,0.594431,-0.003163
15.079999999999998,-0.122714,0.674008,-0.015632
15.08999999999999,-0.150533,0.755257,-0.017361
15.100000000000009,-0.148254,0.84354,-0.021093
15.11,-0.162764,0.912729,-0.021132
15.11999999999999,-0.163966,0.988871,-0.024815
15.13000000000001,-0.17634,1.065915,0.006829
15.14,-0.182193,1.146389,0.01726
15.149999999999991,-0.20031,1.238053,0.016312
15.16000000000001,-0.245717,1.30021,0.015667
15.170000000000002,-0.27794,1.381451,0.017541
15.179999999999993,-0.300339,1.440219,0.022921
15.190000000000012,-0.303009,1.47308,0.019397
15.200000000000005,-0.295431,1.542356,0.028053
15.209999999999994,-0.275264,1.58224,0.03316
15.220000000000011,-0.227349,1.623045,0.018673
15.230000000000004,-0.215902,1.662018,0.013258
15.239999999999997,-0.177256,1.686465,0.028854
15.249999999999986,-0.140077,1.733333,0.017927
15.260000000000003,-0.118961,1.795741,0.010633
15.269999999999996,-0.111827,1.852856,-0.007137
15.279999999999989,-0.079506,1.885779,-0.044425
15.290000000000006,-0.070982,1.915296,-0.030367
15.299999999999995,-0.066652,1.95168,-0.032143
15.309999999999988,-0.051527,1.958688,-0.035699
15.320000000000007,-0.051652,1.970864,-0.0286
15.329999999999998,-0.026865,1.983974,-0.028742
15.33999999999999,0.011846,1.990291,-0.011297
15.350000000000009,0.028997,1.986876,-0.028992
15.36,0.07595,2.007809,-0.034635
15.36999999999999,0.10931,2.018353,-0.018989
15.38000000000001,0.117292,2.035669,-0.025193
15.39,0.103717,2.037413,-0.006503
15.399999999999991,0.124288,2.062702,0.031262
15.41000000000001,0.134206,2.091497,0.070052
15.420000000000002,0.155141,2.105531,0.092022
15.429999999999993,0.186844,2.111809,0.107773
15.440000000000012,0.227588,2.127573,0.109292
15.450000000000005,0.228676,2.12497,0.102281
15.459999999999994,0.22899,2.14826,0.076692
15.470000000000011,0.23362,2.169856,0.055475
15.480000000000004,0.198057,2.204349,0.051283
15.489999999999997,0.178421,2.218192,0.056764
15.499999999999986,0.142806,2.230284,0.065921
15.510000000000003,0.122983,2.248518,0.083779
15.519999999999996,0.092728,2.231226,0.100028
15.529999999999989,0.083388,2.252953,0.124819
15.540000000000006,0.077277,2.250342,0.118736
15.549999999999995,0.065713,2.259828,0.119718
15.559999999999988,0.053977,2.263291,0.133937
15.570000000000007,0.054693,2.28584,0.139233
15.579999999999998,0.025294,2.303108,0.14654
15.58999999999999,0.015013,2.315338,0.179308
15.600000000000009,-0.013169,2.332551,0.166329
15.61,-0.042022,2.366323,0.191259
15.61999999999999,-0.050821,2.368939,0.187892
15.63000000000001,-0.081407,2.393174,0.209304
15.64,-0.085167,2.396696,0.219962
15.649999999999991,-0.071484,2.408987,0.244581
15.66000000000001,-0.057571,2.431619,0.251535
15.670000000000002,-0.052585,2.455951,0.263824
15.679999999999993,-0.045762,2.466466,0.27792
15.690000000000012,-0.051371,2.483864,0.293876
15.700000000000005,-0.056643,2.454534,0.30293
15.709999999999994,-0.051277,2.449455,0.299496
15.720000000000011,-0.063748,2.433067,0.306767
15.730000000000004,-0.065815,2.44268,0.318272
15.739999999999997,-0.060474,2.408172,0.324535
15.749999999999986,-0.055578,2.427338,0.34389
15.760000000000003,-0.035199,2.385978,0.356257
15.769999999999996,-0.016302,2.354085,0.346603
15.779999999999989,-0.002278,2.339545,0.358987
15.790000000000006,0.007608,2.29467,0.36175
15.799999999999995,0.001053,2.272302,0.390159
15.809999999999988,-0.004396,2.232597,0.407988
15.820000000000007,-0.017047,2.19286,0.436432
15.829999999999998,0.011405,2.160127,0.440766
15.83999999999999,0.018847,2.142844,0.422269
15.850000000000009,0.036298,2.085796,0.401171
15.86,0.046682,2.059864,0.36775
15.86999999999999,0.013604,2.005249,0.342627
15.88000000000001,-0.00928,1.974934,0.336748
15.89,-0.00371,1.938625,0.328018
15.899999999999991,-0.030449,1.931644,0.338822
15.91000000000001,-0.017412,1.895302,0.308879
15.920000000000002,-0.013296,1.877977,0.277208
15.929999999999993,-0.012851,1.866715,0.251716
15.940000000000012,-0.023819,1.827725,0.228129
15.950000000000005,-0.026197,1.800058,0.215915
15.959999999999994,-0.047191,1.789595,0.198473
15.970000000000011,-0.065697,1.758414,0.196917
15.980000000000004,-0.065584,1.754966,0.186358
15.989999999999997,-0.068086,1.749771,0.174066
15.999999999999986,-0.06443,1.76881,0.157253
16.010000000000005,-0.050189,1.760241,0.152796
16.019999999999996,-0.055051,1.767964,0.119353
16.029999999999987,-0.075807,1.762665,0.086078
16.040000000000006,-0.072077,1.767005,0.069331
16.049999999999997,-0.06632,1.772165,0.034936
16.059999999999988,-0.044711,1.789516,0.003047
16.070000000000007,-0.060541,1.810215,-0.011831
16.08,-0.070048,1.818828,-0.029346
16.08999999999999,-0.116629,1.79616,-0.045656
16.10000000000001,-0.166241,1.775257,-0.03997
16.11,-0.242279,1.750789,-0.044676
16.11999999999999,-0.296794,1.700431,-0.058252
16.13000000000001,-0.313297,1.681353,-0.075664
16.14,-0.335331,1.660574,-0.077106
16.14999999999999,-0.332755,1.636283,-0.1193
16.16000000000001,-0.304815,1.606943,-0.136994
16.17,-0.276924,1.598365,-0.161814
16.179999999999993,-0.272766,1.568923,-0.196145
16.190000000000012,-0.288549,1.565437,-0.214561
16.200000000000003,-0.282163,1.539581,-0.228646
16.209999999999994,-0.296265,1.53269,-0.240857
16.220000000000013,-0.304513,1.544017,-0.231982
16.230000000000004,-0.285196,1.570965,-0.228597
16.239999999999995,-0.257758,1.577896,-0.228901
16.249999999999986,-0.132426,1.560989,-0.239346
16.260000000000005,0.001531,1.568434,-0.251718
16.269999999999996,0.069474,1.606793,-0.252355
16.279999999999987,0.10252,1.672784,-0.247509
16.290000000000006,0.098059,1.740439,-0.228261
16.299999999999997,0.068969,1.805381,-0.215845
16.309999999999988,0.007809,1.847732,-0.174925
16.320000000000007,-0.073981,1.853572,-0.154902
16.33,-0.161962,1.843792,-0.124209
16.33999999999999,-0.292057,1.827726,-0.12146
16.35000000000001,-0.359243,1.813614,-0.125398
16.36,-0.412441,1.814347,-0.127642
16.36999999999999,-0.440931,1.823835,-0.127413
16.38000000000001,-0.417695,1.84481,-0.09232
16.39,-0.357041,1.839932,-0.055648
16.39999999999999,-0.275535,1.811715,-0.038438
16.41000000000001,-0.208301,1.756698,-0.008696
16.42,-0.12318,1.702543,0.004974
16.429999999999993,-0.066227,1.635243,0.005549
16.440000000000012,-0.001169,1.555948,-0.004397
16.450000000000003,0.003247,1.51801,-0.004315
16.459999999999994,0.001613,1.455775,-0.004182
16.470000000000013,-0.023239,1.393458,0.012028
16.480000000000004,-0.026574,1.301808,0.028198
16.489999999999995,-0.053018,1.194517,0.060515
16.499999999999986,-0.066672,1.106266,0.060928
16.510000000000005,-0.101586,0.978182,0.065136
16.519999999999996,-0.120471,0.865648,0.051376
16.529999999999987,-0.1557,0.756391,0.004172
16.540000000000006,-0.223344,0.666136,-0.007507
16.549999999999997,-0.290944,0.572442,-0.01732
16.559999999999988,-0.321093,0.465015,-0.036157
16.570000000000007,-0.306325,0.36298,-0.039486
16.58,-0.291433,0.241906,-0.046321
16.58999999999999,-0.255382,0.123528,-0.049795
16.60000000000001,-0.203286,0.018998,-0.064029
16.61,-0.136443,-0.10187,-0.048349
16.61999999999999,-0.074751,-0.205526,-0.046814
16.63000000000001,-0.008599,-0.318675,-0.045272
16.64,0.094713,-0.424741,-0.045751
16.64999999999999,0.143245,-0.557833,-0.04755
16.66000000000001,0.209205,-0.689083,-0.031855
16.67,0.259533,-0.806624,-0.042568
16.679999999999993,0.288425,-0.932833,-0.038939
16.690000000000012,0.301111,-1.044348,-0.021071
16.700000000000003,0.305305,-1.133519,-0.030552
16.709999999999994,0.311076,-1.227847,-0.022386
16.720000000000013,0.326591,-1.332533,-0.011657
16.730000000000004,0.338568,-1.421581,-0.007918
16.739999999999995,0.363401,-1.536471,0.029229
16.749999999999986,0.378745,-1.646268,0.04788
16.760000000000005,0.379735,-1.73706,0.071877
16.769999999999996,0.379606,-1.833884,0.114411
16.779999999999987,0.363149,-1.909258,0.118233
16.790000000000006,0.364479,-1.999288,0.123748
16.799999999999997,0.347516,-2.090324,0.111748
16.809999999999988,0.358567,-2.173404,0.119831
16.820000000000007,0.358786,-2.247798,0.135047
16.83,0.348487,-2.334327,0.142421
16.83999999999999,0.360821,-2.430225,0.179613
16.85000000000001,0.373222,-2.523583,0.215
16.86,0.3874,-2.616993,0.254734
16.86999999999999,0.36805,-2.694147,0.282321
16.88000000000001,0.39722,-2.795269,0.328202
16.89,0.373561,-2.865489,0.337352
16.89999999999999,0.389836,-2.932942,0.337423
16.91000000000001,0.380921,-2.996118,0.364066
16.92,0.383597,-3.090591,0.343011
16.929999999999993,0.385857,-3.173768,0.347501
16.940000000000012,0.415527,-3.242993,0.350033
16.950000000000003,0.433089,-3.308886,0.330562
16.959999999999994,0.437097,-3.354004,0.318209
16.970000000000013,0.414315,-3.385345,0.309492
16.980000000000004,0.348128,-3.409932,0.295736
16.989999999999995,0.314206,-3.401476,0.248365
16.999999999999986,0.27581,-3.420702,0.220579
17.010000000000005,0.292611,-3.434704,0.174589
17.019999999999996,0.329396,-3.453815,0.151263
17.029999999999987,0.346293,-3.424547,0.13938
17.040000000000006,0.364146,-3.412562,0.1311
17.049999999999997,0.317843,-3.37996,0.138262
17.059999999999988,0.282143,-3.327397,0.140055
17.070000000000007,0.223444,-3.293888,0.143
17.08,0.184551,-3.256,0.124679
17.08999999999999,0.17914,-3.195513,0.112207
17.10000000000001,0.182528,-3.147177,0.110202
17.11,0.209407,-3.095281,0.134375
17.11999999999999,0.225645,-3.001914,0.145321
17.13000000000001,0.206852,-2.924091,0.191884
17.14,0.17789,-2.844631,0.209432
17.14999999999999,0.128505,-2.774755,0.234184
17.16000000000001,0.051203,-2.710221,0.229218
17.17,-0.000703,-2.627358,0.237324
17.179999999999993,-0.015184,-2.553941,0.236317
17.190000000000012,-0.048864,-2.496254,0.22216
17.200000000000003,-0.064995,-2.458366,0.223722
17.209999999999994,-0.127927,-2.420661,0.215029
17.220000000000013,-0.18521,-2.390716,0.18882
17.230000000000004,-0.243295,-2.392763,0.16714
17.239999999999995,-0.310191,-2.37671,0.135801
17.249999999999986,-0.330217,-2.374296,0.112139
17.260000000000005,-0.307926,-2.337968,0.088948
17.269999999999996,-0.251711,-2.302277,0.106927
17.279999999999987,-0.202622,-2.293596,0.080887
17.290000000000006,-0.161242,-2.26583,0.08917
17.299999999999997,-0.134222,-2.237387,0.051662
17.309999999999988,-0.1761,-2.245565,0.012969
17.320000000000007,-0.221939,-2.232042,-0.006288
17.33,-0.28898,-2.223745,-0.027029
17.33999999999999,-0.336813,-2.224821,-0.024912
17.35000000000001,-0.381119,-2.248371,-0.020234
17.36,-0.370793,-2.244874,-0.004524
17.36999999999999,-0.317748,-2.25854,0.004746
17.38000000000001,-0.251222,-2.267005,0.002464
17.39,-0.177457,-2.253003,-0.01579
17.39999999999999,-0.133538,-2.238977,0.006747
17.41000000000001,-0.104909,-2.226828,-0.015578
17.42,-0.100082,-2.214617,0.008106
17.429999999999993,-0.103755,-2.20425,0.008028
17.440000000000012,-0.095853,-2.226724,0.015894
17.450000000000003,-0.082449,-2.235404,0.009578
17.459999999999994,-0.054187,-2.244879,0.019945
17.470000000000013,-0.031367,-2.257843,0.039104
17.480000000000004,-0.035522,-2.235361,0.068937
17.489999999999995,-0.032279,-2.216279,0.074982
17.499999999999986,-0.056252,-2.182494,0.118204
17.510000000000005,-0.087014,-2.166092,0.148264
17.519999999999996,-0.099937,-2.147071,0.171135
17.529999999999987,-0.101414,-2.105537,0.195651
17.540000000000006,-0.086967,-2.065669,0.225381
17.549999999999997,-0.067301,-2.028525,0.203907
17.559999999999988,-0.079816,-1.993193,0.200274
17.570000000000007,-0.085914,-1.969115,0.186927
17.58,-0.133271,-1.936437,0.200299
17.58999999999999,-0.174126,-1.899465,0.194225
17.60000000000001,-0.204417,-1.874535,0.196963
17.61,-0.215137,-1.808889,0.178292
17.61999999999999,-0.240282,-1.732886,0.172906
17.63000000000001,-0.242285,-1.675815,0.164769
17.64,-0.23727,-1.623883,0.164564
17.64999999999999,-0.269576,-1.585897,0.175229
17.66000000000001,-0.259642,-1.525233,0.197881
17.67,-0.237764,-1.481889,0.199334
17.679999999999993,-0.216714,-1.43511,0.197265
17.690000000000012,-0.199046,-1.391823,0.186429
17.700000000000003,-0.182257,-1.345961,0.173798
17.709999999999994,-0.198153,-1.308877,0.157013
17.720000000000013,-0.239208,-1.28823,0.168685
17.730000000000004,-0.264202,-1.213942,0.158075
17.739999999999995,-0.288259,-1.191509,0.161734
17.749999999999986,-0.277728,-1.172418,0.164269
17.760000000000005,-0.269911,-1.134303,0.162382
17.769999999999996,-0.228556,-1.094306,0.166428
17.779999999999987,-0.18892,-1.050862,0.163407
17.790000000000006,-0.152706,-1.052405,0.165785
17.799999999999997,-0.134621,-1.033202,0.188512
17.809999999999988,-0.10649,-1.040832,0.201519
17.820000000000007,-0.10872,-1.020917,0.223442
17.83,-0.091299,-1.027779,0.244415
17.83999999999999,-0.091645,-1.009638,0.261932
17.85000000000001,-0.063264,-0.99146,0.25456
17.86,-0.042888,-0.963787,0.245463
17.86999999999999,-0.024527,-0.91271,0.241634
17.88000000000001,0.009528,-0.864977,0.255339
17.89,0.019142,-0.826903,0.249847
17.89999999999999,0.042149,-0.769768,0.233663
17.91000000000001,0.088227,-0.703888,0.212014
17.92,0.075941,-0.662449,0.190809
17.929999999999993,0.067011,-0.597632,0.173926
17.940000000000012,0.055058,-0.548498,0.126235
17.950000000000003,0.066602,-0.506117,0.105714
17.959999999999994,0.05315,-0.45254,0.09507
17.970000000000013,0.045972,-0.37647,0.073756
17.980000000000004,0.036865,-0.304699,0.064816
17.989999999999995,0.035004,-0.241574,0.049692
17.999999999999986,0.044565,-0.17494,0.039757
18.010000000000005,0.027569,-0.118773,0.030917
18.02,0.002631,-0.064374,0.020354
18.029999999999987,-0.025064,-0.022924,0.020435
18.040000000000006,-0.029613,0.046201,0.006134
18.05,-0.055205,0.088398,-0.013257
18.059999999999988,-0.069462,0.1445,-0.025685
18.070000000000007,-0.069702,0.201563,-0.025831
18.08,-0.0884,0.281052,-0.045262
18.08999999999999,-0.067113,0.348572,-0.068496
18.10000000000001,-0.07436,0.422111,-0.081805
18.11,-0.100716,0.488588,-0.116134
18.11999999999999,-0.099256,0.544018,-0.112714
18.13000000000001,-0.126892,0.612255,-0.124137
18.14,-0.126149,0.674529,-0.134853
18.14999999999999,-0.119378,0.740299,-0.134173
18.16000000000001,-0.126819,0.802576,-0.130738
18.17,-0.120178,0.867522,-0.120345
18.179999999999996,-0.124076,0.933279,-0.115172
18.19000000000001,-0.131588,0.993839,-0.102911
18.200000000000003,-0.146763,1.035311,-0.105521
18.209999999999997,-0.141018,1.09767,-0.09245
18.220000000000013,-0.13927,1.135747,-0.100426
18.230000000000004,-0.182512,1.197957,-0.074705
18.239999999999995,-0.185342,1.221308,-0.071219
18.249999999999982,-0.197421,1.277575,-0.048276
18.260000000000005,-0.197676,1.353737,-0.051907
18.27,-0.160869,1.395492,-0.036331
18.279999999999987,-0.13572,1.437061,-0.069177
18.290000000000006,-0.091326,1.475274,-0.083624
18.3,-0.062389,1.477881,-0.119041
18.309999999999988,-0.053118,1.527982,-0.160622
18.320000000000007,-0.052282,1.563429,-0.16952
18.33,-0.062055,1.587599,-0.174806
18.33999999999999,-0.087836,1.603096,-0.171995
18.35000000000001,-0.111869,1.611731,-0.162049
18.36,-0.152762,1.641046,-0.15824
18.36999999999999,-0.14876,1.634114,-0.182884
18.38000000000001,-0.169783,1.627127,-0.192327
18.39,-0.186692,1.626105,-0.242368
18.39999999999999,-0.173852,1.620049,-0.270623
18.41000000000001,-0.21811,1.632866,-0.277353
18.42,-0.266084,1.659516,-0.276149
18.429999999999996,-0.276533,1.656013,-0.283034
18.44000000000001,-0.301789,1.685422,-0.259027
18.450000000000003,-0.306348,1.692377,-0.250127
18.459999999999997,-0.317977,1.695844,-0.240309
18.470000000000013,-0.328514,1.694962,-0.242829
18.480000000000004,-0.346974,1.697496,-0.251485
18.489999999999995,-0.351475,1.687146,-0.242574
18.499999999999982,-0.379944,1.692283,-0.236153
18.510000000000005,-0.433531,1.688741,-0.204827
18.52,-0.480917,1.685207,-0.170909
18.529999999999987,-0.502907,1.69204,-0.177751
18.540000000000006,-0.496205,1.685252,-0.145965
18.55,-0.489137,1.678403,-0.138876
18.559999999999988,-0.473071,1.67848,-0.144208
18.570000000000007,-0.47498,1.666409,-0.130033
18.58,-0.49108,1.649104,-0.114862
18.58999999999999,-0.481369,1.623231,-0.103361
18.60000000000001,-0.496706,1.628445,-0.083805
18.61,-0.512763,1.614638,-0.067687
18.61999999999999,-0.498812,1.613069,-0.048285
18.63000000000001,-0.46719,1.610719,-0.027241
18.64,-0.419405,1.601472,-0.016863
18.64999999999999,-0.380027,1.573944,-0.031102
18.66000000000001,-0.347822,1.537733,-0.038245
18.67,-0.333728,1.51878,-0.02771
18.679999999999996,-0.311606,1.50676,-0.024308
18.69000000000001,-0.287988,1.48182,0.004693
18.700000000000003,-0.277417,1.477579,0.012617
18.709999999999997,-0.238444,1.460474,0.02483
18.720000000000013,-0.192291,1.416595,0.038831
18.730000000000004,-0.169418,1.40378,0.058174
18.739999999999995,-0.149742,1.360639,0.063502
18.749999999999982,-0.144055,1.336399,0.049443
18.760000000000005,-0.144073,1.319113,0.056555
18.77,-0.141445,1.2906,0.067197
18.779999999999987,-0.158214,1.267204,0.070933
18.790000000000006,-0.142576,1.265627,0.093825
18.8,-0.119346,1.25708,0.089376
18.809999999999988,-0.097901,1.24421,0.086719
18.820000000000007,-0.069172,1.224409,0.070772
18.83,-0.049783,1.212415,0.081272
18.83999999999999,-0.05863,1.213269,0.079591
18.85000000000001,-0.058595,1.181311,0.08676
18.86,-0.056701,1.153674,0.086844
18.86999999999999,-0.060213,1.136416,0.088701
18.88000000000001,-0.042574,1.115806,0.099257
18.89,-0.033449,1.053597,0.102937
18.89999999999999,-0.016349,1.025981,0.094101
18.91000000000001,0.005883,0.989756,0.099336
18.92,0.002797,0.930884,0.088056
18.929999999999996,0.014599,0.875561,0.085482
18.94000000000001,-0.000285,0.825351,0.087496
18.950000000000003,-0.017904,0.773398,0.095667
18.959999999999997,-0.031683,0.730068,0.080882
18.970000000000013,-0.040318,0.69026,0.077549
18.980000000000004,-0.066374,0.641693,0.058492
18.989999999999995,-0.094357,0.601776,0.046456
18.999999999999982,-0.155303,0.544482,0.052342
19.010000000000005,-0.178355,0.49759,0.010339
19.02,-0.215348,0.450747,0.012505
19.029999999999987,-0.255461,0.386514,-0.009116
19.040000000000006,-0.269026,0.355235,-0.039814
19.05,-0.309156,0.329058,-0.072949
19.059999999999988,-0.32104,0.298677,-0.099228
19.070000000000007,-0.368162,0.263787,-0.132319
19.08,-0.421031,0.241969,-0.145981
19.08999999999999,-0.489159,0.229615,-0.151652
19.10000000000001,-0.554255,0.182615,-0.16962
19.11,-0.615945,0.143435,-0.177905
19.11999999999999,-0.662188,0.114603,-0.212784
19.13000000000001,-0.688632,0.099773,-0.214321
19.14,-0.716468,0.088323,-0.238772
19.14999999999999,-0.729942,0.077769,-0.279222
19.16000000000001,-0.729909,0.057016,-0.277432
19.17,-0.728763,0.03279,-0.289738
19.179999999999996,-0.741797,0.004197,-0.29927
19.19000000000001,-0.757883,0.018887,-0.296532
19.200000000000003,-0.777429,0.003285,-0.289291
19.209999999999997,-0.797219,-0.000182,-0.269735
19.220000000000013,-0.80463,0.010224,-0.250319
19.230000000000004,-0.77458,0.015551,-0.241683
19.239999999999995,-0.737391,0.017416,-0.2331
19.249999999999982,-0.680807,0.025434,-0.222919
19.260000000000005,-0.636609,0.027356,-0.214413
19.27,-0.584526,0.016354,-0.198882
19.279999999999987,-0.53637,0.033915,-0.167537
19.290000000000006,-0.496031,0.032399,-0.139618
19.3,-0.459255,0.039522,-0.111686
19.309999999999988,-0.411934,0.038065,-0.074981
19.320000000000007,-0.361837,0.056468,-0.048937
19.33,-0.290269,0.066276,-0.033591
19.33999999999999,-0.219446,0.076907,-0.027055
19.35000000000001,-0.149244,0.070191,-0.036379
19.36,-0.044815,0.078357,-0.031869
19.36999999999999,0.01804,0.074267,-0.03144
19.38000000000001,0.108004,0.079848,-0.008259
19.39,0.170683,0.071461,0.008976
19.39999999999999,0.235017,0.07521,0.029695
19.41000000000001,0.306109,0.068505,0.018625
19.42,0.362901,0.059181,0.017374
19.429999999999996,0.426812,0.055046,0.010735
19.44000000000001,0.481908,0.046551,0.000653
19.450000000000003,0.498072,0.037905,-0.013563
19.459999999999997,0.498052,0.024085,-0.010853
19.470000000000013,0.487229,0.015451,0.001629
19.480000000000004,0.465888,0.013669,0.005347
19.489999999999995,0.4177,-0.008928,0.033974
19.499999999999982,0.353986,0.004642,0.023801
19.510000000000005,0.291958,-0.000786,0.026004
19.52,0.240457,0.0146,0.026311
19.529999999999987,0.174733,-0.014986,0.044505
19.540000000000006,0.096199,-0.022238,0.027464
19.55,0.03291,0.001824,0.042856
19.559999999999988,-0.05279,-0.012379,0.033787
19.570000000000007,-0.105952,-0.002214,0.03414
19.58,-0.168877,0.016552,0.030969
19.58999999999999,-0.208165,0.0251,0.049728
19.60000000000001,-0.220418,0.044055,0.034768
19.61,-0.240837,0.045733,0.036668
19.61999999999999,-0.235691,0.050998,0.045466
19.63000000000001,-0.2154,0.064946,0.045316
19.64,-0.199819,0.059896,0.069933
19.64999999999999,-0.148763,0.08781,0.081874
19.66000000000001,-0.090599,0.088938,0.102638
19.67,-0.054952,0.07433,0.093598
19.679999999999996,-0.021716,0.07971,0.1198
19.69000000000001,0.01878,0.088539,0.134483
19.700000000000003,0.039924,0.103322,0.136925
19.709999999999997,0.054049,0.095579,0.142109
19.720000000000013,0.070035,0.095626,0.138467
19.730000000000004,0.082235,0.104365,0.147184
19.739999999999995,0.09005,0.113089,0.152401
19.749999999999982,0.102038,0.083684,0.127689
19.760000000000005,0.105576,0.078546,0.124136
19.77,0.123323,0.065667,0.122264
19.779999999999987,0.095348,0.048234,0.103135
19.790000000000006,0.077523,0.036949,0.115658
19.8,0.066107,0.023052,0.115793
19.809999999999988,0.050979,0.01954,0.124753
19.820000000000007,0.002955,0.028029,0.137443
19.83,-0.011254,0.037465,0.139277
19.83999999999999,-0.019266,0.046939,0.141078
19.85000000000001,-0.036273,0.048638,0.155318
19.86,-0.068362,0.029529,0.177636
19.86999999999999,-0.0771,0.010449,0.177731
19.88000000000001,-0.103408,-0.000947,0.166467
19.89,-0.105147,-0.007015,0.170041
19.89999999999999,-0.128077,-0.017509,0.170239
19.91000000000001,-0.143131,-0.010661,0.170342
19.92,-0.123836,0.003271,0.18077
19.929999999999996,-0.108644,0.011956,0.170068
19.94000000000001,-0.094804,0.007762,0.192912
19.950000000000003,-0.087455,0.005166,0.173452
19.959999999999997,-0.052666,-0.004247,0.159111
19.970000000000013,-0.030727,-0.00844,0.17042
19.980000000000004,-0.026255,-0.001507,0.162429
19.989999999999995,-0.000472,-0.007475,0.156973
19.999999999999982,0.0278,-0.020304,0.165649
20.010000000000005,0.03487,-0.009876,0.162062
20.02,0.062569,-0.01066,0.145115
20.029999999999987,0.038474,-0.010714,0.154971
20.040000000000006,0.067582,-0.001077,0.158253
20.05,0.050615,-0.014947,0.169856
20.059999999999988,0.073679,-0.001043,0.162586
20.070000000000007,0.051687,-0.010659,0.154823
20.08,0.072683,0.002436,0.166988
20.08999999999999,0.102244,0.005935,0.143836
20.10000000000001,0.098758,0.016261,0.13676
20.11,0.112911,0.01283,0.140178
20.11999999999999,0.118196,0.037038,0.136544
20.13000000000001,0.13673,0.040545,0.14078
20.14,0.137076,0.03702,0.118725
20.14999999999999,0.138212,0.043872,0.099271
20.16000000000001,0.130174,0.036933,0.105527
20.17,0.122348,0.035137,0.095877
20.179999999999996,0.093991,0.036756,0.096063
20.19000000000001,0.067729,0.021905,0.080401
20.200000000000003,0.044564,0.017529,0.088504
20.209999999999997,0.025483,-0.005096,0.068403
20.220000000000013,0.013081,-0.001696,0.066702
20.230000000000004,-0.004422,-0.017377,0.058036
20.239999999999995,-0.02403,-0.041638,0.075891
20.249999999999982,-0.03987,-0.039123,0.06895
20.260000000000005,-0.034361,-0.065922,0.064579
20.27,-0.056352,-0.053909,0.049724
20.279999999999987,-0.034237,-0.062448,0.053121
20.290000000000006,-0.043074,-0.050371,0.046088
20.3,-0.030455,-0.052084,0.031893
20.309999999999988,-0.021495,-0.062442,0.029206
20.320000000000007,-0.006946,-0.072832,0.008848
20.33,-0.015884,-0.064222,0.012406
20.33999999999999,-0.017485,-0.070335,0.004466
20.35000000000001,-0.026425,-0.060861,0.00713
20.36,-0.051211,-0.057507,0.003742
20.36999999999999,-0.0637,-0.056682,0.009095
20.38000000000001,-0.070603,-0.050699,-0.003223
20.39,-0.075791,-0.040378,-0.013807
20.39999999999999,-0.068677,-0.050746,-0.011208
20.41000000000001,-0.071313,-0.043861,-0.013878
20.42,-0.08617,-0.039647,-0.027913
20.429999999999996,-0.089743,-0.029293,-0.029693
20.44000000000001,-0.075686,-0.02579,-0.020997
20.450000000000003,-0.084647,-0.024958,-0.012115
20.459999999999997,-0.070343,-0.01198,-0.023722
20.470000000000013,-0.0633,-0.000707,-0.022908
20.480000000000004,-0.056274,0.005393,-0.020314
20.489999999999995,-0.050911,0.008884,-0.024756
20.499999999999982,-0.048994,0.01493,-0.037131
20.510000000000005,-0.038391,0.013252,-0.035443
20.52,-0.033021,0.00634,-0.034577
20.529999999999987,-0.029623,-0.002252,-0.021326
20.540000000000006,-0.03069,-0.010002,-0.006291
20.55,-0.007647,0.004788,-0.010876
20.559999999999988,0.015394,0.020442,-0.01635
20.570000000000007,0.037265,0.023175,0.001148
20.58,0.070905,0.02936,1.6e-05
20.58999999999999,0.077654,0.054536,0.011383
20.60000000000001,0.084808,0.050252,0.006071
20.61,0.105776,0.045232,0.023603
20.61999999999999,0.125223,0.043606,0.025261
20.63000000000001,0.130289,0.045414,0.041122
20.64,0.09478,0.042713,0.046683
20.64999999999999,0.105546,0.045324,0.037784
20.66000000000001,0.092968,0.047895,0.049322
20.67,0.057736,0.050311,0.03544
20.679999999999996,0.036382,0.055426,0.039977
20.69000000000001,0.029376,0.050197,0.035624
20.700000000000003,0.039942,0.064089,0.033753
20.709999999999997,0.029382,0.049352,0.032992
20.720000000000013,0.024132,0.050189,0.027731
20.730000000000004,0.010711,0.067458,0.029547
20.739999999999995,0.022351,0.048458,0.027751
20.749999999999982,0.0261,0.043234,0.017148
20.760000000000005,0.027677,0.041537,0.033019
20.77,0.029941,0.029344,0.006574
20.779999999999987,0.029746,0.034567,0.018925
20.790000000000006,0.028055,0.0579,0.004775
20.8,0.051166,0.029457,0.006447
20.809999999999988,0.035325,0.03285,-0.004036
20.820000000000007,0.038345,0.036419,0.025909
20.83,0.043956,0.020827,0.01003
20.83999999999999,0.053729,0.005295,0.013531
20.85000000000001,0.058131,0.008772,0.015267
20.86,0.064086,0.007105,0.032875
20.86999999999999,0.059873,0.015683,0.017004
20.88000000000001,0.072065,0.022683,0.029261
20.89,0.050615,0.033016,0.038214
20.89999999999999,0.043722,0.026907,0.025921
20.91000000000001,0.057683,0.046038,0.031077
20.92,0.056082,0.034772,0.0223
20.929999999999996,0.047175,0.019198,0.029468
20.94000000000001,0.052433,0.019237,0.032979
20.950000000000003,0.055953,0.019257,0.034729
20.959999999999997,0.050698,0.020949,0.031229
20.970000000000013,0.050598,0.033066,0.034729
20.980000000000004,0.03633,0.026107,0.043658
20.989999999999995,0.037482,0.026058,0.026898
20.999999999999982,0.022284,0.026893,0.036715
21.010000000000005,0.010029,0.016451,0.029767
21.02,-0.005831,0.015515,0.024594
21.029999999999987,-0.021952,0.018941,0.035274
21.040000000000006,-0.041151,0.002382,0.022211
21.05,-0.046392,-0.004577,0.021385
21.059999999999988,-0.087035,0.006487,0.012834
21.070000000000007,-0.115171,-0.009222,0.006015
21.08,-0.102927,-0.002233,0.014722
21.08999999999999,-0.1126,-0.00227,0.009498
21.10000000000001,-0.09759,-0.005659,0.014686
21.11,-0.102626,-0.007466,-0.002937
21.11999999999999,-0.097306,-0.007452,-0.002985
21.13000000000001,-0.087434,-0.029927,-0.00301
21.14,-0.070336,-0.025605,-0.020793
21.14999999999999,-0.052687,-0.040237,-0.010301
21.16000000000001,-0.037564,-0.022912,-0.019277
21.17,-0.007426,-0.021076,-0.02126
21.179999999999996,0.00764,-0.012376,-0.024918
21.19000000000001,0.00941,-0.010646,-0.026717
21.200000000000003,0.030587,-0.015747,-0.019813
21.209999999999997,0.041218,-0.008793,-0.022551
21.220000000000013,0.069705,-0.019089,-0.0289
21.230000000000004,0.087156,-0.015525,-0.013167
21.239999999999995,0.083665,-0.022464,-0.014891
21.249999999999982,0.108592,-0.020673,-0.023907
21.260000000000005,0.104913,-0.010292,-0.020394
21.27,0.120826,-0.01369,-0.018742
21.279999999999987,0.114529,-0.022339,-0.009847
21.290000000000006,0.115495,-0.000735,-0.022239
21.3,0.104942,-0.001646,-0.027438
21.309999999999988,0.114717,-0.000739,-0.031029
21.320000000000007,0.094421,-0.00688,-0.035291
21.33,0.071225,-0.004341,-0.027209
21.33999999999999,0.05693,-0.00352,-0.020073
21.35000000000001,0.030234,-0.008788,-0.01106
21.36,0.023225,-0.004509,-0.016299
21.36999999999999,0.00019,-0.001995,-0.016127
21.38000000000001,-0.003364,0.003191,-0.016096
21.39,-0.01743,-0.014169,-0.015945
21.39999999999999,-0.026622,0.006607,-5.2e-05
21.41000000000001,-0.038251,0.003126,0.008856
21.42,-0.021392,0.005773,0.006962
21.429999999999996,-0.0354,0.006562,-0.003515
21.44000000000001,-0.030147,0.006593,0.000858
21.450000000000003,-0.019444,0.027372,-0.010728
21.459999999999997,-0.017661,0.029106,-0.012516
21.470000000000013,0.014796,0.013727,0.013765
21.480000000000004,0.004441,0.020549,-0.006467
21.489999999999995,0.01124,0.006782,0.017315
21.499999999999982,-0.003592,0.011864,0.003295
21.510000000000005,0.00454,0.012728,-0.006471
21.52,0.012234,0.016268,0.01022
21.529999999999987,0.007092,0.006716,0.001468
21.540000000000006,0.015855,0.01887,0.00314
21.55,0.026619,0.02235,-0.007522
21.559999999999988,0.024936,0.018873,-0.01279
21.570000000000007,0.024855,0.025812,-0.01015
21.58,0.016012,0.020605,-0.010062
21.58999999999999,0.02122,0.020647,-0.003925
21.60000000000001,0.047789,0.022473,-0.004119
21.61,0.033473,0.023302,0.005679
21.61999999999999,0.051144,0.041518,0.003735
21.63000000000001,0.060976,0.020787,0.004597
21.64,0.072244,0.030384,0.017724
21.64999999999999,0.077622,0.037308,0.010611
21.66000000000001,0.086588,0.033002,0.004379
21.67,0.05733,0.038091,0.002806
21.679999999999996,0.065085,0.035571,0.01686
21.69000000000001,0.052695,0.020833,0.02052
21.700000000000003,0.047252,0.022556,0.029374
21.709999999999997,0.047389,0.013879,0.024109
21.720000000000013,0.065736,0.019176,0.039846
21.730000000000004,0.080861,0.040825,0.029102
21.739999999999995,0.070312,0.032992,0.02567
21.749999999999982,0.081692,0.039967,0.030849
21.760000000000005,0.06468,0.045132,0.03978
21.77,0.070144,0.033037,0.03273
21.779999999999987,0.062733,0.03654,0.052187
21.790000000000006,0.064694,0.030473,0.041621
21.8,0.069937,0.027913,0.046886
21.809999999999988,0.07161,0.034857,0.050395
21.820000000000007,0.067974,0.043497,0.053925
21.83,0.06613,0.048694,0.05658
21.83999999999999,0.059858,0.040035,0.064582
21.85000000000001,0.043038,0.039984,0.062949
21.86,0.053606,0.033996,0.068188
21.86999999999999,0.052815,0.034846,0.061134
21.88000000000001,0.045939,0.034789,0.047083
21.89,0.033534,0.039934,0.045401
21.89999999999999,0.050257,0.034826,0.05412
21.91000000000001,0.036117,0.046858,0.048894
21.92,0.025499,0.034707,0.052526
21.929999999999996,0.029098,0.043355,0.045419
21.94000000000001,0.012999,0.034676,0.057892
21.950000000000003,0.020033,0.045081,0.05781
21.959999999999997,0.028406,0.027739,0.038382
21.970000000000013,0.008026,0.032835,0.038499
21.980000000000004,-0.000723,0.020671,0.036827
21.989999999999995,-0.005975,0.022365,0.032446
21.999999999999982,0.004878,0.013725,0.020932
22.010000000000005,-0.004039,0.010246,0.026294
22.02,0.008303,0.027605,0.024412
22.029999999999987,0.001429,0.029268,0.010346
22.040000000000006,0.004238,0.015417,0.005069
22.05,-0.005439,0.012774,0.002499
22.059999999999988,-0.00712,0.012748,-0.003673
22.070000000000007,-0.005387,0.008442,-0.000145
22.08,0.001935,-0.001075,-0.013403
22.08999999999999,0.008798,0.010239,-0.003778
22.10000000000001,0.005169,-0.005322,0.00686
22.11,0.005294,0.008478,-0.005529
22.11999999999999,-0.007137,0.006694,-0.001915
22.13000000000001,0.011427,-0.001884,0.005034
22.14,0.01486,0.018889,0.004947
22.14999999999999,0.01215,0.026677,0.00495
22.16000000000001,0.040866,0.017215,-0.017279
22.17,0.030118,0.029311,-0.014581
22.179999999999996,0.049612,0.019019,-0.012924
22.19000000000001,0.038944,0.013806,-0.009301
22.200000000000003,0.048511,0.012145,0.002988
22.209999999999997,0.033697,0.017233,-0.01455
22.220000000000013,0.033551,0.0138,-0.003068
22.230000000000004,0.042378,0.016432,-0.002257
22.239999999999995,0.033443,0.037158,-0.004011
22.249999999999982,0.046787,0.035475,-0.007623
22.260000000000005,0.044142,0.015588,-0.002255
22.27,0.026552,0.005142,-0.007376
22.279999999999987,0.037304,0.012088,-0.018039
22.290000000000006,0.019574,0.006836,-0.016141
22.3,0.012165,0.005141,0.005982
22.309999999999988,0.024994,0.013753,-0.024106
22.320000000000007,0.017427,0.017259,0.005915
22.33,0.008363,0.016383,0.019187
22.33999999999999,0.005116,0.01891,-0.001971
22.35000000000001,-0.009441,0.017201,0.022817
22.36,-0.021663,0.001573,0.015888
22.36999999999999,-0.034317,-0.00793,0.036291
22.38000000000001,-0.037697,-0.001921,0.024837
22.39,-0.056905,0.004867,0.005552
22.39999999999999,-0.048072,-0.00202,0.010798
22.41000000000001,-0.059817,0.016995,0.019648
22.42,-0.051814,0.015282,0.017816
22.429999999999996,-0.058884,0.005736,0.019643
22.44000000000001,-0.050131,-0.001141,0.028398
22.450000000000003,-0.037053,0.009311,0.038861
22.459999999999997,-0.052024,0.01701,0.031894
22.470000000000013,-0.036227,0.01968,0.042365
22.480000000000004,-0.016417,0.013639,0.024603
22.489999999999995,-0.020061,0.018833,0.029909
22.499999999999982,-0.007112,0.013768,0.052766
22.510000000000005,0.018669,0.036336,0.038427
22.52,0.01985,0.019,0.024351
22.529999999999987,-0.010485,0.017195,0.038672
