time,Gyr_X,Gyr_Y,Gyr_Z
0.0,-0.0203742469945158,-0.0032095254684694,0.0072695801932338
0.0100000000000051,-0.0125000727522922,-0.0106370428956778,0.0052585401965546
0.019999999999996,-0.0148822248218708,-0.0070837489900907,0.0067129287963461
0.0300000000000011,-0.0215063135905015,-0.0021759360855988,0.0052120552640048
0.0400000000000062,-0.0096618825615722,-0.0044218011961086,-0.0056050894605521
0.0499999999999971,-0.0122354439217091,-0.0060492054121045,-0.0048336933900437
0.0600000000000022,-0.0137840904782787,-0.0061980128047253,-0.0059889903018966
0.0700000000000073,-0.0175978150465791,-0.0042929073479264,-0.0058506639196559
0.0799999999999983,-0.0136591954774381,-0.0147984727505634,-0.0052204554999436
0.0900000000000034,-0.015514377415491,-0.0119277017833881,-0.0118025316024959
0.0999999999999943,-0.0122127707941798,-0.0057005510596784,-0.0117359165060599
0.1099999999999994,-0.018963348879818,-0.0083116921441194,-0.0140390143190058
0.1200000000000045,-0.0163317297774883,-0.0083377779718302,-0.017811717145853
0.1299999999999954,-0.0276540429762325,-0.0092737056860358,-0.0134484489818257
0.1400000000000005,-0.0212481711657083,-0.0156342567989114,-0.0127354356977538
0.1500000000000056,-0.0102166247983749,-0.0164899219723745,-0.01021369718587
0.1599999999999966,-0.0103617353393654,-0.0086919744580294,-0.0080967537200252
0.1700000000000017,-0.012006191901479,-0.0144742967815001,-0.0072698700013748
0.1800000000000068,-0.0049777660011577,-0.0070371783291667,-0.0050192161976733
0.1899999999999977,-0.0071558842175117,-0.0075467648118036,-0.0103141576205512
0.2000000000000028,0.0024626256422583,-0.0060034782515455,-0.0077874348873662
0.2099999999999937,0.0183650843131792,-0.001683319759992,-0.0093445197361101
0.2199999999999988,0.0096558930371944,-0.005967031428769,-0.0054460699223631
0.2300000000000039,0.0140350953086244,-0.0081935091287903,-0.0104228145494404
0.2399999999999948,0.0168408785732023,-0.0020329904815918,-0.0040496112507807
0.25,0.005320876560322,-0.0013859500201911,-0.0033646707438868
0.2600000000000051,-0.0009166692192618,-0.0105463832332841,-0.0062792186604961
0.269999999999996,-0.0033505694727094,-0.0109416279588342,0.0016734597472119
0.2800000000000011,-0.0096188025988654,-0.0105550800563321,0.0034419284276155
0.2900000000000062,-0.0117085193671915,-0.0072191878140814,0.0018813573703837
0.2999999999999971,-0.0110274183000925,-0.0151245066045497,0.0032378917640618
0.3100000000000023,-0.0114340638952284,-0.0095074138949977,0.0069682375556511
0.3200000000000074,-0.0095127028491041,-0.010876010579729,0.0057553710649187
0.3299999999999983,0.0027239860276569,-0.0068996769521273,0.0070498054695782
0.3400000000000034,0.0032635531425445,-0.0084054386097077,0.009621211879493
0.3499999999999943,0.0011546628564405,-0.0099818950608032,0.0086697194926721
0.3599999999999994,-0.0030197408354147,-0.0053610509021385,0.0080509552502193
0.3700000000000045,-0.0008960133563633,-0.0032267619084164,0.008725355492675
0.3799999999999954,-0.0089277941066145,-0.0015003364638212,0.0127581275197424
0.3900000000000005,-0.0087108094647383,0.0028580467774507,0.0103568792963431
0.4000000000000057,-0.0003269345590814,-0.0013327626549392,0.0115701817972705
0.4099999999999966,-0.0085833974238282,-0.0081765950928318,0.0190239856002644
0.4200000000000017,-0.0011263489978165,-0.0059129520335164,0.0213152193586068
0.4300000000000068,-0.0101599257685025,-0.0063126177553059,0.0208601328415541
0.4399999999999977,-0.0128023342755905,-0.0091645087102403,0.0327549955691694
0.4500000000000028,-0.0249521762211495,-0.0101000980588886,0.0319283235411301
0.4599999999999937,-0.0338409025302801,-0.0067013303624344,0.0311639172809833
0.4699999999999988,-0.0385685848352911,0.0027919505062717,0.0323206477888098
0.480000000000004,-0.044787484776319,0.007345661570984,0.0332256839869932
0.4899999999999949,-0.0634925746470858,0.006037638334233,0.0302027492772031
0.5,-0.0635123517354377,0.002595983816246,0.0226025627555016
0.5100000000000051,-0.0634824344981671,0.0066831747368457,0.023629890195736
0.519999999999996,-0.0624186357205435,-0.0024381262214217,0.0183992469459722
0.5300000000000011,-0.059273214710172,-0.0035747117251038,0.0200386492483192
0.5400000000000063,-0.0647928211658161,-0.0064191360625607,0.019490658676589
0.5499999999999972,-0.063194198076972,-0.0122568475661075,0.0220006367525598
0.5600000000000023,-0.0602447132921586,-0.0135884198680734,0.0197781480616773
0.5700000000000074,-0.0498030149701441,-0.0141359047478634,0.0245519792164916
0.5799999999999983,-0.0463858787793021,-0.014515987921749,0.0184802825567919
0.5900000000000034,-0.0348819451870203,-0.0187087113078643,0.019803466143611
0.5999999999999943,-0.0192817476553088,-0.0184573181762658,0.0132072030874373
0.6099999999999994,-0.0109941409990781,-0.0147970103978907,0.0107442539399567
0.6200000000000045,-0.0085908802381366,-0.008193885241616,0.0169824551962981
0.6299999999999955,-0.0060877523324273,-0.0135617428793621,0.009767267946537
0.6400000000000006,0.011050373360906,-0.0126326559090464,0.0187458555159005
0.6500000000000057,0.0103385969537411,-0.001756926425569,0.0135615922351939
0.6599999999999966,-0.0013675023228995,-0.0047660519123389,0.0116220285533541
0.6700000000000017,-0.0269003561457298,0.007208018441901,0.0076576096902858
0.6800000000000068,-0.045988005400721,0.0156375544104013,-0.0004838110051368
0.6899999999999977,-0.0723574830762564,0.0228756215888395,0.0022961205575134
0.7000000000000028,-0.108280391334711,0.0122771402986879,-0.0155413737718006
0.7099999999999937,-0.1293729247420064,0.0060170104208555,-0.0179672374369536
0.7199999999999989,-0.1788359962395083,0.0155584565335142,-0.0196053465314263
0.730000000000004,-0.2224376090148409,-0.0029115318112926,-0.0225391920683581
0.7399999999999949,-0.2665850912899671,0.0057862932333354,-0.0217997561245176
0.75,-0.3252704890590086,0.0045357199443185,-0.0256619505561643
0.7600000000000051,-0.3749020206028723,0.0015423466551195,-0.0174970671117605
0.769999999999996,-0.4165856212455011,-0.0054132623304165,0.0010336389897795
0.7800000000000011,-0.4620737815536049,0.0010979890892355,0.0060297027789735
0.7900000000000063,-0.4972793559067747,-0.005335335503268,0.012388226291013
0.7999999999999972,-0.5340404722484758,-0.0172884042398361,0.0151719422945769
0.8100000000000023,-0.5530613928533616,-0.0353608019165991,0.0080349464049787
0.8200000000000074,-0.5748433601369566,-0.0563211919402232,-0.0014844338680689
0.8299999999999983,-0.599966173726087,-0.0553550608553745,-0.0004119965616768
0.8400000000000034,-0.6195868943878501,-0.0451046304618568,-0.0011801313613145
0.8499999999999943,-0.6421954058344805,-0.0485682701021951,0.0010734682902349
0.8599999999999994,-0.6532960722230425,-0.0630556919906165,-0.0021882579607905
0.8700000000000045,-0.6691658854635315,-0.0776828473259429,0.0094354056347005
0.8799999999999955,-0.6603128956553886,-0.0867183793281325,0.0267455789984203
0.8900000000000006,-0.6437364041871507,-0.081226569106518,0.0411317828074775
0.9000000000000057,-0.6289085050517558,-0.0782128157083854,0.0410052454965984
0.9099999999999966,-0.6010459764790208,-0.084136092919046,0.0468544894948107
0.9200000000000016,-0.569553596528031,-0.0880741669014322,0.0513777742894316
0.9300000000000068,-0.5429110152544818,-0.0791314232693202,0.046357375033957
0.9399999999999976,-0.5084266999303946,-0.0724813907394984,0.0445470773766868
0.9500000000000028,-0.4916651725044824,-0.0742478995545547,0.0445188086955928
0.9599999999999936,-0.4973649160176313,-0.0618570995803092,0.0326874887715474
0.9699999999999988,-0.4956874581708146,-0.0608541259689074,0.0268682530724979
0.980000000000004,-0.504372245498456,-0.053905575508003,0.0288056953661224
0.9899999999999948,-0.5346233545707887,-0.0573203580894734,0.0248660294475571
1.0,-0.5501330615189022,-0.0609157024750811,0.0278610204958339
1.0100000000000051,-0.5747111617709649,-0.0609657149300864,0.0181057820531488
1.019999999999996,-0.6114522114527503,-0.0605131897666545,0.0087549637436883
1.0300000000000011,-0.6361603419863012,-0.0572362094856639,0.0038878168168751
1.0400000000000065,-0.667461214443906,-0.0461038365494171,-0.0009050266416319
1.0499999999999972,-0.7091698798263267,-0.0450002436599798,-0.0094908637336388
1.0600000000000025,-0.7512576280120407,-0.0451857959520348,-0.0339797002495009
1.0700000000000074,-0.8050751095520345,-0.0471812084631203,-0.049152934180011
1.0799999999999983,-0.8475646080688906,-0.0468423441239139,-0.0550109671596583
1.0900000000000034,-0.9046317516242782,-0.0523864323801953,-0.0552398608291814
1.0999999999999943,-0.9467304118126644,-0.0589391199448963,-0.0578380837115138
1.1099999999999994,-0.9874085707693384,-0.0503615058529432,-0.0590933406617071
1.1200000000000043,-1.025274129087866,-0.0554190212154051,-0.0646767559367181
1.1299999999999957,-1.0496557275147098,-0.0508128845323246,-0.0699919700177558
1.1400000000000006,-1.0943416063410565,-0.0445245397440832,-0.0664675629086692
1.1500000000000057,-1.1464816221732792,-0.0567668508489962,-0.0727429567261843
1.1599999999999966,-1.222548120999847,-0.0512732137076778,-0.0749799121449495
1.1700000000000017,-1.2952261702804175,-0.0582594240699629,-0.0827918106037789
1.1800000000000068,-1.377550580628109,-0.0653772588439247,-0.0882364256419902
1.1899999999999975,-1.459968990206393,-0.0736242838267134,-0.0848629511111929
1.2000000000000028,-1.5304403248381755,-0.07312701629013,-0.0849339210802628
1.2099999999999935,-1.5793677658118006,-0.0622944814098594,-0.0829395296363735
1.2199999999999989,-1.621064498921583,-0.0617304572191735,-0.0794126406620048
1.230000000000004,-1.6473602368524034,-0.0680642635342444,-0.071465472517174
1.2399999999999949,-1.663057355993298,-0.072566427027168,-0.0626766552774142
1.25,-1.68729128934909,-0.0810845539163664,-0.0400175570316196
1.2600000000000051,-1.7128587242934803,-0.1014427224150909,-0.0075531802042261
1.269999999999996,-1.7406382541379746,-0.1119037969842931,0.0176695001560805
1.2800000000000011,-1.767645109002551,-0.1218311871696056,0.0368930718799601
1.2900000000000065,-1.8123775026249207,-0.1281260363279377,0.0728546694299161
1.2999999999999972,-1.8674093006334909,-0.1399181997292022,0.0887677166232937
1.3100000000000025,-1.919810332654006,-0.146852200158414,0.1129241386259446
1.3200000000000074,-1.9797495368741105,-0.1517862054715893,0.1299819965260032
1.3299999999999983,-2.0467973565229407,-0.1478516152650018,0.1597527384783185
1.3400000000000034,-2.133689389026078,-0.1480244226913784,0.1753357397257559
1.3499999999999943,-2.213971577460913,-0.1488315115793803,0.1884126784513953
1.3599999999999994,-2.285765785126032,-0.1435030811936659,0.1999909620152089
1.3700000000000043,-2.351000216012658,-0.1622418415085134,0.2148684524534654
1.3799999999999957,-2.3947476995857007,-0.1715250463392492,0.2175022805069612
1.3900000000000006,-2.43480853045153,-0.1775119836486195,0.2282114496775394
1.4000000000000057,-2.4654728622513766,-0.1826348855976045,0.2392876713380949
1.4099999999999966,-2.4576286315935776,-0.1531223311130785,0.2438743995376185
1.4200000000000017,-2.4251514814683826,-0.1213169538973743,0.2375527236607348
1.4300000000000068,-2.36782221724398,-0.11098727735721,0.2185105689700224
1.4399999999999975,-2.28893729830986,-0.1049906680945112,0.2177582902854825
1.4500000000000028,-2.223729493527913,-0.0974762286453917,0.2007346520074553
1.4599999999999935,-2.17453977576994,-0.0893264788330559,0.1903394192370529
1.4699999999999989,-2.162939163024224,-0.0837337374551436,0.1895572163051709
1.480000000000004,-2.187235388419473,-0.0865899755332527,0.1750233436219493
1.4899999999999949,-2.223242575467238,-0.0989840891179582,0.1656743644186616
1.5,-2.272048154946365,-0.1103857169563316,0.1668438263954753
1.5100000000000051,-2.284056791149748,-0.1135694538324468,0.164800605403461
1.519999999999996,-2.258341052525743,-0.1102750684383382,0.1788525045897045
1.5300000000000011,-2.217855493361778,-0.1229313442935337,0.1864556105841492
1.5400000000000065,-2.168956098379549,-0.1177060805430658,0.2068270683863948
1.5499999999999972,-2.1312145839211274,-0.1154189702223043,0.2373753320831557
1.5600000000000025,-2.0972818248004743,-0.1022566553213723,0.2486435231020224
1.5700000000000074,-2.052819688247227,-0.1088934997856395,0.2496603406889604
1.5799999999999983,-1.9768309690081989,-0.1116213174358584,0.2521959663889589
1.5900000000000034,-1.8657200885538017,-0.1123760575137687,0.2506082762708776
1.5999999999999943,-1.7249448374868317,-0.1182131241196472,0.2441946835904723
1.6099999999999994,-1.5741679113622034,-0.1083322900076121,0.2365317696014158
1.6200000000000043,-1.4253557266930843,-0.1059106138859061,0.2332949715200121
1.6299999999999957,-1.281937301471875,-0.1077358096993223,0.2260064632816463
1.6400000000000006,-1.1294453458312028,-0.0944808510237338,0.2116222825721197
1.6500000000000057,-0.9827416196392552,-0.0936241099146201,0.1911162304197058
1.6599999999999966,-0.8224641349047799,-0.0963563500518588,0.1476289566809165
1.6700000000000017,-0.6454197252250363,-0.0890653704417816,0.105141073107796
1.6800000000000068,-0.4531350865038363,-0.0790120855175559,0.0819530934892573
1.6899999999999975,-0.2718159481869266,-0.0664374977339344,0.0592376260835646
1.7000000000000028,-0.1073221318202253,-0.0508349337272233,0.0390328665054906
1.7099999999999935,0.0468645277250851,-0.0389755858459443,0.0208938393313301
1.7199999999999989,0.2029487668303228,-0.0286282752149929,-0.0060175684754579
1.730000000000004,0.3526100012308216,-0.0185501774174523,-0.0317977425509127
1.7399999999999949,0.4858698044984901,-0.0122858286465591,-0.0609662403335352
1.75,0.607143125034359,0.0073539373451122,-0.081992125907337
1.7600000000000051,0.7008184853601653,0.0132309608966179,-0.1067427021056165
1.769999999999996,0.7750796012043539,0.0127000226397963,-0.1158668683406859
1.7800000000000011,0.8426846572560424,0.0174456000990155,-0.1148752737639667
1.7900000000000065,0.8981926749420466,0.0062222915719018,-0.1144804628842275
1.7999999999999972,0.9594798133420328,-0.0009382707494559,-0.1144137094651761
1.8100000000000025,1.0449317272712408,-0.0029125792082554,-0.1169834903112689
1.8200000000000076,1.1495546198448807,0.0121133713910481,-0.1205402343804981
1.8299999999999983,1.2402090023973993,0.0340925050530093,-0.1407158550284028
1.8400000000000036,1.317231780188131,0.0482896797392974,-0.1430401556764084
1.8499999999999943,1.3676813623589292,0.04913393525249,-0.1453276382726982
1.8599999999999997,1.404411362907725,0.0366953294299398,-0.1364044675589771
1.8700000000000043,1.425835292236556,0.0170268397062209,-0.1197683578893687
1.8799999999999957,1.4456492714058211,-0.0009782523235179,-0.1027778051926612
1.8900000000000008,1.4904172053157212,-0.0106643248945682,-0.0858852466927389
1.9000000000000057,1.5540034050412723,-0.0140391790190639,-0.0798245781867635
1.9099999999999968,1.6469911273644806,-0.0085183065321444,-0.0812541314823471
1.9200000000000017,1.7443205015219656,0.0047086150179736,-0.0959765232155097
1.9300000000000068,1.8269251945009304,0.0144106928125493,-0.1031733415528832
1.9399999999999975,1.894654160526735,0.0053291520108105,-0.1077343987957069
1.9500000000000028,1.9409824979442007,-0.009791440739137,-0.1084306511145727
1.9599999999999935,1.9748560176928909,-0.0157333688775835,-0.0952333757648737
1.9699999999999989,2.003514394840727,-0.0161897705045798,-0.0725392964523954
1.980000000000004,2.025377250163486,-0.010721718588372,-0.0540169124624507
1.9899999999999949,2.0507332552426765,-0.0015286446824557,-0.0405217125451269
2.0,2.0777307019367384,0.0108430987253462,-0.0261065818828965
2.010000000000005,2.0881990776890627,0.020633079236295,-0.0253215711537189
2.019999999999996,2.1110226540776766,0.019526571811116,-0.0121717329871674
2.030000000000001,2.132021133415281,0.0205753713367372,-0.0058528975632093
2.0400000000000063,2.1218390027987484,0.0157647216218843,-0.0127858565809573
2.049999999999997,2.103334934306458,0.0072107274479271,-0.0232644061246819
2.0600000000000023,2.078828123254773,-0.0016443629106568,-0.0226535782271069
2.0700000000000074,2.0525318932443395,-0.0059841693320129,-0.0211160750586947
2.0799999999999983,2.03844558066015,-0.0020343981579269,-0.0258119962728508
2.0900000000000034,2.0319452452769404,-0.0002656729344223,-0.0158235714713888
2.0999999999999943,2.03695421051748,-0.0016369272842567,-0.0003040698635485
2.1099999999999994,2.036699875796357,0.0057033627351819,0.0081398411722004
2.1200000000000045,2.0617165094396466,0.0103259932405764,0.0117629770713985
2.1299999999999955,2.0945352679094733,0.0206321277961578,0.0200717423218203
2.140000000000001,2.1325086847229,0.0417134394849212,0.0174928071482484
2.1500000000000057,2.1862661193273163,0.0525425309833957,0.006324815130874
2.1599999999999966,2.227870975369446,0.0668236275637878,-0.0001183800485172
2.1700000000000017,2.292855269181687,0.0873130333222597,-0.0132956813102522
2.180000000000007,2.3558689644402,0.0909319613327517,-0.0156129318347651
2.1899999999999977,2.436876057107131,0.1039111164371639,-0.0351304439479625
2.200000000000003,2.518970249776529,0.1158264577176482,-0.0488923441723499
2.2099999999999937,2.600283935207709,0.1199419333906389,-0.0708576506603217
2.219999999999999,2.678360216535598,0.1213923744705831,-0.091132472806221
2.230000000000004,2.7421989142005225,0.1325296054652005,-0.1203345683025844
2.239999999999995,2.8012140140684387,0.1381039103782758,-0.1412688582004573
2.25,2.84305310092948,0.1446462185949717,-0.1550928506564502
2.260000000000005,2.8864217552537674,0.1499117184172777,-0.1687454436455259
2.269999999999996,2.920737124950844,0.1478471297978828,-0.1726020594510428
2.280000000000001,2.949351361959834,0.1603636800750884,-0.1732240297543499
2.2900000000000063,2.9782743686462947,0.1640537248081157,-0.1756882797107933
2.299999999999997,2.9971860341754413,0.176388623707513,-0.1796398668533527
2.3100000000000023,3.0246187015204176,0.1927037898597301,-0.1841613313757078
2.3200000000000074,3.04313396756396,0.217518637711384,-0.183963332496496
2.3299999999999983,3.0587403606037125,0.2472135038791782,-0.1700251290968392
2.3400000000000034,3.0782963731930475,0.2607275956344522,-0.1539645347013118
2.3499999999999943,3.083136252989593,0.2726927298576656,-0.1263777965066141
2.3599999999999994,3.062361501585656,0.2895807053815424,-0.0956446918226129
2.3700000000000045,3.0424810209412705,0.3044058684885635,-0.0705167287050334
2.3799999999999955,2.9988959145756846,0.2990440813058031,-0.0539091033722401
2.390000000000001,2.947146097512632,0.2814010817213648,-0.0322508042336432
2.4000000000000057,2.876513956503605,0.2783419494505046,-0.0096731997556974
2.4099999999999966,2.794102796692378,0.2768492263455237,0.0217737839030827
2.4200000000000017,2.706617980212614,0.2657972187535537,0.048113234908799
2.430000000000007,2.6123702428390785,0.260828859064386,0.0773258088538004
2.4399999999999977,2.518454422780839,0.257115954245478,0.1162213292324787
2.450000000000003,2.425026535631518,0.226686237917189,0.1480868950000897
2.4599999999999937,2.3324195320298067,0.2119323089667289,0.1928018642238778
2.469999999999999,2.236750681976309,0.2122644972371052,0.2246066028999593
2.480000000000004,2.146336697281373,0.1959486913102361,0.2470214498014264
2.489999999999995,2.044922453265849,0.1716758166608442,0.2513400535120708
2.5,1.92895332733504,0.1356889174340074,0.2584372518366806
2.510000000000005,1.8063275564212464,0.1038627989822948,0.2668145123315323
2.519999999999996,1.6872054777044685,0.0697376928409167,0.2826232639774385
2.530000000000001,1.5838281991508176,0.0301816316147305,0.2948482014419153
2.5400000000000063,1.4862656174300382,-0.0106287279355136,0.3025715671022996
2.549999999999997,1.4030531047963553,-0.0489795279759919,0.3093308183720736
2.5600000000000023,1.3409808880928888,-0.0801530208123839,0.2987504373714218
2.5700000000000074,1.2913229015739964,-0.1000950832108099,0.2932218531935278
2.5799999999999983,1.2708018018776834,-0.1289622046793088,0.2868247128646523
2.5900000000000034,1.279672156322783,-0.1399926188002238,0.2785472036289979
2.5999999999999943,1.3225752876112855,-0.1569344593406282,0.2704469243932634
2.6099999999999994,1.4067357421301945,-0.1739815728544198,0.2561549197980299
2.6200000000000045,1.5182753149561925,-0.1968731198666632,0.2434803282841504
2.6299999999999955,1.6434247429472033,-0.2305600883407235,0.2381693124759372
2.640000000000001,1.7818255531032372,-0.256393717318815,0.2223118324334627
2.6500000000000057,1.909095793330888,-0.2549604218250216,0.2103661967431906
2.6599999999999966,2.021853993522137,-0.2413366875665537,0.179364731313526
2.6700000000000017,2.119028920458664,-0.221084462349082,0.1593671009928447
2.680000000000007,2.189419970321177,-0.2144624991982978,0.1626507442068123
2.6899999999999977,2.2265150569582204,-0.2131873931078516,0.1607931332364068
2.700000000000003,2.2439322734683067,-0.2036144036934325,0.1643239652066873
2.7099999999999937,2.2124347559416724,-0.2001025702832456,0.1642601605259162
2.719999999999999,2.1596939785410094,-0.1814700929260008,0.1620913345668833
2.730000000000004,2.071845480605371,-0.163874611952405,0.1692716903742808
2.739999999999995,1.96747407651123,-0.1655536868815532,0.1882079587625034
2.75,1.8320050571143405,-0.1548535710965358,0.1895616317487658
2.760000000000005,1.6688881348281643,-0.1624524621732118,0.1798463176120995
2.769999999999996,1.4910140821360771,-0.1561130537242275,0.164090740570385
2.780000000000001,1.3065139707769162,-0.1516707593170751,0.1546443009757178
2.7900000000000063,1.1268647119244743,-0.1437263596751457,0.1508514559774167
2.799999999999997,0.9662264993629944,-0.1296717308181992,0.1516642051521485
2.8100000000000023,0.8340276735199285,-0.124960231344914,0.1358286025665066
2.8200000000000074,0.740968240712904,-0.1219205153686974,0.1161387634437084
2.8299999999999983,0.6790880530265699,-0.1139372927340591,0.092923287541181
2.8400000000000034,0.6515959706323654,-0.0948739447068463,0.0770812988939559
2.8499999999999943,0.6357523956004134,-0.0643227808709265,0.0727085678728724
2.8599999999999994,0.6176560499173019,-0.0384168968212072,0.0652808096076545
2.8700000000000045,0.5805763196889959,-0.0300130945754833,0.0645167432132851
2.8799999999999955,0.5324561616220078,-0.0198513117908628,0.0480738760307662
2.890000000000001,0.4977035567939654,-0.0152409703999658,0.0296750730543559
2.9000000000000057,0.4664123027560444,-0.0053695711574403,0.0119180718022726
2.9099999999999966,0.4391266074348284,0.0079513374886011,-0.0098824855941859
2.9200000000000017,0.4102904964559861,0.019725985739876,-0.0168269766024878
2.930000000000007,0.3757116496365058,0.0311550723844349,-0.0164033683475941
2.9399999999999977,0.3207650381564373,0.0393721627903881,-0.0084104541375977
2.950000000000003,0.2487603934622405,0.0386323582479936,0.0090961000655778
2.9599999999999937,0.1495488505695221,0.0312045409958011,0.0072791792185676
2.969999999999999,0.0645223724186761,0.0278131112302672,0.0143935345678929
2.980000000000004,-0.0108105507726131,0.0253219142963556,0.0062245672717091
2.989999999999995,-0.0989149647412203,0.0229583753796525,-0.0049703402194913
3.0,-0.172946161463229,0.0242423973257411,0.0001505253552332
3.010000000000005,-0.2520352279784991,0.0241345920671222,-0.0018458895073615
3.019999999999996,-0.3281430143426239,0.0234099212193162,0.0102100889338143
3.030000000000001,-0.4064088001057398,0.0200288695235082,0.0016021076532611
3.0400000000000063,-0.4723663829913506,0.0206363971971217,0.0010851757403982
3.049999999999997,-0.5400071983387088,0.0193974260614728,-0.0157973491225859
3.0600000000000023,-0.5990526460709862,0.0222149562749949,-0.0352640787517396
3.0700000000000074,-0.641421950001911,0.0300503659057907,-0.05157762259226
3.0799999999999983,-0.6938279666295019,0.0404732553856877,-0.0585238228311499
3.0900000000000034,-0.7547319097172974,0.0523139682224658,-0.0538968861661853
3.0999999999999943,-0.8215207644444996,0.0615285100088716,-0.054543168997939
3.1099999999999994,-0.8777487847585828,0.0753604545487742,-0.0558690602340536
3.1200000000000045,-0.926966036974356,0.0782971286361246,-0.0602272717180575
3.1299999999999955,-0.973307538776358,0.0844349456721693,-0.066477172976721
3.140000000000001,-1.0308263781096083,0.0893234714111452,-0.0776368596410191
3.1500000000000057,-1.0932420604202828,0.1003378215653697,-0.0795228273755805
3.1599999999999966,-1.1563588814813186,0.1090100994318986,-0.0712704382371528
3.1700000000000017,-1.234934783575527,0.1101858336019693,-0.0642308175969704
3.180000000000007,-1.315099100286506,0.1165222491440372,-0.0611368968780811
3.1899999999999977,-1.388106555994021,0.118717464863413,-0.0523805156800988
3.200000000000003,-1.4463841472595569,0.1148561415027326,-0.0405719813180397
3.2099999999999937,-1.5028752557414335,0.1173000754572761,-0.0386818545927043
3.219999999999999,-1.5744950321834852,0.1082227832229761,-0.0552218557755107
3.230000000000004,-1.6412188622027823,0.098813052124857,-0.053359563661891
3.239999999999995,-1.7133501568724705,0.0930978440837786,-0.0417889192851658
3.25,-1.780092027875824,0.087154468050947,-0.0284378915675459
3.260000000000005,-1.84714877635648,0.0813548734104497,-0.0193717137170917
3.269999999999996,-1.892095867627673,0.0655845475642854,-0.0204313042308209
3.280000000000001,-1.9346094575063928,0.0559586967963118,-0.0147976084836134
3.2900000000000063,-1.9588004044208411,0.0419916705376533,-0.0149320976033284
3.299999999999997,-1.974538816322604,0.0243351975566473,-0.0124078054390048
3.3100000000000023,-1.9973163237701383,0.0253319075488438,-0.0215250524707893
3.3200000000000074,-2.0223339822775976,0.0183142178795428,-0.0309463212695782
3.3299999999999983,-2.0474906504332795,0.0061692718743482,-0.0249586646361794
3.3400000000000034,-2.069261996734016,-0.004029393432089,-0.0223601040507523
3.3499999999999943,-2.082590299210579,-0.0054716630829637,-0.0021953067156346
3.3599999999999994,-2.0880958268569825,-0.0100139713040546,0.0061193490716189
3.3700000000000045,-2.090852727055336,-0.0137761372483252,-0.0018629536365373
3.3799999999999955,-2.0854495763413614,-0.0096764027442689,-0.0206216338016442
3.390000000000001,-2.0759923560362545,-0.0059084329063525,-0.0382688204896669
3.4000000000000057,-2.0553274220454445,0.0124056401894885,-0.0577995711380007
3.4099999999999966,-2.024906443428203,0.0213063252015806,-0.0644563487935264
3.4200000000000017,-1.9970502588894683,0.034540064190033,-0.0671831628603318
3.430000000000007,-1.9683741477457264,0.0443396303399574,-0.064910737648096
3.4399999999999977,-1.9353650756669,0.0363357576397457,-0.0542288582666353
3.450000000000003,-1.902220606906312,0.0331545534581331,-0.0485537399561312
3.4599999999999937,-1.8801631844669675,0.0273537294197257,-0.0481722113781084
3.469999999999999,-1.852796648055742,0.0354920102817319,-0.0616458690230301
3.480000000000004,-1.8623223599788057,0.0367743870626596,-0.0678927682868789
3.489999999999995,-1.877821449792048,0.0340660455008932,-0.0635620128318165
3.5,-1.90882321320838,0.0267349594282172,-0.045121778635089
3.510000000000005,-1.9362229940248847,0.0216044160051557,-0.0325113218110483
3.519999999999996,-1.96242508361284,0.0115284203010329,-0.0264079280661173
3.530000000000001,-1.9870629091894945,0.0018092668088504,-0.0270742738417428
3.5400000000000063,-2.012349349493542,-0.0025646193223835,-0.0287524436370195
3.549999999999997,-2.056166386233866,-0.0098623380137573,-0.0260480296817927
3.5600000000000023,-2.113077787439163,-0.010059813154232,-0.0343280051481705
3.5700000000000074,-2.160856953810758,-0.011086282611464,-0.0290051216697407
3.5799999999999983,-2.196581300787194,-0.0200627824432664,-0.0138889216850487
3.5900000000000034,-2.232439564398718,-0.0320651769493648,-0.0120748569569642
3.5999999999999943,-2.275273820716926,-0.0280801325459981,0.002115776429951
3.61,-2.3084453886973275,-0.0243075711348528,0.0073985899927563
3.620000000000005,-2.3410828371401897,-0.0325202725848821,0.0080086446605682
3.629999999999996,-2.366778461591127,-0.0434529818668227,0.0248405482480018
3.640000000000001,-2.365114514417804,-0.0390543460626983,0.0326966636157947
3.6500000000000057,-2.3632442961062075,-0.0225953000025695,0.0281123046361592
3.6599999999999966,-2.344255695734624,-0.0099476571143012,0.028631651096148
3.6700000000000017,-2.317490072496416,0.0007265882377809,0.0303056864057514
3.680000000000007,-2.2771801829360085,0.0074864313371868,0.0286352369000399
3.6899999999999977,-2.232993036105329,0.0090686342256799,0.028169933520888
3.700000000000003,-2.186503211638753,0.0146997275889527,0.0246424827644917
3.7099999999999937,-2.1236276495089794,0.0309864187855146,0.0272483234176233
3.719999999999999,-2.0640158294068955,0.04134950137653,0.0197422649570311
3.730000000000004,-2.025575414286005,0.0494296731060805,0.0225565519107039
3.739999999999995,-1.996446986042662,0.0629654060048915,0.0120624507269977
3.75,-1.982444420224608,0.0664104668488198,0.0094071685243331
3.760000000000005,-1.9841066909430416,0.0731878299918254,0.0102786788582922
3.769999999999996,-2.009717103015676,0.0545722833072827,0.0109014282198728
3.780000000000001,-2.0289516745317258,0.044949879005831,0.0294615902082002
3.7900000000000063,-2.0451708841800107,0.0300056521986287,0.0407385428254216
3.799999999999997,-2.0591695022956085,0.0184393798810168,0.0372034333680129
3.8100000000000014,-2.059724169934641,0.0182939543344707,0.0390474217487028
3.820000000000008,-2.0673602829560505,0.0226850605132946,0.0472580091879539
3.8299999999999983,-2.099376870677464,0.0271003908674252,0.0397490604866643
3.8400000000000034,-2.126255363958291,0.0276868133796084,0.0312399647768548
3.8499999999999934,-2.150702085058037,0.0253602022741405,0.0329042807065797
3.86,-2.163866700843496,0.0107219814757732,0.0278385306653733
3.870000000000005,-2.1631075972700025,0.0119224771973791,0.0263934380267683
3.879999999999996,-2.1626719676403843,0.0052010554164076,0.0328348519026983
3.890000000000001,-2.161814852833443,0.0244577597247718,0.0416279223474196
3.9000000000000057,-2.164019320689152,0.032984929823289,0.0524842756296798
3.9099999999999966,-2.180990265088049,0.037483196933983,0.0431340466857121
3.9200000000000017,-2.2166263109000104,0.04800760185281,0.0413416104657832
3.930000000000007,-2.251121049889269,0.0505635197425623,0.0234056343402161
3.9399999999999977,-2.282698245779884,0.0494519791445303,0.0071205608808459
3.950000000000003,-2.313897767413172,0.0483951014219485,0.0090156685275581
3.9599999999999937,-2.321200559817409,0.0531455693681994,0.0021872268165011
3.969999999999999,-2.321205147277926,0.0484335093446608,-0.002871686120034
3.980000000000004,-2.3171109493883515,0.0585822785735153,-0.0111495374152874
3.989999999999995,-2.317286275350039,0.0631877277755336,-0.0165720338114376
4.0,-2.316981283638722,0.056579363692473,-0.0178315275809376
4.010000000000005,-2.328234241620297,0.0635324891318226,-0.0213285613741444
4.019999999999996,-2.3430989966673024,0.0717786049358626,-0.0200688330941224
4.030000000000001,-2.338741113617831,0.0828779174571408,-0.0215577068925019
4.040000000000006,-2.3197658308931635,0.099035959615377,-0.0571374537276429
4.049999999999997,-2.270130090087986,0.0996744944196537,-0.0854772603588562
4.060000000000002,-2.20758265353149,0.1055088910181228,-0.1220281185647098
4.070000000000007,-2.1173394146077387,0.111762825025469,-0.1440320187278382
4.079999999999998,-2.017069908312542,0.116741357171855,-0.1445132851843006
4.090000000000003,-1.9197144126196617,0.1276198717481361,-0.1176776363789434
4.099999999999994,-1.8084812813761495,0.1257577362178196,-0.0953733222180963
4.109999999999999,-1.709243798507686,0.1228626563488478,-0.0840663735584376
4.1200000000000045,-1.6149596957246162,0.0915512405668669,-0.0938154529485317
4.129999999999996,-1.4967891839905236,0.0631943370887197,-0.1158836859962036
4.140000000000001,-1.3688709074753145,0.0473245766087872,-0.1242470895566613
4.150000000000006,-1.226567730242306,0.0378712622967533,-0.1173970006541228
4.159999999999997,-1.0659511628791427,0.0446350024355671,-0.1026982831612401
4.170000000000002,-0.8877852334157521,0.0534247678211344,-0.085851999343435
4.180000000000007,-0.6881868676548227,0.0658230725364369,-0.0718663501708746
4.189999999999998,-0.4683145211321386,0.0580552964821274,-0.0571699751630977
4.200000000000003,-0.2532014309955746,0.0620862057288766,-0.0667875537409961
4.209999999999994,-0.0397912810983106,0.0683908973857443,-0.0850828591735024
4.219999999999999,0.1735360856448956,0.0664696543444251,-0.0943704954803564
4.230000000000004,0.3737104891904876,0.0696799089613241,-0.1009207782357099
4.239999999999995,0.5727381887152753,0.0673179383188133,-0.0871846218589792
4.25,0.7575846112758517,0.0705643659880378,-0.0666482512330308
4.260000000000005,0.9044507474608032,0.0758358653404712,-0.0497566447286601
4.269999999999996,1.0330838003571263,0.0768063430460925,-0.0367056119699502
4.280000000000001,1.1259905976431268,0.071665384916447,-0.0234373508503036
4.290000000000006,1.2145828656213749,0.063707377045812,-0.005499144747965
4.299999999999997,1.27985584917712,0.0525246469226514,-0.0013679172577061
4.310000000000002,1.341322108721111,0.0511838099508501,0.0040398819755348
4.320000000000007,1.409479066277157,0.048011073725375,0.0121986670580108
4.329999999999998,1.4677542613896666,0.0511726182374297,0.013783970307231
4.340000000000003,1.5236078988089763,0.0579643029717504,0.0281345765023297
4.349999999999994,1.5623602253970816,0.0514454992274974,0.0379412923220165
4.359999999999999,1.6113653739121123,0.0441942887869427,0.0613403703834961
4.3700000000000045,1.6353548002514895,0.033331698947969,0.075474944098361
4.379999999999996,1.6693734952640833,0.0218437323077911,0.081506762309976
4.390000000000001,1.7171821130225648,0.0151224252997887,0.0866300291394316
4.400000000000006,1.7461585441095926,0.0094210929397539,0.077018876644205
4.409999999999997,1.7666666568512408,-0.0042476664584765,0.079665172327441
4.420000000000002,1.7930156987476151,-0.0227965961560689,0.0798845828098431
4.430000000000007,1.828609597318596,-0.0302329717206251,0.0989666680132137
4.439999999999998,1.858903953288171,-0.0335763801287114,0.1087156644639208
4.450000000000003,1.880767629154072,-0.0329651518449596,0.1086785517685347
4.459999999999994,1.9042761034136704,-0.0327050170338985,0.1107225394038503
4.469999999999999,1.9165447510461529,-0.0358005684012916,0.1047771008943478
4.480000000000004,1.931252484014522,-0.0384155748999053,0.0875565527350748
4.489999999999995,1.945740730426741,-0.042016946394304,0.0797237506062868
4.5,1.9650640232418988,-0.0368720879452551,0.0723501126141647
4.510000000000005,1.9969517211316672,-0.0267729603570734,0.0698052218784833
4.519999999999996,2.023082827582088,-0.0174836934238368,0.0789513097083032
4.530000000000001,2.054693343197367,-0.012479843905279,0.0816424438202271
4.540000000000006,2.0649287054696623,-0.019335767042389,0.0820900046526717
4.549999999999997,2.0636825958714544,-0.0248307708566066,0.0898833180179247
4.560000000000002,2.0635408847447057,-0.0241082004747812,0.0874205511449505
4.570000000000007,2.068346994496525,-0.0268502416037068,0.0831947142245712
4.579999999999998,2.052710290144117,-0.024406426689923,0.0863050967781609
4.590000000000003,2.041986752204676,-0.0056820806983883,0.0878713802347442
4.599999999999994,2.033963248481844,-0.0071882414675823,0.0855971526355346
4.609999999999999,2.016703940486146,-0.0050890405943498,0.1058706571131
4.6200000000000045,1.99939244902784,-0.0036816273398432,0.1089118208924641
4.629999999999996,1.9681045760155895,-0.0109045696088777,0.1188740968265858
4.640000000000001,1.9338459155205792,-0.014170488611076,0.1136859197581832
4.650000000000006,1.8990094299628533,-0.0100632021021089,0.1229381562156999
4.659999999999997,1.8691894217211908,-0.0085549164206726,0.1311529132813266
4.670000000000002,1.83854025566036,-0.0158076152597517,0.1283261671564769
4.680000000000007,1.8303498663278184,-0.009121749097506,0.1186370264174457
4.689999999999998,1.813109512623638,-0.0107476087828553,0.1124376648173754
4.700000000000003,1.8070820038590765,-0.0101721820474934,0.1021635909350932
4.709999999999994,1.8121043451536727,-0.0110599308927597,0.0866288646880026
4.719999999999999,1.8301891790401483,-0.0153034191219626,0.0771351149601097
4.730000000000004,1.8526575770214768,-0.0179816226545754,0.0721779735313772
4.739999999999995,1.8644121526974644,-0.0254731871223754,0.0561797830360075
4.75,1.8847089888606692,-0.0312954225322531,0.0479610083295488
4.760000000000005,1.9054436163917228,-0.033192765768957,0.0360714979239853
4.769999999999996,1.9189785908017256,-0.0388930164121407,0.024352323569697
4.780000000000001,1.940777789846821,-0.0390058495842692,0.0104796133305444
4.790000000000006,1.961315392006232,-0.037771900884913,-0.0060287642561387
4.799999999999997,1.993025019489679,-0.0359864923543904,-0.0169268924403456
4.810000000000002,2.0122893409526905,-0.0378046000673027,-0.0278782405235307
4.820000000000007,2.029680158290136,-0.0358110454119929,-0.0388922935513646
4.829999999999998,2.067461215438578,-0.0191889001494132,-0.0550756217804464
4.840000000000003,2.0929172333717565,-0.0076643461131509,-0.0577397279346932
4.849999999999994,2.124396219116382,-0.0024285502355438,-0.0543797078559842
4.859999999999999,2.149633381817482,-0.0137558309519703,-0.0588799524350836
4.8700000000000045,2.1633374611559617,-0.024195243299045,-0.06859543659844
4.879999999999996,2.1877720352714047,-0.0180646094439729,-0.0610092899980296
4.890000000000001,2.1858036015666302,-0.0193489181881712,-0.0482085191203136
4.900000000000006,2.187816127319473,-0.0115940473228021,-0.0439048288007787
4.909999999999997,2.176232294507105,0.0044680527066769,-0.0238329705459984
4.920000000000002,2.1680402088983186,0.0118677671198079,-0.0213943445367666
4.930000000000007,2.1710599271522804,0.0110169536788355,-0.0147214677617102
4.939999999999998,2.150343600457883,0.0082724355428375,0.0031259775734172
4.950000000000003,2.144655383001596,0.0014327311446085,0.0045393870778802
4.959999999999994,2.1169797825449934,-0.0046673444985027,0.0117466676170135
4.969999999999999,2.083344858544626,0.0055069286613629,0.0206460800707965
4.980000000000004,2.039898716054799,0.0179603067933489,0.0270275555931136
4.989999999999995,1.9891891324529365,0.0322873906309594,0.0312766221574745
5.0,1.940617611225252,0.0470471838796816,0.0297289534785379
5.010000000000005,1.885710528814294,0.0487228388827073,0.044937742158135
5.019999999999996,1.843640945407622,0.0376055158048087,0.0513655524854476
5.030000000000001,1.8026960436624195,0.0475679807354467,0.054375573357595
5.040000000000006,1.7479317424473109,0.0488819369147078,0.05547537920422
5.049999999999997,1.6872664282780645,0.0460839185839017,0.050601363090115
5.060000000000002,1.6282938805062146,0.0348535543620284,0.0525244921383316
5.070000000000007,1.5542675503627288,0.0387559201416837,0.0596502979856173
5.079999999999998,1.4905123660055075,0.0356056563179207,0.064162372100137
5.090000000000003,1.4290925985440914,0.0198137951141945,0.0743998144148492
5.099999999999994,1.3663742049366512,-0.0008986401687732,0.0733183080780556
5.109999999999999,1.3113285096815517,-0.0195918471020495,0.0781849533412191
5.1200000000000045,1.2496124175082814,-0.0306491630281864,0.0773637055692146
5.129999999999996,1.1975791139848102,-0.042480667735918,0.0852565638830911
5.140000000000001,1.150080024337474,-0.0392658386508029,0.0880157690064688
5.150000000000006,1.080261886151376,-0.0405864865935013,0.0875098497707099
5.159999999999997,1.0199052870618288,-0.0408352746346286,0.0882734937900307
5.170000000000002,0.96514067251635,-0.0472025329874592,0.1003619849938291
5.180000000000007,0.914973591337349,-0.0609890931576976,0.1015461424648872
5.189999999999998,0.8888160474392078,-0.0593164559631386,0.1032269361373922
5.200000000000003,0.8702788950957427,-0.0583447306796944,0.097263961207879
5.209999999999994,0.877128854878423,-0.0589271504594108,0.0962295852019253
5.219999999999999,0.8853513346156712,-0.054125714506352,0.0875310513978608
5.230000000000004,0.90944730078357,-0.0592246167931521,0.0849994133305311
5.239999999999995,0.9324464144580564,-0.0666798825123585,0.0850271876001148
5.25,0.9562797687324702,-0.0596708477538013,0.0883907602842227
5.260000000000005,1.0027569831051224,-0.0620483346077843,0.0962476547023554
5.269999999999996,1.0286006670474273,-0.0664747784926178,0.0897068261780409
5.280000000000001,1.083165377885772,-0.0701834574725945,0.0940998708862022
5.290000000000006,1.1417938514633588,-0.0734503086833311,0.0862797281979157
5.299999999999997,1.1942488121518178,-0.0745196900339221,0.0778584458575851
5.310000000000002,1.2561469049500176,-0.0981930019409748,0.0639207898465626
5.320000000000007,1.31564504368477,-0.1050314115771203,0.0502300506221095
5.329999999999998,1.3782503452845407,-0.116161804781386,0.0329424365443939
5.340000000000003,1.4337712755918464,-0.1192354882283512,0.0262297177680012
5.349999999999994,1.496774858648266,-0.1294228426072144,0.0237812349700505
5.359999999999999,1.5570504373277791,-0.1408463855472097,0.0255587963608084
5.3700000000000045,1.6157435877020545,-0.1341866105143719,0.050863033834827
5.379999999999996,1.665861547046216,-0.1526463009079665,0.0674162044105644
5.390000000000001,1.7104029631130055,-0.1643111881078858,0.0793831630962687
5.400000000000006,1.7338748118833087,-0.1660064153832218,0.0756473854724888
5.409999999999997,1.7362876348711418,-0.1772665433527408,0.0747593521388387
5.420000000000002,1.7248910139522846,-0.1912408585242202,0.0780414206853839
5.430000000000007,1.6927779523019533,-0.188422060466936,0.0787181365595306
5.439999999999998,1.6597153380597514,-0.1952101342131434,0.0840666271066518
5.450000000000003,1.6205939126193043,-0.2101995585004721,0.0925600928209399
5.459999999999994,1.5809790377364414,-0.211762816575283,0.0854298608776334
5.469999999999999,1.5229302610348898,-0.2165760100914486,0.0744206673086968
5.480000000000004,1.4691393972058928,-0.2104438668136327,0.0577411366779291
5.489999999999995,1.412779046612216,-0.2048991959415579,0.0504633825107643
5.5,1.3369059624772306,-0.2002612727301017,0.0475325884175608
5.510000000000005,1.2562585558382742,-0.1951026182878869,0.0451973909611756
5.519999999999996,1.1820939851443149,-0.1903268451962945,0.0302063771785619
5.530000000000001,1.1063156164034162,-0.1905834951916898,0.0244582479737461
5.540000000000006,1.0492140531929788,-0.2029411868291757,0.0160255889555758
5.549999999999997,0.988362795749439,-0.1983167319033847,0.0032335682678707
5.560000000000002,0.9519758971876204,-0.1925938679646373,-0.0077657054717698
5.570000000000007,0.9218895722312936,-0.1796407468333928,-0.0163434821116169
5.579999999999998,0.90959612599347,-0.1600827413850737,-0.011492253825286
5.590000000000003,0.9087928819582838,-0.1392032638050237,-0.0082588255964288
5.599999999999994,0.8970676242320001,-0.1281470873556645,-0.0132551600865543
5.609999999999999,0.8875439372052926,-0.1247099034685601,-0.0270506310686194
5.6200000000000045,0.8833131539737852,-0.1117387282618623,-0.0322630460015795
5.629999999999996,0.8805075439426804,-0.1051207962266929,-0.0252696061928048
5.640000000000001,0.8711900553018906,-0.0956873482213269,-0.0233474488899459
5.650000000000006,0.8694896939981765,-0.0844832538032149,-0.0136478820626157
5.659999999999997,0.8568112754914776,-0.0665460366499195,-0.0060461137422961
5.670000000000002,0.8273549130545756,-0.0474249613615986,0.0004189762562561
5.680000000000007,0.786765688172098,-0.0406164008244904,0.0066633218659405
5.689999999999998,0.7296851702308988,-0.0417790156656703,0.0029167471824699
5.700000000000003,0.6620062487080162,-0.0407387496041699,-0.0033664217630491
5.709999999999994,0.5868242498282554,-0.0426451343482457,-0.0116096487205802
5.719999999999999,0.5074985771247349,-0.0483395320800265,-0.0138671709401603
5.730000000000004,0.4211439888819185,-0.0478477664204372,-0.0072548640638567
5.739999999999995,0.3322037991596461,-0.0470719186027811,0.0028396882999544
5.75,0.2245487772549954,-0.0364497253763368,0.0066665852435266
5.760000000000005,0.0983037652002081,-0.0299657587182945,0.0051747367899365
5.769999999999996,-0.0175751158004607,-0.0316288977146011,0.007811878543649
5.780000000000001,-0.1277748178789087,-0.0233515607171763,0.0015299380299987
5.790000000000006,-0.2315973052857381,-0.0192176779935665,-0.0038279655455706
5.799999999999997,-0.3297598178600787,-0.0168809817401448,-0.0108544876037587
5.810000000000002,-0.4225865673351885,-0.0065466986702195,-0.0241669068897599
5.820000000000007,-0.513394487413818,-0.0111676867583584,-0.0144778474209498
5.829999999999998,-0.6026255109552601,0.0007434319864123,-0.0182635153434541
5.840000000000003,-0.6951269102769552,-0.0007889658661293,-0.0253119267923003
5.849999999999994,-0.7747779119958751,0.0033124730871225,-0.0388732100679778
5.859999999999999,-0.8583717416568235,0.0028521304947648,-0.0578109000238906
5.8700000000000045,-0.9441492148058118,0.008976338312006,-0.0610358204055449
5.879999999999996,-1.0220531615806725,0.0148088015426849,-0.0762438006402096
5.890000000000001,-1.1107539297135998,0.0186721994180656,-0.0727425116785
5.900000000000006,-1.1840489180031248,0.0230350159993016,-0.0623286284712925
5.909999999999997,-1.2664843346930963,0.0268616727716534,-0.0572676666284074
5.920000000000002,-1.3523367295242816,0.0377267288817381,-0.0532991197561591
5.930000000000007,-1.428981087579861,0.0414659846223336,-0.0429429631036551
5.939999999999998,-1.515376656889544,0.0484395300569142,-0.0401110812701349
5.950000000000003,-1.5947485206553358,0.0416203533332077,-0.0551974108679417
5.959999999999994,-1.6813375716293348,0.0479749805923087,-0.0598384376603478
5.969999999999999,-1.7624535878605991,0.0415696308568666,-0.0676158162585295
5.980000000000004,-1.8447961584097143,0.0300676154212529,-0.0584300384844089
5.989999999999995,-1.923007256207923,0.0243403977458346,-0.0388976634101958
6.0,-1.980173923852715,0.0162214804541872,-0.0205925433891972
6.010000000000005,-2.0347217973367027,0.0132041957892194,-0.0113553988233692
6.019999999999996,-2.061504917462762,0.0127469745167579,0.0001508531174738
6.030000000000001,-2.0862360543694938,0.0139052404036482,-0.0033488431815427
6.040000000000006,-2.090116810976902,0.0146284401667404,-0.0112566177717214
6.049999999999997,-2.0904955625710797,0.020357270824789,-0.0142161844988999
6.060000000000002,-2.075172314917869,0.0176699529226233,-0.0229156932119565
6.070000000000007,-2.0688615805593744,0.0196379307663451,-0.0350853976329277
6.079999999999998,-2.0554820567338723,0.0190565470329875,-0.0474904020240588
6.090000000000003,-2.0286463553702543,0.009873544870199,-0.0557144228207386
6.099999999999994,-1.9940971122004223,0.0116287923881156,-0.0549827869944667
6.109999999999999,-1.9480751046593507,0.0091253971416923,-0.034606519686045
6.1200000000000045,-1.9064598215927555,0.0080510749039999,-0.0182804963433878
6.129999999999996,-1.853762331967008,0.0146216762463803,-0.0081883655155023
6.140000000000001,-1.8115290111681677,0.0265938320182598,-0.0189925633305118
6.150000000000006,-1.768344688916753,0.0232003593528162,-0.0355529952355303
6.159999999999997,-1.722070083934529,0.0180256159976016,-0.0423445894238013
6.170000000000002,-1.683991056760527,0.0175612274736502,-0.0535766214561893
6.180000000000007,-1.6458210885268223,0.012765956695434,-0.0583694965482029
6.189999999999998,-1.6270799012724548,0.0090489985562043,-0.0531084115115206
6.200000000000003,-1.6143980449805166,0.0095474410593024,-0.0381333586421977
6.209999999999994,-1.627309540944032,0.0035437413733082,-0.027817104233618
6.219999999999999,-1.6497588928037938,-0.0008330127720001,-0.0119503366569484
6.230000000000004,-1.6532278666547373,-0.0157887042552481,-0.0091381225670246
6.239999999999995,-1.652466641769197,-0.0118232578046577,-0.0117777535781023
6.25,-1.645911331533067,-0.0187253614689519,-0.0193761728468494
6.260000000000005,-1.637663548660497,-0.0219245471311463,-0.0300991662866406
6.269999999999996,-1.6493208961440875,-0.0251775118853515,-0.0320667887934239
6.280000000000001,-1.6649237404572637,-0.0293955887352701,-0.0317566561058464
6.290000000000006,-1.701247979482062,-0.0268741582034208,-0.0185461492066869
6.299999999999997,-1.7595366130736625,-0.0332152421032238,-0.0132586241079004
6.310000000000002,-1.8090685224304237,-0.0448902179252273,-0.0169360782357015
6.320000000000007,-1.8547109648178877,-0.0496872458512931,-0.014954943046432
6.329999999999998,-1.9032453547804025,-0.0605639192099797,-0.0275935557170402
6.340000000000003,-1.9656234458167812,-0.0604526085132941,-0.0421715189033786
6.349999999999994,-2.02124874821832,-0.0649732673044904,-0.0466205017296922
6.359999999999999,-2.091973532359169,-0.0646003098486412,-0.0432663689582406
6.3700000000000045,-2.161538908132292,-0.0553308541171117,-0.0392602703263497
6.379999999999996,-2.2185642145026403,-0.0543060494921343,-0.0293742504143666
6.390000000000001,-2.2643989299183787,-0.0600219411007085,-0.0172588964394796
6.400000000000006,-2.292649622761736,-0.0625277688687382,-0.0216210732999485
6.409999999999997,-2.32517896575929,-0.048161437494511,-0.0290091883146912
6.420000000000002,-2.352681975354636,-0.040794281827109,-0.0297618811640921
6.430000000000007,-2.374466071664299,-0.0347591025625896,-0.0329838604793207
6.439999999999998,-2.40594033908123,-0.0236678071877649,-0.0326111292395428
6.450000000000003,-2.418321412255587,-0.0227862501233856,-0.020128325770402
6.459999999999994,-2.3938675443948534,-0.0107168424568255,-0.0020955525878801
6.469999999999999,-2.343390738583608,-0.0009951617880453,0.0188407664601914
6.480000000000004,-2.275253368099837,0.0024826989909735,0.0314260933318436
6.489999999999995,-2.198926606764341,0.00380104715077,0.0357074420278884
6.5,-2.123882873169017,0.0203150424654224,0.0347861350615767
6.510000000000005,-2.046808658228157,0.0269018701975812,0.0257292869437638
6.519999999999996,-1.9868304614831105,0.0296241590197403,0.0115940907516333
6.530000000000001,-1.9058894379133755,0.032060100738587,0.0112418381786638
6.540000000000006,-1.825110009334288,0.0411661083244546,0.0291711170144313
6.549999999999997,-1.740090341049192,0.0529292779723799,0.0373968933946101
6.560000000000002,-1.6700596929411768,0.0606134348765554,0.0408643544589614
6.570000000000007,-1.5894218962429385,0.0581731853699178,0.0454209004502907
6.579999999999998,-1.521566713072681,0.0513384771178129,0.0446848935161592
6.590000000000003,-1.4762457509501568,0.0491356440806959,0.0396387740994986
6.599999999999994,-1.4440509221808169,0.0518727832936579,0.0319093510085299
6.609999999999999,-1.445303048118204,0.050695417949596,0.0215669953390866
6.6200000000000045,-1.437346907385696,0.0552918381318615,0.0305457403363997
6.629999999999996,-1.4434736021672898,0.0635800171738659,0.044035352793041
6.640000000000001,-1.4569870283619502,0.0524242179785618,0.0403484752873705
6.650000000000006,-1.4724642745282073,0.0578378378923691,0.037890664040234
6.659999999999997,-1.4934358017700446,0.0588033977445114,0.0304168108055861
6.670000000000002,-1.5135957100697162,0.0513588236353973,0.0339583227997036
6.680000000000007,-1.5328500727000227,0.0515588150909861,0.0309703772329244
6.689999999999998,-1.560770657561919,0.0427627995657912,0.0225014396427427
6.700000000000003,-1.5970028228819368,0.0377289663984397,0.0299266509400161
6.709999999999994,-1.639853625677146,0.0365845241146183,0.0356131764181351
6.719999999999999,-1.6824924959770906,0.0408758937617165,0.0539596609943258
6.730000000000004,-1.7364998211175575,0.0392513495368331,0.0676390079516548
6.739999999999995,-1.784944297888855,0.030510704575541,0.0653586037386319
6.75,-1.8338002048272823,0.0219807556768617,0.0558315635399662
6.760000000000005,-1.868543695533064,0.0268936692329755,0.0452853679291697
6.769999999999996,-1.9042649457182323,0.0332306530820479,0.0371484207252195
6.780000000000001,-1.9371667983126557,0.0366201204768346,0.0374934505607523
6.790000000000006,-1.966260855384384,0.0309816279417254,0.0362883416984238
6.799999999999997,-1.9806784947635276,0.0314451600787134,0.0450479136566305
6.810000000000002,-1.985992223674328,0.0266168220261571,0.0487352647194507
6.820000000000007,-1.9692840247122565,0.0059865142708714,0.0387611834679363
6.829999999999998,-1.9317505786593423,-0.0110044750802814,0.0193603942660683
6.840000000000003,-1.8934409821760343,-0.0182133777876493,0.009004186450976
6.849999999999994,-1.8529408104032064,-0.0243622679736096,-0.0032850432370076
6.859999999999999,-1.8230894701803684,-0.013102176826921,0.003625560713296
6.8700000000000045,-1.7931602041239991,0.0055175663405494,0.0187506100566717
6.879999999999996,-1.7480513262955344,0.0100608982482707,0.0304493519129357
6.890000000000001,-1.680419876146731,0.0044783651140364,0.0358086850054922
6.900000000000006,-1.5828319712353425,-0.0086687643395488,0.0147680463195193
6.909999999999997,-1.4688088766960898,-0.0144716425290749,-0.0019436082607811
6.920000000000002,-1.350584386800933,-0.0131192505866887,-0.0130995506443935
6.930000000000007,-1.239977893355384,-0.0065863010028814,-0.0133198856023155
6.939999999999998,-1.1182458070154777,0.0004065731349427,-0.0041568728534249
6.950000000000003,-0.9976131078759912,-0.0094267297641223,-0.0017042696130025
6.959999999999994,-0.866569458750009,-0.0142624718254264,0.006050549512031
6.969999999999999,-0.7324141178263973,-0.0230610282291206,0.0081330563252644
6.980000000000004,-0.5911207848185608,-0.0385403245686516,0.0022663395433134
6.989999999999995,-0.4408470950309092,-0.049181381357262,0.0150550911958572
7.0,-0.307798417156974,-0.0486135203593587,0.0156510565050476
7.010000000000005,-0.1829089031353341,-0.0437488690955737,0.025456292652487
7.019999999999996,-0.0547876140529194,-0.0324946406716497,0.0333673495715177
7.030000000000001,0.0810500617763031,-0.0174593981686097,0.0319541474569905
7.040000000000006,0.1979735192210319,-0.0123170155284451,0.0358506637776323
7.049999999999997,0.3253198467358451,-0.0093407403901437,0.0339549587049207
7.060000000000002,0.4312723103572594,-0.0052592456780289,0.0374169450019793
7.070000000000007,0.5293127891123148,0.0048240924019324,0.0380302906593839
7.079999999999998,0.6019541462690041,0.0122189597786199,0.0356569141801789
7.090000000000003,0.6594261945683225,0.0121913639673118,0.0438214254426015
7.099999999999994,0.7123529482650957,0.0079479415601165,0.0455414039099473
7.109999999999999,0.744826909439885,0.0042110684336159,0.060109237705351
7.1200000000000045,0.8030409762784791,0.0013183399612954,0.0541806193635393
7.129999999999996,0.8702898694398294,-0.0075974794672833,0.0437581305337088
7.140000000000001,0.9473852047120246,-0.0060351237266049,0.0403264202311397
7.150000000000006,1.0305283732402872,-0.0030887978796205,0.0265182287931626
7.159999999999997,1.1333052068273115,-0.0011639746700543,0.0097010930745116
7.170000000000002,1.2346508381272774,0.0075978768428403,-0.0053240837653285
7.180000000000007,1.350168988604873,0.0083695604423771,-0.0054057743328222
7.189999999999998,1.4722887729024623,0.0172170406840981,-0.0087406964105449
7.200000000000003,1.5914689516822604,0.0346722627959033,-0.0086027459473294
7.209999999999994,1.7085796653476488,0.0415673334310245,-0.0114889934433778
7.219999999999999,1.8248175709284815,0.0477505705546645,-0.0128937261003199
7.230000000000004,1.9369909121883089,0.0533729190216503,-0.0165201630672255
7.239999999999995,2.055151132785616,0.0641560901043257,-0.0202105236774141
7.25,2.1594365202216164,0.0700301954759913,-0.0217870163035427
7.260000000000005,2.266530971034677,0.0705753237497722,-0.0201266288427578
7.269999999999996,2.3688579593802706,0.069634785154188,-0.0104374294526871
7.280000000000001,2.4531629121842378,0.0729518957892908,-0.008012756148834
7.290000000000006,2.5266157717450306,0.0836348984982445,-0.0044142125659996
7.299999999999997,2.5749183125044226,0.0858683924497775,0.0053936892197604
7.310000000000002,2.601149266355904,0.0834899383814364,0.007644275225735
7.320000000000007,2.6068033852748838,0.071503339029457,0.0153043347838155
7.329999999999998,2.6077407211476014,0.0663353073631507,0.0202082430514992
7.340000000000003,2.5977057192262563,0.0692317068440713,0.0204753646329364
7.349999999999994,2.557185330658651,0.0689829616021877,0.0274698708847708
7.359999999999999,2.5313218072100567,0.0761579602992475,0.0429644888048471
7.370000000000003,2.4871996409437203,0.0766501374223464,0.0544767834838354
7.3799999999999955,2.4334870391063044,0.0771074044155682,0.0666881366005287
7.390000000000001,2.385382239529319,0.0869588434175087,0.0714075451779397
7.400000000000006,2.330938305101681,0.0761832350700038,0.0785132292978053
7.409999999999997,2.2714867631792117,0.0693983545124202,0.0760042531778798
7.420000000000002,2.2042882769833705,0.0650502942000044,0.0738787137454997
7.430000000000007,2.1436583747764764,0.0576849583829525,0.0709273716383545
7.439999999999998,2.073641516469246,0.0520638315263983,0.0540382884635348
7.450000000000003,2.008402584785251,0.0423841957214313,0.047458735285705
7.459999999999994,1.940122470152824,0.0329792021126581,0.031929228064477
7.469999999999999,1.877536360928748,0.0236489356768431,0.0270094652893978
7.480000000000004,1.8221237551291745,0.0251299837715535,0.0187811341846271
7.489999999999995,1.776363496095416,0.037734599851936,0.005827975586691
7.5,1.7198660351357284,0.0314748765944487,-0.0012319908981006
7.510000000000005,1.6779918312705406,0.0279339909839763,-0.0025806369314893
7.519999999999996,1.6417785402777645,0.0364234185339926,-0.0137918454742428
7.530000000000001,1.591399301112528,0.0366350322191134,-0.0327050520727024
7.540000000000006,1.5540688090118002,0.034106666219115,-0.0343004951286549
7.549999999999997,1.5146380830394928,0.0277929772833094,-0.0444144961506131
7.560000000000002,1.4888104164283005,0.0229821479931221,-0.0527059272673365
7.570000000000007,1.4717972402559287,0.0161825654341101,-0.0560546104918251
7.579999999999998,1.4489815107203934,-0.0040731998879694,-0.0464333960781904
7.590000000000003,1.4403828581654248,-0.0115744469326906,-0.0498903076666126
7.599999999999994,1.4297206098850368,-0.0157944977485695,-0.0451508807511964
7.609999999999999,1.4242365551906258,-0.0205118774284636,-0.0369663306797764
7.620000000000003,1.4205289942835488,-0.0165654170715485,-0.0317648275186085
7.6299999999999955,1.4394987231335414,-0.0187435428699661,-0.0142635745207585
7.640000000000001,1.445669521519964,-0.0176658704410571,-0.0047579006945808
7.650000000000006,1.4653198204152789,-0.0152600101614115,0.0120376159889058
7.659999999999997,1.4969298543670704,-0.0275340652747676,0.0132490164620038
7.670000000000002,1.5177005109257482,-0.0306434975714664,0.02101742430569
7.680000000000007,1.545084493087063,-0.0194111860809361,0.015438881326438
7.689999999999998,1.5647968598494022,-0.0079020605488763,0.0134197652193072
7.700000000000003,1.5953029691601406,0.00398057424274,0.0201513206003633
7.709999999999994,1.612436731649039,0.0213889968707618,0.0238919578678912
7.719999999999999,1.6373239357832508,0.0329836031304254,0.0316523362785132
7.730000000000004,1.6615658788371788,0.0321202970704267,0.0360124330341035
7.739999999999995,1.69025897561589,0.0286618083574227,0.0441868375837565
7.75,1.7098060109422637,0.037311107706769,0.0485531372908641
7.760000000000005,1.729331956284905,0.0524790647878695,0.0502152767153803
7.769999999999996,1.7359589322840725,0.0610777003632228,0.0569068490179942
7.780000000000001,1.7435494962971176,0.0605749992681947,0.0595622695632508
7.790000000000006,1.7581677948665029,0.0699377818414701,0.0604324545989345
7.799999999999997,1.7658835022192867,0.06703633905342,0.072037439354965
7.810000000000002,1.7797920945627694,0.060809146583996,0.0754430473807759
7.820000000000007,1.785595273978919,0.0538752915033633,0.0855550105895724
7.829999999999998,1.798553027265156,0.0372919194601856,0.1014209128317747
7.840000000000003,1.805586018135226,0.033341413079591,0.1100973154946883
7.849999999999994,1.810210308395518,0.0375984666721625,0.1223983676431991
7.859999999999999,1.8181342515299628,0.0324974552510757,0.1350893441070263
7.870000000000003,1.828353363747899,0.0331345148905361,0.1374952475285461
7.8799999999999955,1.834478557368922,0.0233105295691052,0.1456629160114322
7.890000000000001,1.832788283997628,0.0086616409011067,0.1424103362170182
7.900000000000006,1.854512771020091,0.0017121725614287,0.1372420575280553
7.909999999999997,1.8592537864401544,-0.0023853324279075,0.1324005469245041
7.920000000000002,1.851313978630984,-0.0064191970391134,0.1340050299514105
7.930000000000007,1.8470966652682637,-0.0038895512234891,0.1380366440474232
7.939999999999998,1.841095269319244,-0.0019465710902542,0.1344485659331145
7.950000000000003,1.8421222109603856,-0.0056652053102966,0.1365542665733303
7.959999999999994,1.836977713865684,-0.0005288967315054,0.1331235305777467
7.969999999999999,1.8318705836484532,0.009696641967271,0.1307632210710092
7.980000000000004,1.81998987204314,0.0092218670586257,0.1331207249913161
7.989999999999995,1.810965085975375,0.0013212049919317,0.1320522358026055
8.0,1.807668562014343,-0.0026360327781248,0.1295095727740234
8.010000000000005,1.801771738175404,-0.0015000938313535,0.1278335838792516
8.019999999999996,1.8039773570368067,-0.0092580265525707,0.1280663213175428
8.030000000000001,1.7898169271184412,-0.0117970298173402,0.1216786729520037
8.040000000000006,1.7827211842223811,-0.0153830594469966,0.1188258796330627
8.049999999999997,1.7711044680046664,-0.0216741797774313,0.1103565537517912
8.060000000000002,1.74549311562417,-0.0245166486385828,0.1053593529326517
8.070000000000007,1.7221629099612978,-0.0339356446907695,0.0994544417664592
8.079999999999998,1.699140195292442,-0.0288911373750755,0.0789347681264113
8.090000000000003,1.665442360425457,-0.0232936416390839,0.0800259412070347
8.099999999999994,1.6063763459716995,-0.0230176674550035,0.0682928645621766
8.11,1.5535074029050833,-0.0271421117893821,0.0642899565442283
8.120000000000005,1.4939119722640004,-0.0242533056992265,0.0694146943434145
8.129999999999995,1.427036517945889,-0.0310298718154088,0.0740615748102137
8.14,1.35561190823938,-0.0468088257632865,0.0762192858283152
8.150000000000006,1.291573570414995,-0.0547730777994367,0.0753664675832779
8.159999999999997,1.2195304279061925,-0.0606558347961317,0.0650749676553871
8.170000000000002,1.1608615379320637,-0.0613898304433847,0.0506293043811326
8.180000000000007,1.104006943931085,-0.0618379373796727,0.0431509083923214
8.189999999999998,1.041656401809235,-0.0595890048169902,0.0368224043535781
8.200000000000003,0.960096917113861,-0.0563163172405002,0.0330717319272299
8.209999999999994,0.8632069535540786,-0.0565572331679856,0.0236132553512348
8.219999999999999,0.7661720824280582,-0.0538664887694803,0.0326189739429585
8.230000000000004,0.662157697648341,-0.0408616817169881,0.0306528594230484
8.239999999999995,0.5738436616685503,-0.0450696169784014,0.0162224690332788
8.25,0.4771429876982384,-0.0399113077355097,0.0048671700982374
8.260000000000005,0.3913247361224198,-0.0371696802440481,-0.0050487118483498
8.269999999999996,0.31216279609465,-0.037935325926843,-0.0125894082155772
8.280000000000001,0.2367336208290442,-0.0380128072324735,-0.0102694762229799
8.290000000000006,0.1661850367065331,-0.0385483266153076,-0.0114712107518462
8.299999999999997,0.1097344300380958,-0.0283771379229899,-0.0101074778278984
8.310000000000002,0.0486529867723372,-0.0238838887435035,-0.017244347066468
8.320000000000007,-0.0018663532721302,-0.0305591694270528,-0.0240383374469166
8.329999999999998,-0.0374931801137237,-0.032722871363889,-0.0304047552601473
8.340000000000003,-0.0828857851062711,-0.0369541407491048,-0.0446113605974639
8.349999999999994,-0.1126019080305852,-0.0263397692641427,-0.0476512201582997
8.36,-0.1566785665576815,-0.029412127128009,-0.0430910737713614
8.370000000000005,-0.1979255053945279,-0.035469030999558,-0.0381769036293891
8.379999999999995,-0.2356740003206849,-0.033876100346789,-0.0335526569681754
8.39,-0.2792843573558838,-0.0420112468450922,-0.0292308514908997
8.400000000000006,-0.334416830845801,-0.0455668445195507,-0.0462969090455883
8.409999999999997,-0.3918194773478235,-0.0438301967204738,-0.0515008374877695
8.420000000000002,-0.4635546189760253,-0.0472263374181607,-0.0505391009954459
8.430000000000007,-0.5557580801995183,-0.0469612086188245,-0.0511827101079757
8.439999999999998,-0.6283994613522338,-0.0555078688451273,-0.0365070290673379
8.450000000000003,-0.7179485478653836,-0.0661578244989733,-0.0260157874756587
8.459999999999994,-0.8072979022655475,-0.0622080423414828,-0.0256575765868161
8.469999999999999,-0.9081567667414746,-0.0657060011458358,-0.0222074381446737
8.480000000000004,-1.0099670797954028,-0.0570191557765626,-0.0147503128761413
8.489999999999995,-1.118888331700669,-0.061179964722699,-0.0115467569129798
8.5,-1.2380536269932778,-0.0594297392454258,-0.0075134195225653
8.510000000000005,-1.333517932527753,-0.0529365378715021,-0.0047662231666294
8.519999999999996,-1.4265192107889242,-0.0549933560867268,-0.004943477983324
8.530000000000001,-1.5100338091397945,-0.0521675744454089,-0.0178825987276116
8.540000000000006,-1.5796390880918247,-0.0541471337147877,-0.0397467022856839
8.549999999999997,-1.6434940654669243,-0.0585018369908005,-0.0490833620107755
8.560000000000002,-1.7113889205870432,-0.0569992318142829,-0.0592943203362604
8.570000000000007,-1.7845215729686912,-0.0625826503449003,-0.0642614723458041
8.579999999999998,-1.8619157153351464,-0.0671307935327688,-0.0452780356530791
8.590000000000003,-1.94772758498042,-0.0753744888120059,-0.0367996129131947
8.599999999999994,-2.0333991658171757,-0.0790585302257387,-0.0388122937406023
8.61,-2.112090067570596,-0.0863419709817347,-0.0416402650637546
8.620000000000005,-2.1872501004007683,-0.087919612403888,-0.0442847137399231
8.629999999999995,-2.2565747170808232,-0.1029319719795704,-0.0538958381196952
8.64,-2.321564728738366,-0.1051997885789315,-0.0651060082787141
8.650000000000006,-2.380473303238715,-0.1082917032183912,-0.0693264846130718
8.659999999999997,-2.437459843841214,-0.1204081621040932,-0.0709655256428769
8.670000000000002,-2.478531865350865,-0.1221252263491516,-0.0679544985514745
8.680000000000007,-2.5191636604726395,-0.1294330874525199,-0.0542138393708618
8.689999999999998,-2.549146994640058,-0.1375216950374029,-0.0468528688861876
8.700000000000003,-2.5681652407688467,-0.1457652258260044,-0.0476145138848602
8.709999999999994,-2.5785582083114,-0.1443761220845298,-0.0554968258124341
8.719999999999999,-2.569522323329533,-0.1371994361838273,-0.064205924456485
8.730000000000004,-2.5489749555310643,-0.1270186634504108,-0.0618126302830119
8.739999999999995,-2.4985098394673013,-0.1150725915264769,-0.0502987455639883
8.75,-2.4434737389137693,-0.1105243074034462,-0.0406556837434063
8.760000000000005,-2.387591964608548,-0.0988171984640458,-0.0407563012740048
8.769999999999996,-2.332514796588708,-0.0904526704605331,-0.0431761727644212
8.780000000000001,-2.2921137582086724,-0.0772861720410092,-0.0418290571140466
8.790000000000006,-2.2637611841857197,-0.0698639116416244,-0.0394483462711475
8.799999999999997,-2.2278582001718985,-0.0709308177847615,-0.0415603265163289
8.810000000000002,-2.1910017002299678,-0.0668848253721579,-0.0367834708903921
8.820000000000007,-2.1599725582600704,-0.0714345334390524,-0.0198525297290536
8.829999999999998,-2.136189920631087,-0.0644614181820797,-0.0021293775866668
8.840000000000003,-2.1247608734102195,-0.0580592982719259,0.0089485930395097
8.849999999999994,-2.1074379917541326,-0.0522288352319409,0.0092987333460232
8.86,-2.085307134888543,-0.0508085155608027,0.0095728326249077
8.870000000000005,-2.064005979558916,-0.0541583703205188,0.0098923354388886
8.879999999999995,-2.05267984697487,-0.0622465383677576,0.001504054288702
8.89,-2.024028152108245,-0.0664411004960266,0.0092194310627475
8.900000000000006,-1.992938455309896,-0.0694208879837326,0.0174690782623291
8.909999999999997,-1.9795977420760864,-0.0567695419378812,0.0301279138322567
8.920000000000002,-1.9500709624603807,-0.0505212119368093,0.0374752089899803
8.930000000000007,-1.9156372544292275,-0.0393743249122196,0.037207120057881
8.939999999999998,-1.8828164416156452,-0.0393698588109288,0.0377303904132487
8.950000000000003,-1.853515840938424,-0.0455324412662704,0.0386788353190932
8.959999999999994,-1.8242149387671212,-0.0442070697580932,0.0311538360388443
8.969999999999999,-1.801995527770757,-0.0479889110515799,0.024533187099684
8.980000000000004,-1.804148803871652,-0.0475456387357097,0.0278053329089128
8.989999999999995,-1.7980242377224864,-0.0323961711022516,0.036921456190526
9.0,-1.7979235508707052,-0.0360351818057729,0.0364896922061165
9.010000000000003,-1.7731696249168207,-0.0388968754478944,0.0299584376283248
9.019999999999996,-1.7530049743687175,-0.0322123552537477,0.0222112450044871
9.03,-1.7364782673742098,-0.0357159909707789,0.0242107336330736
9.040000000000006,-1.710708832069171,-0.0377988371292895,0.0166060144394282
9.049999999999995,-1.702837588937761,-0.034149371685447,0.0141003850429688
9.060000000000002,-1.7087268195602363,-0.0251789119572131,0.0169376819001182
9.070000000000007,-1.7043642026239922,-0.0277988462632682,0.030647384826929
9.079999999999998,-1.716155569560367,-0.0256346687985619,0.0408216761827808
9.090000000000003,-1.7099110563726654,-0.0212519636674767,0.0393680326798352
9.099999999999994,-1.699901770399466,-0.0155809258749334,0.0341022611733277
9.11,-1.7027252884473565,-0.0077833597591725,0.014117849833294
9.120000000000005,-1.705680839850043,-0.0115702519960088,0.0121451862114114
9.129999999999995,-1.7254600225089405,-0.0152477614882049,0.0073995211819657
9.14,-1.7442309141457546,-0.0190864033364153,0.0157368090346491
9.150000000000006,-1.7721152524872168,-0.018324957302575,0.0363125545523864
9.159999999999997,-1.7799024629071851,-0.0188019062704069,0.0548186822104367
9.170000000000002,-1.782490994809867,-0.021093209965185,0.0597572610211712
9.180000000000009,-1.7797260214753885,-0.0128348251808702,0.0512460402711075
9.189999999999998,-1.7772948680253946,-0.004338300215932,0.0327086430710226
9.200000000000005,-1.7794324647814996,0.0060994571316252,0.0075716566519957
9.209999999999994,-1.7998685711300677,0.0200525932319855,-0.0107661764492166
9.22,-1.8062174898223613,0.0261248832315053,-0.0141406916210848
9.230000000000004,-1.8210515232811544,0.0255274263459976,0.0005409497977108
9.239999999999997,-1.821014410689453,0.0178982130038082,0.0141296563827606
9.25,-1.8089360309094664,0.0118276033582243,0.0073541900356976
9.260000000000003,-1.8041263497646085,0.0160032155748138,0.0018059530313094
9.269999999999996,-1.804085685522524,0.0139959900974748,-0.0112514001639742
9.28,-1.8019085457410955,0.0295124404589895,-0.0178967946826386
9.290000000000006,-1.8051482473364535,0.022545848208598,-0.0148900246482595
9.299999999999995,-1.8118754173780816,0.0189069019490866,-0.010530801092763
9.310000000000002,-1.826065373578287,0.0145407611762785,-0.0032577912229807
9.320000000000007,-1.8520294551415857,0.0042814778513385,-0.0106384196696045
9.329999999999998,-1.856144911418525,0.0072413555793504,-0.0183204165708095
9.340000000000003,-1.8715276585368383,0.0031176041528836,-0.0356952751478393
9.349999999999994,-1.887519787701329,-0.0006596140573803,-0.0407379500724767
9.36,-1.8989809354052325,0.0001398725523914,-0.0441496285687474
9.370000000000005,-1.918479211987872,0.0120057988394464,-0.0440747092832236
9.379999999999995,-1.949168938170912,0.0188864007036831,-0.0343919600930742
9.39,-1.9654981888323355,0.0303493761270398,-0.0240954673933521
9.400000000000006,-1.9917654703185963,0.0389221918289118,-0.0279799332635534
9.409999999999997,-2.027060550264509,0.0376477153671716,-0.0478125286063694
9.420000000000002,-2.041772083557581,0.0405979746696,-0.0654249569745906
9.430000000000009,-2.064874917134905,0.0350410641175179,-0.0695619257266311
9.439999999999998,-2.072006476680284,0.0191113895054187,-0.0600277924547247
9.450000000000005,-2.064857719045284,0.014907955469673,-0.0356469258257619
9.459999999999994,-2.050276635222144,0.0171324858968257,-0.0151577701260187
9.47,-2.023416890572192,0.0081679083686393,-0.0144086930921902
9.480000000000004,-1.983044893978623,-0.0002096696111513,-0.0282398631757602
9.489999999999997,-1.946067752030312,0.0001073985773397,-0.0554324183444755
9.5,-1.889360018513629,-0.0048344286761247,-0.0633889840777437
9.510000000000003,-1.8088688611957984,-0.0130520278020983,-0.0574157642316674
9.519999999999996,-1.7109024986047014,-0.0209586546592378,-0.0445750567328038
9.53,-1.58724210731373,-0.0227649476919438,-0.0480091279689945
9.540000000000006,-1.4582227588088152,-0.0239348444756793,-0.0641919623681294
9.549999999999995,-1.314429665017353,-0.0225934401374356,-0.0687851382198328
9.560000000000002,-1.1903336527539026,-0.0183309602053259,-0.0820710557056394
9.570000000000007,-1.057470572741228,-0.0204887125790185,-0.0773862273550463
9.579999999999998,-0.9220291379233077,-0.0244322041076961,-0.0605967426135483
9.590000000000003,-0.7960088973186086,-0.0263017430540071,-0.049859935962496
9.599999999999994,-0.6773070075593994,-0.0365531252382863,-0.0380708729579701
9.61,-0.5586043690214781,-0.0309509944147649,-0.0386035036780714
9.620000000000005,-0.4448718107100554,-0.0354522550350563,-0.0459448357709991
9.629999999999995,-0.3554277958391564,-0.0497105962726406,-0.0387696126084829
9.64,-0.2802388394413553,-0.0408449833547055,-0.0155361064901051
9.650000000000006,-0.2108343172213307,-0.0430201590150351,0.0040781711198284
9.659999999999997,-0.1365116374222186,-0.0336684669590955,0.0273185960778576
9.670000000000002,-0.063346186735167,-0.0292339755087386,0.0328264895847028
9.680000000000009,0.0028281585091808,-0.0355014253851288,0.0313004729590765
9.689999999999998,0.0653828100978444,-0.0355174039567931,0.0295353736960967
9.700000000000005,0.1037473413696877,-0.0330412809535968,0.031081584039894
9.709999999999994,0.1471146910085913,-0.0289923524330296,0.0441127528974097
9.72,0.1759064952136336,-0.0395421231571957,0.0515679151464819
9.730000000000004,0.2035317251919169,-0.0402583702646637,0.0568560133535607
9.739999999999997,0.2497373998477887,-0.0412359023127255,0.0616132885068739
9.75,0.3009137666708107,-0.0369199639862196,0.0546645362809198
9.760000000000003,0.3689124659477215,-0.0311155904429036,0.0446167889088707
9.769999999999996,0.4425964205391737,-0.0249579598515212,0.0387761726674673
9.78,0.5237698151883167,-0.021515810098956,0.0390143053049659
9.790000000000006,0.5963898265291174,-0.0193268741512957,0.0440157443470732
9.799999999999995,0.6807418054634357,-0.0209645834437293,0.0424277972797982
9.810000000000002,0.7579392931284183,-0.024886377478982,0.0254058888764172
9.820000000000007,0.8505248460316384,-0.023711214060504,0.0177226192298296
9.829999999999998,0.9511072157483316,-0.0245700850065148,0.0178244176759075
9.840000000000003,1.0564982900792423,-0.0115536495310812,0.0163270137513605
9.849999999999994,1.1665143763353023,-0.0093650287624416,0.0169731257815075
9.86,1.2789889263192575,0.0013803871243751,0.0234691419086609
9.870000000000005,1.3939312000980513,0.0108844332141046,0.0268145403748513
9.879999999999995,1.515226248943485,0.0073267155451256,0.0336117734624423
9.89,1.627501116247409,0.0156689271068762,0.0487826684540803
9.900000000000006,1.735804384589474,0.0154397059426178,0.0509128114215601
9.909999999999997,1.8339944507274144,0.014375612507798,0.0521966319673238
9.920000000000002,1.9079001883376288,0.0184110350826346,0.0529463368879205
9.930000000000009,1.9788303932585876,0.0328298589512195,0.0529818209240302
9.939999999999998,2.0335408400786816,0.0464640203694235,0.0621365379652757
9.950000000000005,2.0924990254579137,0.0517041556722826,0.0803439578336485
9.959999999999994,2.1448054063945805,0.066812934302654,0.08146836170194
9.97,2.2098769784848318,0.0715908686967025,0.082164648364712
9.980000000000004,2.2684766023281755,0.0830239033063581,0.084883012647906
9.989999999999997,2.315415860238509,0.0821139408971794,0.0826775193871443
10.0,2.3576936516775424,0.0702223419182939,0.0850627794921818
10.010000000000003,2.389625598675826,0.0661295719325284,0.0839300970164446
10.019999999999996,2.423300296599947,0.0620313432736225,0.0887081311544283
10.03,2.4392411551112194,0.0620824633901431,0.0974377145758614
10.040000000000006,2.447370598751133,0.0536253903202015,0.0988685362842193
10.049999999999995,2.461546810427287,0.046879404257647,0.1013516342661873
10.060000000000002,2.472754228451368,0.0586388145938456,0.1088651056889893
10.070000000000007,2.494771559822028,0.0746896609408152,0.1080609831520017
10.079999999999998,2.5218784526743905,0.0654707614725523,0.1049984586295733
10.090000000000003,2.549635408235726,0.0589112197983347,0.0960190507112723
10.099999999999994,2.5818431544821583,0.045875929495342,0.089182273435295
10.11,2.608427769847802,0.041875326796651,0.0780217684609314
10.120000000000005,2.6291033204837198,0.0527538955848495,0.0676243959167486
10.129999999999995,2.644951988396095,0.0548556716868271,0.069805075218597
10.14,2.655433591905373,0.064688371883996,0.0623888823809317
10.150000000000006,2.679023661564253,0.0576828468507717,0.0600410701533398
10.159999999999997,2.7125270198910294,0.0551071069987412,0.0559276347372118
10.170000000000002,2.7379965848633074,0.0505475800382438,0.0640102448136741
10.180000000000009,2.7585797466703563,0.0401213838771052,0.0551197831270061
10.189999999999998,2.7799255929754016,0.0279055702895865,0.0338791857742766
10.200000000000005,2.80278372569045,0.0194965138168924,0.0239039707016221
10.209999999999994,2.806066818930334,0.0185742874958249,0.0030217635377685
10.22,2.8009663750666056,0.0095394495897353,-0.0081838888649114
10.230000000000004,2.784329832710489,0.0134244903199989,-0.0285099980354832
10.239999999999997,2.7633623812143537,0.0007671295847886,-0.0415051359712424
10.25,2.735852339078107,-0.0003353321044957,-0.0422836525335339
10.260000000000003,2.6941343494574714,-0.0052233681786169,-0.0614635386226204
10.269999999999996,2.6521068964867007,-0.0217383879404435,-0.0862626831631132
10.28,2.5999805232455926,-0.0250202977504761,-0.1052826810042825
10.290000000000006,2.5417339027458,-0.0401939739041049,-0.1178910536247763
10.299999999999995,2.4867768061374327,-0.046483687071468,-0.1315840935543419
10.310000000000002,2.4383767962259246,-0.0568723756430945,-0.1519820518319399
10.320000000000007,2.3683977367075366,-0.0697445399344966,-0.1494240235677868
10.329999999999998,2.30926425994802,-0.0792461532177634,-0.1538730722665524
10.340000000000003,2.242892555863968,-0.0908859032156197,-0.1557588139819759
10.349999999999994,2.178345459972992,-0.1079053776238907,-0.1516917728454523
10.36,2.1127052632713204,-0.1062523666432503,-0.1431147051644175
10.370000000000005,2.043056954448666,-0.10123478584764,-0.1191447356749633
10.379999999999995,1.984914286381259,-0.0979305292655214,-0.0974449630265866
10.39,1.9306954719108569,-0.0879601797198502,-0.0692495448234352
10.400000000000006,1.87778089684008,-0.0806177629077797,-0.0535754509745992
10.409999999999997,1.8272287719754643,-0.0692128464398828,-0.0360651779577053
10.420000000000002,1.7825091221598728,-0.0428121458633497,-0.0205721547195395
10.430000000000009,1.7331792180798715,-0.024706791276795,-0.0007347146306715
10.439999999999998,1.687004416805932,-0.0071882392389343,0.0288844241980155
10.450000000000005,1.6298113195335484,0.0117609110619067,0.0470017221236049
10.459999999999994,1.5779766952905985,0.0221869323704281,0.0584837039712659
10.47,1.5339969970792582,0.0373436533759106,0.0727051165424818
10.480000000000004,1.5091921736854643,0.045557396765785,0.0844159184377009
10.489999999999997,1.4828258938130934,0.0519679743217445,0.0996660115601503
10.5,1.468931153822746,0.0453724319023415,0.1023782748397087
10.510000000000003,1.4743779383789122,0.0461752918489275,0.1115793181661506
10.519999999999996,1.487025530754229,0.0480237847464794,0.1129884360571951
10.53,1.507060236461886,0.0513830905845447,0.1146349945758712
10.540000000000006,1.5452505263999408,0.0524067632093107,0.1297146865054831
10.549999999999995,1.5874828643975405,0.0484861504125812,0.1391018961669829
10.560000000000002,1.6432623494860603,0.0474113713614734,0.1535519786138997
10.570000000000007,1.71513881102539,0.0376109781084507,0.1561684219285041
10.579999999999998,1.7810979138667895,0.0260678021620683,0.1555112461880994
10.590000000000003,1.8648197294143645,0.0192154342159255,0.1578736159486868
10.599999999999994,1.93227516928374,0.0135194810368965,0.1536407645494369
10.61,2.005694176643392,0.0052800795302524,0.1520394523163856
10.620000000000005,2.079539846426035,-0.003413179050479,0.154291552072377
10.629999999999995,2.1320768594437065,-0.0058200627828805,0.1520612360291753
10.64,2.187689563392456,-0.0150796734022162,0.1563166471284013
10.650000000000006,2.226822767366396,-0.0139074375964764,0.1602073974533594
10.659999999999997,2.252982040409083,-0.0226480064827357,0.1621983269028462
10.670000000000002,2.2667584621764942,-0.0325962787551968,0.1623374212894935
10.680000000000009,2.260960827748584,-0.0231235382306397,0.1594914509645
10.689999999999998,2.232397627425069,-0.0282188538610886,0.1426131865116877
10.700000000000005,2.1887830045166883,-0.019881238451927,0.137021926963205
10.709999999999994,2.127760583462382,-0.0170132794859666,0.1372602409114778
10.72,2.0412139152564954,-0.022835478455618,0.1414545808383785
10.730000000000004,1.947552299706516,-0.0221818779360618,0.1450764523575617
10.739999999999997,1.850152466852234,-0.0358849859450047,0.1416885714879563
10.75,1.7481128546543732,-0.0526986600539558,0.1484591589472537
10.760000000000003,1.6539282051448905,-0.0584520018283358,0.1340041591137743
10.769999999999996,1.5629232949396026,-0.0766154162341601,0.1178934171804327
10.78,1.4911006560066444,-0.0858010757236679,0.1038411693571256
10.790000000000006,1.4327807083815949,-0.0761668489916262,0.0749446376580749
10.799999999999995,1.3929704055374856,-0.0786176055125555,0.0501228791510028
10.810000000000002,1.3555839155422549,-0.0784488280385313,0.0434153282517665
10.820000000000007,1.3442929746873993,-0.0782302291251198,0.0450998576580875
10.829999999999998,1.3285079657294423,-0.0866386100957891,0.0450931203746662
10.840000000000003,1.3185609097011055,-0.0944760313015004,0.0482821475623447
10.849999999999994,1.304028615770585,-0.0904030159638509,0.0420772208776528
10.86,1.2900213228895303,-0.0791238475699041,0.0148826410464784
10.870000000000005,1.3006839379559123,-0.0707771836337775,-0.0264110848699172
10.879999999999995,1.3356821992633447,-0.0644881202277687,-0.054200392209186
10.89,1.3633844140790763,-0.0538567479176078,-0.0576576772901064
10.900000000000006,1.3584600360351349,-0.0455834145429445,-0.052545711492655
10.909999999999997,1.3426400501031766,-0.0390509957048801,-0.0333192255246823
10.920000000000002,1.3068497684739158,-0.0366728005341722,-0.017840335668908
10.930000000000009,1.2565427689207775,-0.0405283066892679,-0.0094569767783915
10.939999999999998,1.1845771950862145,-0.0301627922536785,-0.0025977404648771
10.950000000000005,1.1266311890834355,-0.0162196374840364,0.0004329688410934
10.959999999999994,1.0700413118058492,-0.0071978233807196,0.0039468159121016
10.97,1.0021392977495185,0.0092022949167471,0.014156676155625
10.980000000000004,0.9267108953201828,0.0280268036197431,0.0153225800149183
10.989999999999997,0.8638247078162545,0.0509356721125258,0.0245523726062646
11.0,0.7841781727280241,0.060971836790068,0.0215815953411025
11.010000000000003,0.7125170857669932,0.0637201952739205,0.0114561811751153
11.019999999999996,0.6315960004201926,0.0711958683615811,0.0128645602432477
11.03,0.5664378934923604,0.06884902672648,0.0114433664369411
11.040000000000006,0.5174092552990747,0.0701605179086289,0.0112562038839664
11.049999999999995,0.4812347309038673,0.0678520524652828,0.0106608450923025
11.060000000000002,0.4394466257384218,0.0714216532817431,-0.0024428560802265
11.070000000000007,0.3980556371551302,0.0655788918221764,-0.0159296682875779
11.079999999999998,0.3710597076329739,0.0637535352403662,-0.0220255025608552
11.090000000000003,0.3183510102025286,0.0570851189250592,-0.0301712995058471
11.099999999999994,0.2746243364722608,0.0377347156030178,-0.0387300276246616
11.11,0.2216674094142027,0.0277459912266137,-0.0452098026027103
11.120000000000005,0.154553466949446,0.0159912418278118,-0.0446528702596891
11.129999999999995,0.0902525625607969,0.0124415892452728,-0.0353971212783265
11.14,0.0300552164348337,0.0035983684239162,-0.0242686654497696
11.150000000000006,-0.0356547089797527,0.0040797906381064,-0.0355471757893288
11.159999999999997,-0.0908365013817237,-0.004366870158705,-0.0341993037597056
11.170000000000002,-0.150940864631829,0.0012409816205204,-0.0249701451081905
11.180000000000009,-0.2004653010849568,0.0038614687233926,-0.0210236240836876
11.189999999999998,-0.263202684663451,0.0014474010628825,-0.0213446361131676
11.200000000000005,-0.3094400502871665,0.001219484377028,-0.0229131480623583
11.209999999999994,-0.3560037405465222,-0.0106432345123914,-0.0181271155453064
11.22,-0.4016185071012513,-0.0116779687726681,-0.0131828667017675
11.230000000000004,-0.4403714183350799,-0.0182819052462392,-0.0038498200636308
11.239999999999997,-0.4815617441355445,-0.02303826093703,-0.0041248520592718
11.25,-0.5192302390953231,-0.0276344133168533,-0.0065921015572822
11.260000000000003,-0.5539691619158428,-0.0432945449982144,0.0011319872352428
11.269999999999996,-0.5784262886196851,-0.0437175005874273,0.0019003901789273
11.28,-0.6173419714495126,-0.0387332073129163,0.0002617482032035
11.290000000000006,-0.6598762289772528,-0.0348512091559389,-0.0052746777239148
11.299999999999995,-0.7178182899290168,-0.0309943891517313,-0.015740525487754
11.310000000000002,-0.7813788902653704,-0.0305614015970766,-0.0307053086242497
11.320000000000007,-0.855499861696312,-0.0386841841712179,-0.0328465624274586
11.329999999999998,-0.9142443056586024,-0.0329188363645067,-0.0428588122580948
11.340000000000003,-0.9687243966917825,-0.0292822365530558,-0.0395265133095996
11.349999999999994,-1.0181583466384525,-0.0456466405591302,-0.0318509224896662
11.36,-1.056700410731474,-0.0436842060809788,-0.031166843753211
11.370000000000005,-1.0739782162717313,-0.0468475290350419,-0.0400529296744494
11.379999999999995,-1.085163418207975,-0.049845167681363,-0.0555566411244524
11.39,-1.086900133686625,-0.0470946259977695,-0.0755051657586308
11.400000000000006,-1.0887457997951693,-0.0523711662107368,-0.0989126964192244
11.409999999999997,-1.1200744345042095,-0.059358783952071,-0.109272218464483
11.420000000000002,-1.1579101878163174,-0.0524964529136562,-0.1111990295608447
11.430000000000009,-1.208879403054332,-0.0513759350968713,-0.1114159800559251
11.439999999999998,-1.270355927039753,-0.0498574166044507,-0.0988746769245491
11.450000000000005,-1.3369513541436682,-0.0474944786765396,-0.0732332265612282
11.459999999999994,-1.4092310711954248,-0.0416529426610086,-0.0576608409972096
11.47,-1.4566802181663212,-0.0406607328498448,-0.047024047616596
11.480000000000004,-1.4971671145133418,-0.0422087721316599,-0.0558809910583585
11.489999999999997,-1.540963140738842,-0.0429047109199814,-0.0651029580631027
11.5,-1.5641448106587044,-0.0503827642755911,-0.0754180346414175
11.510000000000003,-1.5853782463486266,-0.0499542674170071,-0.0872039381280681
11.519999999999996,-1.6101812119031258,-0.0533617384638196,-0.0814703489237903
11.53,-1.639418633865602,-0.0553111164147264,-0.0675737118151078
11.540000000000006,-1.66350463334041,-0.0498560354962048,-0.0523346806173479
11.549999999999995,-1.6760725571338535,-0.0516869488457791,-0.0325005840887165
11.560000000000002,-1.6846051435290137,-0.0519360486785804,-0.0247191169867203
11.570000000000007,-1.6708091288208071,-0.05185426624521,-0.0139340227542633
11.579999999999998,-1.653009749183218,-0.0430682843511229,-0.0236757213157514
11.590000000000003,-1.6111116811606063,-0.0321653482994322,-0.0373502770186868
11.599999999999994,-1.5610512121181075,-0.0204160792701034,-0.0382690285112135
11.61,-1.510023207346476,-0.0086122874051789,-0.0549418809371092
11.620000000000005,-1.4643522429778728,0.0026736162140292,-0.0561530168141763
11.629999999999995,-1.437253612053262,0.0083822181220389,-0.0323912526205661
11.64,-1.4080581325013497,0.0089735951106889,-0.0096040545648084
11.650000000000006,-1.3806168458048858,0.0198660418634592,0.0008103081686283
11.659999999999997,-1.3492419934569733,0.027043941294376,0.001457577243326
11.670000000000002,-1.3051843867791697,0.0318280123915372,0.003565522382247
11.680000000000009,-1.2554025479188182,0.0373059891010562,0.0086850367474454
11.689999999999998,-1.2103769770055977,0.0510180604552098,0.0125896151515195
11.700000000000005,-1.1773582193233991,0.057306201215935,0.0254166555191758
11.709999999999994,-1.1558390272739454,0.0712135741345841,0.0431360246818902
11.72,-1.140506967872032,0.0812004322323471,0.0466410894011277
11.730000000000004,-1.12274379463528,0.0770863738404162,0.0437180144348637
11.739999999999997,-1.0863851918826253,0.0666589445979996,0.0478632355206378
11.75,-1.0372702261408484,0.0482145713571285,0.0402258487008857
11.760000000000003,-0.9663139023436764,0.0418303437366977,0.0338577054605889
11.769999999999996,-0.8984035995526233,0.0408187840967038,0.0233992073151834
11.78,-0.8334723559384795,0.0532416633899764,0.0239044182187047
11.790000000000006,-0.7704776967946625,0.0559263516884568,0.0245879365103769
11.799999999999995,-0.7375196747508841,0.05647378588284,0.0191357178767492
11.810000000000002,-0.7039760689599551,0.0555412159565109,0.0080631978669228
11.820000000000007,-0.6665546205678171,0.0424391223495364,-0.002254271347413
11.829999999999998,-0.6205922946198219,0.0351214563104744,-0.0033824273502766
11.840000000000003,-0.5676796308128323,0.0284299282829813,-0.0092027681196072
11.849999999999994,-0.4950183876761959,0.0239728313588512,-0.0034585674694266
11.86,-0.4279854023579442,0.03665470138665,0.0011593205468376
11.870000000000005,-0.3780443807872006,0.0361620660497271,0.0017453462679229
11.879999999999995,-0.3471203648935441,0.0444806438856236,0.0032197367269517
11.89,-0.3254808684671141,0.04778481796845,-0.0047250031910063
11.900000000000006,-0.3164892615491275,0.0393002138141892,-0.0212101115849766
11.909999999999997,-0.3188785193497111,0.0320238056376858,-0.0240035652675487
11.920000000000002,-0.3189638149368267,0.0314182168627985,-0.0276128403926845
11.930000000000009,-0.3396102488811073,0.0295699926039666,-0.0302748895485417
11.939999999999998,-0.3463048829377263,0.0226817780572027,-0.0157331656803983
11.950000000000005,-0.3696400089255064,0.0258654224651718,-0.0071446886114283
11.959999999999994,-0.3833290374368889,0.0200556687357646,0.0037665303778064
11.97,-0.401631422196251,0.0169168637259277,0.0031597722215452
11.980000000000004,-0.4254167347072445,0.0091398885124979,-0.002801798866963
11.989999999999997,-0.4535006848135451,0.0098388837840434,-0.01911572112082
12.0,-0.4762069748158314,0.0013922714363268,-0.037508290172595
12.010000000000003,-0.4997476027373312,-0.007212390846193,-0.0422607982909
12.019999999999996,-0.5410960445996156,-0.011916897872487,-0.0445539429288353
12.03,-0.55836167767594,-0.0224216640632418,-0.0298620959735956
12.040000000000006,-0.5752460106064351,-0.0317400398839311,-0.026964562696335
12.049999999999995,-0.5915601307736755,-0.0531112941003291,-0.0275758896267699
12.060000000000002,-0.5967578584202717,-0.057248310161151,-0.0261122097810941
12.070000000000007,-0.614911109941745,-0.0700220454022748,-0.0257431227148782
12.079999999999998,-0.6269905383336495,-0.0788372562519324,-0.0260292729529691
12.090000000000003,-0.6253530223112388,-0.09288944458996,-0.0254612088597175
12.099999999999994,-0.6461077599039288,-0.0954389727228504,-0.0269752198267753
12.11,-0.63874090535793,-0.1099625605468006,-0.024202137351035
12.120000000000005,-0.6153030399966227,-0.120824627314291,-0.0250682654322528
12.129999999999995,-0.5946550791041694,-0.1152990587609276,-0.0250364323955374
12.14,-0.5799377133538445,-0.1156978142276077,-0.0246123888994004
12.150000000000006,-0.5781432442118596,-0.1068248330411028,-0.0272787404126134
12.159999999999997,-0.5871277744989973,-0.1125023679987925,-0.0379113690037406
12.170000000000002,-0.6055562920784265,-0.1195522990855817,-0.0558986480668203
12.180000000000009,-0.6344968145009906,-0.1132801621087731,-0.0760536998466404
12.189999999999998,-0.6744311183476699,-0.1176640402130459,-0.0855617158454445
12.200000000000005,-0.7091438726179906,-0.1220019483046933,-0.0869607919905306
12.209999999999994,-0.7505858258361365,-0.1214324867071368,-0.0837394719767553
12.22,-0.7834925570843595,-0.1192760521445546,-0.0783635388548864
12.230000000000004,-0.8137000060507226,-0.1148152909956045,-0.082518261871694
12.239999999999997,-0.8422355473257127,-0.1032716772872323,-0.0837311817442573
12.25,-0.8579920645467488,-0.0962301512758594,-0.0833003904839731
12.260000000000003,-0.8869050973459148,-0.0987379688750489,-0.0867035128948531
12.269999999999996,-0.9066012405983576,-0.0942448149385254,-0.0908375315002272
12.28,-0.921003260828268,-0.0934239855294538,-0.0712757007861849
12.290000000000006,-0.9417694378075132,-0.0799127282844372,-0.0527692799474961
12.299999999999995,-0.939251758670403,-0.0672657934167381,-0.0338177046877931
12.310000000000002,-0.9399144391812032,-0.0730360775000218,-0.0075613932062498
12.320000000000007,-0.9295400492261792,-0.0721365484822305,0.0121947360339105
12.329999999999998,-0.8861487812853546,-0.0712696788129742,0.0248801466478437
12.340000000000003,-0.8414195327195343,-0.0681904394296059,0.0199599066755586
12.349999999999994,-0.8060022261782003,-0.0689514022782704,0.0140296540404248
12.36,-0.7688319425140058,-0.0635346712220369,0.0067693301867023
12.370000000000005,-0.740441203072924,-0.0567361329130363,-0.0019081592992533
12.379999999999995,-0.7143942503162565,-0.0484370893413801,-0.0007306041664285
12.39,-0.692926795313071,-0.0284213536851234,-0.0006461308617757
12.400000000000006,-0.6774222176307111,-0.0198199847917718,-0.0014713332168468
12.409999999999997,-0.6729270563558121,-0.0156463397269364,-0.0006167690870885
12.420000000000002,-0.6539969301148233,-0.0086558791990179,0.0069295556541266
12.430000000000009,-0.6524582463539962,-0.004134438386564,0.0037220935113228
12.439999999999998,-0.6403253983786492,-0.0091178776297373,0.0076441013926084
12.450000000000005,-0.6223900244554453,-0.0108192575370989,0.0082917155970913
12.459999999999994,-0.5986680536699154,-0.0111039388640753,0.0128802581822136
12.47,-0.5743196498878477,0.0050629339089336,0.0257393955245456
12.480000000000004,-0.5298837503279958,0.0070283883838336,0.0253174771107298
12.489999999999997,-0.4816863530989793,0.0193074266601951,0.0392341147458436
12.5,-0.4466061155791931,0.0310164027115015,0.0506665945648306
12.510000000000003,-0.4044791465316841,0.0327941219214371,0.0540504250657041
12.519999999999996,-0.3721711838930758,0.024044619544978,0.0534005968154161
12.53,-0.3457184372808214,0.0187954196546953,0.0547291882854551
12.540000000000006,-0.3223725639287256,0.0174792828909812,0.0529048889618319
12.549999999999995,-0.2823908812818556,0.0077554346736025,0.0496717431373246
12.560000000000002,-0.2441884554632189,0.0143786625764917,0.0441402605798374
12.570000000000007,-0.214721989162734,0.0134791667513783,0.0397486834056062
12.579999999999998,-0.1919651154720277,0.0222887424299074,0.0390393575525791
12.590000000000003,-0.1634746273404661,0.0092407995640604,0.0403937322855816
12.599999999999994,-0.1415350887713295,0.0038951257265591,0.0406173469464391
12.61,-0.1221294341332432,0.0050349763770416,0.0327072085563105
12.620000000000005,-0.1106543408611573,-0.0012522446530504,0.0383848724521628
12.629999999999995,-0.1073341970211573,-0.0116413104605645,0.0324641043182863
12.64,-0.0881182565401912,-0.0150254823870195,0.031221748220039
12.650000000000006,-0.0651969641913319,-0.013688859752508,0.0321961207231556
12.659999999999997,-0.0468143624362267,-0.0118188160379124,0.0315011802799928
12.670000000000002,-0.0167248531890073,-0.0099592226968519,0.0325967044639181
12.680000000000009,0.0005105531491159,-0.006109624135454,0.0316059451343693
12.689999999999998,0.0189602958586173,0.0016353382910501,0.0348475061610518
12.700000000000005,0.0353473778226895,-0.0010749227436896,0.0340223761120091
12.709999999999994,0.0518743192039981,0.0110662833498438,0.0359286120492977
12.72,0.0644899998733827,0.0151927731610316,0.040027712040309
12.730000000000004,0.0779887039760593,0.0229549953534524,0.0320384145935825
12.739999999999997,0.0921730546251533,0.0300690819290504,0.0309847891775151
12.75,0.1005070155758795,0.0211478501255237,0.0313832001901884
12.760000000000003,0.1143800220589146,0.0206596844470941,0.0204740380287568
12.769999999999996,0.1165085865177422,0.0094491020873665,0.0091777748278014
12.78,0.1179466721188268,0.0036014104712392,0.0105146624104504
12.790000000000006,0.117873011053092,0.0053765676681835,0.0122869972216831
12.799999999999995,0.1121234950796622,0.0023895091440268,0.007569389172352
12.810000000000002,0.0997566538282009,0.0028568546837771,0.0076101562588129
12.820000000000007,0.0902279223111058,-0.0110825878843903,0.0130172801571751
12.829999999999998,0.0750687483993254,-0.0198894214585239,0.0136397442292269
12.840000000000003,0.0639707348300568,-0.0166320926322467,0.0155658206901212
12.849999999999994,0.0486290594433203,-0.0186921481517057,0.0147364966745385
12.86,0.0347698151098981,-0.0196927500345514,0.0082174824547767
12.870000000000005,0.0192935019228012,-0.0220961667495057,0.0086663728608059
12.879999999999995,0.0125098882464904,-0.0239321823260478,0.0045342390244014
12.89,0.0150975653190444,-0.0278810803086733,0.005401782654118
12.900000000000006,0.0124020939759912,-0.0343980472891474,0.0067822730649923
12.909999999999997,0.015144461022601,-0.0257465248725087,-0.0031799770437366
12.920000000000002,0.015087706052862,-0.0264995755497359,-0.0001744983343353
12.930000000000009,0.0146909577170062,-0.0196546628096695,-0.0034738696171429
12.939999999999998,0.0178540037429662,-0.0134373946955964,-0.0031358328140618
12.950000000000005,0.016678083373188,-0.0118441209816729,-0.0027261652125133
12.959999999999994,0.0170448695522121,-0.017350883363502,0.0015030978127017
12.97,0.0275753751139514,-0.0154928746765074,0.0051140888530037
12.980000000000004,0.0238548414305755,-0.0111578424035975,0.0052842431211804
12.989999999999997,0.0357272743877922,-0.0082927019289732,0.0048322055607274
13.0,0.028536505588376,-0.0090400631564641,0.0069321960793856
13.010000000000003,0.0199671754773373,-0.0061928312251396,0.008323135435186
13.019999999999996,0.0200620040523166,-0.0065214811999305,0.0064673869851209
13.03,0.0125337960531006,-0.0165427157767778,0.0061179311960996
13.040000000000006,0.0095562633278973,-0.0156282285943061,0.005965774048605
13.049999999999995,0.0105124484068331,-0.0141451598159058,0.0060294950341092
13.060000000000002,-0.0027933769706954,-0.0151962778905281,0.0060415671678354
13.070000000000007,-0.0119967682292623,-0.0108770574440959,0.0002110801335165
13.079999999999998,-0.018327822547035,-0.0122185078724252,0.0036762444938133
13.090000000000003,-0.0383000678390822,-0.017948437642552,0.0050039915665059
13.099999999999994,-0.0361238089549098,-0.0158235543439937,0.0087703301163506
13.11,-0.037993147538369,-0.0183171265126516,0.0087826065077867
13.120000000000005,-0.0326807706808528,-0.018018378276122,0.0084483272005778
13.129999999999995,-0.0143180885230264,-0.0144362572756381,0.0125457478822082
13.14,-0.0117054614063857,-0.0188903541061936,0.0081814201679801
13.150000000000006,0.0016841109661068,-0.018174061595917,0.0102820938044005
13.159999999999997,0.0032849742066962,-0.0166994428259699,0.0169065977395307
13.170000000000002,-0.0077599284622981,-0.0197775141784236,0.0111898638368259
13.180000000000009,0.0008668811635992,-0.0066006182271278,0.0133486320552808
13.189999999999998,-0.0016726586578009,-0.0169686086065681,0.0223306474777355
13.200000000000005,0.0016635648599243,-0.0208347446376524,0.018886787861281
13.209999999999994,-0.0041748698302047,-0.0165401652567101,0.0144550458392504
13.22,-0.0012293789851548,-0.0148309187920787,0.0185015824558375
13.230000000000004,0.0067532605096501,-0.0150872871803787,0.0126706560304937
13.239999999999997,0.0165564041520084,-0.0191629845888651,0.0176180788618778
13.25,0.014269459326106,-0.0117368264623016,0.0193801341565577
13.260000000000003,0.0124511998565899,-0.0090221796357843,0.0169655767662308
13.269999999999996,0.0135863300684536,-0.0078810704739552,0.0236089681903908
13.28,0.0138733433106009,-0.0089720399316083,0.017401188906466
13.290000000000006,0.015496239340519,-0.003264337604587,0.0305436262143103
13.299999999999995,0.0177109237404848,-0.010339416029174,0.0243357007103312
13.310000000000002,0.0154284511418927,-0.0053753432371593,0.0247157743171381
13.320000000000007,0.015526514833392,-0.002795445731224,0.0271608404225383
13.329999999999998,0.0151825110387802,-0.0068455845545186,0.0286759767272536
13.340000000000003,0.0148519992923272,0.0049198253259573,0.0281592875929085
13.349999999999994,0.0124022815232719,0.0046499514111276,0.0317207390822048
13.36,0.007694118243574,-0.0012044735504596,0.0327748856120358
13.370000000000005,0.0013723659956075,-0.0079045233601137,0.0324427165601079
13.379999999999995,-0.0012527670561495,4.403239170673163e-06,0.0319906770569903
13.39,-0.0089357619161537,-0.001409691036248,0.0331045196672639
