time,Gyr_X,Gyr_Y,Gyr_Z
0.0,-0.015529,-0.026192,0.001728
0.0100000000000051,-0.011918,-0.027965,-7.4e-05
0.0200000000000102,-0.001029,-0.033309,0.0
0.0300000000000011,-0.01495,-0.041504,-0.010325
0.0400000000000062,-0.016905,-0.047819,-0.014078
0.0500000000000113,-0.024315,-0.055079,-0.011519
0.0600000000000022,-0.017143,-0.062227,-0.015164
0.0700000000000073,-0.007941,-0.058549,-0.014991
0.0799999999999983,6.9e-05,-0.065667,-0.030491
0.0900000000000034,-0.011798,-0.063939,-0.031534
0.1000000000000085,0.004789,-0.059332,-0.023951
0.1099999999999994,-0.017095,-0.064016,-0.006033
0.1200000000000045,-0.007886,-0.051332,-0.024948
0.1300000000000096,0.006618,-0.060265,-0.023953
0.1400000000000005,-0.012641,-0.065815,-0.019711
0.1500000000000056,-0.004483,-0.063937,-0.033286
0.1600000000000108,-0.007846,-0.048649,-0.024919
0.1700000000000017,-0.001513,-0.058551,-0.013085
0.1800000000000068,-0.004008,-0.03874,-0.022024
0.1900000000000119,-0.016999,-0.056876,-0.010545
0.2000000000000028,-0.018706,-0.046969,-0.015015
0.2100000000000079,-0.013189,-0.04152,-0.022182
0.2199999999999988,-0.01771,-0.041559,-0.014013
0.2300000000000039,-0.004928,-0.044177,-0.010217
0.2400000000000091,-0.009471,-0.047832,0.001552
0.25,-0.007711,-0.049613,-0.00393
0.2600000000000051,-0.011464,-0.049615,-0.016767
0.2700000000000102,-0.002186,-0.043256,-0.011088
0.2800000000000011,0.006888,-0.047701,-0.011021
0.2900000000000062,-0.004027,-0.042356,-0.014756
0.3000000000000113,0.012319,-0.044943,-0.024625
0.3100000000000023,0.006798,-0.045865,-0.028361
0.3200000000000074,0.006862,-0.041357,-0.030137
0.3299999999999983,0.005034,-0.035039,-0.043785
0.3400000000000034,-0.00585,-0.033334,-0.035689
0.3500000000000085,0.008974,-0.034192,-0.007189
0.3599999999999994,0.009865,-0.031472,-0.016278
0.3700000000000045,-0.007715,-0.046013,-0.013031
0.3800000000000096,0.001506,-0.038733,-0.018302
0.3900000000000005,0.003448,-0.036948,-0.007301
0.4000000000000057,0.010638,-0.03869,-0.021847
0.4100000000000108,0.003377,-0.035124,-0.021893
0.4200000000000017,-0.000365,-0.03874,-0.025642
0.4300000000000068,-0.004863,-0.03697,-0.018369
0.4400000000000119,-0.008536,-0.031549,-0.031129
0.4500000000000028,0.003423,-0.026948,-0.03091
0.4600000000000079,-0.004025,-0.031502,-0.039289
0.4699999999999988,-0.000369,-0.033288,-0.035611
0.480000000000004,-0.002152,-0.033323,-0.029241
0.4900000000000091,-0.005775,-0.031549,-0.027441
0.5,0.001508,-0.031492,-0.031904
0.5100000000000051,0.002322,-0.036897,-0.034697
0.5200000000000102,-0.002051,-0.024317,-0.035521
0.5300000000000011,-0.011372,-0.028848,-0.05123
0.5400000000000063,0.008731,-0.036861,-0.036447
0.5500000000000114,-0.009674,-0.044185,-0.036779
0.5600000000000023,0.006805,-0.041361,-0.039264
0.5700000000000074,-2.3e-05,-0.013481,-0.030791
0.5799999999999983,-0.003068,-0.031514,-0.032869
0.5900000000000034,-0.003907,-0.027027,-0.031921
0.6000000000000085,-0.008671,-0.037884,-0.035775
0.6099999999999994,0.012486,-0.035074,-0.025413
0.6200000000000045,0.012403,-0.035069,-0.038208
0.6300000000000097,0.024477,-0.031427,-0.02157
0.6400000000000006,0.017997,-0.031449,-0.032619
0.6500000000000057,0.016004,-0.048603,-0.018231
0.6600000000000108,0.016198,-0.031452,-0.027161
0.6700000000000017,0.007016,-0.034203,-0.025489
0.6800000000000068,0.013383,-0.037779,-0.021793
0.6900000000000119,0.017304,-0.018826,-0.025164
0.7000000000000028,0.019593,-0.047641,-0.025473
0.710000000000008,0.027048,-0.034973,-0.032527
0.7199999999999989,0.028775,-0.034028,-0.048934
0.730000000000004,0.046999,-0.037517,-0.050564
0.7400000000000091,0.046851,-0.042011,-0.061587
0.75,0.039311,-0.055571,-0.063667
0.7600000000000051,0.062217,-0.054503,-0.059687
0.7700000000000102,0.057557,-0.059965,-0.057982
0.7800000000000011,0.072428,-0.040934,-0.065777
0.7900000000000063,0.096975,-0.052505,-0.060109
0.8000000000000114,0.105128,-0.05246,-0.070968
0.8100000000000023,0.11586,-0.061396,-0.084633
0.8200000000000074,0.132313,-0.063084,-0.081683
0.8299999999999983,0.137779,-0.063054,-0.084339
0.8400000000000034,0.152411,-0.055715,-0.10049
0.8500000000000085,0.166868,-0.06822,-0.098617
0.8599999999999994,0.169903,-0.053786,-0.089264
0.8700000000000045,0.174409,-0.059141,-0.085603
0.8800000000000097,0.179734,-0.059052,-0.107442
0.8900000000000006,0.191598,-0.066204,-0.095496
0.9000000000000057,0.206308,-0.06071,-0.096148
0.9100000000000108,0.217932,-0.076859,-0.098008
0.9200000000000016,0.223397,-0.078618,-0.096119
0.9300000000000068,0.224185,-0.08943,-0.088915
0.940000000000012,0.203194,-0.093165,-0.074617
0.9500000000000028,0.188491,-0.094102,-0.082138
0.960000000000008,0.174121,-0.083385,-0.06759
0.9699999999999988,0.163295,-0.077155,-0.062181
0.980000000000004,0.152828,-0.062878,-0.025609
0.9900000000000092,0.126447,-0.063118,-0.009533
1.0,0.107617,-0.048897,0.008646
1.0100000000000051,0.104518,-0.029193,0.041719
1.0200000000000102,0.084934,-0.00233,0.056399
1.0300000000000011,0.036179,0.024304,0.083459
1.0400000000000065,0.007073,0.023146,0.107694
1.0500000000000114,-0.019893,0.051788,0.112226
1.0600000000000025,-0.053186,0.074072,0.139456
1.0700000000000074,-0.072098,0.08475,0.155781
1.0799999999999983,-0.101734,0.107966,0.179434
1.0900000000000034,-0.125749,0.140215,0.202347
1.1000000000000083,-0.160199,0.147155,0.228462
1.1099999999999994,-0.1838,0.152383,0.240978
1.1200000000000043,-0.219927,0.177386,0.249918
1.1300000000000097,-0.243497,0.189863,0.251568
1.1400000000000006,-0.269,0.193301,0.258563
1.1500000000000057,-0.285276,0.205817,0.260315
1.1600000000000108,-0.289155,0.189567,0.267368
1.1700000000000017,-0.267585,0.16988,0.260108
1.1800000000000068,-0.256238,0.139352,0.252603
1.190000000000012,-0.250479,0.101572,0.243119
1.2000000000000028,-0.302612,0.059727,0.192624
1.210000000000008,-0.289322,-0.001302,0.140929
1.2199999999999989,-0.259568,-0.062229,0.09858
1.230000000000004,-0.246211,-0.12513,0.05877
1.240000000000009,-0.245277,-0.170154,0.028114
1.25,-0.22122,-0.247378,-0.021812
1.2600000000000051,-0.19724,-0.320029,-0.08813
1.2700000000000102,-0.15317,-0.394336,-0.152383
1.2800000000000011,-0.111528,-0.447983,-0.22009
1.2900000000000065,-0.080509,-0.488215,-0.267711
1.3000000000000114,0.012501,-0.49367,-0.279427
1.3100000000000025,0.062691,-0.448287,-0.265431
1.3200000000000074,0.054979,-0.383713,-0.219048
1.3299999999999983,0.051743,-0.313657,-0.192665
1.3400000000000034,0.046348,-0.254289,-0.183787
1.3500000000000083,0.069587,-0.182108,-0.163428
1.3599999999999994,0.052946,-0.091325,-0.134261
1.3700000000000043,0.03979,-0.01861,-0.090663
1.3800000000000097,0.016779,0.063944,-0.037937
1.3900000000000006,0.016869,0.11337,-0.003543
1.4000000000000057,-0.003241,0.209492,0.046665
1.4100000000000108,-0.011694,0.247178,0.063446
1.4200000000000017,-0.015545,0.277674,0.098471
1.4300000000000068,-0.024396,0.302863,0.085884
1.440000000000012,-0.015866,0.317371,0.097157
1.4500000000000028,-0.01386,0.322823,0.110039
1.460000000000008,-0.009474,0.319353,0.092693
1.4699999999999989,-0.027629,0.337385,0.074401
1.480000000000004,-0.006344,0.352033,0.077593
1.490000000000009,-0.002739,0.357585,0.059441
1.5,0.021095,0.370413,0.042551
1.5100000000000051,0.027547,0.327269,0.019292
1.5200000000000102,0.034039,0.338163,0.012216
1.5300000000000011,0.041589,0.31127,-0.020878
1.5400000000000065,0.026705,0.291357,-0.013094
1.5500000000000114,0.01797,0.262506,-0.022701
1.5600000000000025,0.018538,0.24094,-0.024775
1.5700000000000074,0.00895,0.212074,-0.02432
1.5799999999999983,-0.001772,0.166935,-0.019507
1.5900000000000034,-0.012398,0.1272,-0.012799
1.6000000000000083,-0.013813,0.094777,-0.011363
1.6099999999999994,-0.026381,0.045133,0.002494
1.6200000000000043,-0.077564,-0.02099,0.011404
1.6300000000000097,0.03851,-0.104744,-0.043927
1.6400000000000006,0.011362,-0.199365,-0.060068
1.6500000000000057,0.059642,-0.271953,-0.06951
1.6600000000000108,0.14272,-0.334506,-0.071061
1.6700000000000017,0.16379,-0.383001,-0.088705
1.6800000000000068,0.196245,-0.418857,-0.078613
1.690000000000012,0.198929,-0.47472,-0.093817
1.7000000000000028,0.169949,-0.501931,-0.125553
1.710000000000008,0.138535,-0.514765,-0.148036
1.7199999999999989,0.097119,-0.534918,-0.147002
1.730000000000004,0.077476,-0.549464,-0.180339
1.740000000000009,0.081751,-0.554848,-0.211432
1.75,0.121927,-0.550975,-0.220143
1.7600000000000051,0.161637,-0.519994,-0.22579
1.7700000000000102,0.148201,-0.469749,-0.176882
1.7800000000000011,0.06467,-0.398442,-0.131394
1.7900000000000065,0.020188,-0.332228,-0.104695
1.8000000000000114,-0.027075,-0.267725,-0.076226
1.8100000000000025,-0.066337,-0.206731,-0.074186
1.8200000000000076,-0.116211,-0.126121,-0.06846
1.8299999999999983,-0.180122,-0.059967,-0.074064
1.8400000000000036,-0.224515,0.022613,-0.068181
1.8500000000000083,-0.243028,0.116149,-0.041705
1.8599999999999997,-0.28423,0.168025,-0.023318
1.8700000000000043,-0.294407,0.211123,-6.3e-05
1.8800000000000097,-0.268217,0.234755,0.03076
1.8900000000000008,-0.260256,0.269164,0.045921
1.9000000000000057,-0.219142,0.309123,0.083474
1.9100000000000108,-0.175059,0.327547,0.070577
1.9200000000000017,-0.126997,0.35134,0.092515
1.9300000000000068,-0.066484,0.360818,0.098922
1.940000000000012,-0.019524,0.384664,0.098024
1.9500000000000028,0.035348,0.388734,0.093331
1.960000000000008,0.075703,0.396304,0.095794
1.9699999999999989,0.096781,0.405561,0.083401
1.980000000000004,0.122394,0.409423,0.077406
1.990000000000009,0.149901,0.416865,0.069636
2.0,0.135082,0.413247,0.049297
2.010000000000005,0.144638,0.434975,0.058825
2.0200000000000102,0.14291,0.447665,0.044345
2.030000000000001,0.122785,0.44576,0.045876
2.0400000000000063,0.110155,0.446582,0.065809
2.050000000000012,0.072105,0.461675,0.081015
2.0600000000000023,0.052065,0.4634,0.087175
2.0700000000000074,0.037312,0.447108,0.10507
2.0799999999999983,-0.00625,0.455811,0.130189
2.0900000000000034,-0.029463,0.437672,0.118711
2.1000000000000085,-0.05811,0.410431,0.134441
2.1099999999999994,-0.087357,0.399361,0.15582
2.1200000000000045,-0.1225,0.370208,0.159533
2.1300000000000097,-0.12467,0.340371,0.173748
2.140000000000001,-0.14153,0.311401,0.179592
2.1500000000000057,-0.125537,0.272717,0.199462
2.160000000000011,-0.09699,0.229627,0.197529
2.1700000000000017,-0.069207,0.197289,0.193853
2.180000000000007,-0.071105,0.148596,0.163983
2.190000000000012,-0.059116,0.105395,0.14534
2.200000000000003,-0.043202,0.078408,0.128769
2.210000000000008,-0.0411,0.047719,0.106495
2.219999999999999,-0.024211,0.013482,0.1136
2.230000000000004,-0.029349,-0.015443,0.098541
2.240000000000009,-0.023277,-0.037055,0.101995
2.25,-0.020722,-0.038798,0.083724
2.260000000000005,-0.015621,-0.056738,0.07261
2.2700000000000102,-0.038445,-0.051467,0.067816
2.280000000000001,-0.032912,-0.041522,0.052483
2.2900000000000063,-0.027379,-0.037012,0.050786
2.300000000000012,-0.027474,-0.044236,0.055272
2.3100000000000023,-0.040875,-0.024508,0.058075
2.3200000000000074,-0.036394,-0.022633,0.044469
2.3299999999999983,-0.016421,-0.029688,0.041921
2.3400000000000034,-0.004472,-0.024198,0.038503
2.3500000000000085,-0.004283,-0.062068,0.016118
2.3599999999999994,0.003158,-0.049428,0.001729
2.3700000000000045,-0.008165,-0.062123,-0.026002
2.3800000000000097,-0.005556,-0.074758,-0.021568
2.390000000000001,-0.00289,-0.080152,-0.021602
2.4000000000000057,0.000689,-0.089129,-0.01342
2.410000000000011,0.004246,-0.091787,-0.022519
2.4200000000000017,0.005768,-0.110711,-0.025447
2.430000000000007,0.01276,-0.132289,-0.02468
2.440000000000012,0.003853,-0.11612,-0.029172
2.450000000000003,0.025642,-0.128594,-0.024471
2.460000000000008,0.023938,-0.127698,-0.008041
2.469999999999999,0.002206,-0.121521,0.00818
2.480000000000004,-0.012009,-0.095499,0.008289
2.490000000000009,-0.01654,-0.100098,0.021864
2.5,-0.013602,-0.088368,0.023882
2.510000000000005,-0.022265,-0.065888,0.043237
2.5200000000000102,-0.019341,-0.054154,0.045262
2.530000000000001,-0.015716,-0.056865,0.048024
2.5400000000000063,-0.020185,-0.043389,0.032585
2.550000000000012,-0.032836,-0.039003,0.043412
2.5600000000000023,-0.023747,-0.038031,0.034398
2.5700000000000074,-0.029111,-0.031758,0.039873
2.5799999999999983,-0.032584,-0.024556,0.050882
2.5900000000000034,-0.030383,-0.002891,0.056657
2.6000000000000085,-0.013887,-0.000972,0.056902
2.6099999999999994,-0.026544,0.004342,0.06593
2.6200000000000045,-0.02252,0.027828,0.067182
2.6300000000000097,-0.029633,0.047682,0.052723
2.640000000000001,-0.016964,0.042401,0.044608
2.6500000000000057,-0.00754,0.064119,0.035852
2.660000000000011,-0.005431,0.076744,0.046982
2.6700000000000017,-0.023808,0.07488,0.039416
2.680000000000007,-0.01281,0.076788,0.039593
2.690000000000012,-0.034882,0.069467,0.038314
2.700000000000003,-0.038354,0.084799,0.031155
2.710000000000008,-0.029517,0.069566,0.021044
2.719999999999999,-0.040419,0.078533,0.011875
2.730000000000004,-0.035027,0.069562,0.019145
2.740000000000009,-0.010334,0.064343,0.032193
2.75,-0.020575,0.055313,0.028312
2.760000000000005,-0.015122,0.048157,0.041103
2.7700000000000102,-0.020862,0.03556,0.034491
2.780000000000001,-0.028108,0.035554,0.046283
2.7900000000000063,-0.017544,0.015883,0.034335
2.800000000000012,-0.017732,0.006922,0.027846
2.8100000000000023,-0.00875,0.003425,0.011483
2.8200000000000074,-0.002684,-0.011823,-0.00322
2.8299999999999983,1.3e-05,-0.010865,-0.011377
2.8400000000000034,0.017903,-0.026916,-0.031418
2.8500000000000085,0.025044,-0.034042,-0.039616
2.8599999999999994,0.021213,-0.044825,-0.03795
2.8700000000000045,0.035736,-0.048261,-0.043265
2.8800000000000097,0.044963,-0.040929,-0.046699
2.890000000000001,0.058053,-0.031841,-0.026315
2.9000000000000057,0.055978,-0.040816,-0.041053
2.910000000000011,0.047045,-0.030062,-0.034648
2.9200000000000017,0.047014,-0.031852,-0.035591
2.930000000000007,0.043335,-0.030043,-0.041094
2.940000000000012,0.037976,-0.02646,-0.030161
2.950000000000003,0.041628,-0.02821,-0.026477
2.960000000000008,0.045491,-0.021868,-0.009899
2.969999999999999,0.016991,-0.02468,-0.023084
2.980000000000004,0.018279,-0.012073,0.002671
2.990000000000009,0.014473,-0.018393,-0.002021
3.0,-0.008871,0.006668,0.005257
3.010000000000005,-0.01203,-0.010426,-0.014197
3.0200000000000102,-0.025551,0.003041,-0.014225
3.030000000000001,-0.026527,-0.003265,-0.008844
3.0400000000000063,-0.000167,-0.013936,-0.006809
3.050000000000012,0.014695,-0.004894,0.008099
3.0600000000000023,0.036591,-0.01114,0.017419
3.0700000000000074,0.02945,-0.006811,0.035621
3.0799999999999983,0.04034,-0.023092,0.061129
3.0900000000000034,0.040005,-0.050262,0.07175
3.1000000000000085,0.054664,-0.059372,0.091878
3.1099999999999994,0.068031,-0.088163,0.099926
3.1200000000000045,0.09795,-0.108886,0.108259
3.1300000000000097,0.026818,-0.153898,0.116681
3.140000000000001,-0.05104,-0.1815,0.144444
3.1500000000000057,-0.061475,-0.204836,0.137628
3.160000000000011,-0.077377,-0.226672,0.136272
3.1700000000000017,-0.086896,-0.245769,0.12039
3.180000000000007,-0.065879,-0.302493,0.107215
3.190000000000012,-0.069753,-0.309822,0.088804
3.200000000000003,-0.039308,-0.352984,0.092303
3.210000000000008,0.017064,-0.379776,0.109128
3.219999999999999,0.066373,-0.40118,0.15246
3.230000000000004,0.095623,-0.413634,0.18286
3.240000000000009,0.096514,-0.429892,0.218331
3.25,0.090374,-0.432733,0.264827
3.260000000000005,0.071936,-0.450098,0.286323
3.2700000000000102,0.052358,-0.48647,0.311217
3.280000000000001,-0.005221,-0.496033,0.332265
3.2900000000000063,-0.02947,-0.537736,0.348775
3.300000000000012,-0.064415,-0.55963,0.359908
3.3100000000000023,-0.066749,-0.595717,0.359424
3.3200000000000074,-0.063082,-0.601125,0.364871
3.3299999999999983,-0.011258,-0.622396,0.36164
3.3400000000000034,0.020781,-0.616748,0.349336
3.3500000000000085,0.073834,-0.615415,0.344592
3.3599999999999994,0.123093,-0.614095,0.323381
3.3700000000000045,0.152343,-0.608507,0.306498
3.3800000000000097,0.14248,-0.586926,0.283787
3.390000000000001,0.158362,-0.557915,0.264238
3.4000000000000057,0.165223,-0.518127,0.239224
3.410000000000011,0.201243,-0.48356,0.214545
3.4200000000000017,0.243519,-0.448054,0.171711
3.430000000000007,0.245579,-0.412828,0.133826
3.440000000000012,0.261508,-0.372977,0.105315
3.450000000000003,0.265476,-0.334993,0.067482
3.460000000000008,0.281417,-0.307842,0.062561
3.469999999999999,0.278043,-0.286305,0.053636
3.480000000000004,0.260364,-0.24681,0.048372
3.490000000000009,0.246307,-0.218085,0.061287
3.5,0.253972,-0.203603,0.07617
3.510000000000005,0.24733,-0.173049,0.100202
3.5200000000000102,0.247715,-0.15869,0.118642
3.530000000000001,0.2501,-0.135336,0.14087
3.5400000000000063,0.279431,-0.146009,0.170386
3.550000000000012,0.290127,-0.120695,0.201906
3.5600000000000023,0.317827,-0.11599,0.227942
3.5700000000000074,0.322916,-0.098827,0.262069
3.5799999999999983,0.312123,-0.104315,0.297519
3.5900000000000034,0.303593,-0.07282,0.316058
3.6000000000000085,0.294597,-0.062024,0.319726
3.61,0.302137,-0.062008,0.358206
3.620000000000005,0.28203,-0.070256,0.381619
3.6300000000000097,0.285705,-0.078356,0.403501
3.640000000000001,0.256019,-0.063274,0.438918
3.6500000000000057,0.225625,-0.081496,0.44562
3.660000000000011,0.191889,-0.078132,0.449801
3.6700000000000017,0.150779,-0.072949,0.440197
3.680000000000007,0.125791,-0.091091,0.434169
3.690000000000012,0.08465,-0.082283,0.414538
3.700000000000003,0.042547,-0.082529,0.409398
3.710000000000008,0.022375,-0.082647,0.403637
3.719999999999999,-0.001161,-0.071076,0.413522
3.730000000000004,-0.047002,-0.075857,0.409225
3.740000000000009,-0.105325,-0.060873,0.404996
3.75,-0.153164,-0.069195,0.385093
3.760000000000005,-0.195306,-0.074821,0.386298
3.77000000000001,-0.214499,-0.068556,0.371502
3.780000000000001,-0.224784,-0.086648,0.378462
3.7900000000000063,-0.226462,-0.086722,0.394877
3.8000000000000114,-0.233711,-0.091318,0.414824
3.8100000000000014,-0.262992,-0.098751,0.427127
3.820000000000008,-0.261262,-0.111401,0.441611
3.8299999999999983,-0.287873,-0.120578,0.452114
3.8400000000000034,-0.29799,-0.12961,0.469243
3.850000000000009,-0.317945,-0.12521,0.487314
3.86,-0.347557,-0.155115,0.505747
3.870000000000005,-0.378448,-0.152628,0.530018
3.8800000000000097,-0.387417,-0.157249,0.563622
3.890000000000001,-0.415125,-0.182698,0.57754
3.9000000000000057,-0.412923,-0.225132,0.591658
3.910000000000011,-0.417646,-0.233344,0.585998
3.9200000000000017,-0.424558,-0.267699,0.587283
3.930000000000007,-0.432355,-0.292983,0.575887
3.940000000000012,-0.44244,-0.298501,0.584791
3.950000000000003,-0.429131,-0.333663,0.606437
3.960000000000008,-0.436701,-0.343626,0.594335
3.969999999999999,-0.448602,-0.351835,0.611412
3.980000000000004,-0.447293,-0.388777,0.619182
3.990000000000009,-0.44388,-0.397725,0.607225
4.0,-0.451517,-0.424831,0.621394
4.010000000000005,-0.42257,-0.44812,0.625129
4.02000000000001,-0.422824,-0.474443,0.644856
4.030000000000001,-0.424572,-0.479072,0.663013
4.040000000000006,-0.412003,-0.504281,0.681125
4.050000000000011,-0.406499,-0.504274,0.681179
4.060000000000002,-0.397362,-0.504223,0.678546
4.070000000000007,-0.406348,-0.496175,0.681256
4.079999999999998,-0.40235,-0.481781,0.696086
4.090000000000003,-0.402399,-0.485467,0.696021
4.1000000000000085,-0.41145,-0.495629,0.726813
4.109999999999999,-0.436991,-0.501332,0.742832
4.1200000000000045,-0.444079,-0.509628,0.786453
4.13000000000001,-0.451201,-0.507921,0.804638
4.140000000000001,-0.483572,-0.496561,0.852766
4.150000000000006,-0.485654,-0.473182,0.888677
4.160000000000011,-0.491823,-0.469585,0.912434
4.170000000000002,-0.483759,-0.44249,0.958567
4.180000000000007,-0.483313,-0.424447,0.982539
4.190000000000012,-0.475478,-0.413627,1.035728
4.200000000000003,-0.477864,-0.399267,1.059599
4.210000000000008,-0.485336,-0.376034,1.121909
4.219999999999999,-0.533404,-0.378316,1.187025
4.230000000000004,-0.559517,-0.380439,1.251509
4.240000000000009,-0.586561,-0.397022,1.341371
4.25,-0.618277,-0.414503,1.417454
4.260000000000005,-0.65904,-0.423034,1.488037
4.27000000000001,-0.697553,-0.466698,1.565541
4.280000000000001,-0.726709,-0.49766,1.643326
4.290000000000006,-0.772252,-0.52693,1.727301
4.300000000000011,-0.814121,-0.563405,1.830417
4.310000000000002,-0.871776,-0.610819,1.92589
4.320000000000007,-0.94027,-0.647525,2.018613
4.329999999999998,-1.022716,-0.711371,2.137331
4.340000000000003,-1.145238,-0.751952,2.223792
4.3500000000000085,-1.279009,-0.818726,2.324393
4.359999999999999,-1.392295,-0.859208,2.41919
4.3700000000000045,-1.503434,-0.942005,2.521749
4.38000000000001,-1.632608,-0.998755,2.601536
4.390000000000001,-1.70902,-1.073174,2.680909
4.400000000000006,-1.785514,-1.142176,2.73569
4.410000000000011,-1.842025,-1.212847,2.777001
4.420000000000002,-1.904855,-1.279983,2.823746
4.430000000000007,-1.939661,-1.348646,2.833421
4.440000000000012,-1.997134,-1.413849,2.864763
4.450000000000003,-2.051179,-1.482572,2.870519
4.460000000000008,-2.109613,-1.551354,2.898127
4.469999999999999,-2.137852,-1.610948,2.907943
4.480000000000004,-2.188235,-1.628373,2.927092
4.490000000000009,-2.243852,-1.672794,2.9139
4.5,-2.298414,-1.710956,2.908132
4.510000000000005,-2.373334,-1.752825,2.879236
4.52000000000001,-2.439074,-1.798224,2.865038
4.530000000000001,-2.523492,-1.857134,2.824846
4.540000000000006,-2.613555,-1.874603,2.794177
4.550000000000011,-2.685645,-1.905483,2.747134
4.560000000000002,-2.72712,-1.91193,2.710846
4.570000000000007,-2.756623,-1.956149,2.641398
4.579999999999998,-2.746807,-1.941498,2.572308
4.590000000000003,-2.766785,-1.945001,2.466043
4.6000000000000085,-2.767366,-1.93669,2.361953
4.609999999999999,-2.800533,-1.908826,2.259463
4.6200000000000045,-2.841399,-1.894337,2.129301
4.63000000000001,-2.864961,-1.823874,1.99453
4.640000000000001,-2.880172,-1.738946,1.845426
4.650000000000006,-2.844552,-1.666297,1.672195
4.660000000000011,-2.764493,-1.539199,1.459146
4.670000000000002,-2.702036,-1.405056,1.200286
4.680000000000007,-2.638681,-1.265618,0.927791
4.690000000000012,-2.589857,-1.12174,0.659676
4.700000000000003,-2.538063,-0.943405,0.349981
4.710000000000008,-2.459378,-0.740523,0.041851
4.719999999999999,-2.355924,-0.524801,-0.278528
4.730000000000004,-2.24502,-0.302797,-0.592284
4.740000000000009,-2.119975,-0.044673,-0.925503
4.75,-2.007947,0.197991,-1.25544
4.760000000000005,-1.923704,0.411605,-1.573311
4.77000000000001,-1.831013,0.638811,-1.88905
4.780000000000001,-1.766894,0.842395,-2.185331
4.790000000000006,-1.700564,1.054017,-2.448633
4.800000000000011,-1.66405,1.22942,-2.712763
4.810000000000002,-1.632635,1.417321,-2.948491
4.820000000000007,-1.595651,1.596245,-3.151339
4.829999999999998,-1.571876,1.75352,-3.362808
4.840000000000003,-1.547862,1.910713,-3.539572
4.8500000000000085,-1.508674,2.042769,-3.714622
4.859999999999999,-1.471262,2.156629,-3.844285
4.8700000000000045,-1.40793,2.230934,-3.97321
4.88000000000001,-1.34903,2.287958,-4.049448
4.890000000000001,-1.307708,2.338543,-4.139709
4.900000000000006,-1.292391,2.404296,-4.191719
4.910000000000011,-1.257119,2.476617,-4.279885
4.920000000000002,-1.239814,2.550566,-4.324439
4.930000000000007,-1.202349,2.631886,-4.377778
4.940000000000012,-1.139801,2.74405,-4.455802
4.950000000000003,-1.016014,2.924964,-4.536124
4.960000000000008,-0.981109,3.08048,-4.586913
4.969999999999999,-0.975007,3.238391,-4.586828
4.980000000000004,-0.950366,3.394731,-4.54993
4.990000000000009,-0.890933,3.539859,-4.481637
5.0,-0.810078,3.66928,-4.447926
5.010000000000005,-0.710951,3.799814,-4.419418
5.02000000000001,-0.595718,3.914102,-4.403679
5.030000000000001,-0.486222,4.020968,-4.404566
5.040000000000006,-0.408071,4.114964,-4.407835
5.050000000000011,-0.331435,4.181075,-4.43153
5.060000000000002,-0.286923,4.237995,-4.453959
5.070000000000007,-0.241385,4.301272,-4.476326
5.079999999999998,-0.197036,4.346558,-4.498951
5.090000000000003,-0.16012,4.386492,-4.525367
5.1000000000000085,-0.098616,4.41678,-4.545116
5.109999999999999,-0.009196,4.431995,-4.591043
5.1200000000000045,0.037552,4.465821,-4.634556
5.13000000000001,0.090547,4.48343,-4.661769
5.140000000000001,0.145478,4.510039,-4.694388
5.150000000000006,0.183728,4.50138,-4.681073
5.160000000000011,0.211282,4.513459,-4.672227
5.170000000000002,0.238981,4.532737,-4.661486
5.180000000000007,0.250375,4.549096,-4.626349
5.190000000000012,0.243574,4.56888,-4.58591
5.200000000000003,0.253059,4.571668,-4.532653
5.210000000000008,0.229448,4.563444,-4.479952
5.219999999999999,0.207853,4.568722,-4.428906
5.230000000000004,0.173253,4.555974,-4.367281
5.240000000000009,0.128199,4.57023,-4.296358
5.25,0.088068,4.546632,-4.223982
5.260000000000005,0.048614,4.555402,-4.123761
5.27000000000001,-0.024089,4.542345,-4.020566
5.280000000000001,-0.085602,4.525775,-3.88071
5.290000000000006,-0.16579,4.500102,-3.77963
5.300000000000011,-0.230542,4.50142,-3.62606
5.310000000000002,-0.293741,4.488332,-3.479981
5.320000000000007,-0.353356,4.471669,-3.336646
5.329999999999998,-0.40419,4.438006,-3.205251
5.340000000000003,-0.469583,4.397098,-3.048533
5.3500000000000085,-0.498787,4.353862,-2.938086
5.359999999999999,-0.568344,4.292244,-2.8044
5.3700000000000045,-0.660508,4.252046,-2.686351
5.38000000000001,-0.701682,4.197736,-2.56972
5.390000000000001,-0.730086,4.144491,-2.46296
5.400000000000006,-0.783897,4.096417,-2.344643
5.410000000000011,-0.760371,4.037178,-2.25284
5.420000000000002,-0.749747,3.959771,-2.135814
5.430000000000007,-0.700701,3.893442,-2.038204
5.440000000000012,-0.67602,3.791775,-1.944085
5.450000000000003,-0.656037,3.677402,-1.839256
5.460000000000008,-0.66055,3.531429,-1.764362
5.469999999999999,-0.676676,3.396197,-1.676685
5.480000000000004,-0.719051,3.221167,-1.597122
5.490000000000009,-0.726458,3.049942,-1.496935
5.5,-0.741444,2.856983,-1.386147
5.510000000000005,-0.736356,2.644324,-1.236056
5.52000000000001,-0.73114,2.4361,-1.07676
5.530000000000001,-0.763142,2.187021,-0.919375
5.540000000000006,-0.770978,1.906553,-0.769377
5.550000000000011,-0.79488,1.641234,-0.601179
5.560000000000002,-0.82572,1.346162,-0.444372
5.570000000000007,-0.857241,1.011437,-0.297186
5.579999999999998,-0.890341,0.696531,-0.158008
5.590000000000003,-0.914768,0.356479,-0.029982
5.6000000000000085,-0.957434,0.028945,0.078797
5.609999999999999,-1.025335,-0.278904,0.196639
5.6200000000000045,-1.099064,-0.603961,0.303213
5.63000000000001,-1.182379,-0.894881,0.400938
5.640000000000001,-1.274404,-1.160631,0.504351
5.650000000000006,-1.363685,-1.430914,0.618698
5.660000000000011,-1.48923,-1.672503,0.714623
5.670000000000002,-1.61465,-1.905994,0.810593
5.680000000000007,-1.728496,-2.108826,0.923517
5.690000000000012,-1.839762,-2.307972,1.005499
5.700000000000003,-1.946797,-2.478364,1.106165
5.710000000000008,-2.043513,-2.627017,1.198113
5.719999999999999,-2.120374,-2.786308,1.278332
5.730000000000004,-2.194466,-2.895127,1.381094
5.740000000000009,-2.282871,-2.984196,1.484797
5.75,-2.350917,-3.060624,1.588891
5.760000000000005,-2.405151,-3.134185,1.701455
5.77000000000001,-2.437049,-3.175132,1.80191
5.780000000000001,-2.483964,-3.185568,1.911654
5.790000000000006,-2.518473,-3.211221,2.001305
5.800000000000011,-2.536262,-3.222387,2.095924
5.810000000000002,-2.572291,-3.232777,2.195805
5.820000000000007,-2.593207,-3.206086,2.281722
5.829999999999998,-2.641854,-3.207547,2.384256
5.840000000000003,-2.677858,-3.210724,2.464979
5.8500000000000085,-2.723799,-3.198614,2.527476
5.859999999999999,-2.751377,-3.185443,2.598446
5.8700000000000045,-2.761687,-3.175735,2.664137
5.88000000000001,-2.754058,-3.179427,2.714393
5.890000000000001,-2.757566,-3.190451,2.76167
5.900000000000006,-2.783322,-3.219669,2.806603
5.910000000000011,-2.816688,-3.264218,2.843945
5.920000000000002,-2.859157,-3.309695,2.884804
5.930000000000007,-2.883724,-3.372122,2.903761
5.940000000000012,-2.890335,-3.447922,2.904508
5.950000000000003,-2.869606,-3.534363,2.916441
5.960000000000008,-2.836043,-3.609888,2.911333
5.969999999999999,-2.762569,-3.699572,2.893748
5.980000000000004,-2.70929,-3.80024,2.889548
5.990000000000009,-2.63026,-3.877217,2.856717
6.0,-2.549227,-3.956051,2.851329
6.010000000000005,-2.485049,-4.057472,2.838098
6.02000000000001,-2.424596,-4.155376,2.802957
6.030000000000001,-2.342667,-4.234252,2.787508
6.040000000000006,-2.259073,-4.320306,2.76471
6.050000000000011,-2.172707,-4.393746,2.7229
6.060000000000002,-2.075414,-4.483397,2.704802
6.070000000000007,-1.964922,-4.547739,2.692654
6.079999999999998,-1.85767,-4.592295,2.698049
6.090000000000003,-1.7667,-4.638846,2.734269
6.1000000000000085,-1.712558,-4.696434,2.759817
6.109999999999999,-1.695312,-4.731743,2.8162
6.1200000000000045,-1.683624,-4.771556,2.867902
6.13000000000001,-1.674371,-4.787005,2.903419
6.140000000000001,-1.626793,-4.812029,2.950281
6.150000000000006,-1.54426,-4.820621,2.99415
6.160000000000011,-1.455796,-4.810251,3.065733
6.170000000000002,-1.343442,-4.776185,3.106849
6.180000000000007,-1.273693,-4.777492,3.147938
6.190000000000012,-1.218138,-4.751971,3.186436
6.200000000000003,-1.197567,-4.721335,3.171464
6.210000000000008,-1.20471,-4.697968,3.131335
6.219999999999999,-1.193048,-4.636501,3.084648
6.230000000000004,-1.159467,-4.574832,3.036482
6.240000000000009,-1.098237,-4.507674,3.007942
6.25,-1.031193,-4.422433,2.988869
6.260000000000005,-0.944048,-4.338891,2.972777
6.27000000000001,-0.899251,-4.268314,2.941287
6.280000000000001,-0.861686,-4.194188,2.909712
6.290000000000006,-0.875163,-4.103207,2.866675
6.300000000000011,-0.943792,-4.01427,2.797297
6.310000000000002,-1.03797,-3.920007,2.724065
6.320000000000007,-1.131136,-3.813077,2.634646
6.329999999999998,-1.189569,-3.702265,2.538471
6.340000000000003,-1.214172,-3.596679,2.455451
6.3500000000000085,-1.251158,-3.452502,2.345237
6.359999999999999,-1.308262,-3.326621,2.267356
6.3700000000000045,-1.414841,-3.191926,2.156067
6.38000000000001,-1.510521,-3.048019,2.019497
6.390000000000001,-1.613563,-2.918573,1.902794
6.400000000000006,-1.694147,-2.738485,1.748627
6.410000000000011,-1.788033,-2.585595,1.581149
6.420000000000002,-1.879657,-2.400246,1.404974
6.430000000000007,-1.962092,-2.217634,1.243465
6.440000000000012,-2.035185,-2.024213,1.084906
6.450000000000003,-2.082317,-1.817149,0.943288
6.460000000000008,-2.167671,-1.590491,0.78221
6.469999999999999,-2.232226,-1.382526,0.628535
6.480000000000004,-2.239352,-1.126376,0.477147
6.490000000000009,-2.222934,-0.872731,0.302322
6.5,-2.190243,-0.58125,0.146399
6.510000000000005,-2.14596,-0.307746,-0.013241
6.52000000000001,-2.100091,-0.002709,-0.147796
6.530000000000001,-2.041485,0.30788,-0.302202
6.540000000000006,-1.973744,0.62485,-0.469192
6.550000000000011,-1.909552,0.941709,-0.621667
6.560000000000002,-1.854153,1.28193,-0.777672
6.570000000000007,-1.808176,1.604116,-0.934913
6.579999999999998,-1.793525,1.956724,-1.063884
6.590000000000003,-1.793834,2.296623,-1.210549
6.6000000000000085,-1.791624,2.621369,-1.352717
6.609999999999999,-1.780401,2.942541,-1.502124
6.6200000000000045,-1.769328,3.250936,-1.648092
6.63000000000001,-1.763144,3.534057,-1.786221
6.640000000000001,-1.737348,3.786762,-1.93175
6.650000000000006,-1.670625,4.014479,-2.056057
6.660000000000011,-1.567712,4.224427,-2.192884
6.670000000000002,-1.434015,4.411983,-2.320435
6.680000000000007,-1.29482,4.552754,-2.471315
6.690000000000012,-1.125435,4.683785,-2.598153
6.700000000000003,-0.973963,4.786767,-2.737424
6.710000000000008,-0.774851,4.845021,-2.898501
6.719999999999999,-0.599766,4.893096,-3.067362
6.730000000000004,-0.443639,4.892228,-3.229826
6.740000000000009,-0.320661,4.874904,-3.383792
6.75,-0.206691,4.855737,-3.512292
6.760000000000005,-0.126993,4.859846,-3.622658
6.77000000000001,-0.027564,4.831665,-3.719416
6.780000000000001,0.071719,4.79267,-3.81627
6.790000000000006,0.224262,4.755826,-3.882211
6.800000000000011,0.379226,4.711879,-3.973786
6.810000000000002,0.514571,4.696554,-4.052543
6.820000000000007,0.637606,4.657712,-4.137235
6.829999999999998,0.746222,4.617778,-4.192924
6.840000000000003,0.838458,4.584971,-4.254213
6.8500000000000085,0.906816,4.541949,-4.308667
6.859999999999999,0.973548,4.49893,-4.337504
6.8700000000000045,1.047598,4.443413,-4.339822
6.88000000000001,1.132611,4.392572,-4.349194
6.890000000000001,1.235909,4.328261,-4.327432
6.900000000000006,1.322631,4.257586,-4.307848
6.910000000000011,1.424232,4.210493,-4.301534
6.920000000000002,1.470893,4.14852,-4.276028
6.930000000000007,1.524072,4.098275,-4.262117
6.940000000000012,1.575648,4.045299,-4.208947
6.950000000000003,1.625335,3.98692,-4.154068
6.960000000000008,1.644011,3.938341,-4.110461
6.969999999999999,1.672602,3.877266,-4.057732
6.980000000000004,1.703503,3.846879,-4.007348
6.990000000000009,1.736168,3.81841,-3.969651
7.0,1.763272,3.782595,-3.926625
7.010000000000005,1.783327,3.74929,-3.849885
7.02000000000001,1.796896,3.719646,-3.788731
7.030000000000001,1.748149,3.667001,-3.695826
7.040000000000006,1.686834,3.628712,-3.603834
7.050000000000011,1.584435,3.601053,-3.530533
7.060000000000002,1.492166,3.569825,-3.442518
7.070000000000007,1.428167,3.525234,-3.337842
7.079999999999998,1.345864,3.485021,-3.246146
7.090000000000003,1.269247,3.456596,-3.14875
7.1000000000000085,1.201608,3.414701,-3.044071
7.109999999999999,1.11397,3.370862,-2.917783
7.1200000000000045,1.030457,3.346836,-2.771032
7.13000000000001,0.931448,3.329952,-2.634547
7.140000000000001,0.831127,3.289607,-2.508458
7.150000000000006,0.757871,3.276421,-2.367092
7.160000000000011,0.669897,3.253217,-2.219628
7.170000000000002,0.62043,3.244758,-2.087886
7.180000000000007,0.583304,3.208416,-1.960869
7.190000000000012,0.573858,3.182986,-1.825163
7.200000000000003,0.551393,3.151164,-1.703461
7.210000000000008,0.514308,3.117436,-1.572824
7.219999999999999,0.47654,3.097244,-1.440171
7.230000000000004,0.436621,3.060894,-1.320523
7.240000000000009,0.397057,3.046141,-1.198743
7.25,0.368155,3.052047,-1.036404
7.260000000000005,0.351843,3.041744,-0.862264
7.27000000000001,0.279673,3.024822,-0.684415
7.280000000000001,0.196371,2.997072,-0.507735
7.290000000000006,0.087377,2.963777,-0.336034
7.300000000000011,-0.041811,2.924967,-0.167406
7.310000000000002,-0.153649,2.874511,0.021394
7.320000000000007,-0.292949,2.832931,0.188923
7.329999999999998,-0.456383,2.764008,0.374064
7.340000000000003,-0.634183,2.701491,0.578291
7.350000000000008,-0.832079,2.588293,0.770668
7.359999999999999,-1.031736,2.475991,0.964928
7.370000000000003,-1.225736,2.330371,1.128709
7.38000000000001,-1.446182,2.184524,1.302171
7.390000000000001,-1.679015,2.020693,1.4479
7.400000000000006,-1.944527,1.86656,1.600627
7.410000000000011,-2.19671,1.68819,1.755964
7.420000000000002,-2.461613,1.519638,1.899357
7.430000000000007,-2.690717,1.312656,2.019027
7.440000000000012,-2.909661,1.127378,2.103478
7.450000000000003,-3.14252,0.9239,2.200304
7.460000000000008,-3.324092,0.733374,2.280596
7.469999999999999,-3.497205,0.553775,2.369366
7.480000000000004,-3.659517,0.359851,2.466305
7.490000000000009,-3.79869,0.187627,2.551878
7.5,-3.898872,0.004848,2.612251
7.510000000000005,-3.947334,-0.150575,2.688244
7.52000000000001,-3.995626,-0.340163,2.736438
7.530000000000001,-4.028554,-0.484647,2.787202
7.540000000000006,-4.048806,-0.624553,2.815363
7.550000000000011,-4.054281,-0.754492,2.845675
7.560000000000002,-4.079912,-0.888184,2.876578
7.570000000000007,-4.099751,-0.995643,2.894175
7.579999999999998,-4.092287,-1.112814,2.915661
7.590000000000003,-4.071208,-1.188428,2.955167
7.600000000000008,-4.014606,-1.263795,2.975059
7.609999999999999,-3.952297,-1.328403,3.004284
7.620000000000003,-3.905177,-1.376889,3.046279
7.63000000000001,-3.823584,-1.428699,3.058565
7.640000000000001,-3.777729,-1.432127,3.083738
7.650000000000006,-3.723155,-1.469763,3.124143
7.660000000000011,-3.683867,-1.473179,3.131904
7.670000000000002,-3.679415,-1.478626,3.130043
7.680000000000007,-3.652985,-1.496564,3.152085
7.690000000000012,-3.643159,-1.512785,3.150177
7.700000000000003,-3.615144,-1.501968,3.203602
7.710000000000008,-3.606155,-1.529096,3.235257
7.719999999999999,-3.604312,-1.550805,3.276042
7.730000000000004,-3.580213,-1.548888,3.309213
7.740000000000009,-3.5746,-1.550712,3.330189
7.75,-3.558236,-1.5669,3.351177
7.760000000000005,-3.578808,-1.604002,3.368736
7.77000000000001,-3.566127,-1.632895,3.406881
7.780000000000001,-3.512706,-1.684066,3.428827
7.790000000000006,-3.466723,-1.747064,3.459648
7.800000000000011,-3.350808,-1.845708,3.507359
7.810000000000002,-3.312421,-1.966942,3.531911
7.820000000000007,-3.303577,-2.102772,3.548634
7.829999999999998,-3.348613,-2.286804,3.543982
7.840000000000003,-3.408016,-2.458408,3.535632
7.850000000000008,-3.439158,-2.683809,3.49962
7.859999999999999,-3.431118,-2.862099,3.478406
7.870000000000003,-3.454662,-3.05941,3.430861
7.88000000000001,-3.439582,-3.236688,3.361255
7.890000000000001,-3.382819,-3.385911,3.29072
7.900000000000006,-3.283986,-3.544851,3.239819
7.910000000000011,-3.135998,-3.666404,3.212907
7.920000000000002,-2.97686,-3.779696,3.20815
7.930000000000007,-2.837654,-3.870689,3.191502
7.940000000000012,-2.723881,-3.958212,3.182725
7.950000000000003,-2.655123,-4.035192,3.124176
7.960000000000008,-2.635378,-4.081901,3.050721
7.969999999999999,-2.625844,-4.131315,2.958902
7.980000000000004,-2.595605,-4.149992,2.875038
7.990000000000009,-2.585559,-4.160666,2.758082
8.0,-2.552582,-4.122602,2.667553
8.010000000000005,-2.454896,-4.085789,2.548647
8.02000000000001,-2.361828,-3.996677,2.443152
8.030000000000001,-2.262292,-3.895783,2.332403
8.040000000000006,-2.184721,-3.786023,2.205014
8.050000000000011,-2.162078,-3.679404,2.072258
8.060000000000002,-2.154173,-3.565675,1.904641
8.070000000000007,-2.16296,-3.464633,1.729379
8.079999999999998,-2.157021,-3.347227,1.530802
8.090000000000003,-2.139672,-3.2181,1.373643
8.100000000000009,-2.128124,-3.105229,1.20521
8.11,-2.107848,-2.980681,1.077236
8.120000000000005,-2.081196,-2.841563,0.917529
8.13000000000001,-2.065207,-2.7421,0.760871
8.14,-2.043063,-2.597518,0.598433
8.150000000000006,-2.009097,-2.452867,0.427022
8.16000000000001,-1.999773,-2.299326,0.244477
8.170000000000002,-1.96956,-2.156427,0.068505
8.180000000000007,-1.95371,-2.0074,-0.083821
8.190000000000012,-1.954277,-1.848589,-0.249975
8.200000000000003,-1.955035,-1.715965,-0.389063
8.210000000000008,-1.951966,-1.583344,-0.506234
8.219999999999999,-1.959516,-1.434647,-0.610545
8.230000000000004,-1.982738,-1.299539,-0.700598
8.240000000000009,-2.02952,-1.151819,-0.786262
8.25,-2.069527,-1.03734,-0.881347
8.260000000000005,-2.05811,-0.904552,-0.989227
8.27000000000001,-2.023697,-0.76906,-1.082188
8.280000000000001,-1.995329,-0.666183,-1.177469
8.290000000000006,-1.957775,-0.561427,-1.268944
8.300000000000011,-1.962569,-0.496604,-1.315775
8.310000000000002,-1.949959,-0.41347,-1.398673
8.320000000000007,-1.970376,-0.341349,-1.476664
8.329999999999998,-1.973545,-0.278078,-1.552699
8.340000000000003,-1.99274,-0.180715,-1.641331
8.350000000000009,-2.028887,-0.114103,-1.730559
8.36,-2.060775,-0.034116,-1.768448
8.370000000000005,-2.072674,0.038776,-1.811656
8.38000000000001,-2.077192,0.127119,-1.876455
8.39,-2.06534,0.201139,-1.919275
8.400000000000006,-2.053334,0.277842,-1.942867
8.41000000000001,-2.044326,0.34913,-1.993977
8.420000000000002,-2.015384,0.41245,-2.053147
8.430000000000007,-1.981775,0.477612,-2.099428
8.440000000000012,-1.927809,0.565451,-2.161626
8.450000000000003,-1.844741,0.637179,-2.214521
8.460000000000008,-1.778425,0.691631,-2.274267
8.469999999999999,-1.725675,0.751347,-2.323151
8.480000000000004,-1.660526,0.797732,-2.395736
8.490000000000009,-1.592351,0.854922,-2.453545
8.5,-1.526633,0.934633,-2.519314
8.510000000000005,-1.475535,1.016091,-2.58614
8.52000000000001,-1.443771,1.09923,-2.675122
8.530000000000001,-1.40546,1.196845,-2.773905
8.540000000000006,-1.373844,1.276413,-2.873908
8.550000000000011,-1.335537,1.368612,-2.960912
8.560000000000002,-1.28514,1.478961,-3.055728
8.570000000000007,-1.245951,1.562138,-3.122674
8.579999999999998,-1.205756,1.661508,-3.213207
8.590000000000003,-1.149288,1.73757,-3.276354
8.600000000000009,-1.13023,1.822442,-3.345294
8.61,-1.098486,1.900212,-3.416947
8.620000000000005,-1.063636,1.99603,-3.480951
8.63000000000001,-1.000556,2.092099,-3.566695
8.64,-0.88887,2.195858,-3.640511
8.650000000000006,-0.830261,2.300479,-3.720836
8.66000000000001,-0.753226,2.403415,-3.775244
8.670000000000002,-0.760927,2.511412,-3.799404
8.680000000000007,-0.755987,2.604988,-3.812802
8.690000000000012,-0.713208,2.681941,-3.864276
8.700000000000003,-0.736081,2.763996,-3.90726
8.710000000000008,-0.754839,2.861327,-3.928056
8.719999999999999,-0.713325,2.953307,-3.953046
8.730000000000004,-0.663085,3.023866,-3.979829
8.740000000000009,-0.614481,3.099855,-3.989998
8.75,-0.614397,3.161098,-3.969819
8.760000000000005,-0.581466,3.224248,-3.965055
8.77000000000001,-0.580798,3.283801,-3.984316
8.780000000000001,-0.619277,3.338617,-3.96839
8.790000000000006,-0.617591,3.393541,-3.968694
8.800000000000011,-0.642358,3.451136,-3.967277
8.810000000000002,-0.638164,3.48356,-3.958523
8.820000000000007,-0.631835,3.535847,-3.948667
8.829999999999998,-0.618,3.593703,-3.921165
8.840000000000003,-0.567697,3.652812,-3.905929
8.850000000000009,-0.521376,3.686566,-3.875554
8.86,-0.52623,3.728114,-3.856663
8.870000000000005,-0.546051,3.747838,-3.843824
8.88000000000001,-0.575335,3.814406,-3.852445
8.89,-0.593786,3.862925,-3.84658
8.900000000000006,-0.625213,3.906937,-3.851898
8.91000000000001,-0.620969,3.936839,-3.822106
8.920000000000002,-0.639493,3.974658,-3.796249
8.930000000000007,-0.634365,4.002651,-3.762945
8.940000000000012,-0.654982,4.019693,-3.72453
8.950000000000003,-0.640072,4.027188,-3.685746
8.960000000000008,-0.63105,4.010305,-3.654636
8.969999999999999,-0.590017,3.998965,-3.634003
8.980000000000004,-0.565678,3.964993,-3.591981
8.990000000000009,-0.521908,3.932957,-3.519544
9.0,-0.499613,3.886416,-3.478661
9.010000000000003,-0.440696,3.827536,-3.405445
9.02000000000001,-0.402855,3.775693,-3.361669
9.03,-0.315052,3.693557,-3.304762
9.040000000000006,-0.192313,3.617071,-3.238188
9.050000000000011,-0.063851,3.551363,-3.162299
9.060000000000002,0.107442,3.476865,-3.080491
9.070000000000007,0.23092,3.389488,-3.003164
9.079999999999998,0.351458,3.285848,-2.920602
9.090000000000003,0.45276,3.18114,-2.846491
9.100000000000009,0.524904,3.068091,-2.7418
9.11,0.633559,2.965261,-2.670291
9.120000000000005,0.730175,2.84254,-2.579068
9.13000000000001,0.824342,2.744988,-2.504059
9.14,0.910482,2.662662,-2.434474
9.150000000000006,0.968301,2.571124,-2.340686
9.16000000000001,1.029932,2.486868,-2.237585
9.170000000000002,1.100967,2.415285,-2.126001
9.180000000000009,1.202857,2.376215,-1.989915
9.190000000000012,1.321754,2.367821,-1.83681
9.200000000000005,1.455738,2.327973,-1.678358
9.210000000000008,1.582357,2.27905,-1.512799
9.22,1.691926,2.194807,-1.357039
9.230000000000004,1.774388,2.119307,-1.176011
9.240000000000007,1.823225,2.018502,-1.036816
9.25,1.851225,1.865184,-0.888474
9.260000000000003,1.905445,1.734556,-0.705718
9.27000000000001,1.908245,1.580161,-0.50112
9.28,1.921785,1.412384,-0.298355
9.290000000000006,1.916981,1.241766,-0.094045
9.300000000000011,1.895562,1.080072,0.073584
9.310000000000002,1.899418,0.900457,0.235864
9.320000000000007,1.923147,0.713786,0.377333
9.329999999999998,1.966438,0.50297,0.489545
9.340000000000003,1.991588,0.293831,0.61525
9.350000000000009,2.025599,0.066711,0.742672
9.36,2.030626,-0.153365,0.893536
9.370000000000005,2.034083,-0.360886,1.054564
9.38000000000001,2.034514,-0.541398,1.245132
9.39,2.040143,-0.74351,1.445585
9.400000000000006,2.05227,-0.871649,1.628782
9.41000000000001,2.053181,-1.008861,1.795305
9.420000000000002,2.100315,-1.102518,1.935543
9.430000000000009,2.134602,-1.195347,2.064642
9.440000000000012,2.173175,-1.235777,2.166096
9.450000000000005,2.202938,-1.260933,2.280383
9.460000000000008,2.23189,-1.264451,2.362925
9.47,2.272143,-1.242723,2.434939
9.480000000000004,2.361415,-1.199067,2.537134
9.490000000000007,2.446882,-1.131824,2.573837
9.5,2.527245,-1.046588,2.628072
9.510000000000003,2.585667,-0.941678,2.639292
9.52000000000001,2.637656,-0.82422,2.618562
9.53,2.640005,-0.70707,2.565183
9.540000000000006,2.589984,-0.601067,2.5055
9.550000000000011,2.462947,-0.495523,2.415542
9.560000000000002,2.334254,-0.395454,2.356555
9.570000000000007,2.139402,-0.309297,2.278278
9.579999999999998,1.939013,-0.22315,2.188955
9.590000000000003,1.760442,-0.132305,2.070746
9.600000000000009,1.572862,-0.045148,1.97888
9.61,1.37253,0.054559,1.868739
9.620000000000005,1.159892,0.130748,1.757236
9.63000000000001,0.894576,0.230958,1.652647
9.64,0.580004,0.29478,1.517709
9.650000000000006,0.212957,0.384326,1.406118
9.66000000000001,-0.155911,0.477498,1.283585
9.670000000000002,-0.57142,0.561383,1.175861
9.680000000000009,-0.939476,0.638384,1.068681
9.690000000000012,-1.328194,0.733284,0.973345
9.700000000000005,-1.663361,0.848337,0.900906
9.710000000000008,-1.95481,0.948356,0.836196
9.72,-2.18565,1.052323,0.803404
9.730000000000004,-2.419349,1.155359,0.765073
9.740000000000007,-2.688816,1.24539,0.749815
9.75,-2.951586,1.339031,0.771218
9.760000000000003,-3.257988,1.39304,0.793549
9.77000000000001,-3.54301,1.465159,0.821828
9.78,-3.830686,1.533538,0.862771
9.790000000000006,-4.059284,1.56603,0.920392
9.800000000000011,-4.258161,1.57345,0.963453
9.810000000000002,-4.4061,1.561471,1.01796
9.820000000000007,-4.570876,1.525111,1.077454
9.829999999999998,-4.727793,1.469018,1.132214
9.840000000000003,-4.857579,1.399635,1.176164
9.850000000000009,-5.021472,1.323838,1.196744
9.86,-5.147045,1.224818,1.252286
9.870000000000005,-5.261918,1.114137,1.287763
9.88000000000001,-5.344538,1.015269,1.327438
9.89,-5.397415,0.885842,1.37438
9.900000000000006,-5.431554,0.744892,1.380326
9.91000000000001,-5.450379,0.588753,1.389045
9.920000000000002,-5.434459,0.445616,1.374634
9.930000000000009,-5.406363,0.32362,1.355272
9.940000000000012,-5.343713,0.205198,1.304242
9.950000000000005,-5.288723,0.12079,1.256268
9.960000000000008,-5.239315,0.018382,1.228168
9.97,-5.132979,-0.078238,1.215551
9.980000000000004,-4.996803,-0.135067,1.195551
9.990000000000007,-4.854289,-0.202787,1.191911
10.0,-4.706301,-0.286731,1.225597
10.010000000000003,-4.572042,-0.358074,1.230938
10.02000000000001,-4.454461,-0.440348,1.231351
10.03,-4.365834,-0.501297,1.238917
10.040000000000006,-4.341535,-0.591314,1.255428
10.050000000000011,-4.305759,-0.663291,1.287945
10.060000000000002,-4.189329,-0.736477,1.339811
10.070000000000007,-4.039676,-0.787911,1.388587
10.079999999999998,-3.882047,-0.841237,1.415441
10.090000000000003,-3.748038,-0.890167,1.460323
10.100000000000009,-3.652901,-0.914077,1.517828
10.11,-3.581833,-0.958747,1.578479
10.120000000000005,-3.543443,-0.987326,1.632526
10.13000000000001,-3.503953,-1.015085,1.704835
10.14,-3.487206,-1.035867,1.775949
10.150000000000006,-3.506953,-1.051496,1.849361
10.16000000000001,-3.513139,-1.066972,1.902882
10.170000000000002,-3.534691,-1.073524,1.964561
10.180000000000009,-3.528278,-1.099702,2.017223
10.190000000000012,-3.53838,-1.126862,2.064195
10.200000000000005,-3.546712,-1.155768,2.105723
10.210000000000008,-3.571634,-1.195625,2.14773
10.22,-3.557155,-1.217214,2.159401
10.230000000000004,-3.544751,-1.244151,2.152852
10.240000000000007,-3.547922,-1.269337,2.139715
10.25,-3.571009,-1.279299,2.120049
10.260000000000003,-3.599813,-1.30554,2.102829
10.27000000000001,-3.612734,-1.305552,2.077005
10.28,-3.648999,-1.320061,2.016014
10.290000000000006,-3.663178,-1.327242,1.959975
10.300000000000011,-3.671957,-1.341529,1.907622
10.310000000000002,-3.690604,-1.339628,1.847116
10.320000000000007,-3.690552,-1.312375,1.794518
10.329999999999998,-3.695627,-1.318524,1.737723
10.340000000000003,-3.676576,-1.302899,1.679682
10.350000000000009,-3.662189,-1.282823,1.591371
10.36,-3.594587,-1.247956,1.494851
10.370000000000005,-3.50317,-1.211101,1.403309
10.38000000000001,-3.358725,-1.173806,1.314317
10.39,-3.198092,-1.152723,1.225301
10.400000000000006,-3.007827,-1.114331,1.14775
10.41000000000001,-2.788526,-1.093769,1.07953
10.420000000000002,-2.536746,-1.096456,1.000528
10.430000000000009,-2.322887,-1.067009,0.912384
10.440000000000012,-2.052333,-1.03805,0.821263
10.450000000000005,-1.772087,-0.98195,0.75074
10.460000000000008,-1.445363,-0.918341,0.649882
10.47,-1.129281,-0.852137,0.592744
10.480000000000004,-0.861149,-0.755703,0.540814
10.490000000000007,-0.618535,-0.664006,0.508577
10.5,-0.39196,-0.543494,0.472814
10.510000000000003,-0.15801,-0.430165,0.470909
10.52000000000001,0.072294,-0.316954,0.472563
10.53,0.255406,-0.187867,0.486584
10.540000000000006,0.460465,-0.069571,0.520868
10.550000000000011,0.67534,0.03075,0.554104
10.560000000000002,0.89407,0.136468,0.602046
10.570000000000007,1.139545,0.260475,0.65061
10.579999999999998,1.380008,0.352963,0.713391
10.590000000000003,1.617014,0.450878,0.792646
10.600000000000009,1.838467,0.546902,0.871665
10.61,2.046923,0.630224,0.946693
10.620000000000005,2.206807,0.715921,1.002768
10.63000000000001,2.373494,0.778253,1.040422
10.64,2.502684,0.845745,1.068554
10.650000000000006,2.615888,0.889732,1.087058
10.66000000000001,2.737787,0.89774,1.119866
10.670000000000002,2.843475,0.921884,1.150831
10.680000000000009,2.9472,0.937004,1.17982
10.690000000000012,3.057172,0.946792,1.196055
10.700000000000005,3.16226,0.947617,1.189304
10.710000000000008,3.285364,0.928707,1.191718
10.72,3.411426,0.916973,1.211607
10.730000000000004,3.529781,0.892555,1.205626
10.740000000000007,3.614079,0.857058,1.193542
10.75,3.679769,0.797101,1.190046
10.760000000000003,3.71137,0.733483,1.158649
10.77000000000001,3.762734,0.649256,1.119982
10.78,3.792219,0.563038,1.093829
10.790000000000006,3.825446,0.489527,1.049655
10.800000000000011,3.86952,0.398016,1.024586
10.810000000000002,3.932003,0.302917,1.023476
10.820000000000007,3.997436,0.224018,1.01434
10.829999999999998,4.075331,0.11816,1.016899
10.840000000000003,4.143504,0.028446,1.034132
10.850000000000009,4.194512,-0.090105,1.016059
10.86,4.231548,-0.176389,1.021954
10.870000000000005,4.229253,-0.306193,0.997566
10.88000000000001,4.206126,-0.432549,0.991248
10.89,4.164664,-0.555393,0.965568
10.900000000000006,4.142447,-0.681764,0.948326
10.91000000000001,4.112926,-0.797328,0.903717
10.920000000000002,4.160382,-0.915927,0.889286
10.930000000000009,4.210094,-1.009319,0.88524
10.940000000000012,4.252127,-1.109971,0.847187
10.950000000000005,4.295218,-1.209697,0.830184
10.960000000000008,4.313013,-1.275255,0.784065
10.97,4.333203,-1.352462,0.717767
10.980000000000004,4.311451,-1.415467,0.634619
10.990000000000007,4.307623,-1.447774,0.555734
11.0,4.316252,-1.503484,0.476736
11.010000000000003,4.334416,-1.530253,0.3909
11.02000000000001,4.330577,-1.551693,0.285631
11.03,4.327972,-1.564193,0.202369
11.040000000000006,4.312643,-1.569606,0.112618
11.050000000000011,4.309155,-1.569518,0.005735
11.060000000000002,4.274457,-1.571348,-0.11069
11.070000000000007,4.250119,-1.564141,-0.202176
11.079999999999998,4.226082,-1.585778,-0.31227
11.090000000000003,4.192754,-1.607431,-0.442582
11.100000000000009,4.116382,-1.644726,-0.553587
11.11,4.034217,-1.692812,-0.688563
11.120000000000005,3.97404,-1.747115,-0.805048
11.13000000000001,3.882642,-1.808848,-0.922025
11.14,3.791322,-1.86694,-1.035287
11.150000000000006,3.698048,-1.943136,-1.128706
11.16000000000001,3.586361,-2.033924,-1.207933
11.170000000000002,3.482347,-2.108439,-1.272252
11.180000000000009,3.365266,-2.201005,-1.334218
11.190000000000012,3.259657,-2.273663,-1.37021
11.200000000000005,3.17405,-2.346183,-1.423284
11.210000000000008,3.081562,-2.408,-1.439782
11.22,2.985549,-2.4626,-1.452585
11.230000000000004,2.884179,-2.517276,-1.445366
11.240000000000007,2.769881,-2.53428,-1.410477
11.25,2.668503,-2.545788,-1.373533
11.260000000000003,2.581134,-2.544616,-1.326233
11.27000000000001,2.509452,-2.525301,-1.297698
11.28,2.421868,-2.476389,-1.253478
11.290000000000006,2.359307,-2.412935,-1.19595
11.300000000000011,2.329858,-2.341151,-1.128736
11.310000000000002,2.34055,-2.264606,-1.081942
11.320000000000007,2.355323,-2.171831,-1.01024
11.329999999999998,2.383441,-2.04561,-0.93617
11.340000000000003,2.354857,-1.919759,-0.86198
11.350000000000009,2.308495,-1.763425,-0.78586
11.36,2.25292,-1.599893,-0.736266
11.370000000000005,2.177456,-1.411252,-0.710364
11.38000000000001,2.131106,-1.238692,-0.66504
11.39,2.102994,-1.058746,-0.637639
11.400000000000006,2.062022,-0.896933,-0.579578
11.41000000000001,2.039278,-0.729585,-0.543161
11.420000000000002,2.010447,-0.553282,-0.482982
11.430000000000009,1.964525,-0.397708,-0.467125
11.440000000000012,1.901448,-0.233256,-0.44044
11.450000000000005,1.794278,-0.079038,-0.416261
11.460000000000008,1.657814,0.065928,-0.374295
11.47,1.506488,0.199158,-0.336298
11.480000000000004,1.335108,0.333082,-0.296756
11.490000000000007,1.153523,0.450691,-0.243867
11.5,0.962659,0.560127,-0.194865
11.510000000000003,0.751262,0.636064,-0.130987
11.52000000000001,0.518782,0.713676,-0.076492
11.53,0.291249,0.79307,0.027438
11.540000000000006,0.060899,0.868934,0.126722
11.550000000000011,-0.162256,0.928586,0.239569
11.560000000000002,-0.36868,0.994605,0.375533
11.570000000000007,-0.564032,1.06607,0.51446
11.579999999999998,-0.753355,1.12411,0.635065
11.590000000000003,-0.938991,1.184018,0.757592
11.600000000000009,-1.112734,1.230466,0.909349
11.61,-1.321156,1.287493,1.046124
11.620000000000005,-1.481494,1.318617,1.185943
11.63000000000001,-1.678664,1.338713,1.314144
11.64,-1.86012,1.375101,1.430866
11.650000000000006,-2.064242,1.371659,1.5331
11.66000000000001,-2.230775,1.366603,1.654067
11.670000000000002,-2.409406,1.365208,1.739326
11.680000000000009,-2.597317,1.343953,1.847988
11.690000000000012,-2.751587,1.304901,1.967857
11.700000000000005,-2.912046,1.288319,2.067811
11.710000000000008,-3.093875,1.244481,2.179941
11.72,-3.281263,1.188806,2.308285
11.730000000000004,-3.467487,1.152951,2.42957
11.740000000000007,-3.650899,1.062226,2.553889
11.75,-3.883576,0.992862,2.654942
11.760000000000003,-4.050449,0.915869,2.751362
11.77000000000001,-4.219363,0.828157,2.843998
11.78,-4.386417,0.750431,2.923969
11.790000000000006,-4.560886,0.672658,2.990126
11.800000000000011,-4.70041,0.608544,3.054148
11.810000000000002,-4.800191,0.521222,3.101944
11.820000000000007,-4.897991,0.44288,3.153508
11.829999999999998,-4.979971,0.335825,3.177525
11.840000000000003,-5.052382,0.248659,3.219271
11.850000000000009,-5.140006,0.127233,3.25495
11.86,-5.211403,-0.003069,3.277944
11.870000000000005,-5.313594,-0.126357,3.322542
11.88000000000001,-5.407082,-0.26938,3.34504
11.89,-5.447108,-0.394108,3.384871
11.900000000000006,-5.440247,-0.541923,3.381214
11.91000000000001,-5.427819,-0.678856,3.36768
11.920000000000002,-5.399016,-0.812106,3.334328
11.930000000000009,-5.350319,-0.961418,3.303815
11.940000000000012,-5.312146,-1.098212,3.311693
11.950000000000005,-5.272259,-1.229565,3.303165
11.960000000000008,-5.315052,-1.361292,3.246064
11.97,-5.312973,-1.507328,3.208642
11.980000000000004,-5.261541,-1.643955,3.140907
11.990000000000007,-5.158366,-1.747718,3.074187
12.0,-5.0186,-1.841261,2.987944
12.010000000000003,-4.877775,-1.925733,2.904669
12.02000000000001,-4.745754,-1.985953,2.814228
12.03,-4.65014,-2.038331,2.734416
12.040000000000006,-4.525022,-2.067053,2.633226
12.050000000000011,-4.357576,-2.083833,2.545588
12.060000000000002,-4.195527,-2.088026,2.444481
12.070000000000007,-4.04781,-2.083307,2.36875
12.079999999999998,-3.872488,-2.065846,2.285326
12.090000000000003,-3.696774,-2.025023,2.209565
12.100000000000009,-3.584792,-1.968385,2.138547
12.11,-3.464547,-1.917081,2.083997
12.120000000000005,-3.355918,-1.855924,2.03949
12.13000000000001,-3.249786,-1.776627,1.991622
12.14,-3.110257,-1.674672,1.956299
12.150000000000006,-2.917852,-1.570466,1.90161
12.16000000000001,-2.689479,-1.45735,1.857593
12.170000000000002,-2.437513,-1.336664,1.799231
12.180000000000009,-2.315836,-1.220169,1.697123
12.190000000000012,-2.256217,-1.093238,1.574318
12.200000000000005,-2.146879,-0.971798,1.497763
12.210000000000008,-2.030037,-0.828495,1.418827
12.22,-1.896922,-0.699441,1.337108
12.230000000000004,-1.759822,-0.54883,1.25569
12.240000000000007,-1.613936,-0.416112,1.163287
12.25,-1.468902,-0.292611,1.084488
12.260000000000003,-1.277779,-0.141636,1.017505
12.27000000000001,-1.200083,-0.025195,0.910241
12.28,-1.13842,0.118102,0.785898
12.290000000000006,-1.02533,0.26773,0.669606
12.300000000000011,-0.906645,0.419186,0.570703
12.310000000000002,-0.792339,0.58409,0.470041
12.320000000000007,-0.663236,0.757166,0.380598
12.329999999999998,-0.619312,0.917151,0.29808
12.340000000000003,-0.562406,1.083517,0.223181
12.350000000000009,-0.479019,1.253633,0.132234
12.36,-0.397641,1.421965,0.022942
12.370000000000005,-0.30986,1.577706,-0.058104
12.38000000000001,-0.211413,1.731809,-0.177367
12.39,-0.123792,1.892906,-0.300333
12.400000000000006,0.004569,2.040868,-0.441238
12.41000000000001,0.090119,2.190398,-0.560766
12.420000000000002,0.139716,2.342473,-0.724553
12.430000000000009,0.242072,2.467666,-0.876983
12.440000000000012,0.337431,2.612602,-1.025642
12.450000000000005,0.444738,2.756746,-1.163204
12.460000000000008,0.520697,2.879095,-1.289541
12.47,0.635415,3.021552,-1.407791
12.480000000000004,0.766371,3.158737,-1.545067
12.490000000000007,0.911675,3.277057,-1.678729
12.5,1.077217,3.395439,-1.793839
12.510000000000003,1.233237,3.493919,-1.918469
12.52000000000001,1.376348,3.581448,-2.034258
12.53,1.519658,3.674344,-2.133546
12.540000000000006,1.656279,3.743723,-2.222242
12.550000000000011,1.781074,3.813031,-2.302876
12.560000000000002,1.91025,3.871578,-2.390879
12.570000000000007,2.063778,3.899755,-2.454211
12.579999999999998,2.180739,3.938393,-2.536245
12.590000000000003,2.308825,3.970738,-2.58529
12.600000000000009,2.44568,3.986847,-2.652689
12.61,2.547313,3.964831,-2.699995
12.620000000000005,2.618241,3.961603,-2.731025
12.63000000000001,2.637526,3.922927,-2.747628
12.64,2.673417,3.884341,-2.749381
12.650000000000006,2.699394,3.852845,-2.753923
12.66000000000001,2.759795,3.788294,-2.734643
12.670000000000002,2.843277,3.747407,-2.729357
12.680000000000009,2.91276,3.695717,-2.735325
12.690000000000012,3.015563,3.661375,-2.725111
12.700000000000005,3.095289,3.611445,-2.709932
12.710000000000008,3.138521,3.556766,-2.671557
12.72,3.152693,3.519093,-2.64251
12.730000000000004,3.147509,3.469553,-2.609287
12.740000000000007,3.129109,3.441481,-2.55772
12.75,3.110673,3.420484,-2.528904
12.760000000000003,3.120678,3.384321,-2.457881
12.77000000000001,3.119667,3.347225,-2.388819
12.78,3.135013,3.307616,-2.325076
12.790000000000006,3.131461,3.287755,-2.259525
12.800000000000011,3.107618,3.25155,-2.183473
12.810000000000002,3.091899,3.219087,-2.133733
12.820000000000007,3.117579,3.199465,-2.078699
12.829999999999998,3.134999,3.176115,-2.017452
12.840000000000003,3.151322,3.14376,-1.95727
12.850000000000009,3.143579,3.089566,-1.890405
12.86,3.135198,3.053442,-1.830594
12.870000000000005,3.117521,3.009172,-1.761819
12.88000000000001,3.046594,2.962916,-1.721196
12.89,2.998595,2.912267,-1.670211
12.900000000000006,2.958116,2.86714,-1.610018
12.91000000000001,2.92757,2.820081,-1.554276
12.920000000000002,2.846347,2.745576,-1.486731
12.930000000000009,2.754797,2.638456,-1.386846
12.940000000000012,2.683388,2.526135,-1.284911
12.950000000000005,2.622494,2.425664,-1.144293
12.960000000000008,2.583045,2.305568,-1.032858
12.97,2.551675,2.229725,-0.911698
12.980000000000004,2.527058,2.133267,-0.821776
12.990000000000007,2.487422,2.076266,-0.737089
13.0,2.443007,2.002029,-0.645367
13.010000000000003,2.401365,1.933286,-0.571758
13.02000000000001,2.388307,1.880069,-0.501233
13.03,2.439496,1.845363,-0.432401
13.040000000000006,2.485513,1.78271,-0.377656
13.050000000000011,2.495212,1.743332,-0.338628
13.060000000000002,2.537082,1.725782,-0.327262
13.070000000000007,2.575146,1.693672,-0.307004
13.079999999999998,2.584188,1.675712,-0.287891
13.090000000000003,2.606192,1.661396,-0.253036
13.100000000000009,2.611373,1.619896,-0.210502
13.11,2.636594,1.583053,-0.192296
13.120000000000005,2.651545,1.539032,-0.183432
13.13000000000001,2.669208,1.496016,-0.173607
13.14,2.683973,1.449338,-0.182169
13.150000000000006,2.672429,1.407874,-0.171831
13.16000000000001,2.617388,1.38411,-0.154536
13.170000000000002,2.538535,1.35645,-0.132169
13.180000000000009,2.48204,1.347007,-0.085531
13.190000000000012,2.381022,1.295794,-0.038147
13.200000000000005,2.318855,1.270083,0.01556
13.210000000000008,2.254237,1.210107,0.061511
13.22,2.158335,1.131907,0.113208
13.230000000000004,2.036114,1.075294,0.153869
13.240000000000007,1.911431,1.029477,0.208336
13.25,1.769288,0.966254,0.286093
13.260000000000003,1.628286,0.922893,0.349491
13.27000000000001,1.496796,0.880335,0.464215
13.28,1.361566,0.834165,0.576093
13.290000000000006,1.248784,0.765678,0.68343
13.300000000000011,1.108653,0.710605,0.771383
13.310000000000002,0.989358,0.636716,0.867591
13.320000000000007,0.849765,0.556339,0.952472
13.329999999999998,0.692337,0.498307,1.051986
13.340000000000003,0.523449,0.420446,1.127386
13.350000000000009,0.351202,0.358773,1.210266
13.36,0.187762,0.268285,1.307541
13.370000000000005,0.046572,0.205889,1.388094
13.38000000000001,-0.082002,0.129103,1.474104
13.39,-0.228752,0.050398,1.581774
13.400000000000006,-0.357266,-0.031836,1.689642
13.41000000000001,-0.522197,-0.114343,1.818032
13.420000000000002,-0.685236,-0.19141,1.94284
13.430000000000009,-0.861713,-0.300074,2.048851
13.440000000000012,-1.025022,-0.394291,2.172552
13.450000000000005,-1.188287,-0.473188,2.267174
13.460000000000008,-1.376858,-0.554149,2.406201
13.47,-1.57571,-0.634096,2.51495
13.480000000000004,-1.783556,-0.701462,2.616457
13.490000000000007,-1.981012,-0.74172,2.710184
13.5,-2.205904,-0.785858,2.81533
13.510000000000003,-2.41014,-0.856073,2.918586
13.52000000000001,-2.62598,-0.912028,3.024649
13.53,-2.793745,-0.992771,3.13831
13.540000000000006,-3.005086,-1.095355,3.216406
13.550000000000011,-3.176855,-1.197689,3.315172
13.560000000000002,-3.299052,-1.281639,3.400319
13.570000000000007,-3.34245,-1.361406,3.499321
13.579999999999998,-3.370995,-1.416595,3.602451
13.590000000000003,-3.433935,-1.489908,3.673848
13.600000000000009,-3.47503,-1.565933,3.730853
13.61,-3.538334,-1.649496,3.762752
13.620000000000005,-3.611087,-1.747471,3.766883
13.63000000000001,-3.604308,-1.86296,3.805698
13.64,-3.656366,-1.973538,3.819153
13.650000000000006,-3.740614,-2.108458,3.846436
13.66000000000001,-3.782983,-2.250311,3.850493
13.670000000000002,-3.762379,-2.401715,3.846129
13.680000000000009,-3.635207,-2.534352,3.869871
13.690000000000012,-3.485174,-2.650596,3.867621
13.700000000000005,-3.353528,-2.76882,3.859593
13.710000000000008,-3.207587,-2.890435,3.819649
13.72,-3.08321,-2.987976,3.788007
13.730000000000004,-2.998495,-3.111114,3.758265
13.740000000000007,-2.933779,-3.2209,3.711009
13.75,-2.851585,-3.341455,3.69767
13.760000000000003,-2.783721,-3.441331,3.682634
13.77000000000001,-2.706792,-3.545569,3.665863
13.78,-2.640886,-3.659724,3.665274
13.790000000000006,-2.56595,-3.769204,3.635604
13.800000000000011,-2.476201,-3.864179,3.59076
13.810000000000002,-2.382501,-3.946502,3.553416
13.820000000000007,-2.242943,-4.01587,3.510443
13.829999999999998,-2.121664,-4.069077,3.438227
13.840000000000003,-1.992001,-4.107819,3.359004
13.850000000000009,-1.882385,-4.139557,3.276853
13.86,-1.804603,-4.158896,3.187102
13.870000000000005,-1.748267,-4.149575,3.105618
13.88000000000001,-1.745214,-4.159473,3.034176
13.89,-1.737295,-4.142225,2.943031
13.900000000000006,-1.758029,-4.099022,2.879236
13.91000000000001,-1.761077,-4.025876,2.796881
13.920000000000002,-1.781602,-3.967198,2.734262
13.930000000000009,-1.801766,-3.889612,2.679204
13.940000000000012,-1.838902,-3.787822,2.62696
13.950000000000005,-1.896071,-3.684434,2.584503
13.960000000000008,-1.967441,-3.558632,2.551277
13.97,-1.981468,-3.435103,2.485879
13.980000000000004,-1.996622,-3.277372,2.445513
13.990000000000007,-1.998147,-3.129498,2.417072
14.0,-1.990762,-2.988785,2.371295
14.010000000000003,-2.011232,-2.868996,2.305713
14.02000000000001,-1.996907,-2.754484,2.25783
14.03,-2.018927,-2.621176,2.204216
14.040000000000006,-1.982189,-2.465731,2.139875
14.050000000000011,-1.982055,-2.306822,2.067816
14.060000000000002,-1.983659,-2.140699,1.993102
14.070000000000007,-2.014456,-1.958583,1.892603
14.079999999999998,-2.052263,-1.761246,1.799482
14.090000000000003,-2.080302,-1.578281,1.695352
14.100000000000009,-2.09892,-1.37819,1.584152
14.11,-2.105183,-1.149193,1.475308
14.120000000000005,-2.116731,-0.900303,1.35755
14.13000000000001,-2.081926,-0.611279,1.244645
14.14,-2.036064,-0.305961,1.110135
14.150000000000006,-1.973499,0.020976,0.961486
14.16000000000001,-1.884317,0.35065,0.820477
14.170000000000002,-1.820078,0.726963,0.668678
14.180000000000009,-1.736999,1.071798,0.5415
14.190000000000012,-1.704669,1.439725,0.428515
14.200000000000005,-1.677735,1.813118,0.317344
14.210000000000008,-1.655836,2.204648,0.226448
14.22,-1.601114,2.594594,0.121316
14.230000000000004,-1.511719,2.979278,0.019286
14.240000000000007,-1.42245,3.351264,-0.069193
14.25,-1.314793,3.735947,-0.167322
14.260000000000003,-1.234363,4.065347,-0.240924
14.27000000000001,-1.146747,4.38399,-0.307216
14.28,-1.087521,4.707007,-0.388442
14.290000000000006,-1.041691,4.996688,-0.480285
14.300000000000011,-0.987984,5.259259,-0.561427
14.310000000000002,-0.973652,5.526188,-0.657649
14.320000000000007,-0.904965,5.755593,-0.748106
14.329999999999998,-0.809812,5.983336,-0.844638
14.340000000000003,-0.682986,6.193233,-0.944674
14.350000000000009,-0.572969,6.38868,-1.057861
14.36,-0.449611,6.551816,-1.151099
14.370000000000005,-0.341493,6.684401,-1.263097
14.38000000000001,-0.227278,6.798954,-1.369791
14.39,-0.117199,6.889134,-1.498729
14.400000000000006,-0.006945,6.921265,-1.601998
14.41000000000001,0.116018,6.934536,-1.672352
14.420000000000002,0.221418,6.935194,-1.74579
14.430000000000009,0.330148,6.902452,-1.804121
14.440000000000012,0.487255,6.860991,-1.85644
14.450000000000005,0.653286,6.795175,-1.891671
14.460000000000008,0.845466,6.711658,-1.933981
14.47,1.061353,6.615849,-1.957749
14.480000000000004,1.29336,6.501387,-1.98419
14.490000000000007,1.554592,6.381816,-2.004744
14.5,1.810715,6.273948,-1.998783
14.510000000000003,2.070226,6.153448,-2.002146
14.52000000000001,2.278493,6.030668,-1.997128
14.53,2.446306,5.884053,-1.986462
14.540000000000006,2.643751,5.741148,-1.942483
14.550000000000011,2.838527,5.606273,-1.895742
14.560000000000002,2.992619,5.442374,-1.851728
14.570000000000007,3.15744,5.321891,-1.800668
14.579999999999998,3.294095,5.179642,-1.792262
14.590000000000003,3.324749,5.024889,-1.751595
14.600000000000009,3.302404,4.860703,-1.695338
14.61,3.323982,4.692412,-1.648539
14.620000000000005,3.373884,4.556694,-1.540677
14.63000000000001,3.426908,4.394832,-1.441356
14.64,3.479762,4.21866,-1.338544
14.650000000000006,3.444831,4.052661,-1.245047
14.66000000000001,3.45176,3.879825,-1.169331
14.670000000000002,3.568025,3.673548,-1.069484
14.680000000000009,3.577951,3.453989,-0.985979
14.690000000000012,3.531006,3.222977,-0.907154
14.700000000000005,3.538966,2.9906,-0.831187
14.710000000000008,3.510593,2.783357,-0.7755
14.72,3.447881,2.591078,-0.696398
14.730000000000004,3.323687,2.450592,-0.637614
14.740000000000007,3.233763,2.312838,-0.530735
14.75,3.182712,2.196871,-0.389291
14.760000000000003,3.203724,2.068891,-0.230581
14.77000000000001,3.254042,1.927578,-0.039659
14.78,3.306244,1.798915,0.127629
14.790000000000006,3.36188,1.656739,0.292938
14.800000000000011,3.38029,1.532411,0.44882
14.810000000000002,3.328742,1.408606,0.552626
14.820000000000007,3.18138,1.287676,0.662478
14.829999999999998,3.071896,1.185953,0.769451
14.840000000000003,2.97771,1.120329,0.897152
14.850000000000009,2.887833,1.048388,1.004709
14.86,2.78943,1.021438,1.100823
14.870000000000005,2.730234,0.984842,1.204666
14.88000000000001,2.685835,0.968257,1.289777
14.89,2.665984,0.960946,1.34434
14.900000000000006,2.624142,0.951656,1.40224
14.91000000000001,2.540202,0.945681,1.444027
14.920000000000002,2.437584,0.910631,1.486975
14.930000000000009,2.307587,0.880724,1.521378
14.940000000000012,2.138576,0.816297,1.54755
14.950000000000005,1.978881,0.76463,1.566726
14.960000000000008,1.818798,0.741784,1.599975
14.97,1.652932,0.700885,1.627444
14.980000000000004,1.50457,0.665517,1.661614
14.990000000000007,1.372771,0.639354,1.691556
15.0,1.254035,0.642238,1.697362
15.010000000000003,1.118847,0.640425,1.714759
15.02000000000001,1.009202,0.64505,1.713389
15.03,0.866867,0.653864,1.731719
15.040000000000006,0.725044,0.681538,1.777679
15.050000000000011,0.601492,0.698512,1.843854
15.060000000000002,0.48548,0.726353,1.917578
15.070000000000007,0.391655,0.765192,2.000864
15.079999999999998,0.343709,0.813392,2.090358
15.090000000000003,0.312137,0.864407,2.165496
15.100000000000009,0.251435,0.923234,2.242172
15.11,0.22014,0.97849,2.344759
15.120000000000005,0.170669,1.034448,2.458965
15.13000000000001,0.121244,1.082332,2.600463
15.14,0.015242,1.147057,2.722231
15.150000000000006,-0.066991,1.199283,2.871582
15.16000000000001,-0.198412,1.270961,3.008648
15.170000000000002,-0.308323,1.315678,3.145686
15.180000000000009,-0.438388,1.350341,3.297857
15.190000000000012,-0.56475,1.379712,3.469201
15.200000000000005,-0.698715,1.400091,3.622046
15.210000000000008,-0.863766,1.418448,3.773504
15.22,-1.023492,1.420559,3.931224
15.230000000000004,-1.215921,1.44139,4.085089
15.240000000000007,-1.392749,1.40285,4.246679
15.25,-1.582368,1.372382,4.388089
15.260000000000003,-1.755758,1.33854,4.508672
15.27000000000001,-1.90959,1.277817,4.610919
15.28,-2.05469,1.202741,4.686598
15.290000000000006,-2.209113,1.125808,4.742035
15.300000000000011,-2.338588,1.013011,4.783692
15.310000000000002,-2.417163,0.889733,4.803934
15.320000000000007,-2.506549,0.769902,4.836796
15.329999999999998,-2.572778,0.621439,4.840382
15.340000000000003,-2.633276,0.483878,4.854214
15.350000000000009,-2.693999,0.346381,4.834241
15.36,-2.729625,0.181151,4.808794
15.370000000000005,-2.715785,0.02891,4.770459
15.38000000000001,-2.692715,-0.107961,4.714159
15.39,-2.6725,-0.24476,4.644128
15.400000000000006,-2.660189,-0.356284,4.559682
15.41000000000001,-2.634189,-0.471291,4.476289
15.420000000000002,-2.577343,-0.52389,4.353855
15.430000000000009,-2.55171,-0.589339,4.243645
15.440000000000012,-2.55639,-0.61082,4.146366
15.450000000000005,-2.551174,-0.639384,4.040037
15.460000000000008,-2.497197,-0.60284,3.957969
15.47,-2.444499,-0.582529,3.853714
15.480000000000004,-2.360924,-0.515115,3.747737
15.490000000000007,-2.282463,-0.420649,3.64203
15.5,-2.211607,-0.292055,3.553043
15.510000000000003,-2.143074,-0.201434,3.474532
15.52000000000001,-2.07969,-0.089312,3.399885
15.53,-2.088027,-0.020981,3.365782
15.540000000000006,-2.111012,0.035578,3.349619
15.550000000000011,-2.145141,0.076805,3.342282
15.560000000000002,-2.176762,0.102843,3.337563
15.570000000000007,-2.2348,0.127811,3.345243
15.579999999999998,-2.272938,0.140334,3.347549
15.590000000000003,-2.334171,0.15003,3.322083
15.600000000000009,-2.392598,0.161483,3.301277
15.61,-2.440562,0.145126,3.273005
15.620000000000005,-2.484338,0.163048,3.248852
15.63000000000001,-2.504286,0.125279,3.227098
15.64,-2.540549,0.101818,3.196181
15.650000000000006,-2.578026,0.060342,3.164104
15.66000000000001,-2.622644,0.024227,3.142992
15.670000000000002,-2.645535,-0.015291,3.09837
15.680000000000009,-2.66326,-0.078175,3.058105
15.690000000000012,-2.629612,-0.129877,3.014112
15.700000000000005,-2.579851,-0.201269,2.969183
15.710000000000008,-2.447194,-0.228863,2.913092
15.72,-2.359104,-0.283703,2.830523
15.730000000000004,-2.239761,-0.340286,2.760134
15.740000000000007,-2.103955,-0.386077,2.67466
15.75,-1.98251,-0.430203,2.61262
15.760000000000003,-1.859169,-0.454418,2.528116
15.77000000000001,-1.746814,-0.480421,2.448915
15.78,-1.627355,-0.515389,2.356975
15.790000000000006,-1.553044,-0.518408,2.270135
15.800000000000011,-1.405122,-0.545212,2.169472
15.810000000000002,-1.328378,-0.551841,2.051653
15.820000000000007,-1.235736,-0.537498,1.93059
15.829999999999998,-1.166829,-0.506179,1.770145
15.840000000000003,-1.083201,-0.471102,1.617241
15.850000000000009,-0.999387,-0.41433,1.450951
15.86,-0.926892,-0.327106,1.300385
15.870000000000005,-0.852262,-0.214707,1.134578
15.88000000000001,-0.825784,-0.082813,0.969285
15.89,-0.757245,0.06208,0.780104
15.900000000000006,-0.737511,0.235523,0.610708
15.91000000000001,-0.684618,0.434486,0.421971
15.920000000000002,-0.626318,0.627134,0.235017
15.930000000000009,-0.560255,0.840499,0.064841
15.940000000000012,-0.520746,1.063588,-0.134831
15.950000000000005,-0.471847,1.295802,-0.321477
15.960000000000008,-0.423554,1.548863,-0.507811
15.97,-0.347881,1.80033,-0.699286
15.980000000000004,-0.25176,2.067161,-0.87934
15.990000000000007,-0.124665,2.334143,-1.077269
16.0,-0.014806,2.611796,-1.282607
16.010000000000005,0.136975,2.883423,-1.492953
16.02000000000001,0.246985,3.156503,-1.662732
16.03,0.325781,3.427638,-1.844817
16.040000000000006,0.416414,3.68624,-2.005844
16.05000000000001,0.513468,3.946643,-2.169503
16.060000000000002,0.586901,4.2105,-2.31884
16.070000000000007,0.695452,4.445786,-2.478988
16.08,0.796914,4.684623,-2.615527
16.090000000000003,0.903125,4.880158,-2.757966
16.10000000000001,0.980353,5.079004,-2.867895
16.11,1.06956,5.261645,-2.924828
16.120000000000005,1.190648,5.376026,-2.976618
16.13000000000001,1.35289,5.482554,-3.011489
16.14,1.531016,5.560454,-3.062922
16.150000000000006,1.723565,5.61946,-3.099778
16.16000000000001,1.890189,5.658514,-3.139059
16.17,2.04733,5.677782,-3.186012
16.180000000000007,2.215475,5.691603,-3.218301
16.190000000000012,2.350501,5.687962,-3.244864
16.200000000000003,2.501964,5.668166,-3.243963
16.210000000000008,2.66276,5.661911,-3.250963
16.22,2.876349,5.636124,-3.248341
16.230000000000004,3.122892,5.613315,-3.239756
16.24000000000001,3.349717,5.61474,-3.225677
16.25,3.556183,5.609834,-3.22838
16.260000000000005,3.73723,5.617463,-3.22759
16.27000000000001,3.866378,5.593997,-3.249796
16.28,3.921031,5.534855,-3.249636
16.290000000000006,3.92257,5.456135,-3.23028
16.30000000000001,3.960081,5.361458,-3.153136
16.310000000000002,3.986917,5.284114,-3.064982
16.320000000000007,3.994928,5.214005,-2.943178
16.33,4.04336,5.158672,-2.828851
16.340000000000003,4.123944,5.114413,-2.711216
16.35000000000001,4.207702,5.06301,-2.636563
16.36,4.243448,4.974914,-2.540214
16.370000000000005,4.243966,4.853756,-2.439292
16.38000000000001,4.2223,4.696413,-2.308881
16.39,4.202033,4.503309,-2.169657
16.400000000000006,4.242157,4.314337,-2.036005
16.41000000000001,4.292215,4.112975,-1.889686
16.42,4.373847,3.890253,-1.748647
16.430000000000007,4.454751,3.676311,-1.600159
16.440000000000012,4.456885,3.45808,-1.458329
16.450000000000003,4.441734,3.191991,-1.328274
16.460000000000008,4.436704,2.926041,-1.200747
16.47,4.420485,2.648429,-1.080851
16.480000000000004,4.408254,2.391558,-0.956129
16.49000000000001,4.383211,2.124525,-0.827966
16.5,4.37508,1.891036,-0.691943
16.510000000000005,4.318311,1.649018,-0.562178
16.52000000000001,4.220919,1.405083,-0.48409
16.53,4.161284,1.167733,-0.379846
16.540000000000006,4.13427,0.921642,-0.296297
16.55000000000001,4.104771,0.690809,-0.208964
16.560000000000002,4.080953,0.465297,-0.115116
16.570000000000007,4.064026,0.264958,-0.006271
16.58,3.995805,0.062521,0.092722
16.590000000000003,3.908902,-0.124,0.228179
16.60000000000001,3.800048,-0.296223,0.329707
16.61,3.723857,-0.450243,0.477583
16.620000000000005,3.62396,-0.589904,0.609836
16.63000000000001,3.496854,-0.722572,0.765526
16.64,3.324082,-0.848358,0.917014
16.650000000000006,3.155742,-0.983224,1.062942
16.66000000000001,2.993892,-1.11814,1.219935
16.67,2.861822,-1.206784,1.350429
16.680000000000007,2.752686,-1.291598,1.484972
16.690000000000012,2.637446,-1.352087,1.605123
16.700000000000003,2.528531,-1.362126,1.731416
16.710000000000008,2.363014,-1.36341,1.853458
16.72,2.166709,-1.333412,1.951721
16.730000000000004,1.91988,-1.274006,2.083482
16.74000000000001,1.661588,-1.193139,2.224481
16.75,1.376008,-1.109839,2.372473
16.760000000000005,1.123054,-0.98027,2.508635
16.77000000000001,0.839042,-0.83283,2.629943
16.78,0.491977,-0.736333,2.731526
16.790000000000006,0.161243,-0.600094,2.840229
16.80000000000001,-0.112751,-0.458045,2.947917
16.810000000000002,-0.425468,-0.334254,3.056671
16.820000000000007,-0.74662,-0.174385,3.18678
16.83,-1.054467,-0.034168,3.302245
16.840000000000003,-1.333214,0.079098,3.454314
16.85000000000001,-1.573485,0.201582,3.596013
16.86,-1.819821,0.282515,3.749012
16.870000000000005,-2.027713,0.370916,3.893475
16.88000000000001,-2.265079,0.441126,4.046491
16.89,-2.456119,0.49549,4.190809
16.900000000000006,-2.617241,0.490667,4.301025
16.91000000000001,-2.735185,0.495058,4.422867
16.92,-2.846451,0.46515,4.536139
16.930000000000007,-2.951026,0.411898,4.606263
16.940000000000012,-3.057538,0.348735,4.679864
16.950000000000003,-3.140728,0.27321,4.71981
16.960000000000008,-3.228945,0.17698,4.745751
16.97,-3.293869,0.068362,4.72985
16.980000000000004,-3.323179,-0.04274,4.711607
16.99000000000001,-3.3416,-0.151961,4.677048
17.0,-3.350795,-0.256676,4.642664
17.010000000000005,-3.367661,-0.390372,4.622416
17.02000000000001,-3.409827,-0.495357,4.582062
17.03,-3.43548,-0.602015,4.552907
17.040000000000006,-3.466518,-0.701496,4.517361
17.05000000000001,-3.470269,-0.809764,4.480213
17.060000000000002,-3.464404,-0.892656,4.455424
17.070000000000007,-3.457053,-0.99987,4.43494
17.08,-3.462425,-1.109005,4.426106
17.090000000000003,-3.483767,-1.206695,4.456406
17.10000000000001,-3.496042,-1.288062,4.438602
17.11,-3.495534,-1.380201,4.445524
17.120000000000005,-3.509674,-1.463438,4.432268
17.13000000000001,-3.502201,-1.514064,4.4261
17.14,-3.49306,-1.577211,4.42348
17.150000000000006,-3.459888,-1.62478,4.422279
17.16000000000001,-3.424637,-1.66512,4.439473
17.17,-3.393463,-1.667612,4.445182
17.180000000000007,-3.336584,-1.669936,4.469496
17.190000000000012,-3.303194,-1.657033,4.499215
17.200000000000003,-3.278961,-1.645152,4.526991
17.210000000000008,-3.260078,-1.62349,4.552939
17.22,-3.243446,-1.617168,4.554907
17.230000000000004,-3.223174,-1.605386,4.546058
17.24000000000001,-3.207101,-1.611497,4.500446
17.25,-3.207025,-1.596899,4.471316
17.260000000000005,-3.205519,-1.600218,4.429216
17.27000000000001,-3.189214,-1.585237,4.372952
17.28,-3.160164,-1.573782,4.316859
17.290000000000006,-3.1224,-1.534419,4.274912
17.30000000000001,-3.077592,-1.494943,4.188334
17.310000000000002,-3.023083,-1.433056,4.130389
17.320000000000007,-2.997766,-1.364254,4.067535
17.33,-2.999584,-1.32618,3.97841
17.340000000000003,-2.990998,-1.259091,3.876997
17.35000000000001,-2.951206,-1.177275,3.759716
17.36,-2.921707,-1.095517,3.614959
17.370000000000005,-2.899585,-1.00656,3.448297
17.38000000000001,-2.937415,-0.900054,3.301117
17.39,-2.986021,-0.773778,3.135794
17.400000000000006,-3.044851,-0.66387,2.982949
17.41000000000001,-3.093921,-0.530474,2.859782
17.42,-3.153064,-0.384394,2.705523
17.430000000000007,-3.142725,-0.20275,2.60007
17.440000000000012,-3.09608,-0.015426,2.445863
17.450000000000003,-3.053576,0.192562,2.311994
17.460000000000008,-3.021127,0.407614,2.159695
17.47,-3.004915,0.638659,2.005558
17.480000000000004,-3.018032,0.864044,1.854633
17.49000000000001,-3.01927,1.078613,1.720169
17.5,-3.022799,1.325734,1.57882
17.510000000000005,-3.028722,1.581029,1.472278
17.52000000000001,-3.021166,1.834674,1.33676
17.53,-3.011562,2.098108,1.206666
17.540000000000006,-2.978794,2.329083,1.06187
17.55000000000001,-2.972414,2.507624,0.919874
17.560000000000002,-3.010314,2.709347,0.803185
17.570000000000007,-3.057552,2.884011,0.716847
17.58,-3.056931,3.095329,0.584248
17.590000000000003,-3.043832,3.336955,0.481493
17.60000000000001,-3.020015,3.561399,0.37952
17.61,-2.979432,3.786772,0.312349
17.620000000000005,-2.920459,3.9717,0.222057
17.63000000000001,-2.84783,4.156878,0.130276
17.64,-2.787178,4.320378,0.074673
17.650000000000006,-2.745244,4.464848,-0.002434
17.66000000000001,-2.704289,4.596596,-0.059651
17.67,-2.654733,4.696821,-0.124484
17.680000000000007,-2.605973,4.792525,-0.162002
17.690000000000012,-2.521157,4.857023,-0.205823
17.700000000000003,-2.4287,4.923317,-0.213041
17.710000000000008,-2.330784,4.983309,-0.208389
17.72,-2.214304,5.061081,-0.206704
17.730000000000004,-2.083239,5.153146,-0.220373
17.74000000000001,-1.983114,5.250862,-0.239867
17.75,-1.894269,5.327271,-0.264434
17.760000000000005,-1.795231,5.366165,-0.305712
17.77000000000001,-1.684779,5.415994,-0.316557
17.78,-1.564135,5.41494,-0.324166
17.790000000000006,-1.402855,5.441284,-0.332708
17.80000000000001,-1.243594,5.46871,-0.366796
17.810000000000002,-1.023933,5.510843,-0.423613
17.820000000000007,-0.749081,5.579438,-0.486714
17.83,-0.49914,5.634151,-0.550373
17.840000000000003,-0.243069,5.67606,-0.626041
17.85000000000001,-0.025953,5.731239,-0.682033
17.86,0.118849,5.772511,-0.721786
17.870000000000005,0.313262,5.818769,-0.725993
17.88000000000001,0.456548,5.863883,-0.716131
17.89,0.619158,5.917268,-0.7114
17.900000000000006,0.796391,5.98327,-0.73563
17.91000000000001,0.982793,6.003299,-0.785978
17.92,1.13912,6.050355,-0.880167
17.930000000000007,1.318833,6.063308,-0.951594
17.940000000000012,1.503224,6.07629,-1.007439
17.950000000000003,1.652387,6.060975,-1.066865
17.960000000000008,1.830861,6.048663,-1.126731
17.97,2.06222,6.016929,-1.167847
17.980000000000004,2.362547,5.962458,-1.228402
17.99000000000001,2.640672,5.906794,-1.324003
18.0,2.920666,5.847682,-1.400352
18.010000000000005,3.136245,5.767533,-1.479515
18.02000000000001,3.269572,5.676852,-1.529677
18.03,3.373928,5.585021,-1.545557
18.040000000000006,3.412689,5.498167,-1.543996
18.05000000000001,3.415334,5.433509,-1.529944
18.06,3.378826,5.372069,-1.505488
18.070000000000007,3.323222,5.288898,-1.54918
18.08,3.210588,5.242283,-1.59231
18.090000000000003,3.121349,5.18339,-1.664551
18.10000000000001,3.024774,5.130946,-1.750504
18.11,2.930277,5.086569,-1.818043
18.120000000000005,2.788889,5.067804,-1.850197
18.13000000000001,2.628963,5.026492,-1.869196
18.14,2.483896,4.990665,-1.866894
18.15000000000001,2.334487,4.969201,-1.861692
18.16000000000001,2.199608,4.939702,-1.852755
18.17,2.054622,4.908266,-1.849477
18.180000000000007,1.920686,4.889539,-1.864197
18.19000000000001,1.769526,4.874333,-1.86998
18.200000000000003,1.627439,4.857457,-1.87932
18.210000000000008,1.530434,4.842625,-1.853319
18.22,1.406034,4.825824,-1.816674
18.230000000000004,1.247335,4.825034,-1.754724
18.24000000000001,1.112283,4.814517,-1.688951
18.25,0.977155,4.793152,-1.608678
18.260000000000005,0.841853,4.765367,-1.542214
18.27000000000001,0.684158,4.724698,-1.501868
18.28,0.493538,4.662901,-1.43027
18.290000000000006,0.335559,4.576203,-1.34934
18.30000000000001,0.152829,4.434443,-1.278552
18.31,-0.022559,4.330622,-1.163329
18.320000000000007,-0.180895,4.203464,-1.042637
18.33,-0.365275,4.047246,-0.915344
18.340000000000003,-0.520163,3.896573,-0.763877
18.35000000000001,-0.722295,3.698716,-0.595329
18.36,-0.952497,3.461048,-0.431285
18.370000000000005,-1.192659,3.228717,-0.26731
18.38000000000001,-1.435148,2.969361,-0.118275
18.39,-1.682195,2.708138,0.035246
18.40000000000001,-1.94264,2.461237,0.203399
18.41000000000001,-2.210681,2.210742,0.344919
18.42,-2.475366,1.938596,0.491683
18.430000000000007,-2.756339,1.686168,0.618374
18.44000000000001,-3.046645,1.419217,0.748435
18.450000000000003,-3.333419,1.166726,0.827552
18.460000000000008,-3.632746,0.917687,0.93121
18.47,-3.919238,0.679558,1.015029
18.480000000000004,-4.220072,0.462985,1.095266
18.49000000000001,-4.500634,0.264616,1.160475
18.5,-4.776768,0.067235,1.206579
18.510000000000005,-5.053335,-0.101282,1.25758
18.52000000000001,-5.312493,-0.259734,1.29249
18.53,-5.571504,-0.398323,1.303877
18.540000000000006,-5.824882,-0.538721,1.33995
18.55000000000001,-6.027631,-0.637272,1.335189
18.56,-6.204832,-0.739296,1.33165
18.570000000000007,-6.298433,-0.819141,1.331269
18.58,-6.348076,-0.889678,1.31875
18.590000000000003,-6.332778,-0.954396,1.294364
18.60000000000001,-6.284403,-1.011771,1.275975
18.61,-6.1734,-1.039858,1.257801
18.620000000000005,-6.067987,-1.067892,1.226787
18.63000000000001,-5.951013,-1.067114,1.213596
18.64,-5.838375,-1.111528,1.19793
18.65000000000001,-5.701716,-1.143188,1.188213
18.66000000000001,-5.561474,-1.158439,1.138609
18.67,-5.439304,-1.182857,1.139851
18.680000000000007,-5.318341,-1.20184,1.089102
18.69000000000001,-5.219586,-1.235458,1.033321
18.700000000000003,-5.126722,-1.242035,0.989667
18.710000000000008,-5.067324,-1.288435,0.954234
18.72,-5.048959,-1.321537,0.905633
18.730000000000004,-5.090468,-1.33252,0.873845
18.74000000000001,-5.155221,-1.36612,0.837817
18.75,-5.260254,-1.38823,0.770349
18.760000000000005,-5.372354,-1.400532,0.721207
18.77000000000001,-5.428261,-1.434988,0.652458
18.78,-5.5154,-1.47423,0.572264
18.790000000000006,-5.589682,-1.518907,0.50581
18.80000000000001,-5.663293,-1.566096,0.408245
18.81,-5.723979,-1.603153,0.305549
18.820000000000007,-5.773889,-1.648231,0.191947
18.83,-5.775144,-1.680439,0.07729
18.840000000000003,-5.731734,-1.710558,-0.059598
18.85000000000001,-5.668941,-1.735122,-0.180611
18.86,-5.518683,-1.769914,-0.323483
18.870000000000005,-5.355883,-1.822781,-0.464598
18.88000000000001,-5.18275,-1.857625,-0.607142
18.89,-4.978511,-1.904849,-0.720159
18.90000000000001,-4.811918,-1.965696,-0.824703
18.91000000000001,-4.621208,-2.021025,-0.901473
18.92,-4.428333,-2.061089,-0.96706
18.930000000000007,-4.213582,-2.097453,-1.043288
18.94000000000001,-3.993552,-2.162762,-1.079614
18.950000000000003,-3.727818,-2.211522,-1.153476
18.960000000000008,-3.447396,-2.262776,-1.207104
18.97,-3.136671,-2.353476,-1.290007
18.980000000000004,-2.854768,-2.429219,-1.347566
18.99000000000001,-2.585615,-2.488746,-1.427895
19.0,-2.372799,-2.545113,-1.465047
19.010000000000005,-2.187668,-2.61436,-1.512791
19.02000000000001,-1.99847,-2.661928,-1.552915
19.03,-1.820483,-2.728508,-1.580664
19.040000000000006,-1.651927,-2.766351,-1.584441
19.05000000000001,-1.481837,-2.820432,-1.591112
19.06,-1.33066,-2.861972,-1.585042
19.070000000000007,-1.175408,-2.876387,-1.580389
19.08,-1.03863,-2.904433,-1.574339
19.090000000000003,-0.91462,-2.932691,-1.571284
19.10000000000001,-0.773467,-2.927649,-1.549397
19.11,-0.635991,-2.925256,-1.514795
19.120000000000005,-0.525931,-2.894904,-1.52948
19.13000000000001,-0.453228,-2.85393,-1.549058
19.14,-0.355158,-2.82538,-1.57758
19.15000000000001,-0.244628,-2.758849,-1.610026
19.16000000000001,-0.117822,-2.700281,-1.648725
19.17,0.003617,-2.624749,-1.712924
19.180000000000007,0.120508,-2.538565,-1.801751
19.19000000000001,0.239073,-2.411719,-1.868116
19.200000000000003,0.321982,-2.285048,-1.929483
19.210000000000008,0.429691,-2.150981,-1.988634
19.22,0.506853,-2.027799,-2.072029
19.230000000000004,0.580916,-1.87581,-2.142307
19.24000000000001,0.653049,-1.733876,-2.210918
19.25,0.739587,-1.597338,-2.305011
19.260000000000005,0.85998,-1.458725,-2.400437
19.27000000000001,1.005953,-1.30539,-2.524556
19.28,1.123143,-1.174822,-2.652973
19.290000000000006,1.179905,-1.052855,-2.769519
19.30000000000001,1.139711,-0.946029,-2.860197
19.31,1.115831,-0.862454,-2.932674
19.320000000000007,1.097431,-0.787803,-2.990535
19.33,1.126397,-0.71547,-3.067858
19.340000000000003,1.183671,-0.641146,-3.150218
19.35000000000001,1.260936,-0.564873,-3.248702
19.36,1.33585,-0.524771,-3.340306
19.370000000000005,1.306942,-0.46455,-3.416616
19.38000000000001,1.281576,-0.420509,-3.480484
19.39,1.313229,-0.356393,-3.543317
19.40000000000001,1.28622,-0.314364,-3.576022
19.41000000000001,1.243051,-0.24082,-3.637787
19.42,1.175567,-0.198989,-3.705791
19.430000000000007,1.121147,-0.140928,-3.777101
19.44000000000001,1.07774,-0.089026,-3.824564
19.450000000000003,1.05939,-0.017966,-3.858643
19.460000000000008,1.043298,0.069224,-3.870586
19.47,1.014585,0.167081,-3.882561
19.480000000000004,1.000995,0.292044,-3.88215
19.49000000000001,0.98628,0.412559,-3.899163
19.5,0.972328,0.588109,-3.927362
19.510000000000005,0.960767,0.781657,-3.914226
19.52000000000001,0.928677,0.95251,-3.908985
19.53,0.906603,1.178358,-3.899302
19.540000000000006,0.865407,1.405009,-3.882517
19.55000000000001,0.849319,1.605835,-3.876637
19.56,0.827292,1.834524,-3.86683
19.570000000000007,0.795488,2.032582,-3.882179
19.58,0.772962,2.236093,-3.888212
19.590000000000003,0.737698,2.453933,-3.911587
19.60000000000001,0.707361,2.633993,-3.928012
19.61,0.704384,2.798923,-3.924146
19.620000000000005,0.713964,2.956751,-3.938482
19.63000000000001,0.72967,3.088414,-3.934797
19.64,0.743066,3.203912,-3.962377
19.65000000000001,0.751738,3.30408,-3.977397
19.66000000000001,0.736245,3.379867,-3.994821
19.67,0.738317,3.463938,-4.004598
19.680000000000007,0.746107,3.520117,-4.051213
19.69000000000001,0.793028,3.558452,-4.082916
19.700000000000003,0.848758,3.571615,-4.107461
19.710000000000008,0.925661,3.539942,-4.137678
19.72,1.008648,3.492131,-4.173492
19.730000000000004,1.064065,3.418772,-4.177162
19.74000000000001,1.074927,3.351364,-4.161292
19.75,1.048988,3.269388,-4.146099
19.760000000000005,1.03902,3.161455,-4.14194
19.77,0.993937,3.070333,-4.099654
19.780000000000012,0.940608,2.976475,-4.059339
19.790000000000006,0.908783,2.892552,-3.978458
19.8,0.869826,2.777972,-3.933677
19.810000000000016,0.849827,2.697662,-3.869076
19.820000000000007,0.8233,2.608298,-3.801914
19.83,0.782465,2.533247,-3.719236
19.840000000000018,0.70336,2.469735,-3.641493
19.85000000000001,0.622544,2.406191,-3.54918
19.86,0.560359,2.354406,-3.43823
19.87000000000002,0.477308,2.320477,-3.343784
19.88000000000001,0.383399,2.278299,-3.213042
19.89,0.279395,2.245124,-3.104248
19.89999999999999,0.173877,2.229959,-2.990678
19.91000000000001,0.026913,2.190166,-2.8652
19.92,-0.11028,2.177401,-2.713734
19.929999999999996,-0.259241,2.172592,-2.566899
19.94000000000001,-0.405322,2.155084,-2.373573
19.950000000000003,-0.574875,2.153675,-2.170332
19.959999999999997,-0.723152,2.166928,-1.960185
19.970000000000013,-0.91017,2.163658,-1.757195
19.980000000000004,-1.093084,2.180275,-1.541087
19.989999999999995,-1.283764,2.160731,-1.31182
20.00000000000001,-1.474216,2.157402,-1.086052
20.010000000000005,-1.690598,2.126894,-0.847246
20.02,-1.917914,2.103597,-0.617612
20.030000000000012,-2.157947,2.067595,-0.350836
20.040000000000006,-2.405835,2.017223,-0.129992
20.05,-2.626255,1.957967,0.112116
20.060000000000016,-2.824929,1.900631,0.318004
20.070000000000007,-3.019395,1.810863,0.543644
20.08,-3.186433,1.724839,0.763279
20.090000000000018,-3.374718,1.623339,0.98888
20.10000000000001,-3.59074,1.527191,1.161196
20.11,-3.810682,1.399402,1.365919
20.12000000000002,-4.019927,1.274495,1.525162
20.13000000000001,-4.242491,1.131525,1.649314
20.14,-4.437789,0.969753,1.78732
20.14999999999999,-4.590796,0.834359,1.898801
20.16000000000001,-4.72416,0.681077,1.984712
20.17,-4.857698,0.521534,2.064114
20.179999999999996,-4.97278,0.381971,2.126643
20.19000000000001,-5.075656,0.212875,2.160721
20.200000000000003,-5.111573,0.009939,2.172407
20.209999999999997,-5.090856,-0.184567,2.159328
20.220000000000013,-5.051921,-0.377163,2.130083
20.230000000000004,-4.958565,-0.585602,2.077617
20.239999999999995,-4.856288,-0.797585,2.003294
20.25000000000001,-4.740189,-0.9959,1.914706
20.260000000000005,-4.631406,-1.185133,1.809716
20.27,-4.550936,-1.369946,1.697979
20.280000000000012,-4.46059,-1.520524,1.61138
20.290000000000006,-4.374031,-1.691069,1.550074
20.3,-4.29246,-1.832911,1.498187
20.310000000000016,-4.188689,-1.962948,1.456809
20.320000000000007,-4.12275,-2.113876,1.412
20.33,-4.074244,-2.211658,1.371297
20.340000000000018,-4.049299,-2.296063,1.331375
20.35000000000001,-4.057005,-2.359851,1.28576
20.36,-4.09003,-2.409424,1.249082
20.37000000000002,-4.120739,-2.440241,1.238169
20.38000000000001,-4.134278,-2.476447,1.210034
20.39,-4.148698,-2.525345,1.212821
20.39999999999999,-4.139691,-2.590275,1.20479
20.41000000000001,-4.150425,-2.684101,1.185217
20.42,-4.179459,-2.768927,1.143579
20.429999999999996,-4.235695,-2.8413,1.107193
20.44000000000001,-4.286963,-2.938797,1.050442
20.450000000000003,-4.293761,-2.994581,0.98202
20.459999999999997,-4.269749,-3.069978,0.91748
20.470000000000013,-4.193809,-3.159468,0.858002
20.480000000000004,-4.095283,-3.201983,0.784735
20.489999999999995,-3.946898,-3.267632,0.699921
20.50000000000001,-3.799449,-3.325167,0.597796
20.510000000000005,-3.655666,-3.371858,0.472008
20.52,-3.478961,-3.466033,0.321477
20.530000000000012,-3.300498,-3.50795,0.171625
20.540000000000006,-3.026676,-3.538532,0.03507
20.55,-2.752277,-3.598037,-0.081743
20.560000000000016,-2.459687,-3.666418,-0.189291
20.570000000000007,-2.150407,-3.720184,-0.29825
20.58,-1.8237,-3.766654,-0.407774
20.590000000000018,-1.557889,-3.839705,-0.533047
20.60000000000001,-1.277964,-3.903623,-0.634236
20.61,-1.023273,-3.952439,-0.713645
20.62000000000002,-0.767239,-4.022832,-0.820787
20.63000000000001,-0.500639,-4.089675,-0.862877
20.64,-0.276072,-4.153161,-0.90364
20.64999999999999,-0.04135,-4.216684,-0.926886
20.66000000000001,0.151138,-4.282194,-0.965283
20.67,0.299779,-4.349835,-0.996997
20.679999999999996,0.400962,-4.411475,-1.032963
20.69000000000001,0.501132,-4.469468,-1.092668
20.700000000000003,0.556006,-4.50165,-1.150842
20.709999999999997,0.582841,-4.526799,-1.181892
20.720000000000013,0.631879,-4.537306,-1.206948
20.730000000000004,0.678148,-4.499174,-1.213192
20.739999999999995,0.71175,-4.457685,-1.208591
20.75000000000001,0.686628,-4.414864,-1.238533
20.760000000000005,0.637082,-4.336016,-1.310404
20.77,0.618718,-4.291038,-1.416977
20.780000000000012,0.623921,-4.209798,-1.513649
20.790000000000006,0.70114,-4.08474,-1.606048
20.8,0.781964,-3.977742,-1.659319
20.810000000000016,0.824719,-3.854096,-1.70929
20.820000000000007,0.816256,-3.729216,-1.76824
20.83,0.79429,-3.595399,-1.812697
20.840000000000018,0.753725,-3.477797,-1.859388
20.85000000000001,0.711426,-3.353769,-1.90504
20.86,0.630645,-3.237212,-1.945804
20.87000000000002,0.527928,-3.113518,-2.002346
20.88000000000001,0.456201,-2.988568,-2.076725
20.89,0.408491,-2.831005,-2.187785
20.89999999999999,0.363538,-2.699727,-2.238816
20.91000000000001,0.314889,-2.570339,-2.288103
20.92,0.293561,-2.451557,-2.329833
20.929999999999996,0.244736,-2.336498,-2.376549
20.94000000000001,0.105761,-2.191339,-2.444365
20.950000000000003,-0.027701,-2.035352,-2.52836
20.959999999999997,-0.12824,-1.882804,-2.602774
20.970000000000013,-0.216687,-1.71043,-2.690479
20.980000000000004,-0.28019,-1.534375,-2.748585
20.989999999999995,-0.359394,-1.374597,-2.791577
21.00000000000001,-0.435575,-1.203069,-2.82343
21.010000000000005,-0.50656,-1.0458,-2.868144
21.02,-0.555407,-0.869412,-2.926949
21.030000000000012,-0.613025,-0.722867,-2.993544
21.040000000000006,-0.655715,-0.574553,-3.025205
21.05,-0.670209,-0.436012,-3.060256
21.060000000000016,-0.668528,-0.31541,-3.098985
21.070000000000007,-0.655796,-0.191072,-3.132045
21.08,-0.615891,-0.079113,-3.170382
21.090000000000018,-0.56254,0.029462,-3.232271
21.10000000000001,-0.521998,0.145146,-3.311583
21.11,-0.44977,0.237491,-3.385387
21.12000000000002,-0.377023,0.354231,-3.439587
21.13000000000001,-0.345957,0.443667,-3.501952
21.14,-0.351128,0.548996,-3.550035
21.14999999999999,-0.402715,0.67023,-3.604029
21.16000000000001,-0.357659,0.773223,-3.660695
21.17,-0.290988,0.862206,-3.729809
21.179999999999996,-0.255486,0.941981,-3.788503
21.19000000000001,-0.242171,1.014408,-3.862211
21.200000000000003,-0.243205,1.091915,-3.90965
21.209999999999997,-0.237305,1.15146,-3.968238
21.220000000000013,-0.227825,1.211215,-4.03666
21.230000000000004,-0.234805,1.267295,-4.099869
21.239999999999995,-0.253402,1.332299,-4.146676
21.25000000000001,-0.252097,1.381095,-4.189779
21.260000000000005,-0.224076,1.443645,-4.23601
21.27,-0.207163,1.481799,-4.247941
21.280000000000012,-0.181098,1.528156,-4.276125
21.290000000000006,-0.151323,1.572682,-4.287855
21.3,-0.176776,1.600679,-4.310606
21.310000000000016,-0.238485,1.643755,-4.321777
21.320000000000007,-0.324306,1.672241,-4.350798
21.33,-0.396459,1.684545,-4.360677
21.340000000000018,-0.4332,1.729565,-4.353206
21.35000000000001,-0.462357,1.736795,-4.35155
21.36,-0.501879,1.778103,-4.333214
21.37000000000002,-0.59429,1.813591,-4.280974
21.38000000000001,-0.701614,1.84729,-4.261862
21.39,-0.821771,1.874675,-4.231992
21.39999999999999,-0.940088,1.908424,-4.216614
21.41000000000001,-1.049388,1.923194,-4.181253
21.42,-1.163954,1.950514,-4.145825
21.429999999999996,-1.23784,2.001462,-4.100449
21.44000000000001,-1.352042,2.04036,-4.041142
21.450000000000003,-1.470617,2.079158,-3.950842
21.459999999999997,-1.619099,2.126856,-3.83707
21.470000000000013,-1.77753,2.18178,-3.724257
21.480000000000004,-1.898474,2.226004,-3.589178
21.489999999999995,-1.982896,2.248713,-3.414602
21.50000000000001,-2.087154,2.285661,-3.232837
21.510000000000005,-2.198031,2.302723,-3.042269
21.52,-2.290634,2.303701,-2.82243
21.530000000000012,-2.375559,2.313672,-2.572254
21.540000000000006,-2.427641,2.323826,-2.332615
21.55,-2.465189,2.312356,-2.055588
21.560000000000016,-2.511932,2.289137,-1.759627
21.570000000000007,-2.597096,2.256646,-1.444207
21.58,-2.700816,2.205093,-1.128383
21.590000000000018,-2.77559,2.128485,-0.805168
21.60000000000001,-2.83572,2.051057,-0.480846
21.61,-2.913932,1.93387,-0.170034
21.62000000000002,-2.96115,1.812406,0.135643
21.63000000000001,-3.01633,1.643992,0.453425
21.64,-3.038013,1.472338,0.732376
21.64999999999999,-3.050884,1.282636,1.004779
21.66000000000001,-3.072333,1.081965,1.254068
21.67,-3.101737,0.847174,1.488329
21.679999999999996,-3.109259,0.607221,1.721931
21.69000000000001,-3.11924,0.338433,1.924978
21.700000000000003,-3.079697,0.096992,2.088799
21.709999999999997,-3.037081,-0.175044,2.239526
21.720000000000013,-2.952183,-0.424388,2.372733
21.730000000000004,-2.844057,-0.696863,2.480521
21.739999999999995,-2.726828,-0.968312,2.584836
21.75000000000001,-2.618645,-1.221733,2.661798
21.760000000000005,-2.467884,-1.447661,2.752502
21.77,-2.31881,-1.640628,2.783964
21.780000000000012,-2.174998,-1.821204,2.815519
21.790000000000006,-2.04919,-1.991967,2.869938
21.8,-1.925053,-2.155403,2.935455
21.810000000000016,-1.798486,-2.275509,2.991424
21.820000000000007,-1.638938,-2.383697,3.027803
21.83,-1.469834,-2.463061,3.05823
21.840000000000018,-1.323285,-2.523733,3.090377
21.85000000000001,-1.183297,-2.547553,3.1466
21.86,-1.062419,-2.554266,3.179032
21.87000000000002,-0.930269,-2.55095,3.231897
21.88000000000001,-0.817478,-2.492672,3.270619
21.89,-0.740791,-2.411207,3.324668
21.89999999999999,-0.643963,-2.329696,3.384408
21.91000000000001,-0.580806,-2.224929,3.415634
21.92,-0.48048,-2.094705,3.471413
21.929999999999996,-0.413881,-1.9503,3.511376
21.94000000000001,-0.340767,-1.798617,3.55513
21.950000000000003,-0.285993,-1.643433,3.586842
21.959999999999997,-0.232284,-1.495495,3.612986
21.970000000000013,-0.163933,-1.336587,3.617523
21.980000000000004,-0.107176,-1.2028,3.588741
21.989999999999995,-0.052903,-1.060024,3.576513
22.00000000000001,0.004889,-0.917287,3.545126
22.010000000000005,0.043438,-0.781899,3.528934
22.02,0.076184,-0.651967,3.480645
22.030000000000012,0.122575,-0.525514,3.430713
22.040000000000006,0.15245,-0.408201,3.39142
22.05,0.188239,-0.319666,3.34549
22.060000000000016,0.203818,-0.231208,3.285603
22.070000000000007,0.217527,-0.159017,3.252894
22.08,0.254531,-0.110032,3.206506
22.090000000000018,0.262571,-0.036018,3.147198
22.10000000000001,0.281935,-0.003423,3.096645
22.11,0.306627,0.029224,3.023327
22.12000000000002,0.340325,0.043884,2.97186
22.13000000000001,0.383118,0.062205,2.906871
22.14,0.373592,0.054005,2.871011
22.14999999999999,0.351184,0.040295,2.833035
22.16000000000001,0.353666,0.034841,2.803704
22.17,0.394054,-0.002749,2.77454
22.179999999999996,0.399428,-0.000901,2.753597
22.19000000000001,0.405264,-0.074661,2.708011
22.200000000000003,0.411938,-0.102458,2.680353
22.209999999999997,0.413159,-0.135706,2.668998
22.220000000000013,0.375376,-0.192605,2.625739
22.230000000000004,0.337552,-0.258535,2.596994
22.239999999999995,0.307068,-0.322549,2.564751
22.25000000000001,0.269308,-0.368508,2.500665
22.260000000000005,0.220386,-0.420832,2.422637
22.27,0.204282,-0.474738,2.336835
22.280000000000012,0.188323,-0.523261,2.262088
22.290000000000006,0.154465,-0.55749,2.212862
22.3,0.09448,-0.609897,2.131943
22.310000000000016,0.044221,-0.627124,2.051548
22.320000000000007,-0.025939,-0.676877,1.939456
22.33,-0.063962,-0.718252,1.827023
22.340000000000018,-0.101868,-0.75242,1.717448
22.35000000000001,-0.156872,-0.772385,1.617828
22.36,-0.180298,-0.808414,1.494678
22.37000000000002,-0.221907,-0.844586,1.384063
22.38000000000001,-0.257631,-0.855476,1.272012
22.39,-0.412039,-0.864459,1.16785
22.39999999999999,-0.676009,-0.852502,1.044889
22.41000000000001,-0.800894,-0.880352,0.904802
22.42,-0.74887,-0.923254,0.732118
22.429999999999996,-0.61749,-0.97637,0.556795
22.44000000000001,-0.498636,-1.023994,0.398788
22.450000000000003,-0.437182,-1.018899,0.285548
22.459999999999997,-0.390631,-1.028354,0.168232
22.470000000000013,-0.314408,-1.035089,0.104329
22.480000000000004,-0.208776,-1.031719,0.035457
22.489999999999995,-0.104509,-1.00492,-0.023138
22.50000000000001,0.053105,-0.962354,-0.064445
22.510000000000005,0.337337,-0.908251,-0.061217
22.52,0.516656,-0.799004,-0.041839
22.530000000000012,0.544608,-0.674602,0.006781
22.540000000000006,0.561106,-0.548391,-0.008879
22.55,0.593878,-0.432887,-0.029002
22.560000000000016,0.602903,-0.299556,-0.080299
22.570000000000007,0.576894,-0.187256,-0.12502
22.58,0.553277,-0.051537,-0.142925
22.590000000000018,0.521765,0.063547,-0.195874
22.60000000000001,0.500346,0.176956,-0.240455
22.61,0.513954,0.305064,-0.274296
22.62000000000002,0.516689,0.442113,-0.31183
22.63000000000001,0.522842,0.551186,-0.323184
22.64,0.516436,0.678206,-0.341826
22.64999999999999,0.526154,0.784678,-0.365992
22.66000000000001,0.546251,0.900242,-0.364329
22.67,0.569897,1.015776,-0.375397
22.679999999999996,0.583123,1.100574,-0.369599
22.69000000000001,0.583485,1.181694,-0.364022
22.700000000000003,0.561021,1.260896,-0.352376
22.709999999999997,0.544124,1.347315,-0.346052
22.720000000000013,0.520725,1.420156,-0.322611
22.730000000000004,0.507226,1.482267,-0.295508
22.739999999999995,0.475904,1.521789,-0.280786
22.75000000000001,0.46412,1.57763,-0.252815
22.760000000000005,0.446212,1.595568,-0.231775
22.77,0.417322,1.606199,-0.196363
22.780000000000012,0.402886,1.602475,-0.154545
22.790000000000006,0.380649,1.577162,-0.135002
22.8,0.345623,1.551785,-0.113792
22.810000000000016,0.318814,1.522838,-0.087019
22.820000000000007,0.275163,1.468514,-0.060788
22.83,0.21781,1.412296,-0.027476
22.840000000000018,0.21428,1.342912,0.014589
22.85000000000001,0.183511,1.291419,0.04464
22.86,0.179099,1.216637,0.100337
22.87000000000002,0.148859,1.138108,0.132819
22.88000000000001,0.116747,1.067749,0.142551
22.89,0.088289,0.986542,0.174124
22.89999999999999,0.04114,0.88356,0.196038
22.91000000000001,0.025555,0.815046,0.207818
22.92,0.007506,0.714066,0.199054
22.929999999999996,0.026546,0.638505,0.207514
22.94000000000001,0.016161,0.568232,0.182778
22.950000000000003,0.022295,0.49629,0.17471
22.959999999999997,0.012265,0.44046,0.175776
22.970000000000013,-0.010727,0.386418,0.151127
22.980000000000004,-0.005742,0.359581,0.144525
22.989999999999995,0.000677,0.314743,0.121269
23.00000000000001,-0.006247,0.278714,0.128079
23.010000000000005,-0.013392,0.237268,0.1129
23.02,-0.023406,0.175956,0.121179
23.030000000000012,-0.004075,0.127495,0.111718
23.040000000000006,0.005371,0.087979,0.1077
23.05,0.036783,0.055864,0.093121
23.060000000000016,0.054399,0.011884,0.094669
23.070000000000007,0.08469,-0.032013,0.078107
23.08,0.098267,-0.040009,0.074539
23.090000000000018,0.087719,-0.06436,0.057665
23.10000000000001,0.10488,-0.078644,0.059561
23.11,0.118537,-0.080321,0.057904
23.12000000000002,0.119133,-0.094697,0.046781
23.13000000000001,0.114672,-0.09475,0.061327
23.14,0.121113,-0.092916,0.061434
23.14999999999999,0.119369,-0.092959,0.070542
23.16000000000001,0.115845,-0.089414,0.079669
23.17,0.102086,-0.08772,0.068533
23.179999999999996,0.101097,-0.087741,0.057553
23.19000000000001,0.09413,-0.068011,0.06317
23.200000000000003,0.085815,-0.06809,0.050255
23.209999999999997,0.098622,-0.064415,0.042233
23.220000000000013,0.093259,-0.059067,0.04679
23.230000000000004,0.122526,-0.046218,0.021775
23.239999999999995,0.115551,-0.024674,0.023778
23.25000000000001,0.139193,-0.028159,0.014926
23.260000000000005,0.1394,-0.019202,0.025999
23.27,0.164121,-0.028103,0.050881
23.280000000000012,0.158009,-0.002892,0.039221
23.290000000000006,0.159298,0.017831,0.051364
23.3,0.147549,0.027663,0.054063
23.310000000000016,0.125062,0.052718,0.055879
23.320000000000007,0.114149,0.05259,0.066672
23.33,0.053325,0.082827,0.064379
23.340000000000018,0.012294,0.089803,0.067572
23.35000000000001,-0.024783,0.113006,0.076494
23.36,-0.063738,0.135285,0.079909
23.37000000000002,-0.098971,0.156648,0.09431
23.38000000000001,-0.120827,0.153765,0.113148
23.39,-0.138884,0.162647,0.125775
23.39999999999999,-0.144204,0.16712,0.139445
23.41000000000001,-0.142133,0.174343,0.158744
23.42,-0.129044,0.191582,0.161879
23.429999999999996,-0.113531,0.184468,0.172969
23.44000000000001,-0.090787,0.177394,0.171355
23.450000000000003,-0.047401,0.143417,0.175176
23.459999999999997,-0.014478,0.141795,0.180145
23.470000000000013,0.005449,0.130193,0.178424
23.480000000000004,0.034128,0.092517,0.177424
23.489999999999995,0.081491,0.078388,0.179684
23.50000000000001,0.10499,0.058701,0.181564
23.510000000000005,0.120229,0.043494,0.172454
23.52,0.15158,0.005879,0.165132
23.530000000000012,0.15795,0.0005,0.175219
23.540000000000006,0.147541,-0.023015,0.179367
23.55,0.131082,-0.02225,0.178228
23.560000000000016,0.123406,-0.041214,0.169667
23.570000000000007,0.099764,-0.042365,0.191248
23.58,0.081207,-0.06321,0.196217
23.590000000000018,0.050354,-0.050765,0.200515
23.60000000000001,0.044854,-0.054403,0.2068
23.61,0.035697,-0.058054,0.212126
23.62000000000002,0.023344,-0.032902,0.219582
23.63000000000001,0.026352,-0.019352,0.22709
23.64,0.005618,0.004843,0.216142
23.64999999999999,-0.008887,0.006484,0.230596
23.66000000000001,-0.028825,0.01351,0.241383
23.67,-0.028844,0.010769,0.245
23.679999999999996,-0.045402,-0.001068,0.255594
23.69000000000001,-0.049764,0.006111,0.268404
23.700000000000003,-0.056541,-0.015524,0.26258
23.709999999999997,-0.04719,-0.006445,0.270125
23.720000000000013,-0.05991,-0.008352,0.282718
23.730000000000004,-0.063575,-0.002037,0.266306
23.739999999999995,-0.054552,-0.013713,0.273591
23.75000000000001,-0.059701,0.008778,0.272882
23.760000000000005,-0.05871,0.009658,0.28296
23.77,-0.070805,-0.004859,0.286279
23.780000000000012,-0.075364,-0.005814,0.289856
23.790000000000006,-0.078182,-0.013971,0.295183
23.8,-0.089107,-0.016762,0.305949
23.810000000000016,-0.058274,-0.033677,0.30432
23.820000000000007,-0.060155,-0.039093,0.307885
23.83,-0.065626,-0.034612,0.300566
23.840000000000018,-0.060131,-0.031891,0.297023
23.85000000000001,-0.038502,-0.051517,0.295258
23.86,-0.051385,-0.051574,0.285924
23.87000000000002,-0.036647,-0.049732,0.297091
23.88000000000001,-0.032078,-0.053344,0.306234
23.89,-0.045817,-0.052526,0.302405
23.89999999999999,-0.049384,-0.041714,0.293351
23.91000000000001,-0.034728,-0.03898,0.291733
23.92,-0.031444,-0.053288,0.26788
23.929999999999996,-0.031527,-0.05504,0.262374
23.94000000000001,-0.022081,-0.033338,0.25727
23.950000000000003,-0.005786,-0.042184,0.251913
23.959999999999997,-0.007472,-0.024145,0.233819
23.970000000000013,0.019921,-0.023074,0.225063
23.980000000000004,0.008746,-0.02946,0.21022
23.989999999999995,0.022708,-0.008646,0.199702
24.00000000000001,0.030851,-0.014924,0.201568
24.010000000000005,0.045436,-0.013027,0.192655
24.02,0.040448,-0.021995,0.155046
24.030000000000012,0.051428,-0.025537,0.163375
24.040000000000006,0.066808,-0.025374,0.13984
24.05,0.059583,-0.016389,0.132552
24.060000000000016,0.061377,-0.014539,0.123471
24.070000000000007,0.062816,-0.019855,0.081413
24.08,0.048129,-0.021725,0.077551
24.090000000000018,0.039976,-0.009121,0.061157
24.10000000000001,0.044416,-0.015394,0.056576
24.11,0.028968,-0.003756,0.04464
24.12000000000002,0.039205,0.010739,0.037649
24.13000000000001,0.013282,-0.004723,0.026169
24.14,0.035421,0.008953,0.022977
24.14999999999999,0.022524,0.000781,0.027288
24.16000000000001,0.020777,0.008006,0.023702
24.17,0.020462,-3.8e-05,-0.001966
24.179999999999996,0.0151,0.001715,0.012608
24.19000000000001,0.029702,0.009045,-0.006289
24.200000000000003,0.022489,0.01259,0.000964
24.209999999999997,0.036775,-0.00805,-0.001831
24.220000000000013,0.022212,-0.008157,0.008027
24.230000000000004,0.042075,-0.016105,-0.00916
24.239999999999995,0.049255,-0.023276,-0.01281
24.25000000000001,0.064679,-0.030397,-0.013611
24.260000000000005,0.069101,-0.042094,-0.008213
24.27,0.070881,-0.035736,-0.027296
24.280000000000012,0.077018,-0.055519,-0.019226
24.290000000000006,0.066902,-0.059188,-0.017569
24.3,0.062963,-0.068203,-0.035993
24.310000000000016,0.062907,-0.072736,-0.034229
24.320000000000007,0.073498,-0.093422,-0.043492
24.33,0.062113,-0.107878,-0.07122
24.340000000000018,0.069343,-0.118694,-0.062136
24.35000000000001,0.091311,-0.120375,-0.056381
24.36,0.106524,-0.142823,-0.054622
24.37000000000002,0.125598,-0.150837,-0.054462
24.38000000000001,0.1329,-0.152599,-0.050723
24.39,0.128215,-0.152629,-0.065406
24.39999999999999,0.128827,-0.170672,-0.068361
24.41000000000001,0.124836,-0.188724,-0.076861
24.42,0.116689,-0.188816,-0.066019
24.429999999999996,0.11831,-0.196007,-0.080703
24.44000000000001,0.113659,-0.20235,-0.079011
24.450000000000003,0.101629,-0.205102,-0.093814
24.459999999999997,0.093168,-0.21777,-0.098646
24.470000000000013,0.082508,-0.203442,-0.086743
24.480000000000004,0.075284,-0.194474,-0.094043
24.489999999999995,0.064199,-0.192724,-0.113355
24.50000000000001,0.067134,-0.180087,-0.114074
24.510000000000005,0.068865,-0.185461,-0.115927
24.52,0.050061,-0.160343,-0.115872
24.530000000000012,0.055756,-0.145872,-0.119273
24.540000000000006,0.067118,-0.127803,-0.105208
24.55,0.063589,-0.111582,-0.122418
24.560000000000016,0.065819,-0.095388,-0.102106
24.570000000000007,0.071704,-0.070115,-0.101726
24.58,0.062862,-0.052151,-0.099804
24.590000000000018,0.070699,-0.021482,-0.093851
24.60000000000001,0.090945,-0.014145,-0.091661
24.61,0.094963,0.011117,-0.094955
24.62000000000002,0.089588,0.014696,-0.085835
24.63000000000001,0.11005,0.034645,-0.07984
24.64,0.11025,0.042736,-0.06878
24.64999999999999,0.116118,0.06711,-0.067497
24.66000000000001,0.113614,0.072473,-0.044623
24.67,0.110934,0.077856,-0.047335
24.679999999999996,0.116475,0.077869,-0.039038
24.69000000000001,0.119086,0.066162,-0.031826
24.700000000000003,0.125893,0.086908,-0.020526
24.709999999999997,0.121948,0.067978,-0.019891
24.720000000000013,0.128152,0.057223,-0.024508
24.730000000000004,0.112474,0.049021,-0.024808
24.739999999999995,0.119853,0.053579,-0.024648
24.75000000000001,0.108845,0.050798,-0.022083
24.760000000000005,0.094118,0.038964,-0.00871
24.77,0.079232,0.031678,-0.027258
24.780000000000012,0.0775,0.031665,-0.012656
24.790000000000006,0.061864,0.027969,-0.017467
24.8,0.062587,0.019872,-0.027603
24.810000000000016,0.05136,-0.000931,-0.018859
24.820000000000007,0.049518,-0.001841,-0.018888
24.83,0.047375,-0.010818,-0.042766
24.840000000000018,0.040007,-0.023522,-0.022917
24.85000000000001,0.037991,-0.028913,-0.03579
24.86,0.032367,-0.034341,-0.042321
24.87000000000002,0.031275,-0.037915,-0.057901
24.88000000000001,0.020061,-0.056023,-0.052786
24.89,0.021098,-0.047017,-0.056316
24.89999999999999,0.03767,-0.043334,-0.048739
24.91000000000001,0.026168,-0.07312,-0.058373
24.92,0.044391,-0.079301,-0.054545
24.929999999999996,0.053286,-0.091844,-0.061882
24.94000000000001,0.059909,-0.083704,-0.048905
24.950000000000003,0.066268,-0.080952,-0.060667
24.959999999999997,0.0642,-0.102628,-0.047248
24.970000000000013,0.056855,-0.102667,-0.050997
24.980000000000004,0.062251,-0.102617,-0.06372
24.989999999999995,0.042135,-0.104555,-0.060355
25.00000000000001,0.042063,-0.112682,-0.054063
25.010000000000005,0.036511,-0.119952,-0.048749
25.02,0.040305,-0.117266,-0.0368
25.030000000000012,0.029501,-0.106537,-0.036824
25.040000000000006,0.02028,-0.119243,-0.020664
25.05,0.034297,-0.110188,0.001549
25.060000000000016,0.01895,-0.094062,-0.005769
25.070000000000007,0.013322,-0.103105,-0.005954
25.08,0.002276,-0.105871,-0.009789
25.090000000000018,0.004258,-0.095942,-0.009646
25.10000000000001,0.018931,-0.094035,-0.007595
25.11,0.000899,-0.083346,0.005084
25.12000000000002,-0.011746,-0.07984,0.019575
25.13000000000001,-0.006268,-0.07438,0.006918
25.14,-0.01635,-0.072636,-0.000509
25.14999999999999,-0.007749,-0.052784,0.008977
25.16000000000001,-0.014957,-0.049249,0.016226
25.17,-0.004847,-0.038358,0.000962
25.179999999999996,0.005401,-0.027485,0.003966
25.19000000000001,0.006199,-0.0374,0.009335
25.200000000000003,0.019117,-0.025579,0.000515
25.209999999999997,0.003668,-0.022083,0.005832
25.220000000000013,0.014535,-0.027417,0.002265
25.230000000000004,0.010882,-0.01839,-0.016858
25.239999999999995,0.017415,-0.012953,-0.010313
25.25000000000001,0.00076,-0.018442,-0.02521
25.260000000000005,0.020295,-0.005742,-0.006531
25.27,0.018472,-0.002134,-0.013809
25.280000000000012,0.038409,-0.009204,-0.022762
25.290000000000006,0.029238,-0.007449,-0.030166
25.3,0.021872,-0.0093,-0.033034
25.310000000000016,0.012847,-0.00758,-0.021265
25.320000000000007,0.010862,-0.018403,-0.020512
25.33,-0.005729,-0.026616,-0.021746
25.340000000000018,0.005346,-0.018427,-0.025152
25.35000000000001,0.010081,-0.009404,-0.021324
25.36,0.002923,-0.005872,-0.006754
25.37000000000002,0.011058,-0.014834,0.000563
25.38000000000001,0.000133,-0.009486,-0.004082
25.39,-0.002527,-0.011326,0.011395
25.39999999999999,-0.00068,-0.009507,0.01053
25.41000000000001,-0.008397,-0.038392,0.016475
25.42,-0.009256,-0.029352,0.004696
25.429999999999996,-0.016601,-0.034816,0.011836
25.44000000000001,-0.007159,-0.020363,0.022183
25.450000000000003,-0.008144,-0.027597,0.027561
25.459999999999997,-0.018056,-0.018654,0.029373
25.470000000000013,-0.012728,-0.028521,0.029327
25.480000000000004,0.007302,-0.031063,0.024094
25.489999999999995,-0.003675,-0.029311,0.020323
25.50000000000001,0.005508,-0.02926,0.025009
25.510000000000005,0.002907,-0.01936,0.022348
25.52,-0.00284,-0.034712,0.018428
25.530000000000012,-0.007423,-0.031117,0.009268
25.540000000000006,-0.01106,-0.036569,0.023763
25.55,-0.012722,-0.023962,0.019323
25.560000000000016,0.003489,-0.031037,0.000275
25.570000000000007,-0.01096,-0.022131,0.005676
25.58,-0.011099,-0.029339,0.001936
25.590000000000018,-0.008975,-0.012202,0.006737
25.60000000000001,-0.01464,-0.018515,-0.003461
25.61,-0.01545,-0.016731,0.007511
25.62000000000002,-0.010836,-0.016705,0.013054
25.63000000000001,-0.026282,-0.007779,0.007478
25.64,-0.012683,-0.018515,0.01301
25.64999999999999,-0.015353,-0.019458,0.023921
25.66000000000001,-0.011678,-0.016724,0.019437
25.67,0.003996,-0.014846,0.033373
25.679999999999996,-0.001435,-0.009467,0.029714
25.69000000000001,-0.00405,-0.004085,0.036138
25.700000000000003,0.001857,-0.031057,0.025839
25.709999999999997,-0.003585,-0.036522,0.043965
25.720000000000013,-0.014623,-0.043816,0.051036
25.730000000000004,-0.0073,-0.043768,0.052962
25.739999999999995,-0.013581,-0.02756,0.035723
25.75000000000001,-0.017318,-0.038406,0.049254
25.760000000000005,-0.020084,-0.032996,0.034667
