time,Gyr_X,Gyr_Y,Gyr_Z
0.0,-0.0070400904590825,0.0038154025449339,-0.0053944819638718
0.0099999999999909,-0.0089770469424855,0.0130037391381798,-0.00437613081776
0.0199999999999818,-0.0002025997250474,0.0185075334603064,0.0052171765348934
0.0300000000000011,0.0070480382698677,0.0172924164132904,0.0043752614125872
0.039999999999992,0.010286118643394,0.0194947416800578,0.0112642786320655
0.0499999999999829,0.0077122415533057,0.012684292322235,0.0117917508810885
0.0600000000000022,-0.0022016579201833,0.0186746103959474,0.0067127761890948
0.0699999999999931,-0.0118928134675697,0.0137272930442751,0.0086912306589551
0.079999999999984,-0.0187888807529937,0.00381278590535,0.0029343680420082
0.0900000000000034,-0.024275326313227,0.0059325074198693,0.0017424363913213
0.0999999999999943,-0.0285821440624989,0.0065431180727851,0.0034519754231131
0.1099999999999852,-0.0334675110712059,0.0145497865669701,-0.0070273484818608
0.1200000000000045,-0.0342305467551347,0.0138616182074483,-0.0089607345584538
0.1299999999999954,-0.0376741990523237,0.0102106497510045,-0.0068245658946652
0.1399999999999863,-0.0397856818561718,0.0057034234024491,-0.0058636527789398
0.1499999999999772,-0.0346946651042702,0.0027509691999149,-0.005894594830282
0.1599999999999966,-0.0368428027123806,-0.0002187087087639,-0.008113497438729
0.1699999999999875,-0.0400165259324495,0.001872719018976,-0.0055897034926044
0.1799999999999784,-0.0335924265325316,-0.0085097710272034,-0.0060756160962026
0.1899999999999977,-0.0340737098258931,0.0022435341976049,-0.0090801575041199
0.1999999999999886,-0.0236785495086291,0.0017477251397642,-0.0078487471280018
0.2099999999999795,-0.0214653766993454,-0.0038508226514074,-0.013537815236695
0.2199999999999988,-0.0172669439798185,0.0039359251703045,-0.0217524249741524
0.2299999999999897,-0.0189282464256714,-0.0067638487290438,-0.0166661061604463
0.2399999999999806,-0.0116806016209651,-0.0072284037753355,-0.0129154951068069
0.25,-0.0037517699256983,-0.0075640872492785,-0.0124267645342321
0.2599999999999909,0.0057028223424896,-0.0027405686486559,-0.0079054584735858
0.2699999999999818,0.0162161582335746,0.0005320552356437,-0.0072861674402371
0.2800000000000011,0.0300599700568949,-0.0019610534439425,-0.0064736020007565
0.289999999999992,0.0360488701639029,0.0019143106154694,-0.0054108308589893
0.2999999999999829,0.0281912032644088,-0.0014393268870781,-0.0146331547471522
0.3100000000000023,0.0175523304749179,-0.0068202431731454,-0.0139306888558245
0.3199999999999932,0.0082801808223392,-0.0049191433065774,-0.0220951443954787
0.3299999999999841,-0.0061665642064392,-0.0005566111402965,-0.027640216331539
0.3400000000000034,-0.016670167587571,-0.0008255809089192,-0.0303214752378303
0.3499999999999943,-0.0165654160632658,0.0005818145739505,-0.0364706929218271
0.3599999999999852,-0.0205054701859034,-0.0048692597070357,-0.0421129960144713
0.3700000000000045,-0.0198964618290432,-0.0012937638612408,-0.0370977039305332
0.3799999999999954,-0.0263224612322495,-0.000401023008823,-0.0452823461341821
0.3899999999999863,-0.0341313374884665,-0.0054607763822496,-0.0347726707850818
0.3999999999999772,-0.0350411627781824,-0.0104104545453075,-0.0287665316137826
0.4099999999999966,-0.0431674576472358,-0.0074257397623479,-0.0223573418545607
0.4199999999999875,-0.0338799887705367,-0.0089403821483193,-0.0182960909824233
0.4299999999999784,-0.029994573950887,-0.0017920433778133,-0.0143083033162156
0.4399999999999977,-0.0395539597379672,0.0019287410747951,-0.0150082070480764
0.4499999999999886,-0.0357778591644476,0.0053741447057268,-0.0155227930930197
0.4599999999999795,-0.0367521257476061,0.0013819348405898,-0.0061415494566213
0.4699999999999988,-0.042379047365298,0.0012610256953894,-0.0052677870196111
0.4799999999999897,-0.0387101779839394,-0.0038205750319581,0.0023255670067261
0.4899999999999807,-0.0365788338993001,-0.0086714952808674,0.0042005525599855
0.5,-0.0256244778871862,-0.0110114733839541,0.0057986926507745
0.5099999999999909,-0.0187251857587028,-0.0169096714267896,0.0086310035802685
0.5199999999999818,-0.0157233449850875,-0.0145357324036198,0.0002276618212403
0.5300000000000011,-0.0033422359957234,-0.0170878421279512,0.0013417117718921
0.539999999999992,0.0079068967806932,-0.0046725290107266,-0.0056830237910914
0.549999999999983,0.0204360774940645,-0.0041027950193134,-0.0013788990854749
0.5600000000000023,0.0311310740241773,0.0012162262584168,-0.0088801276500902
0.5699999999999932,0.0359919466598332,-0.0028821699563971,-0.0115189604925067
0.5799999999999841,0.0373375431845019,-0.0051779830560099,-0.0071320914789954
0.5900000000000034,0.0450695663754323,-0.0058671455510567,0.0013432297967024
0.5999999999999943,0.0491868843040778,-0.0106836610954423,0.0058041205242501
0.6099999999999852,0.0419895748918968,-0.0049473627593499,0.0096460720671988
0.6200000000000045,0.0503589726428262,-0.0019022416447263,0.006761906780383
0.6299999999999955,0.0545669326538369,-0.0065362020955551,0.0070148528349388
0.6399999999999864,0.0589457669327112,-0.0003645713095854,0.0062952761006742
0.6499999999999773,0.060137823925401,-0.0032295420545677,0.0136867903547207
0.6599999999999966,0.0646524196568671,0.0009103857669689,0.0115575419028525
0.6699999999999875,0.0716167023280402,0.0040812115615685,0.0116387409884382
0.6799999999999784,0.0875456392408535,0.0033015763442695,0.0137918466329704
0.6899999999999977,0.109180785196938,0.0014406711616951,0.0116580960737769
0.6999999999999886,0.1195249555097991,0.0031613274787058,0.0063658690641203
0.7099999999999795,0.1327526982451725,0.0063514208778659,0.0058563945231783
0.7199999999999989,0.1382542158751112,0.0052106019267049,0.0054833412637926
0.7299999999999898,0.1244062236281375,0.0060033545003882,0.0136561839665478
0.7399999999999807,0.1118037806271863,-0.0159286902027994,0.0235678086802993
0.75,0.0965313757481032,-0.0193034107649629,0.0305258321601569
0.7599999999999909,0.0854191747322376,-0.0304194915392574,0.0428827332474848
0.7699999999999818,0.0894034407613226,-0.041446176712137,0.0450973106864404
0.7800000000000011,0.0916479939297457,-0.0376939305216998,0.0588358366819431
0.789999999999992,0.1087377464521058,-0.0445946663709997,0.0639171007875479
0.799999999999983,0.1124818572417407,-0.0429384097893479,0.0620726389482956
0.8100000000000023,0.1133108051107789,-0.047020506967883,0.0711976224176606
0.8199999999999932,0.1247395689769665,-0.0318418749154184,0.0622736041673952
0.8299999999999841,0.1239590401412136,-0.0364355813702459,0.0617676676406938
0.8400000000000034,0.1129044333243042,-0.0301762035879166,0.0525855860774454
0.8499999999999943,0.1226415935860106,-0.0257086792828679,0.046996435042448
0.8599999999999852,0.1097966206573894,-0.0195497631208426,0.0428412726979464
0.8700000000000045,0.1023983400438946,-0.0118892115300518,0.0348924686803833
0.8799999999999955,0.0838964285668383,-0.0200112675222005,0.0342592241057978
0.8899999999999864,0.0653355498253359,-0.0132793220786953,0.0220113689214235
0.8999999999999773,0.0383557932480825,-0.0069647608436149,0.0203795302090743
0.9099999999999966,0.0112127325488568,0.0064115300058381,0.0198570342989613
0.9199999999999876,-0.0094525760231095,0.0101348723986891,0.0199880912537471
0.9299999999999784,-0.0254762400469108,0.009063194228618,0.0251996039628019
0.9399999999999976,-0.0534125259172682,0.0225044421527871,0.0283011262540937
0.9499999999999886,-0.0739100120413752,0.022236680561352,0.0403649643742549
0.9599999999999796,-0.0951604369371612,0.0194539463143586,0.0337324024632076
0.9699999999999988,-0.1298753334224193,0.0066192155610619,0.037895502786187
0.9799999999999898,-0.1471861407149415,-8.251929147764858e-05,0.0413845809595926
0.9899999999999808,-0.1643795563692162,-0.009688122199876,0.0505051152799876
1.0,-0.1754060981099579,-0.0132419090226586,0.0511201982133202
1.009999999999991,-0.186809384573759,-0.0347991708427609,0.0574160904180999
1.0199999999999818,-0.1928160570309232,-0.04224938316218,0.0636147307519182
1.0300000000000011,-0.2025562329313278,-0.0501884361385411,0.0611925388381282
1.039999999999992,-0.2050791209337534,-0.0611843255816015,0.0577529876788437
1.049999999999983,-0.2090386464002433,-0.0603921548479829,0.0568037392701964
1.0600000000000025,-0.2181492967949192,-0.0719461247950833,0.0550685114164658
1.0699999999999932,-0.2174361196600608,-0.0802372278486151,0.0493287934068052
1.079999999999984,-0.1989442750532415,-0.0721778935449451,0.0290580836183415
1.0900000000000034,-0.1802013262466857,-0.0771624668444285,0.0161428915726168
1.0999999999999943,-0.1486549222570536,-0.0889578510762526,0.0033379330567048
1.1099999999999852,-0.1158819965538279,-0.1037483011456172,-0.0042623072270826
1.1200000000000043,-0.095921224104866,-0.1063029542556405,-0.0019623471446752
1.1299999999999957,-0.0667748163672652,-0.0974450052568679,0.0106301150931843
1.1399999999999864,-0.0359610469028326,-0.0881668861296849,0.0258172718967009
1.1499999999999773,0.0046231049813449,-0.0795475660495971,0.0413363187137517
1.1599999999999966,0.0249267086025131,-0.0638101439124252,0.0606236526517935
1.1699999999999875,0.0483001626877018,-0.0422290524478986,0.0790287277003071
1.1799999999999784,0.0617704255587483,-0.0269780782496621,0.0888006831503445
1.1899999999999975,0.0642586630114204,-0.0156199069474755,0.1005588331062988
1.1999999999999886,0.0548481491888426,0.0039991640594278,0.1037909958991742
1.2099999999999795,0.0297193498011754,0.0034583808858029,0.0972629274369317
1.2199999999999989,-0.0057492097158393,0.0007218415471523,0.0857159693313261
1.2299999999999898,-0.0560131732337556,0.0027764769561506,0.0756355253430583
1.239999999999981,-0.1023804225168175,0.0091533105285914,0.0693872512549724
1.25,-0.142374970867164,0.0301396078077348,0.0509720389245652
1.259999999999991,-0.173639171615901,0.0440175342965111,0.036290387309901
1.2699999999999818,-0.1939494852819125,0.0609799794668933,0.0242016513604918
1.2800000000000011,-0.1976731077448936,0.0791205981176493,0.0120478273845711
1.289999999999992,-0.1999589424221648,0.0870844598562065,0.0026727220974788
1.299999999999983,-0.1883810941260306,0.1001241224969655,0.0080128414671593
1.3100000000000025,-0.1670866570408476,0.1070724378977718,0.0167611186520035
1.3199999999999932,-0.150547572688583,0.1255892144253084,0.0103973956337507
1.329999999999984,-0.1560577466923974,0.1382385799721965,0.0060806578838874
1.3400000000000034,-0.164804280497184,0.1202236411510231,0.0049404287748839
1.3499999999999943,-0.1656281867460309,0.1042881608376276,-0.0062982677170153
1.3599999999999852,-0.145346360802712,0.0762541339266105,-0.0103155987458582
1.3700000000000043,-0.1214258094401416,0.0564558182890516,-0.0235830693285962
1.3799999999999957,-0.0847471974249089,0.034500354410895,-0.0519346753738353
1.3899999999999864,-0.0490192369937352,0.0250449075437644,-0.0561319717663672
1.3999999999999773,-0.0050591332272106,0.023306800069003,-0.0733175461550817
1.4099999999999966,0.0316518103015967,0.00763205558754,-0.0879021141153642
1.4199999999999875,0.0539871697420641,0.0034725697119118,-0.0984681440563874
1.4299999999999784,0.0728114895901185,-0.0089673837361492,-0.1092478596276376
1.4399999999999975,0.0647355349718613,-0.01787727648376,-0.1238522883518444
1.4499999999999886,0.0566549427386649,-0.0361932238061934,-0.1280564765630454
1.4599999999999795,0.0436690846826958,-0.0493011177788927,-0.1335964189179836
1.4699999999999989,0.0315867287968779,-0.0600008533175785,-0.1359815209217465
1.4799999999999898,0.0507288870107623,-0.0863072235327102,-0.1453232602604258
1.489999999999981,0.0843318749403291,-0.0897879243581242,-0.1442370991017533
1.5,0.1385317529449589,-0.0813577559044715,-0.1349373948731569
1.509999999999991,0.1773378433218601,-0.0555227993852954,-0.1269896874511751
1.5199999999999818,0.2077101412473206,-0.0409068353750888,-0.1114431024053885
1.5300000000000011,0.2310680486884155,-0.0324778209460337,-0.0949445465775171
1.539999999999992,0.2351614332596716,-0.0203808198902018,-0.0840642338954381
1.549999999999983,0.2350790117737235,-0.0022423745182447,-0.0853717779860228
1.5600000000000025,0.2335669661026589,0.0151721626462105,-0.0835862397023685
1.5699999999999932,0.2062485918935781,0.0222611790012265,-0.0826296194354713
1.579999999999984,0.1896388820428564,0.021833116139509,-0.075447297183535
1.5900000000000034,0.1695608838876075,0.0176363957471355,-0.0743251114259984
1.5999999999999943,0.1546393574115931,0.0145625579869722,-0.0768569065835152
1.6099999999999852,0.1604437795639201,0.015496220176651,-0.0815085673840612
1.6200000000000043,0.1687451376070598,0.0080035075911086,-0.0882523043060227
1.6299999999999957,0.1891674940065471,-0.0019237759876582,-0.0901456625239999
1.6399999999999864,0.1971124710956645,0.0045249121477737,-0.098609131770842
1.6499999999999773,0.1894279334922708,0.0050536280787723,-0.1007932707001194
1.6599999999999966,0.1731373560038098,-0.0057424602381576,-0.0954618219233693
1.6699999999999875,0.1686230724618469,-0.0317796120007781,-0.0828611192221755
1.6799999999999784,0.1906411883171809,-0.051181352588721,-0.0925073176671949
1.6899999999999975,0.2215374014031007,-0.0486625989412122,-0.1086108775907085
1.6999999999999886,0.2379591862727431,-0.0621645325060192,-0.1102288867804677
1.7099999999999795,0.2334389891859896,-0.0772071188512105,-0.1130521830209289
1.7199999999999989,0.2084279623524344,-0.086171893788609,-0.1117454139345006
1.7299999999999898,0.1805676718771244,-0.0904590370672505,-0.1064981750780409
1.739999999999981,0.1596315335369341,-0.0972124905975899,-0.1275476079750519
1.75,0.1548124811827596,-0.0953119227469141,-0.1330881735662279
1.759999999999991,0.1485209618195538,-0.0950058732665549,-0.1440737054585018
1.7699999999999818,0.1501108021790989,-0.1035696579982028,-0.1565853941818808
1.7800000000000011,0.151838288485874,-0.1017684542390781,-0.1686755678672333
1.789999999999992,0.1328299235599139,-0.0982503210774873,-0.1838029627153067
1.799999999999983,0.133129219984602,-0.0933522421689377,-0.1893361535067287
1.8100000000000025,0.1226735575680987,-0.0927067519629585,-0.1890815472921535
1.8199999999999927,0.0983747684286849,-0.0931638860513982,-0.1851519717375697
1.829999999999984,0.094912012422147,-0.0772928305320154,-0.1874134128976665
1.8400000000000036,0.1085856947410921,-0.0543515063073798,-0.1921210244581372
1.8499999999999943,0.1082155404809285,-0.0349971583065515,-0.2027172813575978
1.8599999999999848,0.1158278650689496,-0.0268346986780797,-0.2065287050059407
1.8700000000000043,0.1138346704388027,-0.0245323143896827,-0.2113612488081903
1.8799999999999957,0.0957195720160858,-0.0100587134985154,-0.2163968136763265
1.8899999999999864,0.0706605300316421,0.0079803265264594,-0.2197910723382937
1.8999999999999773,0.0230858593022712,0.0196862327670333,-0.2282899754221568
1.9099999999999968,-0.0335022748961079,0.0272115694374983,-0.2342121818720393
1.9199999999999875,-0.0952793969640655,0.0436820972612645,-0.2372890042526322
1.9299999999999784,-0.1480942390640666,0.0488067397638064,-0.2469889215885974
1.9399999999999975,-0.1936268169828499,0.0535215706792021,-0.270204843837584
1.9499999999999889,-0.2345939303893748,0.0635026579852162,-0.2919863428934093
1.9599999999999795,-0.2647035164325794,0.0700361748487687,-0.3098577269310505
1.9699999999999989,-0.3055117084215684,0.0699678348916981,-0.3204577635564364
1.9799999999999895,-0.3543343060811215,0.0729674542153274,-0.3278456439036507
1.989999999999981,-0.3858363516529747,0.0657216610281893,-0.3321188699551373
2.0,-0.4176797024571997,0.050805850581564,-0.3388918302460433
2.009999999999991,-0.423942804372239,0.0306513504460588,-0.3580212576241478
2.019999999999982,-0.4273177738816587,0.0168399873393566,-0.3713692644835447
2.030000000000001,-0.4148698241602009,-0.0213298576996333,-0.3834560600856233
2.039999999999992,-0.3869741697927962,-0.0401353054114057,-0.3964409058436987
2.049999999999983,-0.3430101922780185,-0.0583362289788118,-0.409282269051006
2.0600000000000023,-0.2974259590032256,-0.0745531194436911,-0.4279655648368201
2.069999999999993,-0.2608292903292433,-0.0863952634437038,-0.4445302676904791
2.079999999999984,-0.2314907098194311,-0.1058508210271478,-0.4526563155498881
2.0900000000000034,-0.2149848894502181,-0.1062222023580667,-0.4532109563783657
2.0999999999999943,-0.1979918844531054,-0.1294128929953574,-0.4594791723620069
2.109999999999985,-0.1836699887268495,-0.1421544765510166,-0.4601912276346075
2.1200000000000045,-0.168477310790314,-0.1563175667995542,-0.4558729748141063
2.1299999999999955,-0.1466596196319674,-0.1621008855016903,-0.4636975289432473
2.1399999999999864,-0.1119841721392707,-0.1723853036270067,-0.4647232075597858
2.1499999999999773,-0.0830570938050092,-0.1827174630569173,-0.4588012770705462
2.1599999999999966,-0.0444203396450361,-0.203665289196938,-0.45112074218413
2.1699999999999875,-0.017309298731174,-0.2122136132206714,-0.4338191329518496
2.1799999999999784,0.0032409009805058,-0.2301066797060628,-0.4175712981028517
2.1899999999999977,0.0217420102580234,-0.2573478366379823,-0.4042306063459825
2.1999999999999886,0.0200794248121576,-0.276615059550467,-0.3904407824684142
2.2099999999999795,0.0075417589037738,-0.2837812545227957,-0.3808141034654756
2.219999999999999,-0.016453520134901,-0.2969497619176794,-0.3731509966272655
2.2299999999999898,-0.0599906560577212,-0.3115387355773129,-0.3682734104762301
2.2399999999999807,-0.1131247899335284,-0.3259024834186564,-0.3532045459225776
2.25,-0.1580981113014232,-0.3363001046653023,-0.336020280130093
2.259999999999991,-0.2102000769847667,-0.3289374878949287,-0.3249391989592766
2.269999999999982,-0.2450675186700924,-0.3318209903294341,-0.3199367210860547
2.280000000000001,-0.2705101999399411,-0.3321102503837558,-0.3189416461727986
2.289999999999992,-0.2832870329129113,-0.3190574067219567,-0.3136980906812521
2.299999999999983,-0.2873370705593233,-0.294905700010249,-0.3021077723400957
2.3100000000000023,-0.2912165109179441,-0.280155720138281,-0.280823891473085
2.319999999999993,-0.3117055784931307,-0.2570679385710835,-0.2548149447915681
2.329999999999984,-0.3400029370991685,-0.2272866770823933,-0.2258243278224497
2.3400000000000034,-0.3532895811555146,-0.207949283145695,-0.2036297374466763
2.3499999999999943,-0.3895863733151778,-0.1842968834042635,-0.1817089270155803
2.359999999999985,-0.4201874105017341,-0.1662106899831168,-0.1642614634819998
2.3700000000000045,-0.4500942532249238,-0.1489182779162124,-0.1531524378453031
2.3799999999999955,-0.4586055230081635,-0.1486675235150039,-0.1415431521193781
2.3899999999999864,-0.4784132455076506,-0.1430102886261424,-0.13169957182444
2.3999999999999773,-0.4783069779196906,-0.1525435223076947,-0.1192631501939375
2.4099999999999966,-0.4601671935286773,-0.1608647969013289,-0.1028437269581742
2.4199999999999875,-0.443070542958157,-0.1648297900930369,-0.0869923187257445
2.4299999999999784,-0.4106357723828503,-0.1777110398714945,-0.076071067147299
2.4399999999999977,-0.3703259960606319,-0.1828033872822446,-0.0646486273723119
2.4499999999999886,-0.3172143404714156,-0.177807455435907,-0.0685566702529922
2.4599999999999795,-0.2717237735726983,-0.1740124391433182,-0.0783775437354811
2.469999999999999,-0.2199987178249899,-0.164874705502613,-0.076734783119019
2.4799999999999898,-0.1861062888619702,-0.1656624278043388,-0.0699947602597134
2.4899999999999807,-0.1559566110612164,-0.1750707915088792,-0.0639435751506361
2.5,-0.1489409603108959,-0.1712996728132779,-0.0529930824310807
2.509999999999991,-0.1507122554981128,-0.1711364070322822,-0.0424045032720246
2.519999999999982,-0.1632852027436655,-0.1794015778831418,-0.0279389625193565
2.530000000000001,-0.1706348933539841,-0.1826800878316064,-0.0111022001356846
2.539999999999992,-0.1590745374208465,-0.1832148179451165,0.0022528701118814
2.549999999999983,-0.1502151611695063,-0.1737987401566842,0.0297399063047264
2.5600000000000023,-0.1439886886778708,-0.1658577874664274,0.0583975175961761
2.569999999999993,-0.1270937447662648,-0.1560422299256842,0.0835510579398161
2.579999999999984,-0.1171441162717227,-0.1532533765529788,0.1181407546483284
2.5900000000000034,-0.1112899271544541,-0.142720687086177,0.1463651153751932
2.5999999999999943,-0.1184631760630328,-0.1390395103388382,0.1678721911986262
2.609999999999985,-0.1251161114116559,-0.127411864321109,0.1889682155388037
2.6200000000000045,-0.1223683343040077,-0.114436872183335,0.1985616507976375
2.6299999999999955,-0.125244469946388,-0.1036677067298523,0.211695829948092
2.6399999999999864,-0.1337411242000542,-0.0899097713159225,0.2271021694186882
2.6499999999999773,-0.1395446645650931,-0.0881774993443568,0.2434307183408215
2.6599999999999966,-0.1551540477437259,-0.0915164006896683,0.2715909991717503
2.6699999999999875,-0.1746498972462725,-0.0929364285460123,0.3165737422217541
2.6799999999999784,-0.2154706206073609,-0.1036765580778901,0.3557344828519773
2.6899999999999977,-0.243179075719694,-0.1088184785438847,0.3980211544748011
2.6999999999999886,-0.2850774556723556,-0.125181739363252,0.4320465748208527
2.7099999999999795,-0.319194213583742,-0.1399344403176776,0.4684418198509243
2.719999999999999,-0.3531716343997113,-0.1520444912962587,0.5040651259780916
2.7299999999999898,-0.3758906258213053,-0.168778510291197,0.525038539744429
2.7399999999999807,-0.3708121967367733,-0.176244243231453,0.5504532643471799
2.75,-0.3466362458096795,-0.1823271081947388,0.5684665924985932
2.759999999999991,-0.304576380781088,-0.1747896632737809,0.5944723621532323
2.769999999999982,-0.2740706801865736,-0.1735289746558103,0.6081934095439651
2.780000000000001,-0.2446454817619791,-0.182095399315128,0.6229349894337111
2.789999999999992,-0.2077994589654593,-0.1811521723845933,0.6462029411337427
2.799999999999983,-0.1752412864614568,-0.1832173425530601,0.6651297003125677
2.8100000000000023,-0.1558278043691599,-0.1819408941320621,0.7000015032219231
2.819999999999993,-0.1348737277751531,-0.1809392486092534,0.7382666142956927
2.829999999999984,-0.1143235152060867,-0.1716605698658467,0.7885634842042304
2.8400000000000034,-0.094973031603064,-0.1398431859312995,0.8264048271588962
2.8499999999999943,-0.0799259090567759,-0.11091548326001,0.867718073058146
2.859999999999985,-0.0597247312922211,-0.0840284781112676,0.9180261721892432
2.8700000000000045,-0.0472450936068503,-0.0719088336308299,0.9673034052060706
2.8799999999999955,-0.0361643322211727,-0.0574465222392921,1.0241980064251963
2.8899999999999864,-0.0236057415588295,-0.0547181169130231,1.0733058589203353
2.8999999999999773,-0.0107643750172747,-0.0487806524459629,1.1173130878328448
2.9099999999999966,0.0039510492106994,-0.0486547792387871,1.1387900491659035
2.9199999999999875,0.0168604269274147,-0.0515083752681928,1.1559456819663805
2.9299999999999784,0.0240420312941434,-0.0482107528240992,1.1661158583112836
2.9399999999999977,0.0134015073274435,-0.0499408501495442,1.1859666491650218
2.9499999999999886,0.0021640078235196,-0.0488156730391819,1.2094176289628773
2.9599999999999795,-0.0151100033950245,-0.0489007005028331,1.2337066018683431
2.969999999999999,-0.0236819080160329,-0.0438093743721711,1.2680270366287418
2.9799999999999898,-0.0105856440184405,-0.0362980696827146,1.2975422559215344
2.9899999999999807,-0.0011590894968671,-0.0291144271365146,1.3192937278067616
3.0,0.0018047420513914,-0.0350211003650091,1.3228476917528793
3.009999999999991,0.0013887676751001,-0.023721044374471,1.3088128169915956
3.019999999999982,-0.0037469368568203,-0.0149920380114439,1.3199681637953855
3.030000000000001,-0.0091020405268597,-0.0120549911585981,1.3313545630452923
3.039999999999992,-0.0036125464515015,0.0043737892981727,1.341261809736216
3.049999999999983,0.0151997363682658,0.0203880478435449,1.3574548535488755
3.0600000000000023,0.0367122168324714,0.0519003477282145,1.3725695693786717
3.069999999999993,0.0379662714499007,0.0752132063744591,1.3829899806322643
3.079999999999984,0.017717041602473,0.0848975367761264,1.3824079838975676
3.0900000000000034,-0.0091755342466242,0.1023163012351762,1.385568226687384
3.0999999999999943,-0.0497701468776106,0.1204298101729123,1.3753415099442667
3.109999999999985,-0.0852593298559073,0.1459208216257586,1.3541186843038149
3.1200000000000045,-0.1273576179572003,0.160560117286788,1.3410799477332545
3.1299999999999955,-0.1739669766481823,0.1581843441702292,1.3275761313749723
3.1399999999999864,-0.1990773798058931,0.1533242446182829,1.307436038298672
3.1499999999999773,-0.2246979908562376,0.1460747630906474,1.290124727909625
3.1599999999999966,-0.2531297907978583,0.134628957903736,1.2735908352678091
3.1699999999999875,-0.2971585273763564,0.1428346012968358,1.2632536020945904
3.1799999999999784,-0.3664836557018511,0.1584514962698851,1.270168267773758
3.1899999999999977,-0.4547490883653167,0.1733023491706859,1.292080404240691
3.1999999999999886,-0.5489535493018742,0.1784430508014455,1.3174921535483233
3.2099999999999795,-0.6137658223686375,0.1904254365567317,1.3467050730436407
3.219999999999999,-0.6482245283027547,0.1908705755821418,1.3737107383876803
3.2299999999999898,-0.6341854835853805,0.1685341295627775,1.3906592538411475
3.2399999999999807,-0.5977735074902691,0.1630849001441887,1.394951660606664
3.25,-0.5610101061894819,0.1660388070473094,1.3907776265422052
3.259999999999991,-0.5671245200014589,0.1773565651983554,1.3892040127354166
3.269999999999982,-0.602661605610933,0.186720319593521,1.3973426657010486
3.280000000000001,-0.675142106917813,0.1847022388175558,1.426538824634077
3.289999999999992,-0.7558642125178527,0.1627211908407044,1.4613608397651734
3.299999999999983,-0.8278997753266361,0.1507177295869814,1.495105705620729
3.3100000000000023,-0.8643693795394284,0.1507865345404648,1.5198539877003392
3.319999999999993,-0.8813088930036667,0.1414876399666632,1.5362226855685648
3.329999999999984,-0.9063383662616928,0.1514604989869219,1.5526485281903697
3.3400000000000034,-0.9602621604082768,0.1635129665754214,1.5618358578236986
3.3499999999999943,-1.0542711205236863,0.1736419283915317,1.5686607100396983
3.359999999999985,-1.1435025763087263,0.1853180604213762,1.5696335203989151
3.3700000000000045,-1.192775389502268,0.1961810968165121,1.564476863418678
3.3799999999999955,-1.1886951306124558,0.208045250075071,1.539892448837717
3.3899999999999864,-1.1259013277565422,0.2202622353401007,1.514969734662346
3.3999999999999773,-1.015007331288499,0.2427920896049019,1.477344236187191
3.4099999999999966,-0.8902012366874051,0.2510426738558923,1.445718209440241
3.4199999999999875,-0.7832382187373824,0.2561689918615122,1.3921853101682855
3.4299999999999784,-0.6893271167198851,0.2554005376049513,1.3369700597613698
3.4399999999999977,-0.6345319428072012,0.2470056434542485,1.2854756245011578
3.4499999999999886,-0.5948680756722377,0.2348019132851742,1.2209959272216504
3.4599999999999795,-0.5780275489703055,0.2309684820818749,1.153244386847001
3.469999999999999,-0.5881055446204562,0.2343560574803552,1.0773315601065228
3.4799999999999898,-0.5705309983342598,0.234174729846746,0.9803721220409168
3.4899999999999807,-0.5637304237274194,0.2376091449088691,0.8809984689370178
3.5,-0.544845578227643,0.2372902787168467,0.7926107846409406
3.509999999999991,-0.5150716309843215,0.2313819719220104,0.7207296709382123
3.519999999999982,-0.4849858230509741,0.2187785674810406,0.6575882070888367
3.530000000000001,-0.4616304973667862,0.1966571661946107,0.5979096382528131
3.539999999999992,-0.4705801595970478,0.1788823225200051,0.5331394156627535
3.549999999999983,-0.4706397222305288,0.157285157514681,0.4661458194469748
3.5600000000000023,-0.4693482634273244,0.1389835932747921,0.4049341011845206
3.569999999999993,-0.4678290806973785,0.1318861877055887,0.3338229502299306
3.579999999999984,-0.4660353505884435,0.121557288319632,0.2562704416816649
3.5900000000000034,-0.4725611639450385,0.123192333358927,0.1871067428063541
3.5999999999999943,-0.4934125706894831,0.1061894750606962,0.1100042222190442
3.609999999999985,-0.5425183276718721,0.0920201685923508,0.0468924933439182
3.620000000000005,-0.6328514113323891,0.0535318559086433,0.0033085092958294
3.629999999999996,-0.7480412811115412,-0.0051357982243501,-0.0340351084299026
3.6399999999999855,-0.8645083163499887,-0.0537882514309351,-0.0629544037984332
3.649999999999977,-0.958217356204072,-0.088068658264603,-0.0938497221766543
3.6599999999999966,-1.034433074377915,-0.1108250869453682,-0.1227253178145651
3.669999999999988,-1.0558580561487734,-0.11590342476122,-0.1394719298772221
3.6799999999999775,-1.0493622901514663,-0.1085699932606454,-0.1737684770010882
3.6899999999999977,-1.0226177341161886,-0.0950405327722151,-0.1926285259031056
3.6999999999999886,-0.996465598642157,-0.0617534800502437,-0.2092014445521987
3.70999999999998,-0.968489609034908,-0.0343697559064247,-0.2112748191295737
3.719999999999999,-0.923198564379522,-0.0166161780378336,-0.1896225512392977
3.7299999999999898,-0.8763149570589471,0.0046034308908244,-0.1633304820777876
3.7399999999999807,-0.8065949652572477,0.0111572461259273,-0.1345423501644712
3.75,-0.7407810381791746,0.0385416202567095,-0.1182835842123808
3.759999999999991,-0.6679831849316471,0.0546960509130006,-0.0999475860042791
3.769999999999982,-0.6038816325441428,0.0631174269292765,-0.0896563855171643
3.780000000000001,-0.5695477435849935,0.0609225298490197,-0.0642687127650551
3.789999999999992,-0.5589657508582284,0.050618467227071,-0.0379649512529739
3.799999999999983,-0.5666909378818399,0.0320347969818198,-0.0116838074607593
3.8100000000000014,-0.5764042972714141,0.0302257030074573,0.0089818158045412
3.819999999999993,-0.5998555729154175,0.0417593682505498,0.0071647903611312
3.829999999999984,-0.6074474108812568,0.0529609636228858,-0.0006763060994951
3.8400000000000034,-0.5906775557803322,0.0628559357101731,-0.009337007796849
3.8499999999999934,-0.5445195888728833,0.0832852738348508,-0.0196319834985671
3.859999999999985,-0.489835019000197,0.103821282300376,-0.0321750154689205
3.870000000000005,-0.4406449286019838,0.117012430288963,-0.0384667928464346
3.879999999999996,-0.3996684801091575,0.1183594244015391,-0.0352787442802932
3.8899999999999855,-0.3953628830959713,0.1165555176165153,-0.0353541346648779
3.899999999999977,-0.4039009805014464,0.1027226779404783,-0.0305521482978815
3.9099999999999966,-0.4190113733366059,0.0818787946934441,-0.0261784821533772
3.919999999999988,-0.4235374055701021,0.0726509494713936,-0.0329644577671859
3.9299999999999775,-0.3838008263869222,0.0627503819402059,-0.0481104535882851
3.9399999999999977,-0.3175923120315049,0.0535440012078203,-0.0681862340203582
3.9499999999999886,-0.2187999194860668,0.0550280030781012,-0.1083405068371366
3.95999999999998,-0.0968972460468445,0.0426273658938013,-0.1450911106257535
3.969999999999999,0.0081803550618841,0.038324717739812,-0.1758623690134368
3.9799999999999898,0.0891785617272345,0.0322442077729413,-0.2109135400439148
3.9899999999999807,0.1446791780722763,0.0356090287433414,-0.2496619427746227
4.0,0.1684860550318909,0.0422610878063174,-0.2924725969340802
4.009999999999991,0.1763095105291778,0.0435370941131548,-0.334117919594613
4.019999999999982,0.1643768412659554,0.0509548944137467,-0.3832231633587526
4.030000000000001,0.1406364862991318,0.0745311991232239,-0.4401167494496628
4.039999999999992,0.1301186597160815,0.0850686104927629,-0.4908810669978152
4.049999999999983,0.1573459360190045,0.0744239715187567,-0.551150758636089
4.060000000000002,0.1907807942435213,0.0803304858650514,-0.6040659044465574
4.069999999999993,0.2538148891387581,0.0752613979704754,-0.6591885459025725
4.079999999999984,0.348439059873054,0.0509888716612916,-0.7157834740919314
4.090000000000003,0.4328440621817826,0.0332489483521215,-0.7655680488460676
4.099999999999994,0.4978540443622626,-0.002217543157159,-0.8233082663607474
4.109999999999985,0.5266893555804955,-0.0320459138348772,-0.8746675080874623
4.1200000000000045,0.5330030481744152,-0.0883157112337769,-0.9270183315020786
4.129999999999996,0.5340498551756048,-0.136699317561929,-0.9770410628700048
4.139999999999986,0.5059714838731455,-0.2023192929831642,-1.016257857094371
4.149999999999977,0.4680229661648952,-0.2607241151806647,-1.0579933809214068
4.159999999999997,0.432644809787724,-0.325084034455613,-1.1050191759720702
4.169999999999988,0.3964744894149709,-0.3902997736607819,-1.1417127922308017
4.179999999999978,0.3539627745937079,-0.4341777559006266,-1.2062809621496065
4.189999999999998,0.3201605610828277,-0.4847169918692958,-1.2559465223893005
4.199999999999989,0.2881114581047577,-0.526554513157099,-1.330114407828093
4.20999999999998,0.2800557208325587,-0.5752231620082697,-1.401411383864203
4.219999999999999,0.3004126127476049,-0.6113320127653387,-1.4618334173854786
4.22999999999999,0.3531508658930533,-0.6328294333575355,-1.525909291394344
4.239999999999981,0.4378516996706316,-0.6671913152276053,-1.5726806784961955
4.25,0.492816968018313,-0.7053207325366457,-1.6237778207136344
4.259999999999991,0.5387428454635624,-0.7370608486693813,-1.6522851439792925
4.269999999999982,0.5657418727998379,-0.7724712854709238,-1.6775537505901257
4.280000000000001,0.5734863825418713,-0.8050186797254691,-1.693169579673241
4.289999999999992,0.5695550898754196,-0.8469925101811097,-1.6985592627399488
4.299999999999983,0.5428836549875047,-0.875300357399523,-1.6973438950643225
4.310000000000002,0.4885918746973305,-0.9044298308333848,-1.6957827907855123
4.319999999999993,0.4342217564257959,-0.9217672191702392,-1.697162013535101
4.329999999999984,0.3894837761006903,-0.92748981137078,-1.715406111969895
4.340000000000003,0.3528977526067872,-0.919925736385204,-1.7264534613595692
4.349999999999994,0.3354663932856533,-0.9278239833737548,-1.7338245705984203
4.359999999999985,0.3275026928072506,-0.9254984086655664,-1.7273560377756365
4.3700000000000045,0.3292377583787357,-0.918398956410384,-1.714321241501918
4.379999999999996,0.3355193245981041,-0.9245249533824188,-1.6951301937205308
4.389999999999986,0.3512329907898097,-0.9095100757203748,-1.68805621461204
4.399999999999977,0.3823488656756033,-0.8963952286300222,-1.6842936709087992
4.409999999999997,0.4148972803972129,-0.8820308337298425,-1.6795063109802466
4.419999999999988,0.4464913845652057,-0.8708249555099582,-1.6841948278442584
4.429999999999978,0.4613024156118124,-0.8667449543483142,-1.6677508054658794
4.439999999999998,0.4473368585668835,-0.8841537073834027,-1.6408058932394205
4.449999999999989,0.4099304022983717,-0.9056922091893018,-1.6053426908821884
4.45999999999998,0.3520879591087048,-0.9177620638795552,-1.5628891322656453
4.469999999999999,0.2734465020464159,-0.9382415643021426,-1.5131466196242718
4.47999999999999,0.2106205669349289,-0.952958019969437,-1.46170231574584
4.489999999999981,0.1583199923951483,-0.957339695491342,-1.4065429770196225
4.5,0.1084174558836486,-0.9653360338749972,-1.3629710112847768
4.509999999999991,0.0741749057690492,-0.9667694014311272,-1.343744642766079
4.519999999999982,0.0513545486570174,-0.9661892889604912,-1.326401664094216
4.530000000000001,0.0527049046883793,-0.9573045893591828,-1.3101469166565365
4.539999999999992,0.0515652407337689,-0.9402450568412386,-1.2957900787835963
4.549999999999983,0.061679637146499,-0.9150515975422028,-1.2734828996688763
4.560000000000002,0.0612924957955567,-0.8863756382270074,-1.2428658998245836
4.569999999999993,0.0440400120875077,-0.8686449569689347,-1.204745768353376
4.579999999999984,0.0167151094452909,-0.8503421844530583,-1.1621495954989376
4.590000000000003,-0.0157646210214191,-0.8349985316039887,-1.1214962226583205
4.599999999999994,-0.0538008880100977,-0.8305100800718276,-1.0878665257278288
4.609999999999985,-0.0755322535151276,-0.8285384811434301,-1.0650397909351843
4.6200000000000045,-0.0778003721690671,-0.8106706978440416,-1.041087107672989
4.629999999999996,-0.0753919389149736,-0.8096824303502406,-1.01975400720118
4.639999999999986,-0.0733189170804668,-0.8099653842177869,-0.9985126543680124
4.649999999999977,-0.0599873222928826,-0.8167474322905266,-0.9679529430457612
4.659999999999997,-0.0508403294487385,-0.8217642022628852,-0.9386222247479512
4.669999999999988,-0.0342034955368926,-0.8316039127325092,-0.902627144049952
4.679999999999978,-0.0028832527205978,-0.8490359489412401,-0.858117565105753
4.689999999999998,0.0247319857331711,-0.8704648102526249,-0.816932055157014
4.699999999999989,0.0597038089287114,-0.8993626880995664,-0.7820963965578217
4.70999999999998,0.0858660459723123,-0.925867202539482,-0.7477265563652176
4.719999999999999,0.1066397986723715,-0.942953168404421,-0.7129502350672187
4.72999999999999,0.1100092668849094,-0.9610784505061424,-0.6869021946932612
4.739999999999981,0.1163762836434293,-0.9779734409925817,-0.6600612797738337
4.75,0.1142411627394776,-0.9958563112755072,-0.6333056035347527
4.759999999999991,0.1071875435937427,-1.0121698269758534,-0.6083459547327719
4.769999999999982,0.0913854364027581,-1.032055503064485,-0.5747641468411955
4.780000000000001,0.0737593977430164,-1.0431798914341197,-0.5438258286083023
4.789999999999992,0.0684538208261282,-1.045107721820678,-0.5079969504279181
4.799999999999983,0.0689908504860518,-1.053220646071266,-0.4740854640936952
4.810000000000002,0.090792952620419,-1.0551765387889398,-0.4380252538032512
4.819999999999993,0.1057730754021881,-1.047866011218981,-0.4057872871004677
4.829999999999984,0.119115521825134,-1.0526979817320323,-0.370984906833412
4.840000000000003,0.1347315239472347,-1.0457226713709478,-0.3371157903296328
4.849999999999994,0.1477055070440024,-1.0380387708681358,-0.310357436420187
4.859999999999985,0.1787080467168669,-1.0334054549156555,-0.2804491926999972
4.8700000000000045,0.2154144002491352,-1.0226670586140776,-0.2445752015905357
4.879999999999996,0.2416894384209036,-1.0129619893715092,-0.2139309357755683
4.889999999999986,0.2606089517828084,-1.0040547386407592,-0.1777570164089341
4.899999999999977,0.2767473740008854,-1.0015508710844134,-0.1378588035810383
4.909999999999997,0.2847848556544606,-0.9784924494802316,-0.0833534499645085
4.919999999999988,0.2926768456212371,-0.9598218692449318,-0.0264297795059797
4.929999999999978,0.2956955508955802,-0.9323966010272065,0.0312689717546585
4.939999999999998,0.2993608307195503,-0.8954196104627893,0.087872453513208
4.949999999999989,0.2972995166555117,-0.861168024800561,0.1291972373868489
4.95999999999998,0.2823966037787764,-0.8256695210273511,0.1732197224603217
4.969999999999999,0.2712921655410938,-0.8033607354396249,0.2134017910048538
4.97999999999999,0.255594409242525,-0.7798330708761922,0.2614594386288829
4.989999999999981,0.2564172773052921,-0.7515222704272788,0.3170874931297027
5.0,0.2910497086314643,-0.7174682860355882,0.3700809899817567
5.009999999999991,0.3313569184627093,-0.6717880161346336,0.4326260144760954
5.019999999999982,0.3793115404519276,-0.6223672038525923,0.4814683808985406
5.030000000000001,0.4295797124243478,-0.568535330594679,0.5458923071574598
5.039999999999992,0.466728778316311,-0.5094888192976637,0.6073363125370244
5.049999999999983,0.480969543599828,-0.4594458503721448,0.6556251195660809
5.060000000000002,0.4762479115177974,-0.3903107221485391,0.7102794581243826
5.069999999999993,0.4564107299271963,-0.3307646535487728,0.7639338591539089
5.079999999999984,0.4502291084670728,-0.2690128724337063,0.8243421235876297
5.090000000000003,0.4495979344629734,-0.1973768979989941,0.8839126845921583
5.099999999999994,0.4676806835982514,-0.1167051426069101,0.9461634701606042
5.109999999999985,0.4987161002518801,-0.0334869370123936,0.998938487753306
5.1200000000000045,0.531547006990161,0.0340639863765997,1.06123272660332
5.129999999999996,0.5524978399406394,0.1184751585932629,1.131623016300736
5.139999999999986,0.5651576145383512,0.189214345963037,1.203556589076033
5.149999999999977,0.5691713081354757,0.2701601748313419,1.285204337033123
5.159999999999997,0.564082991205769,0.3493312740630692,1.351137548393737
5.169999999999988,0.5713468864905855,0.4420341972806156,1.4182487755318656
5.179999999999978,0.5809788864262283,0.5334438353671965,1.4741233645395673
5.189999999999998,0.6195187058268374,0.629935630015935,1.5252014551843125
5.199999999999989,0.6513881410281817,0.7187523656728002,1.5727504167236377
5.20999999999998,0.6789286534647259,0.808880642529224,1.6210409275909663
5.219999999999999,0.7085540180323571,0.9045412674046844,1.673649889915968
5.22999999999999,0.7135975589515855,0.9900689764131736,1.73835138725715
5.239999999999981,0.7006883283463337,1.0796805543946135,1.8039180807561608
5.25,0.681557572735429,1.164839546934562,1.8572624044794048
5.259999999999991,0.6723327729125641,1.2402392883800175,1.900361826864107
5.269999999999982,0.66969031680719,1.3095838666312365,1.9378467943333464
5.280000000000001,0.6794592380379665,1.3942701576879957,1.958145616990646
5.289999999999992,0.6954889379230114,1.4759584771332246,1.9646301826364967
5.299999999999983,0.7110131523502328,1.5589820860929506,1.9609018720526832
5.310000000000002,0.7077532561745463,1.651691976214395,1.9567330582241809
5.319999999999993,0.6874570793614725,1.74157278260004,1.9419954184127104
5.329999999999984,0.6438655105090358,1.817293319669714,1.9195881757808435
5.340000000000003,0.5714519458646377,1.8915746292500877,1.8991396815156316
5.349999999999994,0.4949380782536558,1.948089241328204,1.8769492105823136
5.359999999999985,0.4328308146314899,2.0030938117800314,1.8598284270870096
5.3700000000000045,0.3742968498783074,2.0693749383520283,1.822982837264851
5.379999999999996,0.3464882120039618,2.1308177828281814,1.7927852140999456
5.389999999999986,0.325999711765234,2.1857660182820484,1.7625425315719794
5.399999999999977,0.3106275402683576,2.241765255354357,1.724573944268157
5.409999999999997,0.306419952422056,2.298928701889983,1.6931822151079112
5.419999999999988,0.2982385317312588,2.3495222759990817,1.6647671705556086
5.429999999999978,0.2791505027632524,2.391622922532324,1.634036282797397
5.439999999999998,0.2600248671137539,2.419275582696093,1.5969490248780718
5.449999999999989,0.2555649366868401,2.432408931316379,1.5533741865310964
5.45999999999998,0.2368978067333847,2.4478815413612853,1.5172011369071885
5.469999999999999,0.2467697908496239,2.4521986862790617,1.4756274327682577
5.47999999999999,0.2611738669402664,2.4603332009658305,1.4376396708780603
5.489999999999981,0.28164885085051,2.483011330581653,1.3925037020051725
5.5,0.3049883245640666,2.492008132164111,1.3490046122108657
5.509999999999991,0.3253934783868582,2.510343850467896,1.3126225795503914
5.519999999999982,0.3672454666767324,2.5260157429838586,1.2659075687135546
5.530000000000001,0.4108143584698851,2.5232324478288883,1.231283544761626
5.539999999999992,0.4534701730471354,2.5248917633982453,1.2031684711871242
5.549999999999983,0.5002381354784223,2.52851722938728,1.1738118031864615
5.560000000000002,0.5373907243737194,2.539796933252365,1.146494212463031
5.569999999999993,0.54624416339604,2.546370529591562,1.1212162792127636
5.579999999999984,0.545608894550302,2.5424513413972405,1.107408139793757
5.590000000000003,0.5179985896414806,2.527857539398889,1.0930989773029445
5.599999999999994,0.4659111348592414,2.501701495025106,1.079448426052335
5.609999999999985,0.402107290170076,2.476882121619364,1.0668988359307674
5.6200000000000045,0.340776676150931,2.438668647362677,1.0540266500480524
5.629999999999996,0.2684293106117684,2.410064594004858,1.0364318024695325
5.639999999999986,0.2099591822287021,2.393356359491834,1.0130008007149278
5.649999999999977,0.1595203525483173,2.369854817715205,0.983784368431508
5.659999999999997,0.0985633603977404,2.338202719969764,0.9547217323411228
5.669999999999988,0.0483479950750573,2.300262887676969,0.9197561399415368
5.679999999999978,-0.0088250116336982,2.247241501661865,0.8853531695373388
5.689999999999998,-0.0506102385725817,2.19436360955419,0.8508633666144175
5.699999999999989,-0.0819828844532097,2.149903624071239,0.8156753008486876
5.70999999999998,-0.0932838160064963,2.099349882697464,0.7833031395305268
5.719999999999999,-0.1077446945482516,2.0527846259909235,0.7502568791671722
5.72999999999999,-0.1138646546187007,2.006131743812354,0.7121707294413891
5.739999999999981,-0.1218628769418142,1.956328886210839,0.6670940506578941
5.75,-0.1519785393383763,1.9132988733974692,0.6365592572513673
5.759999999999991,-0.1913389961306522,1.8874992823218697,0.6112416422223866
5.769999999999982,-0.2446405149608218,1.8390148651273108,0.5880200962685953
5.780000000000001,-0.2922245547757205,1.8005953454294283,0.5641021110662569
5.789999999999992,-0.3531345672743025,1.7710493692518507,0.5441364165266366
5.799999999999983,-0.4138556582574959,1.7229453793413727,0.5171683714961063
5.810000000000002,-0.4824378097228564,1.6916526246803307,0.5036350100174546
5.819999999999993,-0.5685020499218659,1.6564210802112989,0.475438000023074
5.829999999999984,-0.6601266334673564,1.62996360795093,0.4447187274417225
5.840000000000003,-0.76261976184763,1.6063757020535667,0.4229428401151763
5.849999999999994,-0.8497687556026021,1.580745556027358,0.4071893159710343
5.859999999999985,-0.9151971880552688,1.5651421927314957,0.3945394541955974
5.8700000000000045,-0.964054009796104,1.5426521594804472,0.377360644572605
5.879999999999996,-1.000208031029679,1.5166337350278645,0.350192727789149
5.889999999999986,-1.012227985800627,1.4984595984293538,0.3144412658688689
5.899999999999977,-1.0102020232874995,1.4839593649050828,0.2659001870242776
5.909999999999997,-1.0171255531991787,1.482361881222181,0.2090108215478314
5.919999999999988,-1.0270631030553543,1.4938005608347769,0.1561864765140983
5.929999999999978,-1.0483044265395305,1.4974112500740808,0.0947883313017307
5.939999999999998,-1.070246189142685,1.5031860006560718,0.0441151302510539
5.949999999999989,-1.0930359618247536,1.5021621842907478,-0.0028778788149011
5.95999999999998,-1.1247753175330004,1.501066772011233,-0.0435260776899014
5.969999999999999,-1.160702768429381,1.487671382605664,-0.100397784484436
5.97999999999999,-1.213990959960099,1.4628105489717107,-0.163107994179651
5.989999999999981,-1.2515645217519558,1.4176860518760708,-0.2282537059759932
6.0,-1.277231827825298,1.3643579193629192,-0.293944526558739
6.009999999999991,-1.2557697479246024,1.3223502106095573,-0.3744911428277279
6.019999999999982,-1.191393562141846,1.282584351777153,-0.4381274424680249
6.030000000000001,-1.0960231426248708,1.2503856545598466,-0.4953564203716685
6.039999999999992,-0.9891421898822088,1.228824326919921,-0.5529967037199676
6.049999999999983,-0.8746313374045535,1.2137979650656174,-0.6131233896928991
6.060000000000002,-0.7522374984101285,1.2060920997571645,-0.6812525304191734
6.069999999999993,-0.6547252485343105,1.200534071216637,-0.7500812080900433
6.079999999999984,-0.5539685276992583,1.181807619384836,-0.8212896353693168
6.090000000000003,-0.4543232960034329,1.1524667866458151,-0.8922553494610841
6.099999999999994,-0.3625371965792449,1.1244364870182122,-0.9637309839841016
6.109999999999985,-0.2614551303257834,1.0967693124649365,-1.0403710998452225
6.1200000000000045,-0.1605073683966987,1.066202572761896,-1.125708110218728
6.129999999999996,-0.0441905971388445,1.027443749789274,-1.2246717095843465
6.139999999999986,0.0699040281599271,0.9676226698236816,-1.3269137608988264
6.149999999999977,0.1820420761087483,0.9024035392737012,-1.4265509962084355
6.159999999999997,0.2839022006165521,0.8312907716105463,-1.5259781273052553
6.169999999999988,0.3743526151017147,0.7610241117511485,-1.6266191957405305
6.179999999999978,0.4672588213402035,0.7022021424728193,-1.7287815299085016
6.189999999999998,0.534088755644978,0.6359161420355971,-1.82965232424012
6.199999999999989,0.5865746366209038,0.5803891531120583,-1.935962853048028
6.20999999999998,0.6111248604229519,0.5227139544091088,-2.034301358966495
6.219999999999999,0.6357843280464593,0.4727572157059918,-2.1340497057790686
6.22999999999999,0.6496635158440208,0.4353128926950398,-2.228094824443104
6.239999999999981,0.6719886022513452,0.3954278659797307,-2.3222917926129387
6.25,0.7001482388397197,0.348528842837185,-2.3912107396043845
6.259999999999991,0.7430243372076958,0.314630505899654,-2.45224032241841
6.269999999999982,0.793535890052697,0.2705298918727848,-2.5046578643827138
6.280000000000001,0.8481210460524392,0.221290674330918,-2.5472376937310504
6.289999999999992,0.8828706523894664,0.1821623872889143,-2.5915502458580324
6.299999999999983,0.90637079244069,0.153424038054721,-2.6252535407536475
6.310000000000002,0.9367826253599464,0.1252889866619554,-2.65431235725402
6.319999999999993,0.983610266006852,0.1007331170104365,-2.657819049080033
6.329999999999984,1.0636526645550264,0.0796944573379903,-2.6421300817604068
6.340000000000003,1.1444644572567235,0.0528250079686673,-2.618248854087164
6.349999999999994,1.210801549446206,0.0381438671218872,-2.6072417408252493
6.359999999999985,1.2618444650163665,0.0166751476562813,-2.5976357479014984
6.3700000000000045,1.2830895426367577,-0.0039342042341587,-2.600790634889235
6.379999999999996,1.2927221023145483,-0.0224998458814342,-2.609626084088679
6.389999999999986,1.2873021009320995,-0.0514135924133356,-2.611697140583508
6.399999999999977,1.276530028863812,-0.0835972867085513,-2.6086068324984364
6.409999999999997,1.2502490767367789,-0.1207021623472733,-2.599331873566598
6.419999999999988,1.222113928284314,-0.1548617173239041,-2.581826978936636
6.429999999999978,1.2126019477677423,-0.1795333126401443,-2.5589708007822183
6.439999999999998,1.203698082770618,-0.2043860947863976,-2.5378409137730165
6.449999999999989,1.2281515082839902,-0.2178370991180825,-2.51407229022463
6.45999999999998,1.2564059201538844,-0.2427180233502201,-2.4945087993331203
6.469999999999999,1.278311803470758,-0.2861547824074952,-2.4691481439027987
6.47999999999999,1.2995660315621305,-0.3364482096983979,-2.452998532147576
6.489999999999981,1.35249181214668,-0.3749062496901232,-2.422531906776263
6.5,1.3862824277978167,-0.411416376237705,-2.400471009248692
6.509999999999991,1.4180337792694964,-0.451413762288519,-2.37791489837876
6.519999999999982,1.4492469586274754,-0.4752597281548611,-2.359135604842779
6.530000000000001,1.4844187904621948,-0.5084925806031226,-2.3477437490796373
6.539999999999992,1.5100339554535638,-0.5382314407713141,-2.3210393174467603
6.549999999999983,1.5186613379539415,-0.5730524125485643,-2.292710732861182
6.560000000000002,1.5235129575522148,-0.6035823604613753,-2.2553133597114763
6.569999999999993,1.5074320181446126,-0.6395394810375834,-2.221188458513686
6.579999999999984,1.5070876309469852,-0.6715474169917567,-2.1828426462445205
6.590000000000003,1.5036471510358844,-0.692831729223033,-2.14813650734394
6.599999999999994,1.5047787176361933,-0.707044000590852,-2.1154793622734607
6.609999999999985,1.5055684761160026,-0.7174330708368155,-2.07656388706601
6.6200000000000045,1.5253694971967895,-0.741357263448367,-2.032789872275943
6.629999999999996,1.544590703067631,-0.7580822781088179,-1.985642579552814
6.639999999999986,1.5651280404419932,-0.7742554220256594,-1.939955241405456
6.649999999999977,1.5933680596426478,-0.7981275567110515,-1.876524215941602
6.659999999999997,1.6317007082512869,-0.8103088923032384,-1.834650712996899
6.669999999999988,1.6944852488685975,-0.8303031588276866,-1.8039811585209595
6.679999999999978,1.7771836420632188,-0.8510454648642076,-1.7688270896802194
6.689999999999998,1.8992864260588935,-0.8785259391127348,-1.743980621441565
6.699999999999989,2.0334112831389,-0.8900948407668478,-1.7231070784722016
6.70999999999998,2.162204068994308,-0.9090291686117364,-1.7192894909037704
6.719999999999999,2.248504584384284,-0.9573503784792188,-1.6921188847043798
6.72999999999999,2.2808577276794257,-0.9803740774604696,-1.6780704784509937
6.739999999999981,2.2667835791064688,-1.0259620623653352,-1.672315784331852
6.75,2.2296144027162383,-1.0569707695916106,-1.6563594608086305
6.759999999999991,2.166624845653708,-1.0965461490610322,-1.6417970605105825
6.769999999999982,2.112354423177803,-1.126470362648558,-1.6093235394967644
6.780000000000001,2.0548291067765185,-1.1478191848202002,-1.575415344198675
6.789999999999992,1.994243830989214,-1.1697037856259906,-1.5386826071855229
6.799999999999983,1.9627505596783388,-1.185450686822077,-1.489325033202608
6.810000000000002,1.925698203866348,-1.2012519337020269,-1.445616368796909
6.819999999999993,1.9100871272285669,-1.2093674001955297,-1.400188250133112
6.829999999999984,1.8908597694811693,-1.219903761269905,-1.363488357616959
6.840000000000003,1.9007008211476544,-1.232400278146485,-1.3326921097379023
6.849999999999994,1.9285185042966675,-1.2394118253148998,-1.3058735136091195
6.859999999999985,1.9504700799694823,-1.235014232844636,-1.2871947515555424
6.8700000000000045,1.962233889536152,-1.2294445871816724,-1.243070415114394
6.879999999999996,1.9524596542154409,-1.2216449520075672,-1.1987860213193242
6.889999999999986,1.921001197651771,-1.2074970479920586,-1.162809484577891
6.899999999999977,1.852282654908804,-1.1936947536055005,-1.1273147126845398
6.909999999999997,1.7856173551247023,-1.1980161827650233,-1.0772297870170668
6.919999999999988,1.720620630248912,-1.193738806254974,-1.04403336822563
6.929999999999978,1.68589816613863,-1.1979065508565323,-1.0371688971580568
6.939999999999998,1.6853938122891836,-1.2019823785878077,-1.032186398598825
6.949999999999989,1.7097638098130228,-1.2039059575697968,-1.02226474927835
6.95999999999998,1.7318251380897485,-1.1859648567696557,-1.007830127188821
6.969999999999999,1.7595038879283549,-1.172901036210057,-0.9775743748961006
6.97999999999999,1.7888482038290572,-1.1705178240102438,-0.9515186347057945
6.989999999999981,1.804441536526571,-1.1565206713503875,-0.926699284449512
7.0,1.842207290853872,-1.1554099146689056,-0.8924798833125797
7.009999999999991,1.8979679162195109,-1.1607446128921863,-0.860526844785659
7.019999999999982,1.9799130569360577,-1.1575143217976605,-0.8274472173709615
7.030000000000001,2.0698982145457503,-1.1553784607332944,-0.7792904054420835
7.039999999999992,2.149054726564911,-1.1433633200705635,-0.7406314161213731
7.049999999999983,2.1865711925200344,-1.123900953767026,-0.6990148166124008
7.060000000000002,2.200676235821943,-1.107414237711471,-0.6535179216220591
7.069999999999993,2.185195127357149,-1.0833168462681362,-0.6058518076929983
7.079999999999984,2.1700407531334864,-1.0607937635824822,-0.5529310715751016
7.090000000000003,2.149740054682808,-1.0235534424562098,-0.5128660271982384
7.099999999999994,2.1441431554958323,-0.9860737283975516,-0.4679369918804479
7.109999999999985,2.167082806718636,-0.9538816253721089,-0.4291322303544106
7.1200000000000045,2.186177714760181,-0.9170541251133308,-0.3789437872451265
7.129999999999996,2.1988258523512227,-0.8556846000534628,-0.3297219070068729
7.139999999999986,2.1852727184250327,-0.7988888721603372,-0.28911883125566
7.149999999999977,2.167079026056553,-0.740212451521969,-0.254961395879521
7.159999999999997,2.139273346922538,-0.6643024766636055,-0.2264281649454096
7.169999999999988,2.1043249650631024,-0.5847331533256808,-0.2055074371193511
7.179999999999978,2.0770843275360877,-0.4813654010884474,-0.1737151503949157
7.189999999999998,2.0386431006123744,-0.3674791090536819,-0.1448169264517287
7.199999999999989,1.986289587584307,-0.2509521745021201,-0.1100848554576559
7.2099999999999795,1.9340902580316932,-0.1337157932912228,-0.056362610025428
7.219999999999999,1.871949143893976,-0.0209213549318698,-0.005394467744858
7.22999999999999,1.795053914262774,0.106822104102323,0.0457320891618095
7.239999999999981,1.7241149788174814,0.2309204504990089,0.0978546643885034
7.25,1.6525931803021732,0.361654675880867,0.1398387530689346
7.259999999999991,1.5800909994152212,0.5011374421832303,0.1718220120648908
7.269999999999982,1.5179852786514287,0.6484907021994695,0.1951468556254271
7.280000000000001,1.4680492327468442,0.8009397424390932,0.2107776364360989
7.289999999999992,1.4260884624098444,0.9510151139963188,0.2330382050552033
7.299999999999983,1.3890454735898543,1.101473452342222,0.2614888887552842
7.310000000000002,1.3727559105148326,1.2347865776191131,0.2826205527814533
7.319999999999993,1.3787005324894563,1.3777801844867612,0.3022793055104978
7.329999999999984,1.3982883793141776,1.5004459167609128,0.3151109801131472
7.340000000000003,1.4300775117628828,1.629283807499387,0.3168756263773788
7.349999999999994,1.4770329537173033,1.744961114629642,0.3163752701345273
7.359999999999985,1.5277813337552724,1.8529268134692756,0.3142045083836801
7.370000000000003,1.5820496486583762,1.9646144582953624,0.3284570614337369
7.3799999999999955,1.61613735558952,2.0691144701266158,0.3421323176367978
7.389999999999986,1.6463162453962872,2.160872912666437,0.3522786130946883
7.399999999999977,1.6765967821947814,2.257018691593224,0.3624726126782158
7.409999999999997,1.6967503351319952,2.3470856595544096,0.361685537373054
7.4199999999999875,1.7151641908076118,2.419993169112016,0.3546015191040063
7.429999999999978,1.7355135624704583,2.4911963528863224,0.3472668936804999
7.439999999999998,1.7475205874816675,2.567610742958144,0.3375874755482774
7.449999999999989,1.76177911914265,2.648879697015928,0.3329380368097021
7.4599999999999795,1.7638075579959058,2.7120080284479204,0.3425137072895416
7.469999999999999,1.7525798910523378,2.777018848408093,0.3533200630285643
7.47999999999999,1.7301147761825333,2.832786809547355,0.3659354083560671
7.489999999999981,1.6940544517156135,2.890595462401518,0.3523006591351426
7.5,1.6628942441368355,2.942987042077917,0.3269490894598764
7.509999999999991,1.6320315930188347,3.0069419548006846,0.3027181996897826
7.519999999999982,1.6071048476726169,3.0538626470512065,0.2765948556129514
7.530000000000001,1.5778947262332264,3.08423949613535,0.2455905848236459
7.539999999999992,1.5282897764408032,3.117920254087662,0.2081019723173747
7.549999999999983,1.4709498994326833,3.153611823125149,0.1802237682138152
7.560000000000002,1.3953385640728615,3.1684660640303512,0.1534690438343551
7.569999999999993,1.3227070631630096,3.174231155062907,0.1229768970729184
7.579999999999984,1.244377936219284,3.200653039102745,0.1084730630987735
7.590000000000003,1.1651476670536831,3.21006212431188,0.1100016638127527
7.599999999999994,1.0946813813610912,3.2181491858529414,0.118098032360202
7.609999999999985,1.0088187448711996,3.216783421250188,0.1257288830624986
7.620000000000003,0.9305942862833684,3.1971847052535884,0.1289040873434188
7.6299999999999955,0.8504731047580111,3.1976085850353364,0.1360863397340151
7.639999999999986,0.7657681503692958,3.173446739937612,0.1394654113462999
7.649999999999977,0.6868430264321356,3.1492230519020663,0.1376474279567528
7.659999999999997,0.6129232812173251,3.1469568536485126,0.1430449582420919
7.6699999999999875,0.5421486838454906,3.14300559966902,0.1567822219451711
7.679999999999978,0.4732415096902945,3.1149314696289987,0.174902573547014
7.689999999999998,0.4026785097632417,3.070150882923815,0.1933714436451689
7.699999999999989,0.3363168027930716,3.047573662488031,0.2069747318044933
7.7099999999999795,0.2595919824255472,3.0202406626657647,0.2156536883744591
7.719999999999999,0.1728507803923309,3.0032376713298765,0.2242880790570233
7.72999999999999,0.0900635023047051,2.9678000650732885,0.2348526532761923
7.739999999999981,0.0040623847403116,2.9340148548136287,0.2357954833100168
7.75,-0.075104463136266,2.916400934818129,0.251688158076182
7.759999999999991,-0.1451812202396445,2.8909627831252456,0.2741038375655265
7.769999999999982,-0.20734848938077,2.864138117764063,0.2980288244709637
7.780000000000001,-0.2653633035961462,2.8357367927651205,0.3292881570857897
7.789999999999992,-0.3341772029013559,2.8137651921293383,0.3545847295324172
7.799999999999983,-0.4079279411818607,2.802207364629323,0.3644259753272344
7.810000000000002,-0.4712597734207633,2.792019566668364,0.3778164348272845
7.819999999999993,-0.5271515211891696,2.77587152153341,0.3886731250932754
7.829999999999984,-0.5689129946122997,2.768578519299064,0.4049624166437555
7.840000000000003,-0.5989680798782836,2.7651113715608413,0.4235348739464582
7.849999999999994,-0.6306391441754855,2.762163435566012,0.4287841027406074
7.859999999999985,-0.6534237305571884,2.744742983388503,0.4335536726273253
7.870000000000003,-0.6760389691264364,2.7169086031416407,0.4394891753940911
7.8799999999999955,-0.7009107573728541,2.692526797865343,0.4485368659585589
7.889999999999986,-0.7355944182318223,2.670248013079684,0.4584166185648167
7.899999999999977,-0.7799873182300275,2.650483364985739,0.4637002985420836
7.909999999999997,-0.828770819559185,2.6237604170013618,0.4612055144396653
7.9199999999999875,-0.8695876959026547,2.601034665460653,0.4570421726687143
7.929999999999978,-0.9088130566400376,2.565104758754891,0.4510852303629921
7.939999999999998,-0.9445507498700232,2.5312843634049247,0.4447015650547969
7.949999999999989,-0.991764951999,2.5021624192173024,0.4490696840816606
7.9599999999999795,-1.04407533525948,2.475221704857298,0.4460819065055718
7.969999999999999,-1.0836702515109808,2.433737030850815,0.4373342567440889
7.97999999999999,-1.1351308503125164,2.3947831474303096,0.4451447625673057
7.989999999999981,-1.1720395802124275,2.3574264641210987,0.4448388762098837
8.0,-1.18760858101519,2.3074734932016403,0.4495192937414618
8.009999999999991,-1.202802106102661,2.269562508654283,0.4489539428437061
8.019999999999982,-1.2338378216216952,2.2336480091651043,0.4296509966904143
8.030000000000001,-1.2902793032071749,2.1963984393341565,0.4268318031251371
8.039999999999992,-1.359197417773371,2.1542981786175583,0.4099684321503415
8.049999999999983,-1.4201090758077324,2.1221567595714235,0.3891650702218909
8.060000000000002,-1.4672742413732298,2.0800092920259767,0.3758742556258753
8.069999999999993,-1.495448412992183,2.0460673004445566,0.3661282077953896
8.079999999999984,-1.508929290032091,2.0175535101688284,0.3381804881826552
8.090000000000003,-1.5017076891391294,1.9910460043938407,0.3073697015704394
8.099999999999994,-1.491121281171638,1.960376910655452,0.2779585237259056
8.109999999999985,-1.487904793457842,1.92519494721499,0.2372037163569008
8.120000000000005,-1.4815589332206691,1.887032819166408,0.1914722444025593
8.129999999999995,-1.5031050275409044,1.843785738541122,0.1425058372740596
8.139999999999986,-1.5373217529242855,1.799587491943828,0.0969620860019074
8.149999999999977,-1.5794525953385177,1.7598283242779185,0.0357187879933544
8.159999999999997,-1.62132592895368,1.7218080505681015,-0.0240138911356903
8.169999999999987,-1.6308178254348595,1.7045772252073426,-0.1065020332984421
8.179999999999978,-1.6241153136950457,1.6776789835921426,-0.1623495386792642
8.189999999999998,-1.5532109115676482,1.6395839273583332,-0.2224720740238635
8.199999999999989,-1.453854962946315,1.5979063806352236,-0.2721300965464505
8.20999999999998,-1.354031826530405,1.5422672049458466,-0.3224423496934433
8.219999999999999,-1.2656695428379865,1.4856008784841712,-0.3855146461763212
8.22999999999999,-1.2057655754528454,1.4217933752678735,-0.4539681624370345
8.23999999999998,-1.1765596310714923,1.3474927997727293,-0.5458857331840844
8.25,-1.19447729367916,1.2857122604116138,-0.6426596901506091
8.259999999999991,-1.239857692006678,1.2346117206971987,-0.7535571464595131
8.269999999999982,-1.3079844897357156,1.1816450343689624,-0.8604815264647196
8.280000000000001,-1.3653710883544457,1.1321349230611542,-0.9674779279083888
8.289999999999992,-1.3987150763519702,1.0840725430998042,-1.0598750187831036
8.299999999999983,-1.3846860289755178,1.0397142758729676,-1.1412569299593591
8.310000000000002,-1.3274656904990911,0.9938534438931304,-1.2158788236222695
8.319999999999993,-1.2332753293086598,0.9363747941087488,-1.2824145137721854
8.329999999999984,-1.117144760079283,0.875220159962281,-1.3422341652261875
8.340000000000003,-0.986951110803833,0.8059048569866074,-1.396443001248042
8.349999999999994,-0.873005904344336,0.7410326000786162,-1.4553798303419831
8.359999999999985,-0.7749206032236332,0.6631586933210704,-1.5340281125417143
8.370000000000005,-0.7082635665626295,0.5682022750472283,-1.6231974238987927
8.379999999999995,-0.6776373681208104,0.4848853628951907,-1.708553293183456
8.389999999999986,-0.6504402893204777,0.4047782005317402,-1.806266050244964
8.399999999999977,-0.6235479929982223,0.320404661569323,-1.8960987464488297
8.409999999999997,-0.5666828482603247,0.2377904665393497,-1.978482144790652
8.419999999999987,-0.4606018910642134,0.1628565912228225,-2.0625227232360746
8.429999999999978,-0.3230866103321957,0.0886816487930726,-2.140964161803688
8.439999999999998,-0.1654741123669212,0.0244351769939012,-2.2012504871427216
8.449999999999989,-0.0044928745642087,-0.0327104470738637,-2.264361923013942
8.45999999999998,0.1573928917138892,-0.092025645369364,-2.310660040125676
8.469999999999999,0.3035371449984524,-0.1466675985292636,-2.357004472547189
8.47999999999999,0.4111808525657133,-0.2252826760504825,-2.4022269471104454
8.48999999999998,0.4837615440668623,-0.2903749027693189,-2.4548808201057586
8.5,0.4950178151593278,-0.3572497570454763,-2.5142897929128893
8.509999999999991,0.444671800704271,-0.4416129486848425,-2.5694117149412765
8.519999999999982,0.3631169323788442,-0.5050956116483829,-2.622279487017296
8.530000000000001,0.2888767804897241,-0.569398865329371,-2.652719617418486
8.539999999999992,0.2424153743887093,-0.6060102644868707,-2.6836209292355093
8.549999999999983,0.2477266147501771,-0.6388425640318615,-2.70396019555752
8.560000000000002,0.2989132597417287,-0.6427652229419193,-2.731456834791296
8.569999999999993,0.3806815934545197,-0.6514616093678004,-2.750721639637973
8.579999999999984,0.4751471013483178,-0.6716369396743093,-2.7780288098407686
8.590000000000003,0.5549860171856228,-0.688989607350513,-2.790149329542961
8.599999999999994,0.6080179387188127,-0.7197935284960448,-2.7964718297928783
8.609999999999985,0.6413683298833412,-0.747148214430472,-2.80300375344328
8.620000000000005,0.6486858777625639,-0.7843518111641823,-2.8174752298596304
8.629999999999995,0.6348874294732113,-0.81969888332836,-2.837928730438904
8.639999999999986,0.599971811676014,-0.8498793539777375,-2.862403124690882
8.649999999999977,0.5374825839240025,-0.8606834133769424,-2.8996515902365823
8.659999999999997,0.4710706024395406,-0.8687628119747774,-2.927968210370665
8.669999999999987,0.4259344589465251,-0.8767816945586202,-2.946274136523157
8.679999999999978,0.3864291080788075,-0.8694081207013911,-2.9614438020980187
8.689999999999998,0.360144928915339,-0.870785987837287,-2.972595207735032
8.699999999999989,0.3617163003755724,-0.8733662104108194,-2.9736658316979017
8.70999999999998,0.3747741121178302,-0.8570300687734087,-2.98265010500472
8.719999999999999,0.3812348920930483,-0.8578108159809261,-2.9846854715877265
8.72999999999999,0.3784524734395823,-0.8531756197961603,-2.974040845063058
8.73999999999998,0.3592764013359719,-0.8564135488760993,-2.967855401709782
8.75,0.3274840940030724,-0.8527223852784682,-2.957250974033195
8.759999999999991,0.2992766949003481,-0.8529623530209993,-2.9496856799027644
8.769999999999982,0.2546166766035543,-0.8610001336167098,-2.937753489891834
8.780000000000001,0.2146977564315947,-0.8672468298652888,-2.9187441312336238
8.789999999999992,0.2047207057660197,-0.8622910005486222,-2.8954673556582016
8.799999999999983,0.2140443168731342,-0.8524065045058029,-2.864817876490489
8.810000000000002,0.2262040008975803,-0.8528994718993813,-2.8285952645704344
8.819999999999993,0.2007998472529874,-0.8512396733367985,-2.7858759512805307
8.829999999999984,0.1705298470272531,-0.8462016996671169,-2.749327772641711
8.840000000000003,0.1502808251361195,-0.8352401666519299,-2.7196411800938827
8.849999999999994,0.1263234966145518,-0.8361362191046823,-2.6906754842459315
8.859999999999985,0.096035701004288,-0.8250905916752233,-2.675810373030242
8.870000000000005,0.0831563165154888,-0.8306171828201604,-2.65521070728139
8.879999999999995,0.1004271594549682,-0.8260803725493854,-2.6289747265615024
8.889999999999986,0.1459691423784143,-0.825516087232075,-2.6054221709458014
8.899999999999977,0.2266666591163553,-0.8384220748538208,-2.560977856311061
8.909999999999997,0.3191491164061036,-0.841968062439866,-2.523832433145115
8.919999999999987,0.4301843955255772,-0.8342629098332672,-2.483835529912119
8.929999999999978,0.5262773965449006,-0.833787159886146,-2.4453060509758977
8.939999999999998,0.6047167485740881,-0.8440069440452354,-2.416463647467872
8.949999999999989,0.6612141316124097,-0.8431472853915088,-2.3921382853984503
8.95999999999998,0.6906218605515518,-0.8528365919395707,-2.369806988728133
8.969999999999999,0.7106629655404677,-0.8767615759488683,-2.358858739413308
8.97999999999999,0.7078183528437002,-0.894904668527842,-2.3414334570473865
8.98999999999998,0.696015372889277,-0.921376894078465,-2.30817771636503
9.0,0.6663847508729107,-0.9467957413495406,-2.27845997414194
9.009999999999993,0.6289936570718062,-0.964431944937718,-2.2425651410334453
9.019999999999982,0.6027538652388652,-0.9753681079358112,-2.2092359267391437
9.03,0.5859184466608897,-0.9866214704432736,-2.181248264651471
9.039999999999992,0.5904123879954157,-0.9968328796502328,-2.162163177073472
9.049999999999985,0.616616683981798,-0.9995797003267808,-2.139430927000564
9.060000000000002,0.66224266564982,-1.0062558915472355,-2.115651762366796
9.069999999999991,0.7063252378060189,-1.016488408593486,-2.1007248180844846
9.079999999999984,0.7410313294964019,-1.0401686874890503,-2.091530512438761
9.090000000000003,0.7658821003661576,-1.0636949858985298,-2.0663317440901747
9.099999999999994,0.7711349866586902,-1.090531833977047,-2.056449819176747
9.109999999999983,0.7624763207171876,-1.1202879711906746,-2.053007338402957
9.120000000000005,0.7457841040717089,-1.1509260201333156,-2.049357687299
9.129999999999995,0.7266378559262746,-1.170956581945329,-2.0539500321404778
9.139999999999986,0.72066479492185,-1.1831573061778136,-2.0616232097223377
9.149999999999975,0.7244749717742032,-1.1917233911680505,-2.0774901019146528
9.159999999999997,0.747782427449804,-1.1912457551845246,-2.0970704931363637
9.169999999999987,0.7767603590069596,-1.1994881942715,-2.1217210448970074
9.179999999999978,0.8083917757011925,-1.20643697617897,-2.1303199391957937
9.189999999999998,0.8306724199404277,-1.212630698319887,-2.1435185329175157
9.199999999999989,0.8466140332703863,-1.2150036135388116,-2.1610914839538884
9.20999999999998,0.8499801998758071,-1.2277808325013904,-2.159250352299069
9.22,0.8215918477424082,-1.2485387233054432,-2.1571909754115266
9.22999999999999,0.7859201238658358,-1.258106216978213,-2.144398643384572
9.23999999999998,0.7440336718512285,-1.2607182636488337,-2.137800087721448
9.25,0.7063861912219427,-1.2639875202365554,-2.1403364617653144
9.259999999999993,0.6740657204827643,-1.2654482492072798,-2.152122672093868
9.269999999999982,0.6592081060771634,-1.2568308316819363,-2.161308014769807
9.28,0.6424326177646129,-1.2490144391551277,-2.164378474928666
9.289999999999992,0.6358050436510917,-1.222578694247493,-2.172090399884449
9.299999999999985,0.6417054803477048,-1.186675980934772,-2.1722598668268303
9.310000000000002,0.6622110479478824,-1.1695729633214056,-2.1623451459778105
9.319999999999991,0.695320800247397,-1.1371927118565583,-2.1309658661521897
9.329999999999984,0.7300620197222304,-1.1174982204428212,-2.107121919840587
9.340000000000003,0.7828732831101386,-1.0957598558924515,-2.0720316395221623
9.349999999999994,0.8317026123248248,-1.0640342292634173,-2.04044202291622
9.359999999999983,0.8636609915354873,-1.0353252437520226,-2.010387263399271
9.370000000000005,0.8948331217790484,-0.9990570080517304,-1.9745075968823236
9.379999999999995,0.8999198433583137,-0.9678453902497588,-1.93726774635033
9.389999999999986,0.9122277786320624,-0.9328030113213768,-1.903909131272686
9.399999999999975,0.9256313129463356,-0.898706117833964,-1.882201798649568
9.409999999999997,0.956171169916999,-0.8721227841815236,-1.8667828453394688
9.419999999999987,0.993813173340622,-0.8367227640343866,-1.8469532753059963
9.429999999999978,1.0433123909540234,-0.8193118275642651,-1.8202937246133528
9.439999999999998,1.0813282824681798,-0.791705964911451,-1.7967460577674907
9.449999999999989,1.1161724560711117,-0.7567171615600807,-1.7566413654449846
9.45999999999998,1.1493811038798447,-0.7206336549812541,-1.7169777299760214
9.47,1.182866895967553,-0.679206403929824,-1.6866623521848
9.47999999999999,1.2077560938733287,-0.635663143956874,-1.6580808701924492
9.48999999999998,1.2252467893767984,-0.5859604917512762,-1.6231407549346906
9.5,1.2454330630088026,-0.543906809087968,-1.5909666044212851
9.509999999999993,1.2778111626376258,-0.4994995502498952,-1.5637240076834358
9.519999999999982,1.3263742828632856,-0.4418988457594143,-1.544127618646474
9.53,1.3671921303741632,-0.3948038068202174,-1.522919956351465
9.539999999999992,1.3928032541974311,-0.3329951321778923,-1.486012469134834
9.549999999999985,1.411136871452438,-0.2597688650714828,-1.436168914486947
9.560000000000002,1.4444525909110952,-0.1957836286793588,-1.3856504275163355
9.569999999999991,1.4772160898305269,-0.1250225973622376,-1.3373251377023818
9.579999999999984,1.499415578248705,-0.0436791164750526,-1.2836888379723914
9.590000000000003,1.5100186299511211,0.0404231192862778,-1.2327872598852443
9.599999999999994,1.4980373939579354,0.1308098873187146,-1.1805430829956611
9.609999999999983,1.4590552976495408,0.2292843738566972,-1.1240470249590944
9.620000000000005,1.416925272339205,0.321337006931825,-1.065506032567853
9.629999999999995,1.3947499732881354,0.4088041475027859,-0.990541655111039
9.639999999999986,1.3879670592691862,0.4967175622208135,-0.918536066698147
9.649999999999975,1.4031958051413644,0.5940147760699095,-0.8255317864500488
9.659999999999997,1.4112547778512938,0.6940272455123511,-0.7334352313452631
9.669999999999987,1.40398084972393,0.7923056655247052,-0.63598435895058
9.679999999999978,1.380142169119036,0.8757682693839487,-0.5288599592912737
9.689999999999998,1.3318547420448688,0.970316600993368,-0.4329799795064452
9.699999999999989,1.2672317461370566,1.0527899623523742,-0.3323965653413962
9.70999999999998,1.1768857492216211,1.1275932847859609,-0.2360926275868612
9.72,1.0775070534531843,1.2104406363145297,-0.1348439997105598
9.72999999999999,0.9690036538906912,1.290833142889921,-0.0331596855864293
9.73999999999998,0.876045660516163,1.3678705025877085,0.0751337807606574
9.75,0.7884442955015089,1.4390242214364828,0.1891278671599084
9.759999999999993,0.7096110563624871,1.5089163468879438,0.2936972772240995
9.769999999999982,0.6522885844395354,1.5772982206861217,0.4031772713135809
9.78,0.5932914161539743,1.646050540140021,0.5128528104668979
9.789999999999992,0.5449470764305523,1.7166460210449492,0.61977636397031
9.799999999999985,0.4986120664729301,1.7815605833544017,0.7204589389030911
9.810000000000002,0.4636764603404604,1.854155683738814,0.8101148081227009
9.819999999999991,0.4246696307729018,1.9297845937996736,0.8987390033572539
9.829999999999984,0.3634507214503561,2.007975045911762,0.9873845688538648
9.840000000000003,0.3058988838598512,2.072745202241922,1.0652468755886308
9.849999999999994,0.2394196644774887,2.12794353475856,1.1426652649408673
9.859999999999983,0.1715134751267467,2.197928976503006,1.206901934361016
9.870000000000005,0.1158552665710058,2.2637573951364134,1.260273345806007
9.879999999999995,0.0731615577789556,2.3348488821536835,1.3098749359270112
9.889999999999986,0.0339667772586883,2.4023308831645047,1.3506196578302454
9.899999999999975,-0.0141512992306686,2.4729007002797587,1.396657271332116
9.909999999999997,-0.0604045029120775,2.542067144214043,1.4494074366688947
9.919999999999987,-0.1244897112087759,2.61116304171834,1.4973563808173618
9.929999999999978,-0.1879958411376032,2.680880706824054,1.556417912434381
9.939999999999998,-0.2361412716377086,2.743616741743967,1.618203855800297
9.949999999999989,-0.297067822583878,2.799419849870997,1.6607029319017943
9.95999999999998,-0.3435302912723972,2.8596833190330537,1.7061673481826771
9.97,-0.4090376457504848,2.932182807491685,1.745838725540763
9.97999999999999,-0.4643326019498773,3.000047859404802,1.7785187095939494
9.98999999999998,-0.521418805124132,3.0520029968148807,1.791863879407909
10.0,-0.5928572731582584,3.105370242795566,1.808130215999037
10.009999999999993,-0.6708112188609308,3.1422636593575586,1.8115693429667483
10.019999999999982,-0.7500013380143071,3.1751918832712773,1.8050841315296653
10.03,-0.8245598764108304,3.2067932979822933,1.790219468334796
10.039999999999992,-0.8794057282127138,3.233628065441505,1.7582932951259858
10.049999999999985,-0.910986411291338,3.2605430877904835,1.7192271130347505
10.060000000000002,-0.938955830616092,3.284223074492997,1.677404390456857
10.069999999999991,-0.9521216226676112,3.2766809770568086,1.6396520938094954
10.079999999999984,-0.9582254989661186,3.2711589076869814,1.5955124695199283
10.090000000000003,-0.9575964690502003,3.276353643961372,1.5700360931565016
10.099999999999994,-0.956914508400527,3.2616837869251696,1.5392492786635523
10.109999999999983,-0.962062166897518,3.2438143275926463,1.4882707345259345
10.120000000000005,-0.9781531613291796,3.212166749766354,1.4315332672474317
10.129999999999995,-0.9892696360354534,3.190673859753748,1.3725944112826207
10.139999999999986,-0.993283909651482,3.166487049757426,1.3337409124915098
10.149999999999975,-1.0025494398314176,3.1311768742411985,1.289173200237647
10.159999999999997,-1.0135399007697072,3.094517709482026,1.2595970892251007
10.169999999999987,-1.0176113423558462,3.0524174657474585,1.2485741517089517
10.179999999999978,-1.0154598957169405,3.000525925564536,1.23470797935531
10.189999999999998,-1.010547486067865,2.952367802616204,1.2223375588736338
10.199999999999989,-0.995109601379402,2.905184206758475,1.199803340405584
10.20999999999998,-0.9587671936371978,2.871369434653686,1.1772826479694587
10.22,-0.9185206264849984,2.8465707029014524,1.1487235871600323
10.22999999999999,-0.889538709749565,2.813030289257495,1.1247359609502914
10.23999999999998,-0.8586923261958738,2.797556006477236,1.1131995830036114
10.25,-0.8458697415796977,2.7551277222435004,1.104562928783708
10.259999999999993,-0.859929116489651,2.7011455538156803,1.1058620373900072
10.269999999999982,-0.8934867527021763,2.6482791247101742,1.10734440283432
10.28,-0.9406559944179146,2.6013239585562307,1.0972647017224224
10.289999999999992,-0.995947031684057,2.569780263010181,1.090066787111677
10.299999999999985,-1.0676222726187437,2.540938914176865,1.0681597826606608
10.310000000000002,-1.1347739028525627,2.519285883344016,1.0517214812383286
10.319999999999991,-1.1954034966294231,2.485328505643182,1.0303867275977776
10.329999999999984,-1.2578967963169856,2.443029639048752,0.999940145685679
10.340000000000003,-1.318175714915764,2.390402101275885,0.9637421258995312
10.349999999999994,-1.361822800269412,2.3274759996769223,0.9269031130440616
10.359999999999983,-1.39178683853971,2.2750243829535406,0.8924477480430704
10.370000000000005,-1.426713127590603,2.211422794054984,0.8356001843670433
10.379999999999995,-1.4618844797003685,2.156365849608241,0.7736889222439751
10.389999999999986,-1.494043557486649,2.1215551600642115,0.719339508602952
10.399999999999975,-1.5260058051738985,2.0773087918987176,0.656013607532245
10.409999999999997,-1.554600260383677,2.006453681684185,0.5936725720814888
10.419999999999987,-1.5818748942337049,1.960467753935342,0.5417312038522052
10.429999999999978,-1.6094393246496224,1.8994343289236884,0.4932038569995057
10.439999999999998,-1.640488372153342,1.8265375696203152,0.4431353983410738
10.449999999999989,-1.674129533854709,1.7711552389104266,0.3996016772062863
10.45999999999998,-1.690076287228334,1.7109865888715856,0.3700008931036448
10.47,-1.692101122047569,1.6614547591231237,0.334072196533376
10.47999999999999,-1.694635710823097,1.6177618671277445,0.2884459865292572
10.48999999999998,-1.6832961103130335,1.575084369447446,0.2434627515775536
10.5,-1.6850578583394322,1.5053492109547757,0.183705449638357
10.509999999999993,-1.7065008689449324,1.4558157792383244,0.124680221382756
10.519999999999982,-1.7646840355315054,1.401498969130508,0.0723747405907843
10.53,-1.844577953626703,1.3422132681498224,0.0198109121985806
10.539999999999992,-1.9314147758571587,1.2906440565550297,-0.0259465919125353
10.549999999999985,-2.0073116484052647,1.2364357657790666,-0.0654990337713469
10.560000000000002,-2.056455118534301,1.2059668118676976,-0.1220068084828896
10.569999999999991,-2.0890911355377546,1.169130046371373,-0.1881858124206613
10.579999999999984,-2.1052979725866745,1.140419825614902,-0.2515495225986627
10.590000000000003,-2.1103207938268587,1.1098076504671042,-0.3132560635890328
10.599999999999994,-2.1115778143727453,1.0637852050571417,-0.3734004133724611
10.609999999999983,-2.10324214085495,1.0198060728129088,-0.4318491032703994
10.620000000000005,-2.070415621532736,0.9672735268510146,-0.4949852274736057
10.629999999999995,-2.014235490356001,0.91339033571809,-0.5472528797734917
10.639999999999986,-1.952410415282417,0.8683751233762161,-0.6011522947818011
10.649999999999975,-1.9028506538355423,0.811194610431612,-0.6702312617398957
10.659999999999997,-1.8750065564323808,0.7512238434898095,-0.7454321331489303
10.669999999999987,-1.8525354014907132,0.6780745025418039,-0.8233563299970282
10.679999999999978,-1.830442936056,0.5928991621270027,-0.9011477096003098
10.689999999999998,-1.7968189925577818,0.5059005620890135,-0.9763088762602868
10.699999999999989,-1.7379534711471931,0.4232074046116269,-1.0525111686407924
10.70999999999998,-1.6622882173181257,0.3412124213601909,-1.1136393691514497
10.72,-1.5621253979087284,0.2491360362855388,-1.185053570829649
10.72999999999999,-1.4493805067902603,0.1527497257625354,-1.2531625722741937
10.73999999999998,-1.3525517385205543,0.0703798959829965,-1.3200763751539497
10.75,-1.2474961028672626,-0.0041865035248549,-1.3841155364786983
10.759999999999993,-1.1588184382386637,-0.0898600444887718,-1.458307296537047
10.769999999999982,-1.0520418899990682,-0.1616746968053745,-1.551303457394802
10.78,-0.910521776363469,-0.2321892283259887,-1.6312699769297367
10.789999999999992,-0.7823384229517345,-0.3052629392335453,-1.7002791720197383
10.799999999999985,-0.6554728494591918,-0.3799798154433102,-1.7654986658278984
10.810000000000002,-0.5506458291412228,-0.431695301579906,-1.828639695694384
10.819999999999991,-0.4599983254731788,-0.495047328580661,-1.8864527063560212
10.829999999999984,-0.3893815397601159,-0.5577729100262706,-1.939249644262354
10.840000000000003,-0.3464895017863427,-0.600233071562035,-1.9871094053549287
10.849999999999994,-0.3285240453385076,-0.6383057582533004,-2.044218306678685
10.859999999999983,-0.3171241758171093,-0.6772394957171313,-2.107503567751228
10.870000000000005,-0.3084967961562413,-0.7152972994228212,-2.171613438472204
10.879999999999995,-0.3156968893971637,-0.7460673296985119,-2.2276429743658137
10.889999999999986,-0.3052542973084871,-0.7767198592043612,-2.277050872672528
10.899999999999975,-0.2740209108582594,-0.8019959450871283,-2.32146005444081
10.909999999999997,-0.2334285749357448,-0.8251362333395662,-2.346241932468117
10.919999999999987,-0.1942743295983204,-0.846001742072329,-2.365897641227676
10.929999999999978,-0.1590462243391859,-0.8757800656388375,-2.3743082627375207
10.939999999999998,-0.1310771257740644,-0.9177368052862704,-2.381579285840946
10.949999999999989,-0.118807939709646,-0.9540187773445876,-2.397817366551243
10.95999999999998,-0.1095376590885992,-1.0079566339726798,-2.416545787383595
10.97,-0.119089184085609,-1.0470632289506854,-2.433295997626301
10.97999999999999,-0.1443984920908429,-1.0802133366710356,-2.451308448901023
10.98999999999998,-0.1482736719352715,-1.1168113458834623,-2.4646980363767166
11.0,-0.1166123638629983,-1.1376758600731791,-2.487799470207713
11.009999999999993,-0.0766226785949509,-1.1608300213945726,-2.510201314869805
11.019999999999982,-0.052316363893884,-1.1599828950970623,-2.5309278331467486
11.03,-0.0496145552852007,-1.1595872574655672,-2.544046396285818
11.039999999999992,-0.0715059187442841,-1.160756453902218,-2.551072067156232
11.049999999999985,-0.134281531141854,-1.157863391616342,-2.53479693644726
11.060000000000002,-0.22039878197216,-1.1855660663089205,-2.524669290419713
11.069999999999991,-0.3212128261884122,-1.2174021608580508,-2.505476518126849
11.079999999999984,-0.4014962973731959,-1.2315185405837812,-2.4929651127776755
11.090000000000003,-0.4645270360468619,-1.2305349950275657,-2.483260743622227
11.099999999999994,-0.5199773186140029,-1.212147511383729,-2.458545113653423
11.109999999999983,-0.5650428789823851,-1.1901271679844614,-2.421206070824102
11.120000000000005,-0.5972683427391319,-1.1733798952704126,-2.381074746392124
11.129999999999995,-0.6349535427013187,-1.156539287492977,-2.3366431027542425
11.139999999999986,-0.6728330117390624,-1.164675247244222,-2.2742759244626103
11.149999999999975,-0.7179076797639482,-1.1935838290837113,-2.21179848630937
11.159999999999997,-0.7443924463209122,-1.1994339570377852,-2.1491897633622745
11.169999999999987,-0.7550223088228223,-1.1812209468720611,-2.096615905581275
11.179999999999978,-0.7397346538897593,-1.1445560320067123,-2.0528572047255875
11.189999999999998,-0.7012411861576949,-1.127023018406223,-2.0318770547298444
11.199999999999989,-0.772697281386122,-1.1123083520137749,-2.055192578288781
11.20999999999998,-0.950366881137606,-1.0849091482061397,-2.0547177859779224
11.22,-1.096577168003728,-1.0311064340367946,-2.026827571966585
11.22999999999999,-1.1624597240216477,-1.0319147368175263,-2.001004967450123
11.23999999999998,-1.1730212177851975,-1.039589089038369,-1.96312902332041
11.25,-1.1344261595460174,-1.0084524865167448,-1.9299991488808848
11.259999999999993,-1.0352917845621927,-0.976758350832447,-1.9154249555017424
11.269999999999982,-0.9215102648761956,-0.938162384030556,-1.9040842013258616
11.28,-0.8017793205795436,-0.8959174290648693,-1.8853070461514756
11.289999999999992,-0.7019186862407388,-0.8403939139521397,-1.8774774782053496
11.299999999999985,-0.606647684400181,-0.7924377602606582,-1.8689360355492537
11.310000000000002,-0.5627247735155932,-0.7740278282888595,-1.8613695745251948
11.319999999999991,-0.5545728717038881,-0.7581953190110347,-1.847519710380748
11.329999999999984,-0.5899180419896596,-0.7487753754847097,-1.8213922413189747
11.340000000000003,-0.6502447933645891,-0.7634493725079763,-1.768750444058418
11.349999999999994,-0.7176703192867985,-0.7805510922504898,-1.7259698428217032
11.359999999999983,-0.7717617039953102,-0.8012718722477202,-1.6895429171128409
11.370000000000005,-0.7961659345944828,-0.8037928396641028,-1.6549325054870976
11.379999999999995,-0.7997847589953876,-0.7741930584731851,-1.6261029723819715
11.389999999999986,-0.7894444158915902,-0.7385933994085526,-1.6035279444701724
11.399999999999975,-0.7787360856195991,-0.7183674439291612,-1.5800227187036708
11.409999999999997,-0.787619729046329,-0.6982877789965694,-1.5564171562100524
11.419999999999987,-0.773359775297182,-0.6893058558982104,-1.5438357499244348
11.429999999999978,-0.7509551852725577,-0.6849004012286639,-1.5200780492049708
11.439999999999998,-0.7408517264930964,-0.6895088758018623,-1.4960016258875672
11.449999999999989,-0.7360849749846564,-0.7047373812124754,-1.4675471882034037
11.45999999999998,-0.7543860550510862,-0.7230759327275194,-1.4441296552355936
11.47,-0.7854797532748562,-0.7414248360996971,-1.4319758345026796
11.47999999999999,-0.8354815331375706,-0.7449761452511942,-1.428473725131614
11.48999999999998,-0.8740580381234824,-0.7236341880741454,-1.443016450866892
11.5,-0.8956614354455071,-0.7121987883961916,-1.4718053931431394
11.509999999999993,-0.8893802471770923,-0.6906385130698869,-1.5040716759471071
11.519999999999982,-0.8419016547421037,-0.6638923551761676,-1.5370070167313163
11.53,-0.7836166916037873,-0.6443430073017001,-1.5730483217222433
11.539999999999992,-0.7255550773113888,-0.627204135856184,-1.5962224499303068
11.549999999999985,-0.6628984584453439,-0.6072772049516093,-1.621824133642959
11.560000000000002,-0.5982799793144271,-0.5779084153227337,-1.6666762004739548
11.569999999999991,-0.5400381921698382,-0.5354740577902432,-1.7179390199290452
11.579999999999984,-0.4793800520127291,-0.5192183820801349,-1.7720140060937093
11.590000000000003,-0.442705612170727,-0.505264128995557,-1.8295904213580332
11.599999999999994,-0.4148335265921111,-0.5017082272865192,-1.8836386826529403
11.609999999999983,-0.4110467564967045,-0.5215041636424338,-1.9184613339904344
11.620000000000005,-0.4224797801401972,-0.5373391453545989,-1.965186297742704
11.629999999999995,-0.4581998711300905,-0.5554033703874774,-2.001755497458989
11.639999999999986,-0.5130693764231878,-0.5760761490509284,-2.06249036502778
11.649999999999975,-0.5720677948878438,-0.5904185932142694,-2.1168432008985048
11.659999999999997,-0.6295224001941572,-0.6117505656870184,-2.1538628816223384
11.669999999999987,-0.6847708225981792,-0.6219464812288923,-2.1901792110982394
11.679999999999978,-0.7111283988936312,-0.6287064951290581,-2.2201177366727785
11.689999999999998,-0.7138794943005611,-0.6273623180367169,-2.231101156585088
11.699999999999989,-0.6883051675861971,-0.6242150204273279,-2.2435457781198487
11.70999999999998,-0.6403481641162762,-0.6090423118086274,-2.237354778972774
11.72,-0.5773404989886819,-0.59561695283584,-2.227096678297499
11.72999999999999,-0.5305461324988247,-0.5768857808877959,-2.226090880267945
11.73999999999998,-0.5084697701897348,-0.5750461187649093,-2.211093444049441
11.75,-0.5247901182473169,-0.5848965488994226,-2.185640528055196
11.759999999999993,-0.566007943747519,-0.6085512053396019,-2.1643286144233578
11.769999999999982,-0.6073202496359372,-0.6316960747883416,-2.1266221311527533
11.78,-0.6413365582865984,-0.6411575825222899,-2.076228167378664
11.789999999999992,-0.6345200508402874,-0.6297433334741386,-2.021811214589727
11.799999999999985,-0.6027640347554969,-0.6042048497310681,-1.969505249583955
11.810000000000002,-0.5634268234517117,-0.5934104656474436,-1.8968015762894983
11.819999999999991,-0.5129217300890709,-0.5934076318014565,-1.8289652725826349
11.829999999999984,-0.4567333826589842,-0.5854522031379793,-1.7611138170992149
11.840000000000003,-0.3995517754202228,-0.5937369275843426,-1.6995270407721526
11.849999999999994,-0.320540826334529,-0.575775396570701,-1.628055467189558
11.859999999999983,-0.2219278222298839,-0.5448295469175441,-1.5673574027703097
11.870000000000005,-0.1165778314903805,-0.5099189379553539,-1.5033133047560023
11.879999999999995,0.0099771221240357,-0.4467100301286782,-1.4429125764216078
11.889999999999986,0.1417289551180149,-0.367117921097488,-1.3994439686363842
11.899999999999975,0.2563766279237831,-0.2959451239715177,-1.3509496668192544
11.909999999999997,0.3526162622830633,-0.208951162848294,-1.3081401939980315
11.919999999999987,0.4393388000875162,-0.1192268568899615,-1.2672893153250124
11.929999999999978,0.5269181543997682,-0.0241472432525073,-1.227425661537891
11.939999999999998,0.6131471099443307,0.0843120713361748,-1.185757089429181
11.949999999999989,0.6856894317996708,0.2013037713537405,-1.1488472985845608
11.95999999999998,0.7810881209049784,0.3180989938618882,-1.105492779828713
11.97,0.8836626409401203,0.4432764294817311,-1.0680501516541918
11.97999999999999,0.9948610800068036,0.5667960162018189,-1.0415680667058709
11.98999999999998,1.1175641458496266,0.6897576827243207,-1.015178146128237
12.0,1.2593526169950546,0.8035379115011896,-0.9827621715543858
12.009999999999993,1.4182325453428977,0.9073078685080458,-0.9744431103178915
12.019999999999982,1.5757053915772634,0.9997252268030752,-0.9642769079762652
12.03,1.736058686307425,1.076359011686956,-0.9599643411761936
12.039999999999992,1.8643036463288092,1.146386004980226,-0.961186382138853
12.049999999999985,1.9625674717892525,1.216901528940496,-0.963598526133043
12.060000000000002,2.0194649989673765,1.2993303851326048,-0.9785099208516552
12.069999999999991,2.050121033673756,1.3890175313030446,-1.0112707792718636
12.079999999999984,2.0578421721736566,1.4724298769835298,-1.0558581585038245
12.090000000000003,2.024585164897286,1.53860519860364,-1.0965556405356618
12.099999999999994,1.9542088165350815,1.5923031081340504,-1.136104658027831
12.109999999999983,1.8730982207222409,1.6351931433939153,-1.1812335354964407
12.120000000000005,1.8007674308111188,1.6798245653240402,-1.2097989589523108
12.129999999999995,1.7311082221946736,1.7309276773612443,-1.2378245776690242
12.139999999999986,1.6633416517996955,1.78851110350231,-1.2528623506468646
12.149999999999975,1.596939560169336,1.8359993858764905,-1.2623196905162573
12.159999999999997,1.520736635922301,1.8774510660681605,-1.2583085073750315
12.169999999999987,1.4267897251860673,1.9109255799457008,-1.2510150321806852
12.179999999999978,1.3247749071527055,1.933677354627645,-1.2299023381321763
12.189999999999998,1.2105388278266067,1.975488647068232,-1.2088454762936025
12.199999999999989,1.1157453751065218,2.013852500718668,-1.1872328800503205
12.20999999999998,1.035134948456638,2.0655157851920416,-1.161561382639583
12.22,0.9622819303803272,2.119080932317756,-1.1257380087330568
12.22999999999999,0.8849262162226269,2.165512903737791,-1.0840007423658389
12.23999999999998,0.8127017240055772,2.218396397004085,-1.0266891430712708
12.25,0.74593854507524,2.2575767490473635,-0.9607861828502556
12.259999999999993,0.6816445834074861,2.290542271690145,-0.875200894354792
12.269999999999982,0.631682711298052,2.3250466502041616,-0.7882150142999512
12.28,0.5894563312257532,2.3786699356971166,-0.6913180233752307
12.289999999999992,0.5959788649615281,2.3960045277232163,-0.5892805977209427
12.299999999999985,0.5539287675364948,2.4054042678633336,-0.4837129740465299
12.310000000000002,0.4825030613010306,2.423628363363814,-0.3685797301759717
12.319999999999991,0.435257233477352,2.428499883868796,-0.2481695033698334
12.329999999999984,0.3662238144536803,2.430817780212152,-0.1214343854137011
12.340000000000003,0.3078372630597715,2.4226374344778865,0.0233816378297764
12.349999999999994,0.2804235568662392,2.413531126524796,0.1847313211157444
12.359999999999983,0.243024008246158,2.3995803481591413,0.3533745896263409
12.370000000000005,0.234990907979631,2.370136443035566,0.5075014708874377
12.379999999999995,0.2161306944561305,2.336684650813607,0.6308723339343877
12.389999999999986,0.2018396623053018,2.2947774900152944,0.7462292020046791
12.399999999999975,0.176778221655043,2.2333252975505595,0.8656469087565182
12.409999999999997,0.1373019107225052,2.1856848904512134,0.9922493390890385
12.419999999999987,0.0894461392132911,2.145292671115525,1.1147967666297205
12.429999999999978,0.0367116763909316,2.108218515115469,1.2272147762358254
12.439999999999998,-0.0246064504175588,2.0786315822022234,1.3595955667663475
12.449999999999989,-0.0876585150777724,2.0785253636360728,1.4691137497497524
12.45999999999998,-0.1519204662799818,2.070275968498376,1.5864972345204682
12.47,-0.2125277285257637,2.085608497039772,1.6954579173723066
12.47999999999999,-0.2385085245485625,2.096513029527634,1.7787010043717135
12.48999999999998,-0.2583346165104175,2.1069757279029155,1.853705218730528
12.5,-0.2647745630028942,2.13206187637334,1.9170999123468344
12.509999999999993,-0.255215105839113,2.151307520685954,1.9636937422715404
12.519999999999982,-0.2332228520922022,2.161359167845616,2.02647920670146
12.53,-0.1967335501810209,2.164661685380131,2.0746534107864383
12.539999999999992,-0.1592086481821998,2.189460142936812,2.1357278112912
12.549999999999985,-0.1447977083985191,2.216861146563118,2.2025628122546648
12.560000000000002,-0.1442660831850322,2.224210821963887,2.2729412437189347
12.569999999999991,-0.1693485762983889,2.231686064357429,2.3346710035837104
12.579999999999984,-0.2114029404334677,2.2389894373589523,2.399693835434629
12.590000000000003,-0.2590107846937415,2.245456602877605,2.4563516201453237
12.599999999999994,-0.3073752282632118,2.2450053549390563,2.4973200308173027
12.609999999999983,-0.3477486295417087,2.2533148452428886,2.5341824392981422
12.620000000000005,-0.3746730318034635,2.262552309352532,2.553234858387319
12.629999999999995,-0.4238888924037566,2.273388511019007,2.581445431555313
12.639999999999986,-0.468359994561117,2.27666914546458,2.6069934539458486
12.649999999999975,-0.5288011386778917,2.2656992920876995,2.62061465860612
12.659999999999997,-0.5840675962016265,2.249137400197616,2.6378378208930697
12.669999999999987,-0.6425194905269198,2.214337478317799,2.6276422213241286
12.679999999999978,-0.7004569369927357,2.1842047355622403,2.627418335067367
12.689999999999998,-0.7362543668062534,2.147176236732153,2.6190506566254816
12.699999999999989,-0.7563985605213521,2.114889861701642,2.6023464205861675
12.70999999999998,-0.75983451658575,2.087722031195415,2.585878800766239
12.72,-0.7582981891330353,2.064693424115289,2.551005025346353
12.72999999999999,-0.7501005465644094,2.045430687631523,2.5171667058377847
12.73999999999998,-0.7333470246695816,2.030220484409332,2.492563092464524
12.75,-0.7141952187022678,1.994308367609795,2.474473500861328
12.759999999999993,-0.6903076919273392,1.9636773406381247,2.438875243590169
12.769999999999982,-0.6711506394676995,1.9288461709926288,2.408464174667933
12.78,-0.6632356834294267,1.8908160424811256,2.388617123655963
12.789999999999992,-0.6666230087037625,1.8591675547684856,2.363905883064645
12.799999999999985,-0.6603922275530147,1.8331789984136424,2.3452311882166863
12.810000000000002,-0.6594197822385499,1.815568813898513,2.3161556080700496
12.819999999999991,-0.6437126231250812,1.79136042953853,2.284364322215058
12.829999999999984,-0.6344760437504332,1.75868452378538,2.255492247470728
12.840000000000003,-0.629717479716298,1.7209218505499186,2.226044886017024
12.849999999999994,-0.6004390734258461,1.697777852749326,2.2025248761879834
12.859999999999983,-0.5811171255931875,1.6764312500451095,2.166444153533207
12.870000000000005,-0.5725794439082597,1.661467864279636,2.1260671280651016
12.879999999999995,-0.5717175708766569,1.639668237133845,2.105168455204243
12.889999999999986,-0.5840863313134165,1.6101430155521628,2.083225391948377
12.899999999999975,-0.6217007968110173,1.578713756201196,2.0670193984209755
12.909999999999997,-0.6855618514649426,1.5435816674501586,2.0701791180917986
12.919999999999987,-0.7484873590902764,1.5338518127097027,2.0555729674020005
12.929999999999978,-0.7976130531094173,1.526080095377218,2.0406345768003584
12.939999999999998,-0.8085028912114218,1.5306330823344596,2.035098276018769
12.949999999999989,-0.81898799386817,1.5156944271660435,2.0216704385248923
12.95999999999998,-0.8173396391876526,1.514008079647744,1.9898028298836
12.97,-0.7867169883046856,1.5351897031798405,1.966611735679671
12.97999999999999,-0.7555769361853555,1.542063309054661,1.947193001329568
12.98999999999998,-0.7320762041527936,1.5400986656068685,1.9286945922994392
13.0,-0.7321976465875482,1.5250350745122738,1.912100958649947
13.009999999999993,-0.7495232868740456,1.5303445020303184,1.9016006163824195
13.019999999999982,-0.7593729311294892,1.537731942874744,1.8882952649023643
13.03,-0.7450003183311033,1.5573104049796445,1.8629835243162631
13.039999999999992,-0.7341340257638886,1.5787404809115837,1.8417939638466203
13.049999999999985,-0.7306373514218167,1.585517495158887,1.8268476818174075
13.060000000000002,-0.7187473863605285,1.5764978133640295,1.8383273640046252
13.069999999999991,-0.7026278847005817,1.5691205147331029,1.8357132134620888
13.079999999999984,-0.6829478509681516,1.5472872455290498,1.820641726837391
13.090000000000003,-0.6652524452355599,1.5182986572257482,1.8149340626445236
13.099999999999994,-0.6410390737050103,1.4880353267431488,1.8241298636022727
13.109999999999983,-0.6507216584562451,1.4332996529535902,1.8446406971374136
13.120000000000005,-0.6686440137336563,1.3722027675726127,1.8518985819539888
13.129999999999995,-0.7228047263423556,1.2981126135013248,1.8687761940862304
13.139999999999986,-0.8079357142099537,1.2018811077704474,1.874552312828204
13.149999999999975,-0.9478039224361616,1.1125481057149416,1.8671196304737947
13.159999999999997,-1.110536006158042,1.0121015353209322,1.851423046361098
13.169999999999987,-1.2277158842345135,0.9151526279108848,1.836535287913724
13.179999999999978,-1.307229599003927,0.8000717066064257,1.8152754660744417
13.189999999999998,-1.348582683262746,0.6716871622557278,1.8040406765430017
13.199999999999989,-1.3508447839658746,0.5406830953725884,1.7935413998624206
13.20999999999998,-1.3343336103795245,0.4076642124472963,1.777352259035227
13.22,-1.3123034170811547,0.2762736609806117,1.766184520101883
13.22999999999999,-1.3021959188009051,0.1567984799511778,1.7459399049375817
13.23999999999998,-1.3021504383475513,0.0372237662358754,1.7372572054491129
13.25,-1.2939563693372624,-0.0944204481163791,1.7387056658062554
13.259999999999993,-1.2846112046418836,-0.2082823657459864,1.7198076982107915
13.269999999999982,-1.278006530538811,-0.3189883898208437,1.6942447829352376
13.28,-1.249769291278543,-0.4173224846062608,1.6617164668242417
13.289999999999992,-1.2156556333698352,-0.5170323373137556,1.6278281630802616
13.299999999999985,-1.153647811179541,-0.6211479584849959,1.6140624390832186
13.310000000000002,-1.0691894784101963,-0.7223091540456157,1.6079854257354664
13.319999999999991,-0.9829529840078932,-0.8283543772384708,1.5896306729547962
13.329999999999984,-0.880230449389213,-0.9203599913763714,1.56717807952035
13.340000000000003,-0.7924914026846057,-1.0076721400495945,1.5245356905735266
13.349999999999994,-0.7244710580350199,-1.0977389032635383,1.4734077112163977
13.359999999999983,-0.6919390073374649,-1.1906680536168852,1.4056089499738915
13.370000000000005,-0.6810025234799908,-1.276692922843882,1.3376532453187877
13.379999999999995,-0.6362778011786329,-1.360879450970334,1.28433642328355
13.389999999999986,-0.5966509410064869,-1.4325691571940062,1.2498042156294975
13.399999999999975,-0.5197981912115475,-1.5201994672458183,1.2351501323419238
13.409999999999997,-0.4168628478108569,-1.5911763081507424,1.214620637282822
13.419999999999987,-0.289638028267738,-1.6359318209137454,1.1769913836442272
13.429999999999978,-0.1659022365209232,-1.668431610038701,1.1301978576092235
13.439999999999998,-0.0780654283198795,-1.7205053398760244,1.05029363758001
13.449999999999989,-0.0181218957351343,-1.77384711990408,0.9638598724244756
13.45999999999998,0.0196640564643293,-1.841457878757955,0.8833379381608724
13.47,0.0691428788294804,-1.9004014753178424,0.8124174511557711
13.47999999999999,0.1155176646407489,-1.950006422058749,0.7511621616191793
13.48999999999998,0.1686135075876329,-2.0104909526962587,0.7103925101393587
13.5,0.2418976296810896,-2.0650110345067585,0.6725285768898969
13.509999999999993,0.2959462734574948,-2.121405912763215,0.6273307532003423
13.519999999999982,0.3212253071137214,-2.176913628856116,0.5776198672936296
13.53,0.3209386776716318,-2.246613769743505,0.5150490562882647
13.539999999999992,0.3252616616876274,-2.3183851678630565,0.4499709998965888
13.549999999999985,0.3326421514140158,-2.397987120052982,0.3847385466568051
13.560000000000002,0.3832412271851929,-2.47407671721495,0.323704288725445
13.569999999999991,0.4444893425696593,-2.531731577370289,0.2651639722288155
13.579999999999984,0.4820649570868321,-2.564706035090152,0.2035776822643472
13.590000000000003,0.4985977334194074,-2.595447697943723,0.1435105454963268
13.599999999999994,0.4776381877474646,-2.615348650594466,0.0886585417449486
13.609999999999983,0.4244924282486763,-2.633360317763147,0.0381348250896895
13.620000000000005,0.3532596093486047,-2.650936797691004,-0.009028395703914
13.629999999999995,0.2737994843976915,-2.692755551231482,-0.0561166590929755
13.639999999999986,0.2177716951152564,-2.736492427001115,-0.1063796352841984
13.649999999999975,0.1872346470089021,-2.787267519688856,-0.1408026456158037
13.659999999999997,0.1796791180389739,-2.8233305788610035,-0.1638821693580675
13.669999999999987,0.1789157700860711,-2.848630845599896,-0.1813463544011237
13.679999999999978,0.184765783259894,-2.8780349944705743,-0.1926502289873359
13.689999999999998,0.2028562299419124,-2.909876892894657,-0.2089894516559824
13.699999999999989,0.2023203012637327,-2.9286838531765538,-0.2280693411979554
13.70999999999998,0.2100559425831454,-2.945236436451461,-0.2386186239266274
13.72,0.2088943307819585,-2.950339843953933,-0.251767938333668
13.72999999999999,0.191035782092424,-2.9553493781580165,-0.2745723080502667
13.73999999999998,0.1605976480592699,-2.945150505933087,-0.3182920055906221
13.75,0.1125048531356102,-2.942519250851125,-0.3625444220924579
13.759999999999993,0.0532950297193336,-2.942137580064648,-0.3991584798734841
13.769999999999982,-0.0230866739120049,-2.934960073798308,-0.4356939121784016
13.78,-0.0934381133561542,-2.923066653279801,-0.4606070985441184
13.789999999999992,-0.1636984653341153,-2.9057914091116843,-0.4909213983214512
13.799999999999985,-0.2211805630952076,-2.879386618842908,-0.5192413717747136
13.810000000000002,-0.2669479219706924,-2.8588722049800803,-0.5493729014895068
13.819999999999991,-0.2934665485439376,-2.8340232354569226,-0.579181415442459
13.829999999999984,-0.3139708604808534,-2.8174158791894737,-0.5937461130683973
13.840000000000003,-0.3348773205424418,-2.8078028425308648,-0.6295209598953431
13.849999999999994,-0.3665146221195401,-2.7991952943750547,-0.6545933846330644
13.859999999999983,-0.4031239947193503,-2.7631117136873025,-0.681659570202899
13.870000000000005,-0.4644384934430467,-2.744253759075161,-0.7206159617718034
13.879999999999995,-0.5383575825332886,-2.716333240217529,-0.7414728074575613
13.889999999999986,-0.6216618753454327,-2.679985813017585,-0.7743218111909276
13.899999999999975,-0.7216755879029636,-2.653322968025777,-0.8011369883197464
13.909999999999997,-0.8337077140586522,-2.6151601431705664,-0.8374759101860507
13.919999999999987,-0.9673108519313676,-2.579076610281277,-0.8744363794723194
13.929999999999978,-1.1041895488090232,-2.531184240093292,-0.905534663757312
13.939999999999998,-1.2595098929854138,-2.4848391495988698,-0.9542761680918516
13.949999999999989,-1.4072544596599583,-2.449166447680704,-1.0194489654477417
13.95999999999998,-1.5517251646747965,-2.405694915114221,-1.0880544686451632
13.97,-1.6802776404580837,-2.360058065342642,-1.1480587381422636
13.97999999999999,-1.803103290731738,-2.301805581707269,-1.218999326701205
13.98999999999998,-1.934263969362572,-2.2415545505519723,-1.2878800510579256
14.0,-2.043867246965683,-2.1723885405661165,-1.3437163101494556
14.009999999999993,-2.1598693850333097,-2.1079573156364058,-1.3863050184459207
14.019999999999982,-2.265298783472389,-2.032943188653689,-1.430263027600133
14.03,-2.360423238164534,-1.9588697637888373,-1.4771787242314325
14.039999999999992,-2.4443292994273635,-1.8858001697778592,-1.5264109974214417
14.049999999999985,-2.533281482962958,-1.8072162564998115,-1.5776650654608284
14.060000000000002,-2.628626529159479,-1.737971151059101,-1.627567888967132
14.069999999999991,-2.738045490504588,-1.6746008901733112,-1.6838047425470457
14.079999999999984,-2.859220376840543,-1.6149068310455934,-1.7238501327084097
14.090000000000003,-2.9991549959023533,-1.5519974365834492,-1.7619422191373053
14.099999999999994,-3.1263286769281704,-1.4908706316930689,-1.7978574286490625
14.109999999999983,-3.22599468068898,-1.4290674077417975,-1.8293054972384843
14.120000000000005,-3.295499594982026,-1.3607697750200556,-1.8559472348087231
14.129999999999995,-3.34580809301168,-1.292302216753551,-1.8700467547847053
14.139999999999986,-3.390972355972253,-1.2138157104369338,-1.8793360696922847
14.149999999999975,-3.407571238254353,-1.1308852082495433,-1.887862887750611
14.159999999999997,-3.412323997520025,-1.0391657025494352,-1.8840115018275536
14.169999999999987,-3.41083231647422,-0.9357111931509174,-1.8717767819612663
14.179999999999978,-3.3915854844559705,-0.8499425175027135,-1.8366182636507624
14.189999999999998,-3.359718436603905,-0.7552912837040745,-1.813602249477613
14.199999999999989,-3.320715714778556,-0.6717063084769509,-1.7891748687409372
14.20999999999998,-3.26195441230885,-0.5711308540858414,-1.7561548548976376
14.22,-3.193029192084658,-0.4679798160826532,-1.715401406429242
14.22999999999999,-3.129030113665378,-0.3873572107372821,-1.6670270820842863
14.23999999999998,-3.0631938298151447,-0.2925606095116027,-1.6079101552152693
14.25,-3.0112850399079085,-0.2184789486970864,-1.540305750976056
14.259999999999993,-2.961774021116977,-0.1656333647768447,-1.4723131339653768
14.269999999999982,-2.923181243912304,-0.1033278811766412,-1.39968109344475
14.28,-2.884649276092853,-0.03222025266078,-1.3409131362007327
14.289999999999992,-2.83677845071232,0.0431221383134402,-1.2847778427252223
14.299999999999985,-2.8020108994681663,0.1131304615160304,-1.256040865701895
14.310000000000002,-2.77261442126438,0.1964461019248608,-1.2279003310520682
14.319999999999991,-2.7652853081003217,0.276902389654512,-1.2032846979313618
14.329999999999984,-2.7383274094502834,0.3622944746254145,-1.1630447886871569
14.340000000000003,-2.706226979763514,0.4529085832577347,-1.1134954935385764
14.349999999999994,-2.682386697328231,0.5280949903011452,-1.036863939324547
14.359999999999983,-2.6656731626034245,0.617663430089426,-0.952296226396462
14.370000000000005,-2.6608612906175013,0.7044917722692019,-0.8517823843087639
14.379999999999995,-2.683115818291829,0.7937052966377373,-0.7422350798731805
14.389999999999986,-2.7298910774635696,0.8728405761148962,-0.6269159394214546
14.399999999999975,-2.7985192396278875,0.9671780060397616,-0.5066863699805791
14.409999999999997,-2.87640378721902,1.048809580186684,-0.3884629190313113
14.419999999999987,-2.95704501342382,1.127018690399875,-0.2631242560417246
14.429999999999978,-3.0115053049814846,1.1837829007531453,-0.139281682732738
14.439999999999998,-3.03095731716822,1.2107951971335245,-0.0055772449593422
14.449999999999989,-3.027277386931444,1.2302435581034072,0.1382392916237922
14.45999999999998,-3.004627639579119,1.243398746612891,0.2843490827945091
14.47,-2.978445812598668,1.2723190558916984,0.431911390085528
14.47999999999999,-2.9622069114485936,1.3000288641355615,0.5825858078587796
14.48999999999998,-2.9429265886512037,1.3274036461999137,0.743017736224043
14.5,-2.918664057217088,1.3419887949271012,0.8926995113007656
14.509999999999993,-2.8800441760053825,1.331373634685868,1.0517318286691115
14.519999999999982,-2.804928269214129,1.30016393375923,1.1962462085672685
14.53,-2.730918891051455,1.2654667706189593,1.338536367363439
14.539999999999992,-2.6361870911807417,1.2159103792223611,1.473891210636599
14.549999999999985,-2.5312723258851406,1.157076294051163,1.5944468662850158
14.560000000000002,-2.485622955918617,1.118830731139781,1.7329235357968802
14.569999999999991,-2.4634179358170085,1.0821413537385354,1.856836787170172
14.579999999999984,-2.431590098936991,1.0440000807019072,1.9703552654631775
14.590000000000003,-2.3969907962509067,1.0075664574622276,2.0698153473594334
14.599999999999994,-2.326241403164833,0.9505901455209887,2.165709202019957
14.609999999999983,-2.220302310597437,0.8846724576907427,2.2464920490825704
14.620000000000005,-2.0749611364088776,0.8188238211243343,2.3272862879127105
14.629999999999995,-1.911411393494372,0.7540650971790348,2.402106544295086
14.639999999999986,-1.7595369540345365,0.7102356515961714,2.4556122418697868
14.649999999999975,-1.6266220151441042,0.6739123716679781,2.5091270476859684
14.659999999999997,-1.5248468511761968,0.6466240996103081,2.571215979296776
14.669999999999987,-1.4404280069160087,0.6204986928884998,2.619885059363738
14.679999999999978,-1.3639874808165915,0.5801052445901275,2.6660792789948933
14.689999999999998,-1.2865579017500015,0.5449086358229163,2.6868178610881324
14.699999999999989,-1.2199339843102364,0.489534400441481,2.709587838467687
14.70999999999998,-1.1635760670819912,0.44407026544796,2.729479138350707
14.72,-1.101139626265318,0.4045875454710578,2.7532434635731446
14.72999999999999,-1.029785246783157,0.3652656653986306,2.7830450844321013
14.73999999999998,-0.96407272633176,0.3360884873171295,2.807317005668252
14.75,-0.8822013459576806,0.3020453522286117,2.841222167118986
14.759999999999993,-0.7988758468325057,0.2710143037057708,2.869477753788526
14.769999999999982,-0.7144476842228662,0.2226673246891417,2.8919989512090223
14.78,-0.6136228413407543,0.2027452356832786,2.8964336371996477
14.789999999999992,-0.4983141577047982,0.1818798151404331,2.901341900399645
14.799999999999985,-0.3982071281178381,0.170245544828967,2.893055015105793
14.810000000000002,-0.330226362279999,0.174186300255891,2.882997698986632
14.819999999999991,-0.2860576067667414,0.16142094190633,2.863306200422757
14.829999999999984,-0.2441742994151818,0.1518205285078931,2.8301248836310724
14.840000000000003,-0.2285250918340884,0.1426891319930239,2.7996172283696983
14.849999999999994,-0.2147001913239776,0.1172631803772223,2.773379040242168
14.859999999999983,-0.2067053029986244,0.0974336056182773,2.766888698867724
14.870000000000005,-0.2155988109652156,0.0761394346713482,2.7627603119154758
14.879999999999995,-0.1998361236579317,0.0605859369739194,2.772080068315527
14.889999999999986,-0.1694625989083473,0.052447919355736,2.7850324860089795
14.899999999999975,-0.140489509894558,0.0385381856401252,2.78517931971275
14.909999999999997,-0.0801716517910374,0.0358388862291031,2.790830743745676
14.919999999999987,0.0030976725416965,0.0185511016157063,2.7755729278660497
14.929999999999978,0.0943633746082099,0.0078855773080473,2.7652490289153886
14.939999999999998,0.1924491655178438,-0.0053137778504733,2.7569480293453066
14.949999999999989,0.2737163408354604,-0.0165138333679334,2.757139719814932
14.95999999999998,0.3277942738153242,-0.0208518742495965,2.7644643967283606
14.97,0.3745335775530579,-0.0228559332612379,2.78513334604534
14.97999999999999,0.3962419677658268,-0.0251053334239592,2.8020285852922173
14.98999999999998,0.4134466938339852,-0.0425727332966308,2.829918116798801
15.0,0.4290037439611807,-0.0664655492839302,2.8593452739464205
15.009999999999993,0.4305040567673956,-0.09321693041548,2.8834922343216176
15.019999999999982,0.4463642739603784,-0.1076738474474559,2.904772366221354
15.03,0.4690875926172055,-0.1205783742834856,2.923251550060649
15.039999999999992,0.5075303802542886,-0.1372941601719949,2.9367275235398966
15.049999999999985,0.568399291320936,-0.1362877862547774,2.936078800336205
15.060000000000002,0.641454330393842,-0.1494494952428546,2.9221099484423423
15.069999999999991,0.7108062972211335,-0.1687339951956852,2.90376828694939
15.079999999999984,0.7734758868375436,-0.2038278880446555,2.882732604493237
15.090000000000003,0.8351672454812297,-0.2243385233774961,2.856597494535011
15.099999999999994,0.8896521586287397,-0.2518095037242775,2.81531150667546
15.109999999999983,0.9444603501196808,-0.2601169859927749,2.776979313488305
15.120000000000005,1.0033289635220737,-0.2733571156316522,2.726575604036058
15.129999999999995,1.0566490340389734,-0.3021251592266714,2.666438403669941
15.139999999999986,1.107515995077624,-0.3382423259106274,2.594511620864109
15.149999999999975,1.1590115548058608,-0.3829745524319503,2.515020724810319
15.159999999999997,1.213513232520021,-0.4318141801257104,2.4318885172441767
15.169999999999987,1.2685773585711644,-0.4725251358099844,2.328413166190969
15.179999999999978,1.3285247678329448,-0.5032364573462785,2.226895002711439
15.189999999999998,1.398472740832483,-0.54677822639705,2.1250057611649624
15.199999999999989,1.4768597642822898,-0.5841393576567285,2.0338355383426925
15.20999999999998,1.5632310302184371,-0.6175617958306677,1.9445936885244937
15.22,1.651629107460446,-0.654104840799974,1.858743783699804
15.22999999999999,1.7239390631363938,-0.7108159879710062,1.7853983736397108
15.23999999999998,1.792094758674437,-0.7703860280120272,1.7142582548336105
15.25,1.845773966318424,-0.8261268800542504,1.6497227578377474
15.259999999999993,1.895484805833448,-0.8846058443884949,1.597239688950547
15.269999999999982,1.942475194100757,-0.9400624947182472,1.5305194650360516
15.28,1.986123118981648,-0.9982706575861672,1.470311795978224
15.289999999999992,2.025353524559046,-1.056072466079707,1.4173052489705475
15.299999999999985,2.0545585763288847,-1.1037710434719734,1.3621336955848216
15.310000000000002,2.092142725308892,-1.1380420113281755,1.3194555457479922
15.319999999999991,2.1103235442622617,-1.1990618021451245,1.2841114131807925
15.329999999999984,2.130374551476168,-1.2486342922101143,1.2522203674849557
15.340000000000003,2.13422632241673,-1.2935867020230205,1.222724893616295
15.349999999999994,2.126273945284885,-1.33838680858588,1.1926417761113608
15.359999999999983,2.095996350679002,-1.3905334326299557,1.166201155041366
15.370000000000005,2.068247597590956,-1.4614406669629312,1.1358818467866427
15.379999999999995,2.0404473539177963,-1.5435175704007105,1.0960772653653712
15.389999999999986,2.03617781042693,-1.6035893919723458,1.0518917930994347
15.399999999999975,2.052713790680236,-1.6799294900412751,1.0282244718022866
15.409999999999997,2.0740908720865807,-1.7431738093175282,1.0079714231060903
15.419999999999987,2.106618409307349,-1.808452096068304,0.9781105473335636
15.429999999999978,2.1421728170787437,-1.8425524043015429,0.9706249854573492
15.439999999999998,2.188908476351598,-1.886736623034452,0.9555633983410312
15.449999999999989,2.224648157090496,-1.9523067051874845,0.9336787748106152
15.45999999999998,2.2431684063033246,-1.9925108117842787,0.9197725527026838
15.47,2.2579638925539056,-2.039438873680852,0.8882128568054691
15.47999999999999,2.267340513088866,-2.07476981046884,0.8546107401446393
15.48999999999998,2.259024574871545,-2.099018775606603,0.8143723044253001
15.5,2.242783355453708,-2.112825967233428,0.7973508230822588
15.509999999999993,2.2102861893766934,-2.136567762368577,0.7869926937586184
15.519999999999982,2.147746276668023,-2.153880167940456,0.7688613748419303
15.53,2.087585317609186,-2.14926379264234,0.7576461857646012
15.539999999999992,2.030360181345009,-2.1581805945529946,0.7501840282503445
15.549999999999985,1.963141603165805,-2.1609905682338093,0.7344863361408391
15.560000000000002,1.9075157868006856,-2.156455337483013,0.7309675270334108
15.569999999999991,1.8452944935595887,-2.145552915468231,0.7310640259976232
15.579999999999984,1.7737143205579544,-2.150255871656804,0.7110094010449867
15.590000000000003,1.686094406237422,-2.140856744574734,0.6906121019789835
15.599999999999994,1.6025186794291244,-2.1217008502023127,0.6616350495185203
15.609999999999983,1.514566498229405,-2.110747722555653,0.6525348150352942
15.620000000000005,1.4251162427699695,-2.08249054207369,0.6481048672138916
15.629999999999995,1.3368815956291955,-2.0677588467377097,0.6327111455214719
15.639999999999986,1.2562083635951264,-2.0610745861196813,0.6118557566928328
15.649999999999975,1.1870227872922876,-2.042464532971016,0.5761087433495148
15.659999999999997,1.1264589892702122,-2.035602490905013,0.5317714381941757
15.669999999999987,1.0708376296150808,-2.026461407349885,0.4799845140605288
15.679999999999978,1.0334729204521158,-2.007534513466084,0.4426154541917063
15.689999999999998,1.0264164813932497,-1.983879041774614,0.3949413173756771
15.699999999999989,1.034631168215734,-1.9646042702295303,0.3665199934729692
15.70999999999998,1.0553252910029771,-1.952420735428685,0.3446184019933526
15.72,1.086080953137572,-1.9344696494606064,0.3324363660493498
15.72999999999999,1.1355727261050834,-1.9343152896079423,0.3249732260065474
15.73999999999998,1.1817105719639065,-1.912724665223384,0.3165520962895603
15.75,1.2235158937578978,-1.9156584920386304,0.292757605169146
15.759999999999993,1.2487936554673758,-1.9224265842580155,0.2752402513772617
15.769999999999982,1.2722284925057548,-1.9100172493266727,0.2511511239433016
15.78,1.3035382174756205,-1.9047161592765376,0.236768131235761
15.789999999999992,1.328128392225497,-1.894512712996468,0.2346585139679504
15.799999999999985,1.3368251030236888,-1.8878189249610493,0.229684720777254
15.810000000000002,1.3343575719309235,-1.880524472187983,0.2361152921326554
15.819999999999991,1.3143116389866691,-1.875114784316948,0.2346124206937314
15.829999999999984,1.3049419430049736,-1.8698401953108152,0.240600601564317
15.840000000000003,1.2977227561414129,-1.8659931804086451,0.2388215446337398
15.849999999999994,1.2986457076452491,-1.8706147824884989,0.2220916790510205
15.859999999999983,1.3151395869417717,-1.8603518763979552,0.1984350183239258
15.870000000000005,1.3440717008398115,-1.8490731025237817,0.1897002007829366
15.879999999999995,1.383700430686419,-1.8359987100039283,0.1773776870711508
15.889999999999986,1.4079222425920377,-1.8167458361997095,0.1758579546545863
15.899999999999975,1.4510391369495672,-1.8073644397624145,0.1741453345453838
15.909999999999997,1.4667211871042067,-1.7844953477293632,0.1560634000280244
15.919999999999987,1.499219444461851,-1.763970910150872,0.1493359621047656
