time,Gyr_X,Gyr_Y,Gyr_Z
0.0,0.0009463092047559,-0.0016922578718249,0.0001054367966846
0.009999999999998,0.0026638673324032,-0.0012272343076932,0.0033491754783028
0.0200000000000031,0.0009138029760134,-0.0009418491609612,0.0061759511893916
0.0300000000000011,-0.0003094539400731,0.0003344060044043,0.0074294246607655
0.0399999999999991,-0.0020316461970399,-0.0011984106802596,0.0052269272157718
0.0499999999999971,-0.0022545422469205,-0.0005497304825271,0.0061380985742452
0.0600000000000022,-0.0041946182450417,0.0008693418585986,0.0023823685705319
0.0700000000000002,-0.0026370824471912,-0.0005122976968574,-0.0019039270231008
0.0799999999999983,0.0010322909291431,-0.0002404418028806,-0.0041758097549156
0.0900000000000034,-0.0012072960304841,-0.0048812543662861,-0.0065356281796865
0.1000000000000014,0.0012818663439144,-0.0012887164573527,-0.0038915309670645
0.1099999999999994,-0.0004573019563912,-0.0037722098301154,-0.0018413227957809
0.1199999999999974,0.0003398424153164,-0.0018016868046929,0.0021306088820097
0.1300000000000025,-0.0006618196062972,0.0008920177093174,0.0058984453434819
0.1400000000000005,-0.0027662034943598,0.0016711900757267,0.0075106851337582
0.1499999999999985,-0.0006057340173016,0.0033856194693251,0.0103072527489505
0.1600000000000037,-0.0006065817435049,-0.0019676411258281,0.0088086846454083
0.1700000000000017,-0.0022159228046317,3.1178514077986e-05,0.0049325060549404
0.1799999999999997,0.0002262471155899,0.0003757099940708,0.0004979105955357
0.1899999999999977,0.0005641622318121,-0.0003519649804695,-0.0042026845076381
0.2000000000000028,-0.0004423388246598,-0.0019489385069943,-0.0072386938901814
0.2100000000000008,-0.0025942247119746,-0.0054265168178918,-0.0061344570907473
0.2199999999999988,-0.0007426825432439,-0.003433804263481,-0.0046623838078881
0.2300000000000039,-0.0042382806006877,-0.0013148878330264,-0.0009990976731902
0.240000000000002,-0.0058244960330233,-0.0005820664819946,0.0014064694539477
0.25,-0.003025894037187,0.0001210902946563,0.0029777796302019
0.259999999999998,-0.0059575815478159,-0.0001890612960147,0.0045556933734984
0.2700000000000031,0.0017786544231778,-0.0002225340101246,0.0055910343198636
0.2800000000000011,0.0013881095426498,0.0012200173454593,0.002465359837338
0.2899999999999991,0.0042471969429686,-0.0013671778413643,0.0023964260506287
0.2999999999999971,0.002461159283236,-0.0026588512710807,-0.0007558995091025
0.3100000000000023,0.0006336315503182,-0.0012765249885347,-0.0015527709254268
0.3200000000000003,0.0011213772707185,-0.0016786685274194,-0.0002409467762889
0.3299999999999983,-0.0028236851729789,-0.0010013857339099,-0.0015417300924331
0.3400000000000034,-0.0008319347030798,-0.0008987132036181,0.000884530251282
0.3500000000000014,-0.003022062070881,0.0020067550288538,0.0026967730809887
0.3599999999999994,-0.002959805973195,0.0012730996567836,0.0022591953856204
0.3699999999999974,-0.003763912268846,0.0020884977755507,0.0015605419103834
0.3800000000000025,-0.0034002569999238,-0.0014220390245531,0.0015574588466734
0.3900000000000005,-0.0008610270800127,-0.0002262513662615,-0.0004937118337811
0.3999999999999986,-0.0007328493360522,-0.0010711295284075,-0.0050092569948697
0.4100000000000037,-0.0020176033620824,-0.0019580995216979,-0.0103412509098671
0.4200000000000017,-0.0063131529831388,0.0006315927907604,-0.0145715312293467
0.4299999999999997,-0.0131315497404766,0.0014607063167137,-0.0167501599714978
0.4399999999999977,-0.0093628773758373,0.0020875424397227,-0.0195799223778896
0.4500000000000028,-0.0071139424968212,-0.0002985753875748,-0.0187013780563327
0.4600000000000008,0.0002238145279746,-0.0023936757269792,-0.0154168024006594
0.4699999999999988,-0.0100896510465481,-0.0020680940528774,-0.0068451124688945
0.480000000000004,-0.0091791135070849,-0.0002514242233176,0.0004294690202537
0.490000000000002,-0.0074419132026387,0.0015989188827794,0.0034995366054772
0.5,-0.0044396184005288,0.0011851274551325,0.0086529223624061
0.509999999999998,-0.0022965514703459,0.0029097982811304,0.012896627438845
0.5200000000000031,-0.0034353616869683,0.0054523512924656,0.019222945748616
0.5300000000000011,-0.0036710164131037,0.0079330393636184,0.0226738162653981
0.5399999999999991,-0.0070478533140901,0.0096159093525668,0.0261073222013013
0.5499999999999972,-0.0079817326076732,0.0052788915302026,0.0263392479859998
0.5600000000000023,-0.0111691162185536,0.0029984458756059,0.026903006247606
0.5700000000000003,-0.0019610045455374,0.0044541948070669,0.0229395969783074
0.5799999999999983,0.0057009005695242,0.002108741944962,0.0227951296458725
0.5900000000000034,-0.0021897219745775,0.0036737223121673,0.0242516745409618
0.6000000000000014,-0.0125165510050429,0.0007615353472693,0.0302371199153562
0.6099999999999994,-0.0201628426943394,0.0039067512370086,0.0392009338344783
0.6199999999999974,-0.0209192001583124,0.0087646038882221,0.0520869692935015
0.6300000000000026,-0.0121127991577675,0.0070377784170665,0.0648090415160864
0.6400000000000006,-0.0087676148546184,0.0035182273190339,0.0768697286440086
0.6500000000000057,-0.0061806001546202,-0.0055296872380736,0.095702522930922
0.6599999999999966,-0.016420574277093,-0.0064958494378376,0.1266623849187067
0.6700000000000017,-0.0196571586009382,-0.0007008506187387,0.1558128867909532
0.6800000000000068,-0.0242082973576453,0.0063403216919998,0.1769628291658338
0.6899999999999977,-0.0336084361264356,0.0064651725937359,0.1864731207896128
0.7000000000000028,-0.0467419374725246,0.0037857023439365,0.1821981050701374
0.7099999999999937,-0.0644816288620594,-0.0003315066845322,0.1807316540963174
0.7199999999999989,-0.0932961307811137,-0.0001125179491394,0.1848664282303302
0.730000000000004,-0.1190423916687703,0.0043543408639624,0.1896108816321041
0.7399999999999949,-0.1436188102836371,0.0066278095154769,0.187183377202737
0.75,-0.166955444325203,0.0059281920083242,0.1832728371380931
0.7600000000000051,-0.1915280576428223,0.0025043460119535,0.1737602393697589
0.769999999999996,-0.2144850327462668,0.005449786544183,0.1720338947032557
0.7800000000000011,-0.2240520509999105,0.0084935773043732,0.1852672396560704
0.7900000000000063,-0.2414967766493368,0.0051469223368988,0.2060223374298205
0.7999999999999972,-0.2567982255855958,-0.0001616674364724,0.2371762193039556
0.8100000000000023,-0.2695021762283378,-0.0056478357047819,0.2622267731582994
0.8200000000000074,-0.2759620773080777,-0.0117912924291294,0.2768050007224816
0.8299999999999983,-0.2840786268405945,-0.017855269053871,0.2926334643771528
0.8400000000000034,-0.2788178400367239,-0.0131128245064147,0.3008695756391156
0.8499999999999943,-0.2636015693517362,-0.007461367600783,0.3103408917692815
0.8599999999999994,-0.231683617684657,0.0059348003568344,0.3177350846231492
0.8700000000000045,-0.1802156789880564,0.0174866902834108,0.3245368720759877
0.8799999999999955,-0.1291252144981036,0.0229817401383075,0.3310697422957681
0.8900000000000006,-0.0681535345143135,0.0300138054222249,0.3378054839234319
0.9000000000000057,-0.006898626510749,0.0361011917586144,0.3517263643780192
0.9099999999999966,0.0566481056987901,0.050242170073713,0.3716424402665769
0.9200000000000016,0.1279821792601159,0.0656433507349348,0.3933282266376628
0.9300000000000068,0.2010599264010518,0.0888376213578685,0.417769432892672
0.9399999999999976,0.2725259865303166,0.1111878575214368,0.438237533831715
0.9500000000000028,0.3393537303855219,0.1365787636749068,0.4590459556105999
0.9599999999999936,0.3567117144318197,0.1492336382208727,0.4712300583874199
0.9699999999999988,0.3406238573494865,0.145993981544479,0.4809507174941719
0.980000000000004,0.310325453533524,0.1357478494232735,0.4951215205898744
0.9899999999999948,0.2887957923643738,0.1224222227406166,0.5130140889525584
1.0,0.2908960131249125,0.109940665331621,0.5256598484939689
1.0100000000000051,0.3088579631839963,0.0991285679383306,0.5371373530456346
1.019999999999996,0.3293439927958262,0.0959212718212259,0.5496293085190124
1.0300000000000011,0.3493784604836917,0.085354210138227,0.5674520238700883
1.0400000000000065,0.3370254191252324,0.0756022267260859,0.5835870895731692
1.0499999999999972,0.3013926551761884,0.0655779584275673,0.6052535989354495
1.0600000000000025,0.2635330103447702,0.0583141167958563,0.6313036828645775
1.0700000000000074,0.2165966288790926,0.0506249161953908,0.660184987421599
1.0799999999999983,0.1862048299976254,0.0425230702245778,0.6935011014710215
1.0900000000000034,0.1654543859900855,0.0345357279500099,0.7283906480671495
1.0999999999999943,0.1555872805315032,0.0249564138280316,0.7641622663525947
1.1099999999999994,0.1487972628000362,0.0179051149358203,0.806521224091239
1.1200000000000043,0.1443547573739151,0.010913610802388,0.8464907746441578
1.1299999999999957,0.1412730169427049,0.0084228967355121,0.8888650225107683
1.1400000000000006,0.1348514305900299,0.01091935930998,0.924552912782466
1.1500000000000057,0.1404714593607419,0.0150415801351992,0.947639786018839
1.1599999999999966,0.1629157239453287,0.0256064134947331,0.979471003339024
1.1700000000000017,0.192681086622569,0.0358649739749011,1.0095773729768005
1.1800000000000068,0.2169989238712953,0.0468251033749417,1.0405118631750851
1.1899999999999975,0.2281621591003022,0.0601747745474477,1.0697785013210823
1.2000000000000028,0.2194127264067158,0.0713343025885565,1.0930713785536763
1.2099999999999935,0.1900397938806468,0.0929504057956114,1.1124305082423205
1.2199999999999989,0.1663946830411056,0.1141997503753569,1.1212464303361398
1.230000000000004,0.1430530414378211,0.1407436282265866,1.1223100326359516
1.2399999999999949,0.1277599888321466,0.1670220439353178,1.1166344820948546
1.25,0.1109130174694776,0.2010111587366027,1.1047842804529846
1.2600000000000051,0.1003082359790459,0.2285500125533762,1.085218678730572
1.269999999999996,0.0795678070864106,0.25274164047072,1.0638196358225254
1.2800000000000011,0.0490391278101946,0.2754108040922242,1.0471887429488065
1.2900000000000065,0.0171118597510657,0.2909685959660802,1.0326485787348396
1.2999999999999972,-0.0227859052465823,0.3083212210051229,1.0111873180211997
1.3100000000000025,-0.0574382995996502,0.3247294249949341,0.9911443104371654
1.3200000000000074,-0.083778641872788,0.3429990885060591,0.970226058474198
1.3299999999999983,-0.103269523612234,0.3588315653234668,0.945698074180636
1.3400000000000034,-0.1301227389685654,0.3738565006010084,0.9261954319418944
1.3499999999999943,-0.1550968071404505,0.3843893538235489,0.903622333695812
1.3599999999999994,-0.1672309962332955,0.3874587904281641,0.8890798215466342
1.3700000000000043,-0.1776575633593785,0.3906328054645641,0.8740030041656661
1.3799999999999957,-0.1884055707120946,0.3869111356788489,0.8639527920222639
1.3900000000000006,-0.2116951827460413,0.3847290304184897,0.860014969950696
1.4000000000000057,-0.236003753120174,0.3846413159458778,0.8521106681129827
1.4099999999999966,-0.2510601339673715,0.3815278398898286,0.8460350952696726
1.4200000000000017,-0.2523271088090796,0.3805315926605355,0.8383609481125688
1.4300000000000068,-0.2336695167245031,0.3755796760608434,0.8280921892881743
1.4399999999999975,-0.2160509390077591,0.3681472473618997,0.8125321901348168
1.4500000000000028,-0.1933062969132642,0.360044137316263,0.7963092597726493
1.4599999999999935,-0.1702885684621381,0.3445437126784657,0.7785463095380113
1.4699999999999989,-0.1639957588945302,0.3329943656599263,0.7633161958582079
1.480000000000004,-0.1692493760695191,0.3193710917204105,0.7504320311105944
1.4899999999999949,-0.1677712931848886,0.3055988338644169,0.7389910818811213
1.5,-0.1527805166626444,0.2936676855942198,0.7222377562754384
1.5100000000000051,-0.1351386512874793,0.28067304275539,0.7050904704677773
1.519999999999996,-0.1171718521333036,0.2622476129018941,0.6862173536637123
1.5300000000000011,-0.1089122177638435,0.2404017966231381,0.6678794931261847
1.5400000000000065,-0.1159653236154447,0.2117187501252451,0.6425466409952344
1.5499999999999972,-0.127688760652365,0.1838062304754479,0.6168389753498554
1.5600000000000025,-0.1539882080765308,0.1525428781938249,0.5845855529915246
1.5700000000000074,-0.1797396608060928,0.1264104472994258,0.5524240731501295
1.5799999999999983,-0.2091620194358057,0.1010591113092952,0.5221355698800785
1.5900000000000034,-0.239415570570718,0.0718100599111734,0.4902373604639793
1.5999999999999943,-0.2440695257647221,0.046479579040953,0.4600113249511223
1.6099999999999994,-0.2399710378873144,0.0181430314230659,0.4220100182583865
1.6200000000000043,-0.2317835927060459,-0.0079417042357364,0.3897296823595884
1.6299999999999957,-0.2182143663714896,-0.0323240655035582,0.365185447498947
1.6400000000000006,-0.1920886825528048,-0.061108830126618,0.3377165687113697
1.6500000000000057,-0.1638176466551486,-0.0850143982473501,0.3150744467700938
1.6599999999999966,-0.1408244533322054,-0.109261288805878,0.2915955685046709
1.6700000000000017,-0.1253179671274706,-0.128037267513085,0.2702661266724353
1.6800000000000068,-0.1194863932297043,-0.1464066746267863,0.2483850744454921
1.6899999999999975,-0.1138823037738292,-0.1668122470811147,0.2209130900307833
1.7000000000000028,-0.102889319363206,-0.1819170638835637,0.1983712398931295
1.7099999999999935,-0.0895076483230082,-0.1992822579535398,0.1665059939864297
1.7199999999999989,-0.0807697594124366,-0.2150126619835494,0.13306212611139
1.730000000000004,-0.0778178389195165,-0.2325553859562213,0.0903819113595184
1.7399999999999949,-0.082948953846761,-0.2466704769609815,0.0504407709648013
1.75,-0.094595461765279,-0.2583419804332863,0.0064929832091843
1.7600000000000051,-0.1101914817212126,-0.2703601844714208,-0.0313109524803934
1.769999999999996,-0.1272966260083548,-0.2786483987422197,-0.066777650046422
1.7800000000000011,-0.1433111396481802,-0.2881640420269552,-0.1074946560785452
1.7900000000000065,-0.1501585197499358,-0.2909406089523267,-0.1385827687986265
1.7999999999999972,-0.1394259594072886,-0.2907437855250877,-0.1646162500326004
1.8100000000000025,-0.1096708445675271,-0.2850173000231003,-0.1819136818007022
1.8200000000000076,-0.0823457470628507,-0.2801367833516169,-0.1945229344511241
1.8299999999999983,-0.0471117065014134,-0.2763990115470138,-0.2040590084701789
1.8400000000000036,-0.0025091557376964,-0.2700636366992718,-0.2113715947520046
1.8499999999999943,0.0466788387596447,-0.2642469470476281,-0.2123686875861653
1.8599999999999997,0.0798187131542724,-0.2572877670932786,-0.2089640489267308
1.8700000000000043,0.0917530773033307,-0.2519304136347369,-0.2082203919048603
1.8799999999999957,0.1032649361127235,-0.246238035826261,-0.2084691986933807
1.8900000000000008,0.120069071402069,-0.2335497957231075,-0.2132219324415311
1.9000000000000057,0.140532197257261,-0.2211296235139984,-0.2159964961853172
1.9099999999999968,0.143508955579737,-0.214131792784685,-0.2245781939525351
1.9200000000000017,0.1233043093276209,-0.2149259982663375,-0.2289296855229401
1.9300000000000068,0.0923879957519286,-0.2130853696732843,-0.2273586564715377
1.9399999999999975,0.0580866230490025,-0.2186070173684246,-0.2183988439231276
1.9500000000000028,0.0195146510938223,-0.2230984435000427,-0.2115656969826472
1.9599999999999935,-0.0118769547765575,-0.2236202519997553,-0.2081206175260696
1.9699999999999989,-0.0354338951342291,-0.2202763161864773,-0.2043128612251563
1.980000000000004,-0.0465223798099907,-0.2151968982200879,-0.2073264296462425
1.9899999999999949,-0.0357525369405716,-0.2033902966773782,-0.207958556179703
2.0,-0.018944748669567,-0.196923687625215,-0.2090219940792897
2.010000000000005,-0.0069111002305832,-0.1882421205061636,-0.2122775184656594
2.019999999999996,0.0033315508636864,-0.1822261651921903,-0.2142845364669241
2.030000000000001,0.012263596281313,-0.1761764812980851,-0.2136347022115572
2.0400000000000063,0.0300878298005527,-0.1682976317446611,-0.2175378131539869
2.049999999999997,0.063908462411736,-0.1576250997416854,-0.2180903949195827
2.0600000000000023,0.0973864704048906,-0.1447685231401188,-0.2204597094734396
2.0700000000000074,0.1425588010842884,-0.1328493117614564,-0.227223846912556
2.0799999999999983,0.1750201889089161,-0.1205777662920333,-0.2310111825626632
2.0900000000000034,0.2011990521620909,-0.1080353160116742,-0.2346408964075751
2.0999999999999943,0.2152857756349548,-0.1072599035849482,-0.2431125388997099
2.1099999999999994,0.2137281234323927,-0.1015020142770869,-0.2518402119444057
2.1200000000000045,0.1989070126797779,-0.1024042564783357,-0.2579705685040377
2.1299999999999955,0.1694052010648344,-0.1065777294535092,-0.2666016835341516
2.140000000000001,0.1385525488871086,-0.1087925633695318,-0.2713734512169567
2.1500000000000057,0.1195835928278096,-0.108284485075522,-0.2750931666644977
2.1599999999999966,0.1002694558274748,-0.1081851766801906,-0.2859624720406616
2.1700000000000017,0.0881900051940443,-0.1041360288374952,-0.2861601438502636
2.180000000000007,0.0827368429530391,-0.1070465525603106,-0.293218006927919
2.1899999999999977,0.0719296819229038,-0.0974827533743006,-0.2795934588391365
2.200000000000003,0.0739000890975196,-0.1092615116392134,-0.3005358785806364
2.2099999999999937,0.0544704409103162,0.0428993314328319,-0.0890626084417732
2.219999999999999,0.0457463799411066,0.0979861768782305,-0.0137529396903063
2.230000000000004,0.0480378562780084,0.0814511916365756,-0.0361267141010263
2.239999999999995,0.046351683596599,0.0908764059134055,-0.0233367643087654
2.25,0.0470818531994166,0.0854144822798379,-0.030794350522903
2.260000000000005,0.0463673598388421,0.0892586780940304,-0.0256533300171779
2.269999999999996,0.0466722284039274,0.0871078362869966,-0.0286946848117322
2.280000000000001,0.0463907846597608,0.0886757830471589,-0.0266877185639801
2.2900000000000063,0.0465038633272033,0.0879836826337824,-0.0277662858910715
2.299999999999997,0.0464323874220398,0.0885055087840935,-0.027186150427543
2.3100000000000023,0.0464701221031401,0.0883887780830088,-0.0274648547838328
2.3200000000000074,0.0464187716305039,0.0884603298486944,-0.0274279475750575
2.3299999999999983,0.0464626510765564,0.0885060925048539,-0.0274363131269976
2.3400000000000034,0.0462815510408001,0.0885539017362976,-0.0272854280026718
2.3499999999999943,0.0467179055393969,0.0886215240092749,-0.0274372891593716
2.3599999999999994,0.045451998104881,0.0885363575330931,-0.0266303099432374
2.3700000000000045,0.0472949387083562,0.0887560058818713,-0.0274412901441209
2.3799999999999955,0.0434805746954884,0.0883969111366298,-0.025135789907997
2.390000000000001,0.0490665257027389,0.088967136617942,-0.0279564589997985
2.4000000000000057,0.0329079336286016,0.0878167553792829,-0.0165194736703104
2.4099999999999966,0.0338679527544988,0.0944849317546526,0.0031503659474081
2.4200000000000017,0.0217349413691349,0.0958576478231227,0.033912681999019
2.430000000000007,0.0475535833868054,0.1050718709368064,0.0387187385580103
2.4399999999999977,-0.1083441461176751,0.0826997574894306,0.1317609004516108
2.450000000000003,-0.2544076835046224,0.0594370775307782,0.2089915018643552
2.4599999999999937,-0.2234994135396275,0.0648888671594303,0.1908381580495616
2.469999999999999,-0.2434932999662448,0.0620810981389366,0.2000726649555934
2.480000000000004,-0.2338967014146179,0.0640121177391748,0.1936272651113608
2.489999999999995,-0.2422488877416366,0.0629742048294934,0.1969351240456886
2.5,-0.2384749145137137,0.0638846834275527,0.1938707737120058
2.510000000000005,-0.2419749402129976,0.0635143741393722,0.1949622204419262
2.519999999999996,-0.2404868310747512,0.0639739507803908,0.1933871943503138
2.530000000000001,-0.2419240809340151,0.0637947416625013,0.1938533026501359
2.5400000000000063,-0.2407703890967237,0.0641514432703417,0.1927150634209897
2.549999999999997,-0.2449916531505863,0.0626229829675853,0.1979320835441896
2.5600000000000023,-0.2524421994369857,0.0619434677494047,0.2042765296813566
2.5700000000000074,-0.2418853467724768,0.0688469057883514,0.2063454684029214
2.5799999999999983,-0.2081560795955027,0.0843365331648356,0.2135314207937572
2.5900000000000034,-0.1561275173989656,0.101296798951621,0.2212562249438228
2.5999999999999943,-0.0986035969700882,0.1148581140594108,0.232599447990363
2.6099999999999994,-0.0266876170657326,0.1321114635966074,0.2438078902420626
2.6200000000000045,0.0412154079482988,0.1450778346881464,0.2570452877140921
2.6299999999999955,0.1014402824328192,0.1579812100551507,0.2714692998082536
2.640000000000001,0.1562948676648738,0.1694804044616313,0.2837947388539716
2.6500000000000057,0.2006201228498823,0.1829124280518659,0.3025828353292059
2.6599999999999966,0.2167101485257209,0.1917204835549167,0.3196705772239324
2.6700000000000017,0.2213747790641535,0.1986434691586669,0.3368596336932632
2.680000000000007,0.2103995478745889,0.2048770425254855,0.3505375254660092
2.6899999999999977,0.1900297162163569,0.2082074116242404,0.364743159117865
2.700000000000003,0.1556859125009878,0.2090074457111825,0.3742820834232735
2.7099999999999937,0.1134911458151886,0.2059244322432413,0.3826174540351523
2.719999999999999,0.0582650185949346,0.1997728421015467,0.3923338182209233
2.730000000000004,0.0028749889768945,0.195124830443283,0.4006642601947859
2.739999999999995,-0.0425429224578072,0.1882003033914398,0.4047971615482246
2.75,-0.0815744470280861,0.1864924174299904,0.4058212528218337
2.760000000000005,-0.1114274277947538,0.1865278323502034,0.4023538538687356
2.769999999999996,-0.1378567438295491,0.1857366296781596,0.39603990105261
2.780000000000001,-0.1482643870098403,0.1818096925835124,0.3891891357627478
2.7900000000000063,-0.1403129700811196,0.1766795447367667,0.3854573970621237
2.799999999999997,-0.1308123001198145,0.1710430954907009,0.3835916528389702
2.8100000000000023,-0.1234886013774237,0.1574345134672816,0.382964132720466
2.8200000000000074,-0.1232883851971792,0.1488832997263775,0.3824291889170252
2.8299999999999983,-0.1195941532919089,0.1378059712153982,0.3819240450055375
2.8400000000000034,-0.1099210342193315,0.1340520399416754,0.3789713069497872
2.8499999999999943,-0.0990328052935916,0.1317710728005183,0.3728345051726843
2.8599999999999994,-0.0917519509018699,0.1312949647413175,0.3675524747148882
2.8700000000000045,-0.0839103299938476,0.1300044921463724,0.3627902432812473
2.8799999999999955,-0.0773916076494401,0.124842291962456,0.361929862516761
2.890000000000001,-0.0758043766676003,0.1191265999126153,0.3618563970972142
2.9000000000000057,-0.0710392350251296,0.1144320899099712,0.3629840789557637
2.9099999999999966,-0.0639485147248366,0.1037881970468526,0.3638526199303217
2.9200000000000017,-0.0529364881451839,0.0954649224285059,0.3649867172847484
2.930000000000007,-0.0429482724168741,0.0922194360510531,0.3689891543876258
2.9399999999999977,-0.0225771585106334,0.0904778750680461,0.3718206540775062
2.950000000000003,0.0006527135646713,0.0920488628306694,0.3718763333866778
2.9599999999999937,0.0229287478968893,0.0976224735155269,0.3672071955780622
2.969999999999999,0.0360619145673721,0.1021264887442058,0.3594396836792248
2.980000000000004,0.0358203158431141,0.1045908441282476,0.3522349369244825
2.989999999999995,0.0381706829129903,0.1011581689326279,0.3430447617454326
3.0,0.0424584216352534,0.0959684897418733,0.3338466328005939
3.010000000000005,0.0421186752778536,0.0885688449283025,0.3278301703589794
3.019999999999996,0.0412582522777109,0.0829368795167092,0.3227936556161455
3.030000000000001,0.0424850848336234,0.0795221854803878,0.3201779196849867
3.0400000000000063,0.0488926048398402,0.0776230309603032,0.3124883809520473
3.049999999999997,0.0580491672008994,0.0802023785964554,0.3076676111767687
3.0600000000000023,0.0657339356361545,0.0805097423241807,0.2973437770421185
3.0700000000000074,0.0729453661230551,0.0811450134850569,0.2861141345198414
3.0799999999999983,0.0814092475768029,0.0799736930673015,0.2726834100753513
3.0900000000000034,0.0817512352699254,0.0795870076404005,0.263483676951911
3.0999999999999943,0.0756252557715633,0.0737069388991115,0.2585715058982715
3.1099999999999994,0.064324352524141,0.0665901982261512,0.2499510736163341
3.1200000000000045,0.054505352838558,0.0605636042628269,0.245597067241592
3.1299999999999955,0.0538452797932452,0.0550727953618446,0.2380909275121868
3.140000000000001,0.0612045286479514,0.0541636280434172,0.2302227240414342
3.1500000000000057,0.074674512259452,0.0525929012150403,0.2222804589388535
3.1599999999999966,0.0827716103705914,0.0551499335630424,0.2143640208291653
3.1700000000000017,0.0822709881606317,0.0575984721676889,0.2045703670116618
3.180000000000007,0.0793707113398071,0.0602629978668814,0.1926824108382616
3.1899999999999977,0.0692981121210278,0.0629334190827079,0.1791291292354357
3.200000000000003,0.0560337138171239,0.0626321709206103,0.1744494377179129
3.2099999999999937,0.0474660781605369,0.0627365765848465,0.1653713262886073
3.219999999999999,0.0440120986826247,0.0611376177785978,0.1615290012208623
3.230000000000004,0.0523525986126287,0.0664224124725667,0.1601227399177989
3.239999999999995,0.060708246472046,0.068656951700825,0.1562424867963521
3.25,0.0539812499386078,0.0707576785375322,0.1576450725836563
3.260000000000005,0.0405961767453623,0.0747463317090774,0.1576395804930625
3.269999999999996,0.0305885225231784,0.0789524578845332,0.1589430105443509
3.280000000000001,0.0234824770951531,0.0828979704972179,0.160116447625868
3.2900000000000063,0.0274440607335838,0.0857098604448991,0.1639568563362623
3.299999999999997,0.0402234098017696,0.0921320258167678,0.1683353372745015
3.3100000000000023,0.0565802475495162,0.099990645069884,0.1703086036408492
3.3200000000000074,0.0586622194667898,0.1064722260145508,0.1668771441131902
3.3299999999999983,0.0529130999668311,0.11059772626787,0.1652901783263027
3.3400000000000034,0.043120709276861,0.1172602856317187,0.1602128193270695
3.3499999999999943,0.0349471623559668,0.1193311987653315,0.1560104560116283
3.3599999999999994,0.0274699317399902,0.1242179951995648,0.1554696435682676
3.3700000000000045,0.0220013278917716,0.1313738934299479,0.1504871856560508
3.3799999999999955,0.0232700774562597,0.1421909767004262,0.1490076653957233
3.390000000000001,0.027650958560801,0.1508385765600673,0.1478331695991702
3.4000000000000057,0.0367285104910675,0.1617555946676579,0.1453468650356816
3.4099999999999966,0.0457478914335731,0.175171850734317,0.140726233973403
3.4200000000000017,0.0473207092110652,0.1851739852241263,0.1385149267756393
3.430000000000007,0.0420086276939821,0.1892738217123752,0.1360914193289017
3.4399999999999977,0.0278136702864688,0.1903030526876385,0.1356696090136765
3.450000000000003,-0.0014120541472257,0.1891073549774165,0.1407607765587861
3.4599999999999937,-0.0306596017486212,0.1861187403111042,0.1451889574520078
3.469999999999999,-0.0538172972345082,0.186951628952657,0.1475466741588597
3.480000000000004,-0.0671069928514559,0.1875889462935698,0.1458291443421669
3.489999999999995,-0.0743701972896709,0.1903573619861193,0.1378400929942294
3.5,-0.0813932665021472,0.1947591740375725,0.1284187638772928
3.510000000000005,-0.085065735784171,0.1943296609556961,0.1182587378888862
3.519999999999996,-0.0731346269621151,0.1930819723477337,0.109848500362718
3.530000000000001,-0.0443663939670101,0.1860092951403971,0.1064701428919527
3.5400000000000063,-0.026900984672234,0.1743400122754506,0.1075290873296646
3.549999999999997,-0.0288518976460469,0.1586308770599434,0.115106320615219
3.5600000000000023,-0.0278485144745819,0.1422938157221872,0.1206730464205116
3.5700000000000074,-0.0263420557917898,0.1255871601263226,0.1288707364422428
3.5799999999999983,-0.0189394891152966,0.1121083930957149,0.1357000473808761
3.5900000000000034,-0.0087738129918697,0.098955811035966,0.1357414736267089
3.5999999999999943,-0.003370487279352,0.0872675207271932,0.1325122955413519
3.61,0.0134982168945165,0.0709891647863621,0.1227716508940112
3.620000000000005,0.0323293709795187,0.0527725030493834,0.1096894622306305
3.629999999999996,0.0340601648142918,0.0328710770325131,0.1027946176802247
3.640000000000001,0.0093053913750021,0.0014825354244145,0.1022935649946581
3.6500000000000057,-0.0221262640211102,-0.0306926875965314,0.1036034326888502
3.6599999999999966,-0.0391171699736219,-0.0549826700951703,0.1079025838345229
3.6700000000000017,-0.0477036613853746,-0.0767793887801242,0.1112798065278821
3.680000000000007,-0.0301451369312919,-0.0937197058084161,0.1029635776780944
3.6899999999999977,-0.0017941443495113,-0.1072086597201196,0.0959635046143649
3.700000000000003,0.0292615296567437,-0.1196638396983942,0.0954282492853919
3.7099999999999937,0.054997744520639,-0.1333289078083767,0.0925534511573559
3.719999999999999,0.0713300362810181,-0.1468670197151793,0.0942250643035753
3.730000000000004,0.0752121849918294,-0.1634041119925311,0.0951370511294262
3.739999999999995,0.0481608439951876,-0.1876960559336216,0.099290888517429
3.75,0.023179601323022,-0.2034414733009207,0.101133552946083
3.760000000000005,-0.0017119037849339,-0.2224863833209369,0.0989880051351198
3.769999999999996,-0.0067572281555391,-0.230121342953655,0.0956325625809317
3.780000000000001,-0.0047943859479144,-0.2336448925009067,0.0838189028520742
3.7900000000000063,0.0109713889829586,-0.233599531086929,0.0702940644205135
3.799999999999997,0.0398294296681786,-0.2306689877952249,0.0581123510637446
3.8100000000000014,0.0711749073589721,-0.2282173372751126,0.0514875366677864
3.820000000000008,0.1074347617712816,-0.2257590314022575,0.0525331296803247
3.8299999999999983,0.1377788016912336,-0.228282606355022,0.056232597694808
3.8400000000000034,0.1651431707027034,-0.228705504077344,0.0627885617824444
3.8499999999999934,0.1868068723531198,-0.230689851474354,0.0682835230282544
3.86,0.2052439461084549,-0.2251018793335084,0.0693531343656613
3.870000000000005,0.207905277997604,-0.2198706009824838,0.0709397868918636
3.879999999999996,0.1933974442827687,-0.2133355134160153,0.0689915305766206
3.890000000000001,0.1800436979114926,-0.2021388973011514,0.0694348579405985
3.9000000000000057,0.1644698169199432,-0.1977724342904716,0.0687639473854105
3.9099999999999966,0.1459890381459166,-0.1917412750927108,0.065635901409046
3.9200000000000017,0.1293236607230646,-0.1860171556821716,0.0635954700267726
3.930000000000007,0.0951106940667237,-0.1841437000613801,0.0621035079516559
3.9399999999999977,0.0588089167793634,-0.1812829242668591,0.05888468955025
3.950000000000003,0.0518710215535926,-0.169443780046113,0.064613545971173
3.9599999999999937,0.0616228866479799,-0.1573108975467811,0.0640415316737146
3.969999999999999,0.0856611401043884,-0.139477925986997,0.065731059879742
3.980000000000004,0.0844502105737287,-0.1238467235196219,0.0609041308511111
3.989999999999995,0.0736101112567872,-0.1054990480222565,0.0632220907519353
4.0,0.076679123825919,-0.0907671552663488,0.0727122996542549
4.010000000000005,0.089427920453273,-0.0729629005414098,0.080841136762341
4.019999999999996,0.1167469579418882,-0.0530684871651769,0.0922472160454934
4.030000000000001,0.1543148157496088,-0.0247157378239661,0.0993012539614365
4.040000000000006,0.1764823459265006,0.0039959994047832,0.0989446072297339
4.049999999999997,0.1940664746684604,0.0293408195694768,0.0908082050407043
4.060000000000002,0.1924679655346032,0.0585504789652764,0.0818754639850581
4.070000000000007,0.1754124116792995,0.084419378303591,0.0713198066610523
4.079999999999998,0.155420291242767,0.101114215227264,0.0634063900907506
4.090000000000003,0.1388812315912972,0.1160934923347796,0.0583496907106825
4.099999999999994,0.1310981147398752,0.1290082427436851,0.0508256458354864
4.109999999999999,0.1224671273667655,0.1363114999922788,0.0498750807154235
4.1200000000000045,0.1127123203083621,0.1458199457001992,0.0505981845250395
4.129999999999996,0.1105444555779919,0.1611678080778373,0.05092992570875
4.140000000000001,0.1213171842128538,0.1748133778149361,0.0573238840734259
4.150000000000006,0.1392048892816067,0.1798097494921452,0.0593653231950155
4.159999999999997,0.1634277772541494,0.1831199466927348,0.0609290315814505
4.170000000000002,0.1828501221206193,0.1920440013146775,0.061005863580355
4.180000000000007,0.1881237856236244,0.1851437178195021,0.0636763221697298
4.189999999999998,0.1582041540321051,0.1695798334110556,0.0703243352057649
4.200000000000003,0.1292915754561016,0.1568363772174543,0.0820854654208445
4.209999999999994,0.1108051150379778,0.1479662454904434,0.097047817645038
4.219999999999999,0.0940014133366129,0.1383086456571247,0.1001200879165143
4.230000000000004,0.0767611088366299,0.1257462850885989,0.1030958755432322
4.239999999999995,0.0632825066058702,0.1131320891875727,0.0953347243010455
4.25,0.0447626298484175,0.0984888597069993,0.0830969285157968
4.260000000000005,0.0277239606784177,0.0789162324884194,0.0675139310771926
4.269999999999996,0.0286584203576012,0.0634232257014307,0.0575037382114267
4.280000000000001,0.027945294622297,0.0432055952425283,0.0459475280026514
4.290000000000006,0.0515869936010773,0.0298531345862955,0.0401306632550731
4.299999999999997,0.0767933424695867,0.0162790396651867,0.0249612107345897
4.310000000000002,0.1045157168686936,0.0079971748280393,0.0108215360422351
4.320000000000007,0.1462705510538555,-0.0063130110179007,-0.0068756713065333
4.329999999999998,0.1749207978093467,-0.0281450395312179,-0.0263111083075352
4.340000000000003,0.1846270533320933,-0.0495036401005034,-0.0418627340943696
4.349999999999994,0.1988157249563217,-0.0655571231655679,-0.0583715197176704
4.359999999999999,0.2105051090559486,-0.0787921961170576,-0.075225569130575
4.3700000000000045,0.2064882344315204,-0.0950897774852315,-0.0961787396065263
4.379999999999996,0.1767581766775285,-0.1032541226498914,-0.1147513438297146
4.390000000000001,0.144837308086708,-0.1134829433880633,-0.1345619048791771
4.400000000000006,0.1170724948747222,-0.1137168931111869,-0.1573658250630931
4.409999999999997,0.0948204213977077,-0.1103434432267258,-0.1802606771596327
4.420000000000002,0.0781180230277138,-0.1054618568430654,-0.1937354149093298
4.430000000000007,0.0638771090942637,-0.0942895844128161,-0.2065872207765791
4.439999999999998,0.0499146372295944,-0.0839270546015824,-0.2141368043414147
4.450000000000003,0.0400804327381855,-0.0731885824639967,-0.2161616031061623
4.459999999999994,0.0427512258810182,-0.0571843209045504,-0.2201125217046612
4.469999999999999,0.0555004044384936,-0.0456140515528809,-0.2235592607731304
4.480000000000004,0.0956238842215561,-0.029649252861582,-0.2291768228157403
4.489999999999995,0.1324811044724622,-0.0186237034696802,-0.233351701379132
4.5,0.1546458807413319,-0.0080827146288103,-0.2316218476516759
4.510000000000005,0.181111127099752,-0.0024990439365279,-0.2207375212914774
4.519999999999996,0.1819552148942832,0.0016916621495707,-0.2029621049535117
4.530000000000001,0.1657304772066278,-0.0005237817038604,-0.1847437162944796
4.540000000000006,0.1341257020965132,-0.0061451335796309,-0.1593575114298129
4.549999999999997,0.108302826863072,-0.0117600723272067,-0.1406877692132689
4.560000000000002,0.0869879399972077,-0.0160227471128681,-0.1311886818484934
4.570000000000007,0.0600192758761644,-0.024184177444497,-0.1216995110152239
4.579999999999998,0.0281370673767522,-0.0340878280390431,-0.112887923050665
4.590000000000003,-0.0119941106276183,-0.0473153388586642,-0.098580339044262
4.599999999999994,-0.051763158110558,-0.060995477118775,-0.0820953928246759
4.609999999999999,-0.0784719508240091,-0.0796031346357877,-0.0646087954723758
4.6200000000000045,-0.0935036393776192,-0.0898583651100887,-0.0503283734755077
4.629999999999996,-0.0885997294934548,-0.0998832477150097,-0.0438163028919336
4.640000000000001,-0.073303231535782,-0.1034662576976495,-0.045241093270023
4.650000000000006,-0.0707041120677944,-0.1045175147146127,-0.0458381665144038
4.659999999999997,-0.0818828506192659,-0.1117670785858723,-0.0532876923849659
4.670000000000002,-0.0908578054985073,-0.1246471589681516,-0.0600864803573912
4.680000000000007,-0.08370845834906,-0.1397007247833401,-0.065654241893412
4.689999999999998,-0.0600213689338121,-0.1528116799336256,-0.0688458773013457
4.700000000000003,-0.0493682580474322,-0.1591659598648798,-0.0750384750703847
4.709999999999994,-0.0517249082554863,-0.1651801170242318,-0.0755055046157225
4.719999999999999,-0.0622794499407498,-0.173100127468817,-0.0779901444244626
4.730000000000004,-0.0662036698143831,-0.174995159527646,-0.0871080645940729
4.739999999999995,-0.0530567266111378,-0.1690877337412647,-0.0941268533100728
4.75,-0.0348344003103371,-0.1568997438791749,-0.1061868750943469
4.760000000000005,-0.0267219236196446,-0.1463844661291528,-0.1121800991154576
4.769999999999996,-0.0381435030832423,-0.1367002148279276,-0.1055899047532301
4.780000000000001,-0.0649398097591755,-0.1218874159445802,-0.0797768499615847
4.790000000000006,-0.0907537717651311,-0.1005816544596424,-0.0466955705814818
4.799999999999997,-0.0994873283595139,-0.0759602041171584,-0.0135322648763261
4.810000000000002,-0.0913330106824999,-0.046086978308306,0.0270601443696716
4.820000000000007,-0.0934695942330959,-0.026969787341274,0.0567136319185379
4.829999999999998,-0.1092214642303548,-0.008487865915093,0.0824179025472084
4.840000000000003,-0.1288064724250471,0.0097197960143187,0.1094380589567311
4.849999999999994,-0.1336357740355707,0.0266914060437077,0.138003090246029
4.859999999999999,-0.1364405030503366,0.0438185503530775,0.1585040649631013
4.8700000000000045,-0.1401686806265574,0.0612122322773303,0.181912436017402
4.879999999999996,-0.1429042870236333,0.0667595072734923,0.2094847632824956
4.890000000000001,-0.1552693379674076,0.0747727577460413,0.2315068998297119
4.900000000000006,-0.1685739312175002,0.0884109748652902,0.2516813721421322
4.909999999999997,-0.1687101953721486,0.1072452200103113,0.275863406720272
4.920000000000002,-0.162839683924224,0.128053441399844,0.3052819322113903
4.930000000000007,-0.1544528413764972,0.1452791774776215,0.3285025496774725
4.939999999999998,-0.1515197203975958,0.1620262365424182,0.3527395066548727
4.950000000000003,-0.1695106625826886,0.1715789177286271,0.3667310020079822
4.959999999999994,-0.191768801462764,0.1680839601275765,0.3768605367549558
4.969999999999999,-0.2050895994731965,0.1634172358806737,0.3814152328649996
4.980000000000004,-0.1932078651214276,0.1456892664853231,0.3850434190472191
4.989999999999995,-0.1691956965453031,0.1124790664790755,0.3834002637567185
5.0,-0.141855944192088,0.0566883253481204,0.3789526590716425
5.010000000000005,-0.1241347808640478,-0.0174675847520805,0.3777797458242737
5.019999999999996,-0.1263861801628477,-0.07820174621968,0.3814971392409659
5.030000000000001,-0.1517643532127067,-0.1270812405637973,0.3917671888128345
5.040000000000006,-0.1800781996833136,-0.1617107590997095,0.4031934964132471
5.049999999999997,-0.1978419180514084,-0.1858573624463403,0.4103684753974393
5.060000000000002,-0.199774856348327,-0.2089286322892016,0.4170227223923113
5.070000000000007,-0.1944745163691258,-0.2328532805413299,0.4124588980914855
5.079999999999998,-0.1935152016000901,-0.2554622091103463,0.4025320468328198
5.090000000000003,-0.1948124482194653,-0.2806479491504748,0.3898430960738842
5.099999999999994,-0.225328160207118,-0.309603044743958,0.3740395319943834
5.109999999999999,-0.2771369159876449,-0.3321883047940171,0.3633056999692868
5.1200000000000045,-0.3264727881279061,-0.3674791341143528,0.3518289657529835
5.129999999999996,-0.3482871712910903,-0.4365091345620543,0.3529790133211133
5.140000000000001,-0.3110768341210106,-0.5105909362594031,0.3643068912487873
5.150000000000006,-0.2359623481631818,-0.5457483799426257,0.3650877471857914
5.159999999999997,-0.1888503928528452,-0.5415358619280651,0.3618571531203403
5.170000000000002,-0.1818187154514338,-0.5338389401809963,0.3616215504323103
5.180000000000007,-0.1899108390560008,-0.5033592464634098,0.3623728205124924
5.189999999999998,-0.1820963932131621,-0.4763771776476129,0.3577363536370006
5.200000000000003,-0.1539713207483057,-0.436243121765054,0.3546486947347074
5.209999999999994,-0.1176525905059243,-0.381034101804672,0.3547622975785952
5.219999999999999,-0.07182374756846,-0.3065221671677458,0.3685829668025314
5.230000000000004,-0.0340002226810435,-0.2427369291424818,0.3939350789339627
5.239999999999995,0.017576396387983,-0.200167115155131,0.4337495837165535
5.25,0.050381447625734,-0.1620803395536285,0.4827434306446649
5.260000000000005,0.0479209732379296,-0.1336552368536213,0.5219667639407647
5.269999999999996,0.0139298605513153,-0.1137732566045048,0.5580850789344124
5.280000000000001,-0.0283741741880169,-0.0939962987529662,0.5918118500962611
5.290000000000006,-0.0766924042228703,-0.0619965403775266,0.6138816709936545
5.299999999999997,-0.1165483870800722,-0.0314394573149988,0.6211171401084677
5.310000000000002,-0.141458894772661,-0.0105264557916877,0.6207148999062306
5.320000000000007,-0.1669634493441352,0.0043159309525462,0.612714385496506
5.329999999999998,-0.1943771617957078,0.0088368151354931,0.6085849990079817
5.340000000000003,-0.2220105595791331,0.0039764588265919,0.608753027584035
5.349999999999994,-0.2364484878429902,-0.0070136026357485,0.6092507744820451
5.359999999999999,-0.2401932864871408,-0.0148107136424188,0.611486990181018
5.3700000000000045,-0.2260212570251302,-0.0226468907931565,0.6050037875600057
5.379999999999996,-0.2054243882231622,-0.0157965618361909,0.5881226000865336
5.390000000000001,-0.1866410673939835,-0.0082975462752713,0.5706048451234498
5.400000000000006,-0.1769192273441697,0.0022317842980511,0.5478518162196352
5.409999999999997,-0.1844674428949869,0.0163448920262808,0.5215749253129107
5.420000000000002,-0.1975906431126078,0.0241739240847292,0.4992586699054907
5.430000000000007,-0.1951277401949491,0.0293255100841001,0.4799184785385308
5.439999999999998,-0.1605297755366175,0.0289449970141338,0.4645492996773055
5.450000000000003,-0.1155019362432206,0.0245517673291798,0.4580689578728058
5.459999999999994,-0.0497603438240265,0.0150168474321456,0.4536449405156879
5.469999999999999,0.0098093861794059,0.0094549537385104,0.4464549412353177
5.480000000000004,0.0441385040623923,0.0151251773878483,0.4380443014077921
5.489999999999995,0.0662523437414095,0.0246784719820113,0.4215188855956875
5.5,0.0808775450209143,0.0369355794722256,0.4118327846996416
5.510000000000005,0.0879104405117096,0.0610545669135551,0.4062830800964793
5.519999999999996,0.0925312435645018,0.0875035840462459,0.3995793557257583
5.530000000000001,0.0952353723074893,0.1126444072008812,0.3922762847859455
5.540000000000006,0.0923917798292876,0.1370658687421363,0.3938251724498584
5.549999999999997,0.0710789334253225,0.1601972605247826,0.3948154976161783
5.560000000000002,0.0015129656902963,0.1914596735593618,0.3855744723795627
5.570000000000007,-0.0575079902946884,0.2132342251623981,0.3750533002974418
5.579999999999998,-0.1274068202979272,0.2308925889570643,0.3716672865324734
5.590000000000003,-0.1990189016143441,0.2406109649246869,0.3702449196550113
5.599999999999994,-0.2455650168911734,0.2432702410688613,0.3634392219673663
5.609999999999999,-0.2967289258544595,0.2450054347901112,0.3612314776245833
5.6200000000000045,-0.3565952002531397,0.2378170539303599,0.3608736041067575
5.629999999999996,-0.4969962503189846,0.225776296634579,0.3747319786446414
5.640000000000001,-0.7081744750768172,0.2113422500841141,0.3998008554804412
5.650000000000006,-0.8861351258304669,0.192447044998765,0.4225631198857073
5.659999999999997,-1.0248834845145631,0.1769380104163273,0.4489908087793612
5.670000000000002,-1.113780770154642,0.1607704402153247,0.476917294519538
5.680000000000007,-1.1531234843576943,0.1405632093599654,0.5058322978916944
5.689999999999998,-1.132051305964779,0.1241861838774007,0.5303783080024068
5.700000000000003,-1.063876245099962,0.1120462975240158,0.5530363280011628
5.709999999999994,-0.9248395050673184,0.0993920043619035,0.568101361696671
5.719999999999999,-0.7714179518098652,0.0873703487404766,0.5706965184873503
5.730000000000004,-0.5468962769366573,0.0697242967479375,0.5634686992001073
5.739999999999995,-0.2989906732328525,0.0482240279897444,0.5384641712615637
5.75,-0.0676745722881027,0.035176683359859,0.4974053521664426
5.760000000000005,0.1927146687595252,0.0165547122192894,0.4488523545667112
5.769999999999996,0.3954520799468899,0.0030166368124821,0.3943399183973737
5.780000000000001,0.5695847216130604,-0.0108686770044816,0.3344374037748186
5.790000000000006,0.7064867155670734,-0.0252710384737241,0.267999102350945
5.799999999999997,0.8046422493774462,-0.0355316149405295,0.1937597890437989
5.810000000000002,0.8479618879079315,-0.0496458277139699,0.1203441548274294
5.820000000000007,0.8517289194937882,-0.0621461763709452,0.0557828972932351
5.829999999999998,0.8141399195250228,-0.0759879037405109,0.0051970085882677
5.840000000000003,0.7673771676668921,-0.0861826434459141,-0.0223510497469453
5.849999999999994,0.6913861868941373,-0.1045394015669001,-0.0316277343295955
5.859999999999999,0.5875644733303679,-0.1233483582404869,-0.0281066047719178
5.8700000000000045,0.4775297813394699,-0.1369071277839337,-0.0173568122004043
5.879999999999996,0.3451900688729843,-0.1519041013169898,0.0045194839956189
5.890000000000001,0.2218230442440599,-0.1643259967693641,0.0340462572113482
5.900000000000006,0.0756400227222604,-0.173440329865421,0.0577633961135833
5.909999999999997,-0.0426125602887916,-0.1740801179207524,0.0716785113852341
5.920000000000002,-0.1383553195525047,-0.1853029755767891,0.0969516687911279
5.930000000000007,-0.2110963605646875,-0.2022647485572896,0.1328297535713506
5.939999999999998,-0.2569057164913172,-0.2240290762065412,0.1666413582495932
5.950000000000003,-0.2812091482656458,-0.2518130676626294,0.2081120604636557
5.959999999999994,-0.2870131212618235,-0.2730771181931576,0.2394913464890263
5.969999999999999,-0.2871779742383383,-0.2975262263519971,0.2663996857558595
5.980000000000004,-0.2700929880526668,-0.3155227894231496,0.2883489004202613
5.989999999999995,-0.238733001511024,-0.3280263781693288,0.3008018298426005
6.0,-0.1931674648000159,-0.3394177179247896,0.306068226220261
6.010000000000005,-0.1444387205057226,-0.335189554857806,0.3036638564870525
6.019999999999996,-0.0934907911414067,-0.3147372943343641,0.2923173216478366
6.030000000000001,-0.0478668413337543,-0.281883914232007,0.2782049194013984
6.040000000000006,-0.0143834017214465,-0.2425778115221952,0.2640139404277858
6.049999999999997,0.0109969115400263,-0.1960045498455928,0.25111457446128
6.060000000000002,0.0296669027976381,-0.1483677339362602,0.2360044733037694
6.070000000000007,0.0482997790040469,-0.108366781222476,0.2241619266402464
6.079999999999998,0.0630919650921881,-0.0813705021034658,0.2161866110324244
6.090000000000003,0.0719879602154562,-0.0713426213036544,0.2139131703251142
6.099999999999994,0.0737609665819356,-0.0735228049165539,0.2214561686783414
6.109999999999999,0.0631619937609508,-0.0840979013623975,0.2299351890082255
6.1200000000000045,0.0374877585562694,-0.095509534234864,0.2393993602945412
6.129999999999996,0.0052836161305544,-0.1012033473862181,0.2479591119181542
6.140000000000001,-0.0279073435025905,-0.1116405696857255,0.2630783453678026
6.150000000000006,-0.0521664028907603,-0.1220797171673269,0.2856757019744293
6.159999999999997,-0.0653633641365959,-0.128842686619351,0.3127172172207201
6.170000000000002,-0.0753681243184631,-0.1314569221085065,0.3419752036565396
6.180000000000007,-0.078596149003059,-0.1309543921951171,0.3660960830167764
6.189999999999998,-0.0927006195530135,-0.1335123766611669,0.4012377215361962
6.200000000000003,-0.114091053943734,-0.1340397029914749,0.4365670266572745
6.209999999999994,-0.1566662155485447,-0.1307337507853261,0.4764872107781967
6.219999999999999,-0.206751539519763,-0.1160300465366778,0.5033149615994806
6.230000000000004,-0.2412197835619653,-0.104999233021619,0.5208434838442018
6.239999999999995,-0.253226699205021,-0.0980410183809912,0.5476714731128595
6.25,-0.2446331411168432,-0.1035280383098048,0.5709270229061766
6.260000000000005,-0.2272813436816735,-0.1146530680837158,0.5908383723682507
6.269999999999996,-0.2105150630239624,-0.1289726747741722,0.609376157618022
6.280000000000001,-0.2089097067547948,-0.1378427705950663,0.6188915220838059
6.290000000000006,-0.2063958712844512,-0.0980689789660734,0.6115816189399931
6.299999999999997,-0.2013261766275512,-0.0639512014143358,0.6000260457720701
6.310000000000002,-0.1918367693197367,-0.0350303983976752,0.5828497715678398
6.320000000000007,-0.1570863234226291,-0.0084317368059966,0.5609063391574247
6.329999999999998,-0.1037598108136822,0.0019809992522039,0.548164226031952
6.340000000000003,-0.0508660184092722,0.000410880091804,0.5392364376442959
6.349999999999994,-0.0035759207426798,-0.0071823120498647,0.5287190141707768
6.359999999999999,0.0205635025201638,-0.0196217247547689,0.5174085690690805
6.3700000000000045,0.0280500177414795,-0.0354528427827756,0.508050379810042
6.379999999999996,0.0254037255766524,-0.0507097145206149,0.4979225989387149
6.390000000000001,0.0206474600910841,-0.0703755883313776,0.4963534058946433
6.400000000000006,0.0205718939533067,-0.0860229059967947,0.5004227586426537
6.409999999999997,0.0205072573170326,-0.1110270607229349,0.5114222305619663
6.420000000000002,0.0176434073222118,-0.1304451273108758,0.5292054465580502
6.430000000000007,-0.002888236827214,-0.1354251359035477,0.5421842946905626
6.439999999999998,-0.0325919695832924,-0.1253110315228141,0.5571648574597003
6.450000000000003,-0.0775716950331204,-0.0948181896020421,0.5747594746377568
6.459999999999994,-0.1170319888667824,-0.0552649318696803,0.5875034267755163
6.469999999999999,-0.1220939876635627,-0.0106584221046052,0.5915822504485334
6.480000000000004,-0.0846035614325189,0.0278278123230385,0.5951080237126896
6.489999999999995,-0.0407515980195666,0.0506584059929529,0.5994678420964782
6.5,0.0194429239227957,0.0733768733001708,0.5986362763359838
6.510000000000005,0.0880634485889199,0.1003872621015081,0.5968293385059525
6.519999999999996,0.1389287627636639,0.1151844713982015,0.5908346247048966
6.530000000000001,0.191517921262305,0.124870074251693,0.5891477847134586
6.540000000000006,0.2094293606638097,0.1227580456938574,0.5929573684454335
6.549999999999997,0.2198656530399276,0.1160564254860401,0.5957295354259401
6.560000000000002,0.2175086660479003,0.1090732890675538,0.6108756853536698
6.570000000000007,0.2184432251048747,0.1014546031942255,0.6313431200836972
6.579999999999998,0.2238129131267113,0.0939698255334278,0.650015458430131
6.590000000000003,0.2438456202993761,0.0784759729578695,0.6672872164240314
6.599999999999994,0.2685914482321195,0.051017336265141,0.6893018313863293
6.609999999999999,0.293805862626325,0.0248861030589019,0.7131245973773584
6.6200000000000045,0.3302838203507894,-0.0037144722937216,0.7349788147161485
6.629999999999996,0.3660656223023558,-0.0357228230938369,0.7585308659218795
6.640000000000001,0.3895675102804468,-0.059432367601292,0.7791534870802337
6.650000000000006,0.4132964911711056,-0.0731378484764918,0.7935094980303734
6.659999999999997,0.43976490145509,-0.0698770892853111,0.8011542808826657
6.670000000000002,0.4584281194767142,-0.063958208660002,0.8050389424845075
6.680000000000007,0.4764609377894155,-0.0578367447501191,0.8085248355334201
6.689999999999998,0.4843841795669762,-0.0535885320429373,0.8137668719789423
6.700000000000003,0.4841573448022237,-0.0535633234318648,0.8140031643954643
6.709999999999994,0.4822360165756084,-0.0599641639494969,0.8155124533630519
6.719999999999999,0.4700741114129316,-0.0748177122888001,0.8218201560778974
6.730000000000004,0.4534459004340522,-0.0820013113948702,0.8179221508850797
6.739999999999995,0.4394384647675009,-0.0799530213896637,0.7996826559293765
6.75,0.4225467412922272,-0.0710612916326312,0.7793116679844648
6.760000000000005,0.4107473679921868,-0.0649781059791444,0.760659500156431
6.769999999999996,0.390355645776734,-0.0659467993133874,0.743564297417889
6.780000000000001,0.3665035056718448,-0.0692491912280775,0.7366831559856353
6.790000000000006,0.3241471236027104,-0.0985310529373459,0.7484395776380721
6.799999999999997,0.2593221794302282,-0.1534055651327744,0.7683361592939223
6.810000000000002,0.1981047816585951,-0.204104204673286,0.7785415325419722
6.820000000000007,0.1372005097213657,-0.2446103439326565,0.7730376437567635
6.829999999999998,0.0822660007316351,-0.2553218424665238,0.7586934819388401
6.840000000000003,0.0469462800947222,-0.2291036079535477,0.7272981233354265
6.849999999999994,0.0388405209796008,-0.2089261300644177,0.6872578187502054
6.859999999999999,0.0416889043231511,-0.1875155307347874,0.6461541309724406
6.8700000000000045,0.0345832286328412,-0.1600144016496601,0.6122530097407061
6.879999999999996,0.026033828712583,-0.1367723518306427,0.5906331813289327
6.890000000000001,-0.000694986447503,-0.106898118115825,0.567367624228783
6.900000000000006,-0.0376224659827258,-0.0741729866507288,0.5383355941790856
6.909999999999997,-0.0765985240984673,-0.0430640154958475,0.5072360961609876
6.920000000000002,-0.1212244194615415,-0.0070011919848992,0.4715438371473875
6.930000000000007,-0.1689046511539847,0.0214802017173014,0.4395334340379234
6.939999999999998,-0.2491610210588161,0.0394222498030117,0.4193025847775686
6.950000000000003,-0.3216508646400027,0.0596864989048675,0.4079885881924153
6.959999999999994,-0.3572551636107231,0.0728651354453204,0.3991727235992121
6.969999999999999,-0.3717911021014506,0.0917040194922013,0.3885934202609652
6.980000000000004,-0.355233141736664,0.096550355447187,0.3839039496579169
6.989999999999995,-0.3389067221343876,0.0887724349739527,0.3873743723787394
7.0,-0.3237957803137682,0.0876477905417308,0.3978556028349037
7.010000000000005,-0.3021375824047579,0.0912252164803757,0.4107542282667877
7.019999999999996,-0.2747656495524088,0.0903495004967268,0.4254215017548048
7.030000000000001,-0.2551478887806203,0.0834403148779135,0.4437800804439316
7.040000000000006,-0.2451770215096549,0.0691697730708534,0.4665857080621103
7.049999999999997,-0.2436107655790477,0.0581556513747773,0.4878168696627836
7.060000000000002,-0.2352000024038385,0.0607691257884019,0.5026730672155195
7.070000000000007,-0.2176642182967799,0.0676997650537762,0.5089337277603494
7.079999999999998,-0.1832165618238921,0.0833743135177276,0.5071674968967111
7.090000000000003,-0.128012432099552,0.0897916299675432,0.4973773914967471
7.099999999999994,-0.064330455261863,0.0926519281890624,0.4851481055469842
7.109999999999999,0.0091616253328479,0.0974695404400433,0.4630038769017565
7.1200000000000045,0.0735316077450843,0.1067002036382503,0.4414918832674136
7.129999999999996,0.130648474116937,0.1098271352804209,0.4151122360263402
7.140000000000001,0.1822438342075852,0.1150433986320367,0.3821982425417776
7.150000000000006,0.2123157167286088,0.1389041697571228,0.3544936573903611
7.159999999999997,0.2514431940451823,0.1602174100509415,0.3140073984846043
7.170000000000002,0.286504695072392,0.1805181974235715,0.2635786426970186
7.180000000000007,0.3208512797048884,0.2144511868159098,0.2023108679304466
7.189999999999998,0.3617866429165327,0.2285090904857308,0.1234307588127438
7.200000000000003,0.4099400524117109,0.2391005197087612,0.0351451325134903
7.209999999999994,0.4478527420141475,0.2588600534404404,-0.0384515021981908
7.219999999999999,0.4694259344543779,0.2680725270958367,-0.104468964233379
7.230000000000004,0.4687072313179973,0.2760676780769548,-0.1647819774757879
7.239999999999995,0.4430975636855639,0.259561601465404,-0.2019419976058357
7.25,0.3907310930580509,0.2248780877491477,-0.2037839691908773
7.260000000000005,0.3372328901121217,0.1827815127208645,-0.2079392993368878
7.269999999999996,0.2692369040320276,0.1696706492905143,-0.2116505269577092
7.280000000000001,0.2158188764374382,0.1940886140461818,-0.1872714061699379
7.290000000000006,0.1510922763133337,0.16157619263681,-0.1820047476827284
7.299999999999997,0.0747985760694885,0.1317273125815009,-0.173880360545284
7.310000000000002,-0.000271717264032,0.1126724301504279,-0.1482185236318393
7.320000000000007,-0.0806663396768451,0.0925919302612226,-0.1199391548664173
7.329999999999998,-0.1506785937789984,0.0700413325255046,-0.0989796973648255
7.340000000000003,-0.2065371600085909,0.0389456012649484,-0.0842183482384333
7.349999999999994,-0.2511748835897959,0.010926065597814,-0.0708458934047321
7.359999999999999,-0.2796362632745204,-0.0151574570343719,-0.0597552980048824
7.370000000000003,-0.2766238258854151,-0.0409532237373519,-0.0474147564288737
7.3799999999999955,-0.2519043823247807,-0.063855784267905,-0.0226115847282372
7.390000000000001,-0.2164008040011746,-0.0969318373517612,0.0207263597667059
7.400000000000006,-0.1640221589448842,-0.1177671979046903,0.0479577555566597
7.409999999999997,-0.0986265897675058,-0.1174964183636344,0.0507774177706386
7.420000000000002,-0.0075137847265801,-0.1031434568310883,0.0401772987799198
7.430000000000007,0.068294672231949,-0.0913454118534817,0.0280692998790512
7.439999999999998,0.1401137905328892,-0.0837449870324848,0.025883806096421
7.450000000000003,0.1935886634820235,-0.0669564334208068,0.0165275747958291
7.459999999999994,0.2240628527698284,-0.0462269673219612,0.0080478703296473
7.469999999999999,0.2460007648506104,-0.0211090194382847,-0.0017157109629516
7.480000000000004,0.2517019058803298,-0.0005167180607991,-0.0097710873715496
7.489999999999995,0.2418653857075426,0.0094984505463311,-0.0139659773386573
7.5,0.2230365645170728,0.007280824037905,-0.0086702443245931
7.510000000000005,0.1963460958769521,0.00581107904217,-0.0015751210283701
7.519999999999996,0.1674464476485197,0.0094788993024056,0.002350267575828
7.530000000000001,0.1352141188391162,0.0196388908325147,0.0096034350253435
7.540000000000006,0.0912463636811348,0.0291284658293933,0.0195731621312371
7.549999999999997,0.0440019850318814,0.0428522385060701,0.027288276854954
7.560000000000002,-0.0008744800484441,0.0662332324741712,0.0251493526570734
7.570000000000007,-0.0292101139371014,0.0929905870138838,0.0178905451254906
7.579999999999998,-0.0460830749567324,0.1137750733660887,0.0104662438598484
7.590000000000003,-0.0568683724192509,0.1320357108875726,0.0067413739711207
7.599999999999994,-0.0636207753377321,0.1463494255224626,0.0097553022372
7.609999999999999,-0.06749983015703,0.1592353353339031,0.0163905906351205
7.620000000000003,-0.0758847691277768,0.1647137486317609,0.0254948901538429
7.6299999999999955,-0.0901930218540131,0.1640524930660185,0.0375551099909113
7.640000000000001,-0.1187857150229375,0.1523128227066832,0.0598068854432366
7.650000000000006,-0.1458609116001367,0.1432634629963068,0.0720559335362385
7.659999999999997,-0.167443673819509,0.1330362168395993,0.0740528282270133
7.670000000000002,-0.1771234115629892,0.1349506312705701,0.0710417760209726
7.680000000000007,-0.1882943796234062,0.1427263179740596,0.0606197384257805
7.689999999999998,-0.1869853874270798,0.1541780465370693,0.0479577393692234
7.700000000000003,-0.185072132817332,0.1849379487367985,0.0408438090544475
7.709999999999994,-0.193606883297759,0.2019342286214125,0.0464879172618735
7.719999999999999,-0.2007226765484779,0.1894450673517612,0.061022671492376
7.730000000000004,-0.2203672761882576,0.1666004889033402,0.0839940262570988
7.739999999999995,-0.2249829244016671,0.1342906788155582,0.1069623350414726
7.75,-0.2274189673163756,0.1237568029197064,0.1251354127801555
7.760000000000005,-0.2293762910577677,0.1198656307610652,0.1205127985063345
7.769999999999996,-0.2277471908280469,0.1166691155642327,0.1014689223850687
7.780000000000001,-0.2595403708745116,0.1184896985795609,0.0841243137105402
7.790000000000006,-0.3087771837604259,0.1183354117408742,0.0630795918566447
7.799999999999997,-0.3579451456502556,0.1099208226835368,0.0431569636202476
7.810000000000002,-0.4064932590884226,0.0944007738044267,0.0273295455339396
7.820000000000007,-0.4311963188779537,0.0875164663191775,0.0128137750970252
7.829999999999998,-0.4385496367822075,0.0879968392797849,-0.0054679311362659
7.840000000000003,-0.4329682061112072,0.0941209012539892,-0.0268872281264561
7.849999999999994,-0.4168718639943482,0.1031675266680238,-0.0477892123064423
7.859999999999999,-0.3805508889069706,0.135429713321197,-0.0694359201093826
7.870000000000003,-0.3188900187165629,0.1822387603191244,-0.0733189986218928
7.8799999999999955,-0.2246913693279008,0.2112027380586434,-0.0514379992238362
7.890000000000001,-0.1125640509949555,0.2221435191667118,-0.0225819903990695
7.900000000000006,0.0048410902418725,0.1991437620986992,0.0244301915994406
7.909999999999997,0.112057302385471,0.1627717547083777,0.0670548192299818
7.920000000000002,0.2194134202999366,0.1124936251005898,0.1049922108656194
7.930000000000007,0.353346608638847,0.0958662599227559,0.1230497942300242
7.939999999999998,0.4895583872326036,0.1150003612898377,0.1142763397429769
7.950000000000003,0.59250918341522,0.1152994719799721,0.1148578138081805
7.959999999999994,0.6735936019450454,0.1025623840004799,0.1166685383261246
7.969999999999999,0.7486340594345339,0.0806345408110077,0.1157014915981201
7.980000000000004,0.8146570986382989,0.0534908416638339,0.1046799547993385
7.989999999999995,0.857121774639185,0.0405642091922795,0.0798174993566323
8.0,0.8779970852652254,0.0237644052864424,0.0446726683581331
8.010000000000005,0.8806257473685314,-0.0009941112709099,0.01045969629689
8.019999999999996,0.8539573507654759,-0.0322752189421154,-0.0100791286061337
8.030000000000001,0.816606197412982,-0.0664475894896675,-0.0376942430485925
8.040000000000006,0.7620960135247519,-0.1155985413430403,-0.0492202054682625
8.049999999999997,0.6936939553625061,-0.1775861870506195,-0.0613924548835753
8.060000000000002,0.6336078820451381,-0.2244766965207342,-0.08762222521604
8.070000000000007,0.5566386436867018,-0.2620226484132011,-0.107465016007861
8.079999999999998,0.4891577741128574,-0.2750564905948205,-0.1399647351601645
8.090000000000003,0.438170292259612,-0.2747537528909459,-0.1669011553053078
8.099999999999994,0.3835374939575322,-0.2700238420074049,-0.1805498733285914
8.11,0.3270104913345268,-0.2596519373676713,-0.1922432394723561
8.120000000000005,0.2602115616766339,-0.2456632426858105,-0.2043154904135497
8.129999999999995,0.1869141805064051,-0.2245536921632875,-0.2114287279093336
8.14,0.1227267724146236,-0.2075923431213515,-0.2096400566384847
8.150000000000006,0.0593122595226304,-0.1898156130200308,-0.1985283452880508
8.159999999999997,-0.0211694664863059,-0.1626821076732853,-0.177250271926252
8.170000000000002,-0.1030370163195043,-0.1377152316266068,-0.1626239709565723
8.180000000000007,-0.149067525775714,-0.1035714621953348,-0.1634097059923119
8.189999999999998,-0.1892532577749848,-0.0616306846823705,-0.1614708680254662
8.200000000000003,-0.2212484297543823,-0.0343638272544104,-0.1561596799460825
8.209999999999994,-0.2404359798061569,-0.0058711140485835,-0.1477087625216396
8.219999999999999,-0.2431751915169104,0.0126686804594472,-0.1517467055470368
8.230000000000004,-0.2416783404604843,0.0241410269748237,-0.1497327693072191
8.239999999999995,-0.2316643642860798,0.031613139825427,-0.1451103672837992
8.25,-0.2024045696177413,0.0481338875556549,-0.1415749092223386
8.260000000000005,-0.1740128505496116,0.0648754180299832,-0.1336122403007189
8.269999999999996,-0.1448545900821241,0.084650889473376,-0.1266591092552247
8.280000000000001,-0.1033024962492641,0.1164283678185878,-0.1289787704816169
8.290000000000006,-0.0578421797262779,0.1499592146722407,-0.1280928109481387
8.299999999999997,-0.0181802875803016,0.1730791178845984,-0.1215077491802943
8.310000000000002,0.0149263874050224,0.1877122974735842,-0.1186325407876631
8.320000000000007,0.0458700477569364,0.1982171444153151,-0.1229245282398781
8.329999999999998,0.0739160822123459,0.2019887274068938,-0.1288330969090672
8.340000000000003,0.109514802742347,0.1850158653929179,-0.1393703819897951
8.349999999999994,0.1456849661845189,0.1615476325175318,-0.1636258687292252
8.36,0.1876268799907213,0.1435798673333684,-0.1949345775916955
8.370000000000005,0.2286841390078802,0.1341768996010775,-0.2418051064111837
8.379999999999995,0.2643371876645447,0.12482587856891,-0.2824254685649923
8.39,0.2834752727792307,0.1068544434841737,-0.309607381977759
8.400000000000006,0.2855865259018759,0.0864092000552655,-0.3224896998551937
8.409999999999997,0.2771340195352052,0.0612770914341287,-0.3258658389771363
8.420000000000002,0.2626907501484884,0.0351599422297756,-0.3205873427990247
8.430000000000007,0.2325470128739777,0.011791473633366,-0.3258541059725771
8.439999999999998,0.2020753292190925,0.000816012225649,-0.3411129958431599
8.450000000000003,0.1690619590821072,-0.0033457484699624,-0.3597128496899809
8.459999999999994,0.1291291752469985,-0.0040915293590459,-0.3891883405595667
8.469999999999999,0.0974241717130122,-0.0040341329013678,-0.4146612897573802
8.480000000000004,0.0643004504296034,-0.0155968413304894,-0.4267503608697687
8.489999999999995,0.0219412217757282,-0.0384729790655301,-0.4251850205084123
8.5,-0.0267381993342423,-0.0698211012769167,-0.4193663055578395
8.510000000000005,-0.0791899459212688,-0.0911138795830153,-0.4106503838913593
8.519999999999996,-0.1101561500946618,-0.0829472187930742,-0.4102272868826493
8.530000000000001,-0.1135107472772916,-0.0594896418999062,-0.4219002626878211
8.540000000000006,-0.0983041860183837,-0.0239470644109241,-0.435325419514106
8.549999999999997,-0.0745339615154656,-0.0003580518639293,-0.440241861510192
8.560000000000002,-0.0454656642570189,-0.0009230878601932,-0.4406484656625551
8.570000000000007,-0.0182369680843274,-0.0210016826090196,-0.435341333350701
8.579999999999998,0.0076648396040636,-0.0600633766146475,-0.4185490818272031
8.590000000000003,0.0272932146141751,-0.0964559724563122,-0.4043037349877237
8.599999999999994,0.0450621227867943,-0.1350125907827981,-0.3968619153754685
8.61,0.0782530146525069,-0.1610295877588697,-0.4073748280715557
8.620000000000005,0.1263528236551052,-0.1646399291549245,-0.4279647680482817
8.629999999999995,0.1982813870122768,-0.1362391537848087,-0.4620754317211677
8.64,0.2738757968747739,-0.084490461778737,-0.4882755709663239
8.650000000000006,0.3285003975643027,-0.0476849397919544,-0.4951064762134805
8.659999999999997,0.3516527654474036,-0.0317625088827066,-0.497585249879045
8.670000000000002,0.3357632110048588,-0.046241809017144,-0.4928095534369837
8.680000000000007,0.2886446577189905,-0.0796141712994878,-0.4885294763284759
8.689999999999998,0.2188068977178387,-0.1262486196679608,-0.4865580878468067
8.700000000000003,0.1312487717944548,-0.1815030115218468,-0.4985294863018619
8.709999999999994,0.061437888792837,-0.2266685351379135,-0.5174279599086437
8.719999999999999,0.0036933969796301,-0.252876832287896,-0.5399853427990867
8.730000000000004,-0.0392787215866877,-0.2670567375996888,-0.5576241457181907
8.739999999999995,-0.0642711636699131,-0.2647678303502832,-0.5643556102464579
8.75,-0.0834510147206173,-0.2574397268451673,-0.5631909381737139
8.760000000000005,-0.0968705442248378,-0.2411679892643075,-0.5534143787202328
8.769999999999996,-0.1190895370535241,-0.2306714981829122,-0.5341537943934616
8.780000000000001,-0.1630177507354135,-0.2261862579603145,-0.4800984396431402
8.790000000000006,-0.2083871980601968,-0.2312692181211705,-0.3962571441843561
8.799999999999997,-0.2446573817301241,-0.2441065104531575,-0.3034648047088108
8.810000000000002,-0.2704588746180438,-0.2543170471336051,-0.215757391333168
8.820000000000007,-0.2823228334544764,-0.2629694347193242,-0.1332446356353301
8.829999999999998,-0.2904357454592705,-0.2566053624284575,-0.0653764304203657
8.840000000000003,-0.3078862289909025,-0.2458779248284579,-0.0047045777409069
8.849999999999994,-0.3258528347615715,-0.2277010160832135,0.07514962726426
8.86,-0.3393426302373606,-0.1933857259522161,0.1563489896283832
8.870000000000005,-0.3396196387986937,-0.1581143279425708,0.2170220340378736
8.879999999999995,-0.3342524839743762,-0.138448879462593,0.2636257320398061
8.89,-0.3262070140947397,-0.1382293767802381,0.2998267167812445
8.900000000000006,-0.306081156212222,-0.1374145932090344,0.3225686698664815
8.909999999999997,-0.2837470564418552,-0.1371422070041643,0.3254027694694735
8.920000000000002,-0.2567656265654996,-0.1421217101312646,0.3183242409944974
8.930000000000007,-0.2224000212019984,-0.1495616424088031,0.294883897531092
8.939999999999998,-0.1881734597721339,-0.1630003404932416,0.2769823459957929
8.950000000000003,-0.1459095223184465,-0.1736803333490686,0.2538877494975421
8.959999999999994,-0.1009334206343335,-0.1754738760571048,0.2340094610449199
8.969999999999999,-0.0674737144332318,-0.1932992492349893,0.2374768215040296
8.980000000000004,-0.0443465938293578,-0.2303395832756045,0.2538155571015196
8.989999999999995,-0.0072616782021161,-0.2441610335001351,0.2387714409113448
9.0,0.0414179524668891,-0.2392853190963326,0.1990309425986405
9.010000000000003,0.0888818124171227,-0.2155845070427279,0.1357611213197676
9.019999999999996,0.1244127558398957,-0.1654578301015365,0.0617130051938393
9.03,0.1512264926590407,-0.1066703990200051,-0.0121789921641664
9.040000000000006,0.1743447421855615,-0.0341884645857132,-0.1140864150753622
9.049999999999995,0.1874474530286164,0.0272830319033262,-0.2143998815791148
9.060000000000002,0.1962755475204455,0.0386586278810975,-0.2870948947898745
9.070000000000007,0.2016213813520116,0.0083496875954367,-0.3556178496115657
9.079999999999998,0.2023949903544227,-0.0553574657781918,-0.4118347388474232
9.090000000000003,0.1979139844751918,-0.12372063607393,-0.4487411818769933
9.099999999999994,0.1943766427752103,-0.1550556940259763,-0.4697100257636946
9.11,0.1945070845281481,-0.1485408542182412,-0.498442305140761
9.120000000000005,0.1802610128608147,-0.0895579168425394,-0.5369111742667653
9.129999999999995,0.1417981348860143,-0.0254568136921558,-0.5636019459677436
9.14,0.1045093692160245,0.0081166130811665,-0.5670391559326696
9.150000000000006,0.0723141515965658,0.0139477246201641,-0.557498508227537
9.159999999999997,0.0294533960664733,-0.00609240288951,-0.5310693571699724
9.170000000000002,-0.0352177455618204,-0.0316731753688456,-0.50450230118286
9.180000000000009,-0.1200852228512425,-0.0736006785985287,-0.4714194978130044
9.189999999999998,-0.2035989549270772,-0.1443779620662024,-0.4285652594676141
9.200000000000005,-0.285179695575084,-0.1800561486761573,-0.395361429785224
9.209999999999994,-0.3502227018430882,-0.1400140567397682,-0.3917584972707991
9.22,-0.3796313709872469,-0.0727279997025078,-0.4104813010941698
9.230000000000004,-0.365698188112122,-0.0188710790877676,-0.4121260151243933
9.239999999999997,-0.3117593318577264,-0.0044594120874742,-0.3885397256794657
9.25,-0.2290022431504753,-0.0119350171511463,-0.3536981022591471
9.260000000000003,-0.1187155273597707,-0.005803417615404,-0.3180147943407743
9.269999999999996,-0.0254283655446066,0.0005369922116765,-0.3034970991378022
9.28,0.088732535877897,0.0140442123536987,-0.2982402671630478
9.290000000000006,0.189690182779656,0.015784253919951,-0.2776881180741717
9.299999999999995,0.2570255293596476,0.008804315549008,-0.2451732962832167
9.310000000000002,0.3243844399354706,0.0180402598092978,-0.220194148318765
9.320000000000007,0.4004847078034189,0.0435565792317427,-0.2045505913331637
9.329999999999998,0.4705590834159677,0.0706485360559581,-0.1847905201374952
9.340000000000003,0.5322678799212363,0.0882190989605908,-0.1637650887017941
9.349999999999994,0.5805071456265211,0.0964676311612102,-0.1346953706743871
9.36,0.6082032776319614,0.1094161464712798,-0.1196169799759138
9.370000000000005,0.5955271468561666,0.1301029356234055,-0.1226839589435688
9.379999999999995,0.6153144632440934,0.147127610307642,-0.1782104379272943
9.39,0.6185353115528643,0.1267038433472075,-0.2156917062041618
9.400000000000006,0.5829183830549745,0.1149064086553669,-0.2206137938917311
9.409999999999997,0.5224665106617342,0.1042805748313124,-0.2325119988503161
9.420000000000002,0.4562357648377962,0.0847238251225339,-0.224452094360163
9.430000000000009,0.3701612464812638,0.0543941525941331,-0.1902600396452075
9.439999999999998,0.2727435946105616,0.0222227224105034,-0.1389644653716052
9.450000000000005,0.1689545284205073,-0.007546880997364,-0.0874495206437017
9.459999999999994,0.0485936584349612,-0.0257936264766673,-0.0557026773170305
9.47,-0.0624423909702799,-0.0302477753232163,-0.0473750884041957
9.480000000000004,-0.1707704779918656,-0.01970364125454,-0.0665229331278701
9.489999999999997,-0.2410014352532754,0.0034441876473005,-0.0828773306869145
9.5,-0.2789144904786021,0.0135222401177286,-0.064397391803658
9.510000000000003,-0.3011797592256104,0.0190149023713128,-0.0284613224138336
9.519999999999996,-0.269652943828275,0.0464500071336975,-0.0228285082162816
9.53,-0.2066265450519101,0.0762890771837871,-0.0492671119560589
9.540000000000006,-0.1289406555565434,0.1039837984651265,-0.0841988052133449
9.549999999999995,-0.0308871328933796,0.1197226432618497,-0.1287743512954832
9.560000000000002,0.0478059317853608,0.1101701001120647,-0.1646545077313881
9.570000000000007,0.1030892418295786,0.1057801643280304,-0.1824706661828325
9.579999999999998,0.1433710104972476,0.0930117122688839,-0.1766854694009449
9.590000000000003,0.1650406651174716,0.0759872216646086,-0.1580771157958131
9.599999999999994,0.177126196993005,0.0481582264683772,-0.1392637664216698
9.61,0.1836481582392855,0.023260973705829,-0.1231776805076977
9.620000000000005,0.1876057421610208,0.0049515569791862,-0.1041704714696419
9.629999999999995,0.1930084927514986,-0.0081309248957101,-0.0876020590386783
9.64,0.1821241411932609,-0.0253568922081436,-0.0651844469131628
9.650000000000006,0.1595449998636797,-0.0596027238373862,-0.0404350053200267
9.659999999999997,0.1158005428308844,-0.0902999105382939,-0.0251030273185302
9.670000000000002,0.0548906327681945,-0.1140907490526638,-0.016180303332212
9.680000000000009,-0.0128368951737051,-0.1176553152630478,-0.0153089903416362
9.689999999999998,-0.0792035823797341,-0.1276048442094049,-0.0089388528476558
9.700000000000005,-0.1093603644635188,-0.1581304357725912,-0.0005904828911081
9.709999999999994,-0.1068032844349987,-0.1794917770938016,-0.0040652777918529
9.72,-0.0726222147574904,-0.1590491920362973,-0.0344711595171596
9.730000000000004,-0.0390811709553542,-0.1290343754484071,-0.0535251797433477
9.739999999999997,-0.0307097690234189,-0.1146289534670885,-0.0482483951426083
9.75,-0.0319319230014682,-0.1033516749652342,-0.0472882494273981
9.760000000000003,-0.0413416773344639,-0.1026037501368501,-0.0475474720904956
9.769999999999996,-0.05536792934187,-0.1012912417173238,-0.0415413944811903
9.78,-0.0778071276317497,-0.0793443321518168,-0.0389714745901723
9.790000000000006,-0.2064398501589322,0.0262683348027156,-0.0528984114026576
9.799999999999995,-0.2739353173481672,0.1021088005554753,-0.0590081682672089
9.810000000000002,-0.2758869168262165,0.1301722170424269,-0.0375516147502797
9.820000000000007,-0.2284693815748239,0.1385259394814346,-0.0090639709122031
9.829999999999998,-0.1744310870309307,0.1501056105317908,0.0218720328637178
9.840000000000003,-0.1153569097027686,0.1534185236625079,0.0510279226370197
9.849999999999994,-0.0697726687644747,0.1274858304543528,0.0813465372757531
9.86,-0.0561819928495799,0.0733833225862629,0.1352672678123008
9.870000000000005,-0.0725018374656997,0.0102309338138486,0.1801737997586944
9.879999999999995,-0.0873099400360235,-0.0453218201075715,0.1990462581706499
9.89,-0.1057281544056004,-0.0839130132475787,0.1938462881689302
9.900000000000006,-0.118806863755722,-0.0792013416940405,0.1719052122658231
9.909999999999997,-0.301113190580799,0.0573029983864868,0.1354162265834635
9.920000000000002,-0.4880321535998341,0.1641680615096458,0.117199400704853
9.930000000000009,-0.6026872207136519,0.1972363791300994,0.1116952615004573
9.939999999999998,-0.6801081981376269,0.1928142649237321,0.1146974043473961
9.950000000000005,-0.7288203015245288,0.1673373442485681,0.1300225082549166
9.959999999999994,-0.7823799345519761,0.1424887134378385,0.1396541937815278
9.97,-0.8212224157751189,0.1244725707387213,0.1453632157134542
9.980000000000004,-0.8270363373713664,0.113973459813399,0.1338411871888505
9.989999999999997,-0.7907774586653431,0.1017985097299432,0.1139279870042122
10.0,-0.6712895880630786,0.0825473110454286,0.0839234172062602
10.010000000000003,-0.5351727098356548,0.0418149934091035,0.0656408552431318
10.019999999999996,-0.4226302139668625,-0.0002973815506779,0.0471396532798791
10.03,-0.3179031685203717,-0.0418192761463403,0.0478879307375976
10.040000000000006,-0.2511757070423097,-0.0604080447786624,0.0555179118660246
10.049999999999995,-0.2113080817849121,-0.0655523085592213,0.0517515203811785
10.060000000000002,-0.1828188959353524,-0.0676232009942635,0.0524309800538266
10.070000000000007,-0.1537365839334167,-0.0700832209859585,0.0521278453535231
10.079999999999998,-0.1338643863158947,-0.0767950044250379,0.0456953477981686
10.090000000000003,-0.1388821729563344,-0.0870530568599737,0.0401612110760679
10.099999999999994,-0.1759958699866239,-0.1000797581345515,0.0271687584878599
10.11,-0.26348127795763,-0.1034585660031954,0.0164077593374323
10.120000000000005,-0.3733909401038571,-0.1170718128648128,0.0011121556507726
10.129999999999995,-0.491295954980773,-0.1362170443060956,-0.002126793553023
10.14,-0.5988083096848664,-0.1708095429052096,-0.0215909374701291
10.150000000000006,-0.6464385406182022,-0.1317335761378665,0.0154217821362374
10.159999999999997,-0.6755736004995976,-0.1745984341922762,0.0431253683482812
10.170000000000002,-0.7348864645849226,-0.2107148855445635,-0.0611493511161966
10.180000000000009,-0.7258456031408856,-0.2067815771957125,-0.1075870173847426
10.189999999999998,-0.6268825324740159,-0.2603727190598376,-0.1501845845096273
10.200000000000005,-0.5147421241776308,-0.2943929937790107,-0.1834518838948185
10.209999999999994,-0.4009370595518358,-0.3055258317774862,-0.1822446686696576
10.22,-0.2691440219995542,-0.3020215884492641,-0.1636865478260623
10.230000000000004,-0.0978655212425825,-0.293905934805544,-0.1285541655702531
10.239999999999997,0.0407400205048993,-0.2844455645216294,-0.0831733336597761
10.25,0.0938377495408233,-0.2761467943175827,-0.0670009916451096
10.260000000000003,0.0836096194438073,-0.2629514389608499,-0.0672798630182977
10.269999999999996,0.0767113149645795,-0.2329089256069552,-0.051613147438441
10.28,0.0936149794763323,-0.1956083825253763,-0.035550706021826
10.290000000000006,0.1405947554830199,-0.1400770527932588,-0.0151452861827384
10.299999999999995,0.220413540179521,-0.0796506572930264,0.019429088194405
10.310000000000002,0.3256138078242445,-0.031788059415425,0.0584164488606773
10.320000000000007,0.4478269479225771,0.0131631471007011,0.1037452085056101
10.329999999999998,0.5151394724600811,0.0550206697611408,0.1501763609317111
10.340000000000003,0.5316648439321938,0.0899421819042008,0.1877738578048567
10.349999999999994,0.5430360923055296,0.112927206220607,0.2129237408895774
10.36,0.5475133443720465,0.1325578730771044,0.2463980160399794
10.370000000000005,0.5536287653360736,0.1501362866127083,0.2810133813881314
10.379999999999995,0.558760061967238,0.1655382209391355,0.3274909222891048
10.39,0.5807193078442556,0.1887014842507366,0.3671688727799147
10.400000000000006,0.5975313807769813,0.2134735602624028,0.4043853895854824
10.409999999999997,0.5943056286025997,0.2407456099456553,0.4346983795111883
10.420000000000002,0.5572244129803311,0.2590057704938704,0.4671707532929214
10.430000000000009,0.5020619046139461,0.2753609176273673,0.4938051751843864
10.439999999999998,0.3802998672357766,0.29844845500684,0.5117013596704058
10.450000000000005,0.2484887654144653,0.3053311289725277,0.5098222190108654
10.459999999999994,0.0711685355747061,0.2852129241881983,0.500969518855588
10.47,-0.1421410903199995,0.2646578270388548,0.4727887904571189
10.480000000000004,-0.2921612303385186,0.2640624990213981,0.4233224998012789
10.489999999999997,-0.441351947016414,0.2814676672156371,0.368165759581746
10.5,-0.5556088698958946,0.3000396788793648,0.3138187289868748
10.510000000000003,-0.6519336581851418,0.3089590864021845,0.2718012566251649
10.519999999999996,-0.7394864910247029,0.3004708159527385,0.2441283902332378
10.53,-0.8021654109549908,0.2866179517064108,0.2189684675293653
10.540000000000006,-0.8327831852124167,0.2594269751526452,0.1992625963160178
10.549999999999995,-0.8763510218694682,0.2028111989420327,0.211189508395106
10.560000000000002,-0.8963721382829808,0.1447392689262098,0.2255980283469837
10.570000000000007,-0.8333172228593996,0.1202439318578867,0.2298873465760296
10.579999999999998,-0.707558865569286,0.1156014051841177,0.2279420480060075
10.590000000000003,-0.4788356205547601,0.1388217352177835,0.2131459262524193
10.599999999999994,-0.2728549099350567,0.1707109240484806,0.198270607284074
10.61,-0.0993004467837641,0.1848527861064306,0.2031024532223667
10.620000000000005,0.0354994921052101,0.1981505751209477,0.1989442018084199
10.629999999999995,0.1278105430918362,0.2064982874505957,0.1891106068547669
10.64,0.1919745660534664,0.2138736660248308,0.1633850594462848
10.650000000000006,0.2076666417848295,0.2283647581549724,0.1198383267861151
10.659999999999997,0.1944774779484328,0.2590400123450921,0.046975790629067
10.670000000000002,0.1684448631116408,0.2848564348964412,-0.026361386593103
10.680000000000009,0.149252015410785,0.3059067550358089,-0.0951130231056102
10.689999999999998,0.1250036405830028,0.3190207560798686,-0.174520747932204
10.700000000000005,0.1196499769304588,0.3243959596270144,-0.2482351357558494
10.709999999999994,0.1499847276637933,0.330628866457693,-0.3174338370356973
10.72,0.2088292297760539,0.3329747246373772,-0.3850473506229287
10.730000000000004,0.2959254412464804,0.3080413545793098,-0.4337214742726113
10.739999999999997,0.3723951808353921,0.2633355054807751,-0.468583243808602
10.75,0.4257871310468179,0.2185416588852431,-0.4925710778936204
10.760000000000003,0.4529103466870925,0.173754543450477,-0.5140503253759935
10.769999999999996,0.4435097348159514,0.1372932488589333,-0.5370672275932513
10.78,0.4067575338541913,0.1094160788096056,-0.5495551866166377
10.790000000000006,0.3372823230287675,0.0872479388359378,-0.5554371238559851
10.799999999999995,0.2514558510003846,0.0739884554514878,-0.5612032775740469
10.810000000000002,0.1522036936470875,0.0603451453656742,-0.5646410674181968
10.820000000000007,0.0660826175257965,0.0475247576001998,-0.5680992567354016
10.829999999999998,-0.0195930910621483,0.0346678958648605,-0.5706412154632189
10.840000000000003,-0.0743268500283104,0.021276949405225,-0.5666542645216639
10.849999999999994,-0.0892027709326832,0.005438552761039,-0.5551340590595558
10.86,-0.0622067356766441,-0.0228732836664074,-0.5407932458758092
10.870000000000005,-0.0037608086461296,-0.0617002919328012,-0.5247822639143361
10.879999999999995,0.0626986993991642,-0.1056255818671542,-0.4976448835553556
10.89,0.0926898083309631,-0.1376462289454538,-0.4789345445503789
10.900000000000006,0.0665830561970531,-0.1364815540532298,-0.4586684589504453
10.909999999999997,-0.003366086951368,-0.1146605318966519,-0.4214727580338915
10.920000000000002,-0.0238011317122748,-0.1003165939461476,-0.3852358980220187
10.930000000000009,0.0197789376900888,-0.1022113531860555,-0.3676658599341489
10.939999999999998,0.0757012018495517,-0.1156452973584857,-0.3614884876218154
10.950000000000005,0.1292410586878305,-0.1275786507605747,-0.3554628204805862
10.959999999999994,0.1697653908019591,-0.1415598299690105,-0.3618665497115683
10.97,0.1798409252556797,-0.1530939224507512,-0.3724243652599092
10.980000000000004,0.1711630049567529,-0.1654296286044397,-0.3833048787150968
10.989999999999997,0.1537110518767071,-0.1781574673860404,-0.3958209495133152
11.0,0.1246421268790517,-0.181048750372755,-0.4043203129052216
11.010000000000003,0.0910568216768428,-0.1735561243142528,-0.4030899242461992
11.019999999999996,0.0634428808931378,-0.1568888094306692,-0.3949262123481171
11.03,0.0528034730488729,-0.1373488620169765,-0.3782983610026416
11.040000000000006,0.0696486037238219,-0.1227534294647129,-0.3527460476307276
11.049999999999995,0.092807456193098,-0.1174117796597625,-0.3155257697783544
11.060000000000002,0.11056383353234,-0.1141711801748982,-0.2727835548593318
11.070000000000007,0.1234034734682829,-0.1212953007401625,-0.2304124265018389
11.079999999999998,0.1093479851578386,-0.1240406476507205,-0.1925253074361904
11.090000000000003,0.0822603210998801,-0.1248735950842462,-0.1622253784165931
11.099999999999994,0.0466042426712265,-0.1200014155211753,-0.1293988001720639
11.11,0.0200815522840708,-0.1117000203026377,-0.0963331296656036
11.120000000000005,0.0184409011158972,-0.1126129858629338,-0.0604253345091292
11.129999999999995,0.0272095034899087,-0.1162604319528676,-0.0276750342169697
11.14,0.0357635673221207,-0.1194507438605559,0.0099850019381439
11.150000000000006,0.0385574358372658,-0.1330886999590625,0.0500149544026662
11.159999999999997,0.0293844083871511,-0.155630889599408,0.0885982885444609
11.170000000000002,-0.0005497205083979,-0.174091867154973,0.1201452656489347
11.180000000000009,-0.0398829864738739,-0.1953940178795209,0.1480366439290608
11.189999999999998,-0.1371591596679942,-0.1885315525875347,0.1737281061389934
11.200000000000005,-0.279866096102217,-0.1521574490425513,0.201758413305419
11.209999999999994,-0.3867531677020552,-0.112286307598759,0.2296814874685529
11.22,-0.4374450046458515,-0.0719796010850195,0.2599437191398234
11.230000000000004,-0.4087416808257955,-0.0537651260050803,0.2903123016829845
11.239999999999997,-0.3318831471761596,-0.0330340336500842,0.3082865818953358
11.25,-0.2038792981331647,-0.0392816801643978,0.3127402864227963
11.260000000000003,-0.0770006612322828,-0.0611358780807852,0.3084211585897742
11.269999999999996,0.0356106506860408,-0.0808915993928854,0.2922572776255117
11.28,0.118188779877813,-0.1064929207738692,0.275911697671626
11.290000000000006,0.1470015388710661,-0.1127659018651975,0.2655131147327468
11.299999999999995,0.141014983003395,-0.1221446912997464,0.2539893890481129
11.310000000000002,0.1055369685258058,-0.1212473195095479,0.2399524323730396
11.320000000000007,0.0026429075966653,-0.0979266573432393,0.1961199620315577
11.329999999999998,-0.0936949460449572,-0.0343329341724703,0.1413130235278748
11.340000000000003,-0.1454697108731802,0.0100458780257461,0.1012458076069076
11.349999999999994,-0.1592132226424902,0.0329471184736956,0.0759389990019409
11.36,-0.1415321465836736,0.0617608293525614,0.0682374905751883
11.370000000000005,-0.1067834298354029,0.0654734220777387,0.0814469356345906
11.379999999999995,-0.0669132068289793,0.073843508677052,0.094329729475675
11.39,-0.0162563745267981,0.0610207343946434,0.0946252585674381
11.400000000000006,0.0208712247171805,0.0438225803260642,0.0893959693368639
11.409999999999997,0.0091466135218007,0.0592812343473178,0.0673530481947988
11.420000000000002,-0.1317739293636619,0.1268273585712883,0.042785291539279
11.430000000000009,-0.255683936670448,0.16586255167114,0.0304999029381294
11.439999999999998,-0.3244709632980672,0.1690897771713395,0.0069002437022709
11.450000000000005,-0.3266648764687992,0.1638351752529461,-0.0238009128637354
11.459999999999994,-0.2618297435796024,0.1482566843299771,-0.0577343654224596
11.47,-0.1789609306274422,0.1231494226821165,-0.0876195786241832
11.480000000000004,-0.095061594124724,0.100190989403958,-0.1170544526878221
11.489999999999997,-0.0260068045659026,0.0754795864433504,-0.133960057409894
11.5,0.0168500602125365,0.0510654830616276,-0.135720033624891
11.510000000000003,0.045815473705017,0.0374373772013336,-0.1325789030115446
11.519999999999996,0.0281319804419908,0.0381550873534482,-0.1147711405359601
11.53,0.0157505781882413,0.0349257398776525,-0.1097577843214765
11.540000000000006,-0.012086798974635,0.043099331175279,-0.113559979443485
11.549999999999995,-0.0521089806935947,0.0540868846048541,-0.1074809875539689
11.560000000000002,-0.0716093924663828,0.0632714528897347,-0.1033028248656925
11.570000000000007,-0.0666036890122575,0.0660855747908704,-0.1034956323680047
11.579999999999998,-0.0405742929308478,0.0676198041271953,-0.1109038012452321
11.590000000000003,0.0125455545740331,0.0639795074660097,-0.1249152659419907
11.599999999999994,0.0838066639416652,0.0501885503112449,-0.1499565382912956
11.61,0.1500774543482561,0.0293902437599334,-0.1760107778648342
11.620000000000005,0.2170230841029956,-0.0008763899956137,-0.1977037202559685
11.629999999999995,0.2460155270601262,-0.0305495581693555,-0.2041949470511506
11.64,0.2399258312176032,-0.0490849138490927,-0.2011799556037454
11.650000000000006,0.1960077287555138,-0.065721546458224,-0.1843085744311842
11.659999999999997,0.1071951586663623,-0.0902862119381292,-0.1606355931018061
11.670000000000002,0.0201060196174372,-0.1117592335124473,-0.1460420395469838
11.680000000000009,-0.0609563580258705,-0.1405279126831785,-0.1425216493148312
11.689999999999998,-0.110449478809464,-0.1878875731564169,-0.1553347026322555
11.700000000000005,-0.1212448909941315,-0.2360460355359797,-0.1673117415534832
11.709999999999994,-0.1244183703837479,-0.2791569649911946,-0.1809556744534027
11.72,-0.1100266508510072,-0.3010994166749499,-0.194179345065485
11.730000000000004,-0.0534747444801505,-0.3115436235909517,-0.195028069986806
11.739999999999997,0.0212917560737065,-0.3147232021093001,-0.1889308741412377
11.75,0.0523589650822576,-0.2965714150752729,-0.1790758994365741
11.760000000000003,0.0068929967677081,-0.2390222199689445,-0.1628000450928714
11.769999999999996,-0.0576073524763267,-0.1857670383161119,-0.1445109073759581
11.78,-0.1062857287229874,-0.1364937535484663,-0.1397876682083114
11.790000000000006,-0.1356239912300925,-0.0894092315190445,-0.144835547351847
11.799999999999995,-0.1104873640037223,-0.062591710848843,-0.1507391176356647
11.810000000000002,-0.0283635178579088,-0.0455654301025905,-0.1550145694640904
11.820000000000007,0.0625083755344528,-0.0344127702222413,-0.1656756274009612
11.829999999999998,0.1549121470109705,-0.0264912797504437,-0.1742267543442186
11.840000000000003,0.2213715342426573,-0.0166573158175186,-0.1882508252255889
11.849999999999994,0.2635544730900466,0.0064741288785058,-0.2168257394769685
11.86,0.2786206580450083,0.0179453274361218,-0.2398084693704374
11.870000000000005,0.2709004677098031,0.0142390916487173,-0.2680574514526702
11.879999999999995,0.2224768319866968,0.002462939631553,-0.29524272044081
11.89,0.1606751602583966,-0.0144665156898452,-0.3156967477803063
11.900000000000006,0.1035288401881464,-0.0421955212771741,-0.3285462654821888
11.909999999999997,0.0293083308296908,-0.0768282898224294,-0.3278328187414025
11.920000000000002,-0.0467413021409043,-0.0989756020578063,-0.3117605263274414
11.930000000000009,-0.1201212647168351,-0.1145959818781317,-0.2788313450651786
11.939999999999998,-0.1877832102107043,-0.121586770729217,-0.2438902923733158
11.950000000000005,-0.2422616251598789,-0.1075200948933917,-0.2086619255333032
11.959999999999994,-0.2606790596580448,-0.0877017036520893,-0.1825067548663201
11.97,-0.2529448415447666,-0.0530181477689784,-0.1530268884724892
11.980000000000004,-0.239408512381516,-0.0088634184782359,-0.12630586206016
11.989999999999997,-0.1773013144462367,0.0222388737962854,-0.1082136080980235
12.0,-0.0775382269127744,0.0438980367547175,-0.1142840426428265
12.010000000000003,0.0140366932440222,0.0567519683244252,-0.1336783489721375
12.019999999999996,0.1175152373010776,0.0657908523122588,-0.1676541504125847
12.03,0.1860517407223515,0.0811697827105857,-0.2056283460173781
12.040000000000006,0.2119783697326556,0.0990737374839694,-0.2397333365751198
12.049999999999995,0.2236943909074158,0.1194096430030229,-0.2825169494471612
12.060000000000002,0.2343969810864351,0.1317612934363658,-0.3263364795306672
12.070000000000007,0.2710134708023021,0.1357347751348549,-0.3675709051767462
12.079999999999998,0.3191549551554297,0.1250884143859351,-0.3979630145363477
12.090000000000003,0.3680333748338992,0.1044131931724132,-0.4155274086666134
12.099999999999994,0.4028798885720778,0.0772156284982196,-0.4237350396115916
12.11,0.4036182694112579,0.0403894460151689,-0.4173674911319719
12.120000000000005,0.3587355699110164,-0.0036498071290368,-0.3955741086646363
12.129999999999995,0.2724618804303456,-0.050408837854609,-0.3634467939747179
12.14,0.1147667599923733,-0.0946975273305165,-0.3120894373015282
12.150000000000006,-0.0643906552427117,-0.1174090241821306,-0.2621858298669846
12.159999999999997,-0.1841975883014154,-0.1211593270920743,-0.2139208553340419
12.170000000000002,-0.2439084706391487,-0.1230746595363034,-0.0908121261260741
12.180000000000009,-0.1935883658710689,-0.118973544862968,-0.0372150447845405
12.189999999999998,-0.1219231778685385,-0.1026019283519397,0.0139954816429662
12.200000000000005,-0.0472925499684628,-0.083072721167996,0.0542317447161447
12.209999999999994,0.036170482007742,-0.0660022876010406,0.092354263023323
12.22,0.1034191576403741,-0.0490401748872169,0.1214064256028451
12.230000000000004,0.0944612066778027,-0.0589923053082239,0.1311974473440369
12.239999999999997,0.1165824252101537,-0.0456822026602996,0.13367126967395
12.25,0.1386026932344377,-0.032472393836016,0.136112802397943
12.260000000000003,0.1604546993578005,-0.0192571059434889,0.1385350947881072
12.269999999999996,0.1569649553151786,-0.0089913151327476,0.1320287475880606
12.28,0.1332366354246034,-0.0001720625636323,0.1160080808232767
12.290000000000006,0.0947529661234675,0.0025011378994523,0.1006378793433337
12.299999999999995,0.0328898564235113,0.0063142585733567,0.0790711021982117
12.310000000000002,-0.0327380865374279,0.0116168840966789,0.0545887737961093
12.320000000000007,-0.0751820034327909,0.01107088677825,0.0387827853658901
12.329999999999998,-0.1021669257320695,0.0040125715870824,0.0345979954746044
12.340000000000003,-0.1111241824105682,-0.0030702744119068,0.0398916753305616
12.349999999999994,-0.1207843928087357,-0.0066319927260382,0.0523623168426266
12.36,-0.1289331545476076,-0.0068783083690347,0.071151107282044
12.370000000000005,-0.1379068352055216,-0.0054081689268578,0.1000270531916
12.379999999999995,-0.1483086934537474,-0.0001535348612949,0.1365467465115841
12.39,-0.1711165109754264,0.0117923151399815,0.1876352464246642
12.400000000000006,-0.1912163676382221,0.0277702915534058,0.2378204883897035
12.409999999999997,-0.2089490488161219,0.0428273132284666,0.2912202751996527
12.420000000000002,-0.2259560146992533,0.0668408701728393,0.3673478749863255
12.430000000000009,-0.2439357383246094,0.1042980824646903,0.4528368745274216
12.439999999999998,-0.2613144781127026,0.1470665795455125,0.5573803651645721
12.450000000000005,-0.2671404537017208,0.1987657633149531,0.7263254136168281
12.459999999999994,-0.2584645012947221,0.2528282292329652,0.9356830442835145
12.47,-0.2518747699714221,0.3136572499454877,1.1690451349543065
12.480000000000004,-0.2660847432920791,0.3922766838473328,1.429987486624536
12.489999999999997,-0.3103704451072858,0.4779868858424275,1.6937846608570863
12.5,-0.4000843214321326,0.5802801584063081,2.030630243336037
12.510000000000003,-0.52288313170993,0.6780798877331827,2.3722473287620605
12.519999999999996,-0.6735551941801854,0.7761451817991848,2.7622076566221705
12.53,-0.8573439155348029,0.8681862763802328,3.225724035109617
12.540000000000006,-1.044565520476742,0.9536323389559208,3.6931047354140634
12.549999999999995,-1.232415517092485,1.0133441246176187,4.0999087962216505
12.560000000000002,-1.3839827590554143,1.0893719812889735,4.51897314154554
12.570000000000007,-1.5012835168973204,1.1386308661836595,4.925205824438426
12.579999999999998,-1.679487045538636,1.158773696110528,5.272470882903028
12.590000000000003,-1.841993592339532,1.1763816020166382,5.575846670302246
12.599999999999994,-1.9453090339742665,1.147572359279906,5.817204523602687
12.61,-2.0412507997897644,1.0994199358752077,6.025959810973322
12.620000000000005,-2.11184242276036,1.021278832684858,6.222384836324286
12.629999999999995,-2.099291270389936,0.9366466694158868,6.398357044936482
12.64,-2.0019280518520133,0.8203276686012978,6.556730089601641
12.650000000000006,-1.8152756519980384,0.7050578714235162,6.686695910627487
12.659999999999997,-1.5110734768468703,0.5681523835464203,6.828027654239397
12.670000000000002,-1.1638271678288288,0.4114774683414127,6.917878271327103
12.680000000000009,-0.9021414856789493,0.3007877974474032,6.960798558146532
12.689999999999998,-0.6129281721635187,0.18128785540209,7.00057509871807
12.700000000000005,-0.3660808679285038,0.0703316029969374,7.0276438715077685
12.709999999999994,-0.137907517355588,-0.0347109617299319,7.06281828055323
12.72,0.063084572642515,-0.1545533308320623,7.087922731315863
12.730000000000004,0.2419705961701786,-0.2571897116740923,7.107542764875355
12.739999999999997,0.423693082435247,-0.37861333485143,7.1047748199352325
12.75,0.5593266392666509,-0.4678939718457591,7.077686411079328
12.760000000000003,0.6918367403702941,-0.5212808467787777,7.012207176647661
12.769999999999996,0.834547646987128,-0.5344506405839302,6.940720523295465
12.78,0.9884763005693082,-0.5315884038917216,6.81857803862979
12.790000000000006,1.0913302367375644,-0.5375177496753905,6.63522661281726
12.799999999999995,1.09191948317363,-0.5442613827025957,6.444632556740733
12.810000000000002,0.9979919208226572,-0.5503645389685439,6.168490927890445
12.820000000000007,0.8698523314496733,-0.5683317815543829,5.911685736408069
12.829999999999998,0.7715625551181218,-0.5698140130160533,5.680868360790616
12.840000000000003,0.646383365695424,-0.5879356922583332,5.379626503910636
12.849999999999994,0.5221681567300841,-0.603706039336111,5.004943260248053
12.86,0.4222244815280349,-0.6004402336724189,4.6348201150793695
12.870000000000005,0.3057994799298369,-0.5982422149428326,4.2550606389957455
12.879999999999995,0.1338610839088249,-0.5930984496941346,3.836128139663229
12.89,-0.0421773876357079,-0.5927265189385268,3.4298173589870347
12.900000000000006,-0.1992193861809267,-0.5908338934025311,3.044752842156284
12.909999999999997,-0.3458920978082992,-0.5798452212108629,2.628894756874895
12.920000000000002,-0.4242184477714579,-0.5603818289801006,2.241569435039224
12.930000000000009,-0.4507013416566149,-0.5213909193527639,1.815398049993343
12.939999999999998,-0.4473008059673436,-0.4741597466343537,1.5029716594556068
12.950000000000005,-0.437940732532343,-0.4195190809623904,1.1986815368377364
12.959999999999994,-0.4344136178393815,-0.3594858837847182,0.8836515082509528
12.97,-0.4514612856943262,-0.3011249257052367,0.6030150426062456
12.980000000000004,-0.475718427493786,-0.2468141240504679,0.3370159993112916
12.989999999999997,-0.4940044778475604,-0.1999846764096707,0.0838173045876694
13.0,-0.4980665473155819,-0.1843276252157914,-0.1699544089922866
13.010000000000003,-0.4760256038427194,-0.1920619865794907,-0.4102946454565497
13.019999999999996,-0.4330756761327343,-0.2038337731997991,-0.632100994114528
13.03,-0.3664733030424459,-0.21951334465778,-0.8516245165381807
13.040000000000006,-0.289185808533316,-0.2391791890586146,-1.1009214397532838
13.049999999999995,-0.2520485144156305,-0.2681261438994097,-1.327602251637796
13.060000000000002,-0.2540430336622724,-0.2961286787978969,-1.5570518776145386
13.070000000000007,-0.2709812325218451,-0.3343565443946025,-1.8026627793938936
13.079999999999998,-0.2919576904373597,-0.3902938162636127,-2.097215286130173
13.090000000000003,-0.2947311264537402,-0.4361919182410565,-2.388769840561589
13.099999999999994,-0.2685927809209854,-0.4637703724317112,-2.8113629956660886
13.11,-0.2298517828309539,-0.4700904069722764,-3.338530878975463
13.120000000000005,-0.2001512270610463,-0.4499891282955174,-3.937269809355099
13.129999999999995,-0.1847741158652064,-0.4218920183249008,-4.566657654287321
13.14,-0.1675366222402387,-0.3768784644304664,-5.303876391861735
13.150000000000006,-0.1443343392284529,-0.3203997749505876,-6.067964949570849
13.159999999999997,-0.153194509447101,-0.305726985985573,-6.615758185910372
13.170000000000002,-0.1935977754602086,-0.3234955620581388,-7.143974328441009
13.180000000000009,-0.2591100565861043,-0.3743043492014106,-7.578123438346551
13.189999999999998,-0.3425199281459201,-0.4531147064517186,-7.895951317057673
13.200000000000005,-0.4425236856393357,-0.5464391107345736,-8.161298706835533
13.209999999999994,-0.5357451779423831,-0.6361511567391165,-8.382213072466634
13.22,-0.6303552950607613,-0.7055931071084522,-8.65263297337893
13.230000000000004,-0.6814357185128783,-0.71977430262726,-8.9010141426727
13.239999999999997,-0.6822826955292322,-0.6847159664058949,-9.104272286213677
13.25,-0.6322225472188123,-0.6399524245958553,-9.252932759727456
13.260000000000003,-0.498522077697256,-0.5859200689336178,-9.318248380191664
13.269999999999996,-0.2915062853125986,-0.5303778327330825,-9.329347018900798
13.28,-0.0826968740264091,-0.5017615792425304,-9.296621927307315
13.290000000000006,0.1616731970793419,-0.4701893836820751,-9.22166808151584
13.299999999999995,0.4098270268573832,-0.429720114774165,-9.108656693164727
13.310000000000002,0.5829946783772466,-0.3558062659202726,-8.98505922425182
13.320000000000007,0.7166006916629046,-0.2442183196327706,-8.817546714706214
13.329999999999998,0.857098987767094,-0.1403174431396579,-8.630407833922737
13.340000000000003,1.0745810892124503,-0.0943181136355054,-8.39691821613713
13.349999999999994,1.2639053673833496,-0.0741088431021876,-8.183664563314787
13.36,1.410968247170526,-0.0414100380660081,-7.944448294923821
13.370000000000005,1.52709595473267,0.0217705872808094,-7.644752188369621
13.379999999999995,1.5989355398267149,0.0813420781202697,-7.380889133905048
13.39,1.6599716292149982,0.0952470297968753,-7.1114492932378575
13.400000000000006,1.7077714244302928,0.0568864720866154,-6.803613525248574
13.409999999999997,1.7091951013933395,-0.025074485602811,-6.427637079390121
13.420000000000002,1.6306350661663296,-0.1415491156281874,-5.973338962192607
13.430000000000009,1.4706197745682237,-0.241561959246216,-5.521253431747459
13.439999999999998,1.2387611042229458,-0.2955481008567817,-5.011934820735842
13.450000000000005,1.0181427325031849,-0.3251465959258468,-4.588262715420044
13.459999999999994,0.8675427751328647,-0.3347029877062974,-4.151406911796605
13.47,0.7583784185364484,-0.3565763249240338,-3.7842526868223687
13.480000000000004,0.6860717515427873,-0.3503737682325484,-3.4240025139534573
13.489999999999997,0.6411263106958786,-0.3124215754280876,-3.0031397590263174
13.5,0.549738006712274,-0.2959625530384427,-2.7300814646214118
13.510000000000003,0.4564902168096398,-0.2341821026781235,-2.47165069183504
13.519999999999996,0.3742268301640714,-0.1818771295923507,-2.199562975680358
13.53,0.2294166681353993,-0.1352176067028619,-1.9302322069305504
13.540000000000006,0.1377221181089265,-0.112306045960933,-1.7229543568578003
13.549999999999995,0.1033293725320155,-0.0966419463573135,-1.486042100607341
13.560000000000002,0.1020739122370935,-0.1121248402056008,-1.2148836744773064
13.570000000000007,0.1081371756467937,-0.1446414084423116,-0.995057862265226
13.579999999999998,0.1339454871311784,-0.1829254236458599,-0.7668766973705079
13.590000000000003,0.1584137530422692,-0.2189698671498966,-0.5133324994063959
13.599999999999994,0.1379965644424804,-0.2235559024755402,-0.3100759948282944
13.61,0.0873193009021261,-0.216091331184634,0.0005429135252121
13.620000000000005,0.0204692602120883,-0.2170788421758066,0.2594086794183498
13.629999999999995,-0.1414876523317118,-0.2378893523401068,0.5739445551576915
13.64,-0.3425414961921633,-0.2614879789625668,0.9171010218116392
13.650000000000006,-0.5393718925657919,-0.296050578097194,1.3200569905573272
13.659999999999997,-0.739983256856095,-0.3352899661041971,1.7897113619278022
13.670000000000002,-1.0138013814382856,-0.4105484779265855,2.462965038224148
13.680000000000009,-1.4999356019047907,-0.5869460922704621,3.5896602918033635
13.689999999999998,-1.5691499855084723,-0.6140871446501869,3.739636331060743
13.700000000000005,-1.823799960748557,-0.7273799281425752,4.238929401022712
13.709999999999994,-2.1647298503490275,-0.8909363016034603,4.934314035408455
13.72,-2.4364711776339507,-1.0526776745567634,5.630244270638676
13.730000000000004,-2.6004910565816863,-1.1703074524760215,6.315927418718563
13.739999999999997,-2.6460743014668022,-1.2449279647465803,6.989315936256062
13.75,-2.596576377919781,-1.277282026916629,7.682696050168738
13.760000000000003,-2.4796185807311235,-1.231995572968799,8.345630537957785
13.769999999999996,-2.377360364959124,-1.1271394340129657,8.951314591177322
13.78,-2.283540095223778,-1.0212888099703452,9.477877812529716
13.790000000000006,-2.1808260357650133,-0.9796985840560792,9.88992003691427
13.799999999999995,-2.1268634143792817,-1.0004495934259492,10.13276998936848
13.810000000000002,-2.1545897018996807,-1.07356402201248,10.237475463037658
13.820000000000007,-2.0797396692302743,-1.1797658166309493,10.186021515694003
13.829999999999998,-1.8000813220333949,-1.2755089985811918,9.932719367331304
13.840000000000003,-1.181173544561695,-1.2739793395985852,9.410794122921375
13.849999999999994,-0.5438149148559227,-1.2013051394055911,8.827692239877502
13.86,0.0543850238479902,-1.0539858650805691,8.212170912107617
13.870000000000005,0.5289822485990806,-0.9163131238498609,7.6732245474126115
13.879999999999995,0.9489828848548476,-0.7028183713529981,7.182325045352376
13.89,1.3501355150810477,-0.4661311807897093,6.74610922185118
13.900000000000006,1.4591146241103252,-0.379368080011784,6.620731457604035
13.909999999999997,1.8241039590721244,-0.1262466063843012,6.207067729141454
13.920000000000002,2.112827439467445,0.1465191023843258,5.750526255639698
13.930000000000009,2.1828988309389383,0.385360636228299,5.335013785789604
13.939999999999998,2.0005738031972937,0.5294601964783674,5.013611450979249
13.950000000000005,1.7022281688590448,0.6390558886297851,4.615337349379408
13.959999999999994,1.3407658581065538,0.6156493320733779,4.263026814238553
13.97,1.042670324071789,0.5814954400639539,3.883072964233482
13.980000000000004,0.7590381921293904,0.5000539738694886,3.4845684408176134
13.989999999999997,0.467550035087041,0.3846648092475449,2.9986338718537118
14.0,0.2419349740031481,0.2909020723723969,2.5783633023211743
14.010000000000003,0.1138159079546131,0.2175932493122186,2.2504502792471563
14.019999999999996,0.0492002793860332,0.1605222178193081,1.9976647843505635
14.03,0.0102217965084628,0.0937844172985971,1.8325736313606156
14.040000000000006,-0.0143634174325927,0.0459652076137726,1.7480787355270313
14.049999999999995,-0.0335273306040335,-0.0032244173856584,1.67678891075152
14.060000000000002,-0.0343521652128158,-0.0474738514155987,1.6148231685654482
14.070000000000007,0.0259071155212972,-0.0718699972282267,1.510669140038942
14.079999999999998,0.1172191712104818,-0.088244854335506,1.3892473543987902
14.090000000000003,0.1780411378424823,-0.1031879370574468,1.260952676526623
14.099999999999994,0.2150241170122764,-0.1289689853677821,1.1596303134497996
14.11,0.2398767509346581,-0.1534858624429679,1.0712591889386829
14.120000000000005,0.2458363462542059,-0.1728906516007864,0.969313761287206
14.129999999999995,0.2391391682538844,-0.1823738873085116,0.8647075814314459
14.14,0.2304391531488923,-0.188329466904213,0.7157710696529663
14.150000000000006,0.213268960225011,-0.1960337990107734,0.5701988496753266
14.159999999999997,0.1911233525703858,-0.2065765650398812,0.444860138101043
14.170000000000002,0.1511215428358593,-0.2272326307236756,0.3057618936204853
14.180000000000009,0.1016227152947986,-0.2592007316457963,0.1546555738274484
14.189999999999998,0.0505818747504798,-0.2989871200066234,0.0066322946292683
14.200000000000005,0.0024308436681005,-0.3473408105609503,-0.1650254945649591
14.209999999999994,-0.0603505880046163,-0.4081253722598376,-0.3913019488122605
14.22,-0.1209474051212913,-0.4748195841535419,-0.6567985058900152
14.230000000000004,-0.1637632096205968,-0.5423724365991494,-0.959085787397797
14.239999999999997,-0.208835582566223,-0.6370347796604183,-1.4211858470121284
14.25,-0.2142600845380797,-0.7590161793047713,-2.029412865451522
14.260000000000003,-0.1474677666971964,-0.852661587683441,-2.9670481499375008
14.269999999999996,-0.0151680459186113,-0.8361584552431602,-3.89422079412844
14.28,0.1405714254254253,-0.7503058592164555,-4.786327703973
14.290000000000006,0.2831044601853599,-0.6499648578420517,-5.710883015703501
14.299999999999995,0.3590446727988486,-0.5486625829516442,-6.486999380761263
14.310000000000002,0.4176070384677477,-0.4296678989517831,-7.25243347527619
14.320000000000007,0.4910738195518155,-0.3282632145105831,-7.957375420694937
14.329999999999998,0.5871493180944778,-0.2825836296316997,-8.613527258960106
14.340000000000003,0.6084478706794993,-0.2594409274672865,-9.065964310091331
14.349999999999994,0.4772188719762572,-0.2410209288366358,-9.329929851066725
14.36,0.2955017449425605,-0.2521726684126768,-9.418888987942683
14.370000000000005,0.124908394924696,-0.2657200254152966,-9.458046243358377
14.379999999999995,-0.0481965294031798,-0.2602078589526855,-9.450305543748357
14.39,-0.1345044372046136,-0.2770501814006686,-9.411615389927071
14.400000000000006,-0.0208943223156852,-0.4001807976610223,-9.25422162626768
14.409999999999997,0.1611749815874653,-0.6173731121326907,-8.950022173854595
14.420000000000002,0.2486991305395353,-0.822860325622557,-8.625094761555966
14.430000000000009,0.3282792572568357,-1.0014087480703553,-8.305937572304146
14.439999999999998,0.4511180984968689,-1.1929977656646964,-7.919578151741694
14.450000000000005,0.5900875938891049,-1.3237044774452222,-7.464238208240812
14.459999999999994,0.6491106575174721,-1.3564029245676212,-7.017081411085512
14.47,0.6113366493439928,-1.3165612145376524,-6.539943250280631
14.480000000000004,0.5303162276090039,-1.2253782440619485,-6.099473829399068
14.489999999999997,0.4668745108669144,-1.1483786895504462,-5.755879975307091
14.5,0.4421756807784235,-1.0739992432092949,-5.471207107526476
14.510000000000003,0.5133692470495437,-0.9714514917616612,-5.228867473296485
14.519999999999996,0.6745649146179327,-0.829404275417861,-5.05082346854888
14.53,0.8990364076281381,-0.6364137447155188,-4.8985709625088605
14.540000000000006,1.1163033782858027,-0.4301481816578956,-4.766720901149751
14.549999999999995,1.3381527111226992,-0.1882373988546121,-4.599792815646227
14.560000000000002,1.534830334732184,0.0699308702862796,-4.385345331435516
14.570000000000007,1.6246306539959088,0.2568796081412307,-4.175844769687244
14.579999999999998,1.6665832825392266,0.3866510550969873,-3.95220606103936
14.590000000000003,1.677168155059909,0.4369056619051974,-3.672615337329249
14.599999999999994,1.691916023407338,0.4653718552444707,-3.291733094568702
14.61,1.6696729753705868,0.4754485188636183,-2.987028093777456
14.620000000000005,1.626237856975251,0.473376427233575,-2.707053434725214
14.629999999999995,1.5308122112426927,0.4539467040836146,-2.383236156454383
14.64,1.4102800822207704,0.4228644266211357,-2.0893141300446465
14.650000000000006,1.2360109353394266,0.3836056280625485,-1.815206935716515
14.659999999999997,1.0057613175900382,0.3390284629020336,-1.5379759023036703
14.670000000000002,0.6937714966267575,0.2738374542299762,-1.2235595788441858
14.680000000000009,0.3705158662770231,0.1992002428733506,-0.9183192047677392
14.689999999999998,0.0784529247982595,0.1082899014608815,-0.6326968897041328
14.700000000000005,-0.2495512229491726,-0.0146312007187535,-0.2796930935146415
14.709999999999994,-0.507198964274349,-0.1361176292999583,0.0602360135401876
14.72,-0.7059807138993557,-0.2585843221916908,0.3846033763866904
14.730000000000004,-0.8394603902050416,-0.3722554063578262,0.6767935143137865
14.739999999999997,-0.9205082289263212,-0.474430928054174,0.9251369442711096
14.75,-0.9765600737049076,-0.5741996119749336,1.1694010551788836
14.760000000000003,-1.0214664612488351,-0.6593040725198382,1.3796810184166042
14.769999999999996,-1.0763603190904798,-0.7293813208561791,1.598318576556164
14.78,-1.1357909458533897,-0.7945199503935858,1.8572860416292407
14.790000000000006,-1.1755561660038725,-0.8498619052316781,2.1455596881556507
14.799999999999995,-1.183769324870765,-0.891750084632024,2.416895072580989
14.810000000000002,-1.1788950837189902,-0.9160851224213756,2.7192648949987377
14.820000000000007,-1.1571231231454508,-0.9278164452942655,3.118798582744544
14.829999999999998,-1.1190065102296702,-0.9243755689311374,3.5112243704456843
14.840000000000003,-1.0631396689492136,-0.9141857689901838,3.955394205419844
14.849999999999994,-0.9570995407934711,-0.8918890915713228,4.446669874337418
14.86,-0.790430254198782,-0.873749846467991,5.005776031983897
14.870000000000005,-0.6048544763500758,-0.8154594408969641,5.48698806383889
14.879999999999995,-0.43673533332907,-0.7175231896875681,5.910304870471519
14.89,-0.2503035186161397,-0.5711786660962095,6.425552534510376
14.900000000000006,-0.0841563995826156,-0.3764750351975859,6.921431274531007
14.909999999999997,0.0185130417587118,-0.1631012636394912,7.377398188754269
14.920000000000002,0.0200602612661678,0.102699191021975,7.795258121919486
14.930000000000009,-0.1002297377373684,0.3885657113733583,8.157912626296351
14.939999999999998,-0.3042223045631453,0.6069612198451187,8.458097893760955
14.950000000000005,-0.586540030990114,0.6946090827106087,8.686328790267787
14.959999999999994,-0.9153851038043136,0.6978812091459462,8.891062301795651
14.97,-1.2442613675644614,0.5729646567658848,9.073449817237474
14.980000000000004,-1.5479220872245902,0.3108173313192907,9.209896396448146
14.989999999999997,-1.6855486367973294,-0.0034755483032388,9.178909308197204
15.0,-1.5847105071503298,-0.1951150250067869,8.851570483884366
15.010000000000003,-1.25776109106293,-0.2325919760870648,8.300307863288166
15.019999999999996,-0.7983582531031869,-0.1848172525887529,7.752689442116081
15.03,-0.2264340488645556,-0.1133390334378029,7.090775514132622
15.040000000000006,0.2969082679773926,0.0619963202541822,6.4460644429560645
15.049999999999995,0.5991096096955632,0.2983873690029614,5.921199142387266
15.060000000000002,0.758554091166937,0.5198320136698638,5.381797199924589
15.070000000000007,0.835569010754539,0.5854578601700762,4.966077265052936
15.079999999999998,0.9489320414799448,0.6493821476789443,4.553141423398498
15.090000000000003,1.0505200707045803,0.7712844683397679,4.097739384277552
15.099999999999994,1.0492677568482098,0.7735099629652912,3.5708217723645044
15.11,0.9871596380048464,0.7875557001846308,3.0065175264418507
15.120000000000005,0.8519239364765869,0.7553239111044943,2.4378776775505537
15.129999999999995,0.6895449447998308,0.6633472744221838,1.953710705930821
15.14,0.5487482615692395,0.5756695047645385,1.6084914055817536
15.150000000000006,0.4181181001082016,0.4539201570492674,1.269364467464824
15.159999999999997,0.3623642180033398,0.3070365391464313,1.068060807636825
15.170000000000002,0.3665530950217177,0.2337015260005865,0.9252843604998294
15.180000000000009,0.335553836646602,0.1623892715259048,0.7298744579540869
15.189999999999998,0.2872363971872901,0.1198138666657039,0.5543291943335334
15.200000000000005,0.2244704408212506,0.0684699451856051,0.4122026795537481
15.209999999999994,0.1436769867617995,0.0190686024800255,0.2876989793292013
15.22,0.0497236569407571,-0.0351506341418248,0.1919522521581655
15.230000000000004,-0.0392146766463034,-0.0935103548546969,0.0935796420517284
15.239999999999997,-0.1432793192751594,-0.1459524778802826,-0.0022074027520733
15.25,-0.2556688679841459,-0.1819907593276392,-0.1054269195623617
15.260000000000003,-0.3367373730270481,-0.1924900537605153,-0.188428274008383
15.269999999999996,-0.3896107246451938,-0.1910541977597874,-0.2341651869258025
15.28,-0.4129010986312023,-0.192576098040115,-0.2474491638110115
15.290000000000006,-0.423407882141917,-0.1995924193792128,-0.2541666469474995
15.299999999999995,-0.419262977888833,-0.2186854396937308,-0.2810214600664281
15.310000000000002,-0.4229488125785099,-0.2430501764347143,-0.350599830461036
15.320000000000007,-0.416848470134714,-0.2607651114171301,-0.4791378662582033
15.329999999999998,-0.407965497695015,-0.2592708871973558,-0.6822246154413216
15.340000000000003,-0.3979681032543137,-0.2447305694414681,-0.9277272732251076
15.349999999999994,-0.3667687889257806,-0.2315632692139758,-1.2760867404811962
15.36,-0.3422310891000152,-0.2291087597800448,-1.6736063938306711
15.370000000000005,-0.2962450624394092,-0.2351410650247701,-2.1409438478178027
15.379999999999995,-0.2251191305324816,-0.2376669505467945,-2.6941148930348184
15.39,-0.0670792324260669,-0.1896750009594107,-3.4161500138502747
15.400000000000006,0.1558777519724346,-0.1012394372586193,-4.190431577293933
15.409999999999997,0.3831360012199669,0.0011853682434399,-4.959648956588142
15.420000000000002,0.5826645786854896,0.1041932005709709,-5.752095502606257
15.430000000000009,0.7462340679636589,0.2545296838485221,-6.583556795750191
15.439999999999998,0.8673412634028534,0.4589159006879948,-7.390264112692305
15.450000000000005,0.9408000862363418,0.609578095109425,-8.032856775239448
15.459999999999994,1.0055228056835743,0.7671157879640814,-8.650775548717435
15.47,1.035491996932093,0.9473497886207952,-9.133472277359894
15.480000000000004,1.1645090272055445,1.0547897509392752,-9.446583592191912
15.489999999999997,1.3857860367959391,1.020149035858826,-9.536087852935156
15.5,1.554247024117379,0.8581675414304544,-9.441852497975193
15.510000000000003,1.627771097034838,0.662684407568113,-9.212141608235417
15.519999999999996,1.6924695342247988,0.4884190555735909,-8.831146065549698
15.53,1.7668390340565907,0.3559690183256752,-8.460339725757477
15.540000000000006,1.9958584153646648,0.1866996366626153,-8.048189932235239
15.549999999999995,2.3214371896095143,-0.0375342479238936,-7.566358645847137
15.560000000000002,2.461880221507712,-0.2151434644794652,-7.17069498987964
15.570000000000007,2.393386714324383,-0.3444294060614623,-6.760874150397862
15.579999999999998,2.09411728289705,-0.3927786235274697,-6.267477348427553
15.590000000000003,1.7551776152746552,-0.4066935614323429,-5.748056013081911
15.599999999999994,1.481360299085828,-0.4245716669519925,-5.269023267064562
15.61,1.2971767285126503,-0.4500409212409479,-4.754755253000575
15.620000000000005,1.2003382650040535,-0.466665581754825,-4.268002616462753
15.629999999999995,1.166507691478271,-0.4382920050243182,-3.9279149308459456
15.64,1.1648091216781538,-0.3573566256497941,-3.626533640143564
15.650000000000006,1.1815971489489736,-0.2494490111281986,-3.4048931463594427
15.659999999999997,1.2766277292413912,-0.1282908569581975,-3.187921814069584
15.670000000000002,1.427015028308158,-0.0307960724997667,-2.918066965404034
15.680000000000009,1.509754764376632,0.0240085552052769,-2.6893728485094424
15.689999999999998,1.530446510270586,0.0787189811165994,-2.39825703567406
15.700000000000005,1.4981792557829343,0.1328307366061328,-2.073906083497876
15.709999999999994,1.4204408189395232,0.178202479459505,-1.7302729464972022
15.72,1.2895670255684109,0.1979507178175719,-1.3898240352671676
15.730000000000004,1.1055374334030326,0.1989931012675416,-1.0590860592991516
15.739999999999997,0.8668652556762797,0.1837550769447366,-0.7621489336036606
15.75,0.5868643019311682,0.1577787165402874,-0.5186324133161444
15.760000000000003,0.3380008551720089,0.1341102141351964,-0.2859685498515578
15.769999999999996,0.1343539908774206,0.1140097147699197,-0.077517970430971
15.78,-0.0777622641522239,0.0762830686627951,0.1294174100891823
15.790000000000006,-0.312205947770947,0.0128479465334363,0.3470433075917029
15.799999999999995,-0.4999125072543761,-0.044379168826413,0.5186735392131255
15.810000000000002,-0.6778010311542385,-0.1083054010763059,0.6977624831777895
15.820000000000007,-0.77607237532843,-0.1661862549151043,0.8463382023658944
15.829999999999998,-0.8112658365556841,-0.2038671086779172,0.9490494961443862
15.840000000000003,-0.84240506170407,-0.2368397087962818,1.0514341248923194
15.849999999999994,-0.8471262438279877,-0.2625755358618315,1.1556921822879151
15.86,-0.8440121627247704,-0.2798948334750561,1.2679546618934796
15.870000000000005,-0.8242070961035476,-0.2824063817000771,1.384438413265157
15.879999999999995,-0.8053827198478885,-0.2756135173182654,1.5376010397733628
15.89,-0.7783502146361896,-0.2499359697612986,1.7077635670049882
15.900000000000006,-0.7414340016780718,-0.2245443939822973,1.8800610790290688
15.909999999999997,-0.6874817338988983,-0.1989072211851706,2.0799865928534587
15.920000000000002,-0.62163974229309,-0.1667052736332439,2.35855649809651
15.930000000000009,-0.5570777074048296,-0.1446412152352604,2.66634896723286
15.939999999999998,-0.4836198376531189,-0.1298641950081996,3.026735679922826
15.950000000000005,-0.3675654779581851,-0.1223936589675856,3.4140984063366124
15.959999999999994,-0.1759615175325654,-0.0609705878330349,3.988100622633325
15.97,0.0206215528709501,0.0313361287134367,4.673074194527068
15.980000000000004,0.1087032274194426,0.1525135771011779,5.391496406585114
15.989999999999997,0.0243368779094098,0.3110767532912173,6.138905188839337
