time,Gyr_X,Gyr_Y,Gyr_Z
0.0,-0.0384576234792505,-0.0032356951171494,-0.0348746218603786
0.0099999999999909,-0.0365791434969731,-0.0047569673014013,-0.0361254550998833
0.0199999999999818,-0.0341639242450649,-0.0158061087624543,-0.0381050678446115
0.0300000000000011,-0.0286327939930838,-0.0201432265057899,-0.0360484060902476
0.039999999999992,-0.0360979111505987,-0.0211109247952861,-0.0320246152312726
0.0499999999999829,-0.0440114713417138,-0.0206370623126853,-0.0230426280650371
0.0600000000000022,-0.0426938533696066,-0.0211757840636776,-0.0241387134096685
0.0699999999999931,-0.0418704523903857,-0.017621538780162,-0.0257233351387827
0.079999999999984,-0.0366935108759079,-0.0260522891457704,-0.0147974176247761
0.0900000000000034,-0.0343013834364659,-0.0217027429788399,-0.0201189350488317
0.0999999999999943,-0.0292199771655316,-0.0155070015000854,-0.0108905842906639
0.1099999999999852,-0.016511034132776,-0.0163845953266699,-0.0045164426966385
0.1200000000000045,-0.0111817129951391,-0.0160526707196995,-0.0047186621620276
0.1299999999999954,-0.0167445540434269,-0.0127569878081171,-0.0056553006534527
0.1399999999999863,-0.0213124231843679,-0.0054993020860374,-0.0026991598276603
0.1499999999999772,-0.0345733410722985,0.0077750535013502,-0.0004076467169389
0.1599999999999966,-0.0347385024552038,0.0038736304873114,0.0041873114286808
0.1699999999999875,-0.0427688526394118,-0.0017926172048918,0.0054884095228743
0.1799999999999784,-0.0408450941373583,0.0005054485091769,0.0087133299677757
0.1899999999999977,-0.0311723112506608,0.0071651653303154,0.00288434798853
0.1999999999999886,-0.030769876088337,0.0096106004551403,-0.0008465958560281
0.2099999999999795,-0.022917160955428,0.0193813481546476,0.0045972273986669
0.2199999999999988,-0.015857646004105,0.0171212368842501,0.0063624811188164
0.2299999999999897,-0.0175740471280141,0.0193149631339924,0.0093820478242468
0.2399999999999806,-0.0147884961687036,0.0283592600252714,0.0130234358173888
0.25,-0.0198460712172283,0.0287317389202494,0.010615886368154
0.2599999999999909,-0.0231419194096661,0.026149407064755,0.0131848425511817
0.2699999999999818,-0.0222644226737655,0.0325751460742593,0.008284801479821
0.2800000000000011,-0.0244891856656302,0.0366551605482738,0.0095237638630771
0.289999999999992,-0.0263702084074811,0.0320097505695927,0.0104002432348367
0.2999999999999829,-0.0258716357273412,0.0346552951467087,0.0070314651565794
0.3100000000000023,-0.0278979723406804,0.0384575634171565,0.0064403572014968
0.3199999999999932,-0.0242376644051915,0.0321153233529689,0.0002209677955451
0.3299999999999841,-0.0235046607898184,0.0310006831607821,-0.0053648393685374
0.3400000000000034,-0.0181729146162704,0.0279662401277205,-0.0045694976826154
0.3499999999999943,-0.0152472322027864,0.0201131719640056,-0.0051926944694546
0.3599999999999852,-0.0135999821221162,0.0139818886274044,-0.004677936877777
0.3700000000000045,-0.0109174297985086,0.002335713169306,-0.0064314234278027
0.3799999999999954,-0.0144132603620661,-0.0069745474030519,-0.0049049204792264
0.3899999999999863,-0.01255533826044,-0.0210508819372595,-0.0050048345401108
0.3999999999999772,-0.0154231410763303,-0.0195892106824374,-0.008295569350789
0.4099999999999966,-0.0219036205339386,-0.0267105474191465,-0.0079254734219639
0.4199999999999875,-0.0169735833038628,-0.0272970246439712,0.0010617583123399
0.4299999999999784,-0.026028946072604,-0.0268452979104032,0.0091551649979453
0.4399999999999977,-0.0385598085226606,-0.0313031285222807,0.0069346901405834
0.4499999999999886,-0.036696088899298,-0.0381287403830815,0.0169427041188843
0.4599999999999795,-0.0395613061817057,-0.0475165853793162,0.0197553802831925
0.4699999999999988,-0.0432252897923421,-0.04290476528318,0.0255209832697457
0.4799999999999897,-0.0407764516683372,-0.0434388740999576,0.0340666945998203
0.4899999999999807,-0.0431882270754282,-0.0414405377787496,0.0302596846168012
0.5,-0.0422983688910715,-0.0498642900521873,0.031160242162868
0.5099999999999909,-0.0433176188006922,-0.0390509866341447,0.0371543236829854
0.5199999999999818,-0.0389494160399167,-0.0452741281868616,0.0379038839009902
0.5300000000000011,-0.0325776442321278,-0.0409489321871752,0.0387750328803822
0.539999999999992,-0.0291061566332182,-0.039147355053645,0.0466041010194074
0.549999999999983,-0.0244084006705651,-0.0450874714494746,0.0475768712611584
0.5600000000000023,-0.0189749903071193,-0.0408758633403282,0.0435710839852585
0.5699999999999932,-0.0202730720453231,-0.0417909648651542,0.0456150573200104
0.5799999999999841,-0.0230785713859283,-0.0211566854360381,0.0417516316746818
0.5900000000000034,-0.0257548607611237,-0.0200903488672322,0.0441391754492764
0.5999999999999943,-0.0249423268632069,-0.0115530136321483,0.0442413497340853
0.6099999999999852,-0.0327172940492418,-0.0005270713571545,0.0399018532450342
0.6200000000000045,-0.0226370004008633,0.0065314837404459,0.0439331245589543
0.6299999999999955,-0.0234940733193225,0.0043811086242855,0.0436644451962011
0.6399999999999864,-0.0169264611192557,0.0163776129437797,0.045043544462553
0.6499999999999773,-0.0160297716295546,0.0215943089677652,0.0476162870907266
0.6599999999999966,-0.0154673366247549,0.0209425062172637,0.0487581636615941
0.6699999999999875,-0.0131189559433902,0.0195629869845032,0.0540038630769549
0.6799999999999784,-0.0161689312638331,0.0269901932132841,0.0534201214089262
0.6899999999999977,-0.0135479473618699,0.0266138264448798,0.0538464420234365
0.6999999999999886,-0.0123815659617541,0.0245418794591519,0.0550878357856903
0.7099999999999795,-0.014938953456994,0.0172773884038246,0.0500334494087064
0.7199999999999989,-0.0171257441128459,0.0151374288339722,0.0481380136375395
0.7299999999999898,-0.0210409146986516,-0.0020964793399785,0.0496254020677026
0.7399999999999807,-0.0244483173455383,-0.0219883263786099,0.056305988809424
0.75,-0.0271932627906214,-0.0191351188213388,0.0585194339342479
0.7599999999999909,-0.0243457813756597,-0.038791072088062,0.0629393168768946
0.7699999999999818,-0.0203602241387608,-0.0485551589662007,0.0674750344843139
0.7800000000000011,-0.0206557804372513,-0.0497575663007378,0.0635543297054466
0.789999999999992,-0.0242376155090597,-0.0478519153098719,0.0566207138693479
0.799999999999983,-0.0247767941006191,-0.0474449850478292,0.06548550881938
0.8100000000000023,-0.0283154902395691,-0.0471662133286863,0.0652492580279298
0.8199999999999932,-0.0302437960916349,-0.0461025304807258,0.066099273442323
0.8299999999999841,-0.0383649914260233,-0.0470058913774909,0.0671764379898218
0.8400000000000034,-0.0428291238655526,-0.0357378394157297,0.0578199209871598
0.8499999999999943,-0.0427340874013386,-0.0295501326272064,0.0552594476586532
0.8599999999999852,-0.0379536265652115,-0.0219092818159669,0.0592008437910098
0.8700000000000045,-0.0307175036732762,-0.0052608684309135,0.0594654133171675
0.8799999999999955,-0.0202824903952241,-0.0050022801413877,0.062529903836597
0.8899999999999864,-0.01128583319654,0.0002518824160513,0.0590912884822609
0.8999999999999773,-0.0005974500275101,0.0029825987733303,0.0540211247504594
0.9099999999999966,0.010402984200957,0.0070811780640715,0.0538521942710596
0.9199999999999876,0.0087819150221126,0.0071152722086566,0.0567708926067867
0.9299999999999784,0.0097278457134645,0.0053422245598411,0.0560082351337391
0.9399999999999976,0.0026925802213385,0.0170097895658032,0.0484829141214624
0.9499999999999886,0.0028709034962373,0.0289238530439198,0.0468648850006136
0.9599999999999796,0.0088050735049079,0.0319513325948403,0.0486934816894577
0.9699999999999988,0.010819317409323,0.0401770040845626,0.0540118195837042
0.9799999999999898,0.0092819946502352,0.0524676003796739,0.0512827425023183
0.9899999999999808,0.0028191854586432,0.0468727859877947,0.0620381853157306
1.0,-0.0063504944171268,0.0567263829303343,0.0663580672008673
1.009999999999991,-0.0141919612120314,0.0556926241253522,0.0745108082961967
1.0199999999999818,-0.015501350800748,0.0542487934265159,0.0753042862232572
1.0300000000000011,-0.0147143416041788,0.0543807837049892,0.075140280822023
1.039999999999992,-0.0151760249185305,0.0484191467059923,0.0806867612744341
1.049999999999983,-0.00515130267082,0.0534255381700042,0.0891954339907523
1.0600000000000025,-0.0002249753173816,0.046580911121793,0.1017626236963225
1.0699999999999932,0.0027712384463775,0.0339233729202997,0.1107932267085362
1.079999999999984,-0.0041065967710912,0.0380093894074757,0.1185904821895034
1.0900000000000034,-0.0133614436046243,0.0309288532379793,0.12972421191892
1.0999999999999943,-0.0180036916169525,0.0203643007224505,0.1438806532167345
1.1099999999999852,-0.029954137161975,0.0052502659447045,0.1525872841502571
1.1200000000000043,-0.0356445342389108,0.0034681475277329,0.1535773678160125
1.1299999999999957,-0.0384899294325268,-0.0082870001284408,0.1618297909827707
1.1399999999999864,-0.0415120169505516,-0.0125314788344066,0.1655285305338328
1.1499999999999773,-0.0345585789904676,-0.0215602190698036,0.1771605868811006
1.1599999999999966,-0.0259192854322707,-0.0303083787667075,0.187367811771445
1.1699999999999875,-0.023244141380617,-0.0254220651559761,0.1994529846699706
1.1799999999999784,-0.0271967356894846,-0.0382271547481413,0.2034939378524957
1.1899999999999975,-0.0397097429961168,-0.0256732779382707,0.206892135353668
1.1999999999999886,-0.0436069073852952,-0.0199960986650898,0.2130081013907297
1.2099999999999795,-0.0610759089621118,-0.0173332807621015,0.211539474963402
1.2199999999999989,-0.0768393606924002,-0.0150903927973384,0.2163124576430279
1.2299999999999898,-0.0935459683417996,-0.0031227394675987,0.2240277218999839
1.239999999999981,-0.1080264281248942,0.0064584602457025,0.2234676345042972
1.25,-0.1175538323583162,0.0120434008779611,0.2318370062229444
1.259999999999991,-0.1140454771221393,0.0098594192325596,0.2481398442292664
1.2699999999999818,-0.1286861444508944,0.0249599466688992,0.2584475715739995
1.2800000000000011,-0.1400502523775744,0.0408652752759088,0.2636083377792879
1.289999999999992,-0.1439666843675212,0.0508354795418207,0.2722901863314682
1.299999999999983,-0.1631021808247404,0.0660763560499009,0.2828965953352784
1.3100000000000025,-0.1681157057458078,0.0746261443376148,0.2921532173952216
1.3199999999999932,-0.1728110409613936,0.0990045703596998,0.3082478530918514
1.329999999999984,-0.1850046935674408,0.1213266433100117,0.3244878998453631
1.3400000000000034,-0.1982972875570775,0.1339515538564456,0.3386418575729786
1.3499999999999943,-0.2217425015042025,0.1721127288900317,0.3453541085794249
1.3599999999999852,-0.262978123045471,0.1998642368815984,0.329149400986617
1.3700000000000043,-0.2924367904157172,0.2322760045165138,0.3305220446626264
1.3799999999999957,-0.3120857332202811,0.2470523070916527,0.3469240454528603
1.3899999999999864,-0.322009614724062,0.2616396437883808,0.3664704375239519
1.3999999999999773,-0.3388432587724614,0.2761037375470475,0.3878639000728079
1.4099999999999966,-0.3453297619682242,0.2842592372538263,0.4159032798856731
1.4199999999999875,-0.3315141793074608,0.2947458069384561,0.4433075348722801
1.4299999999999784,-0.3150127260736269,0.2849167351399401,0.4712847594286356
1.4399999999999975,-0.3003498060738493,0.2860646086707541,0.4945175177933043
1.4499999999999886,-0.2796213723687019,0.2810612741631834,0.5164263329730003
1.4599999999999795,-0.2625089011944673,0.2764640726437488,0.5375196845280541
1.4699999999999989,-0.2445863711910396,0.2802175997921992,0.548549302910574
1.4799999999999898,-0.2123704087216458,0.2814003332537347,0.5590534799847682
1.489999999999981,-0.1786446871383935,0.2812947220929057,0.5763058613395096
1.5,-0.1482845465398989,0.2801815655240421,0.6007581095846822
1.509999999999991,-0.1308200406335909,0.2938751259045796,0.6166023801572166
1.5199999999999818,-0.1215131353134583,0.2988187540314161,0.6351123782691208
1.5300000000000011,-0.1063483743500978,0.3095996025502641,0.6571751319209767
1.539999999999992,-0.1059842775588616,0.3249914599674237,0.6733525113084113
1.549999999999983,-0.1097151425681289,0.3431970524270976,0.688299676740962
1.5600000000000025,-0.1301191596520601,0.36679056462669,0.7055259401471426
1.5699999999999932,-0.157214997658321,0.3757471585992347,0.7275998092164493
1.579999999999984,-0.194485898521468,0.3983611021908415,0.7467755436642194
1.5900000000000034,-0.212936343676205,0.4245178787906842,0.7665300789558216
1.5999999999999943,-0.2258213955176978,0.444041543049105,0.7798638902404946
1.6099999999999852,-0.2492960283654864,0.4530404037399067,0.79192728164778
1.6200000000000043,-0.2841163701756751,0.4637421353161203,0.7974641624259576
1.6299999999999957,-0.3210583081361055,0.4740352441872066,0.7953452333420393
1.6399999999999864,-0.3655324123803272,0.482343342514401,0.7818933962800263
1.6499999999999773,-0.4121544197373051,0.5034113178774777,0.7699940388827282
1.6599999999999966,-0.525256745061641,0.4774124240258877,0.7696430398468649
1.6699999999999875,-0.6321807399021053,0.3903883332337108,0.7997913053248371
1.6799999999999784,-0.6458952716361617,0.3524604267168835,0.8177465041396581
1.6899999999999975,-0.6193514892894586,0.3030155591986062,0.8219313568506609
1.6999999999999886,-0.6149441529237714,0.2533878314804146,0.8078967993808006
1.7099999999999795,-0.6215020971516848,0.2013003847063195,0.7895619150233699
1.7199999999999989,-0.6169115635404167,0.1378807405939321,0.7845800766105204
1.7299999999999898,-0.6294431117074627,0.0896276247721306,0.7796835762551382
1.739999999999981,-0.6612737110974904,0.025301279227047,0.7816599083466529
1.75,-0.7082840389387103,-0.0515771746573607,0.7787122960276377
1.759999999999991,-0.7572426444330228,-0.1383751271036405,0.7675926413401981
1.7699999999999818,-0.7972295670401089,-0.2130882664746126,0.7454503657644006
1.7800000000000011,-0.8076379166784715,-0.2746127822585699,0.7203390024472603
1.789999999999992,-0.7791295403177049,-0.3383671476027002,0.6923090414892183
1.799999999999983,-0.7298040216268663,-0.3885522310033287,0.6716737138548831
1.8100000000000025,-0.6484150401656381,-0.4284114021539889,0.6409617966344118
1.8199999999999927,-0.5727783783288697,-0.4663339863887005,0.6129956357224372
1.829999999999984,-0.4841850548121689,-0.4779510574356472,0.5799739951149093
1.8400000000000036,-0.3949503941105105,-0.4863956000713378,0.5557654266324177
1.8499999999999943,-0.3218567690222075,-0.4878362508678814,0.5344368164399507
1.8599999999999848,-0.2577916388428841,-0.4746326605558937,0.5093880947110033
1.8700000000000043,-0.2122509669374595,-0.4449404385927291,0.4808147370446877
1.8799999999999957,-0.1823255059222579,-0.4087809097296698,0.465366895894476
1.8899999999999864,-0.1576820757320902,-0.37168343909947,0.4376279007067714
1.8999999999999773,-0.1060005763628701,-0.3148598765325002,0.4225094476604671
1.9099999999999968,-0.0452641609274409,-0.2674798134931929,0.4149736239059161
1.9199999999999875,-0.0196397238885631,-0.2286123686916154,0.3962238582654059
1.9299999999999784,-0.0255498602915632,-0.1921258815006199,0.3764873927490971
1.9399999999999975,-0.0554899819611383,-0.1665954023490526,0.3667042097220788
1.9499999999999889,-0.0887767804897482,-0.1216606296056139,0.3665346233338888
1.9599999999999795,-0.1116503904720116,-0.0716318130270321,0.3652467561366899
1.9699999999999989,-0.1033570221521991,-0.0241063212807743,0.3602831016542291
1.9799999999999895,-0.0727407575592424,0.0114877615144126,0.3592985499354376
1.989999999999981,-0.0131350324921909,0.046029385709832,0.347297729893834
2.0,0.0591008481482608,0.0831874033825631,0.3324200196269739
2.009999999999991,0.1273323713606433,0.1130948841296258,0.3096139537886024
2.019999999999982,0.1498915441737615,0.1257106909456516,0.2927268073492657
2.030000000000001,0.1359567782025104,0.1187565271773016,0.2964414746389611
2.039999999999992,0.0863651238001987,0.0914826668603007,0.3190197703550765
2.049999999999983,0.0252851740462542,0.0476882447390979,0.3465942653100844
2.0600000000000023,-0.033615237464811,0.0061274216948248,0.3750904702768437
2.069999999999993,-0.0874369170311424,-0.0471689096104656,0.4053809037049042
2.079999999999984,-0.1155381241287589,-0.0906465183305653,0.4300979716400258
2.0900000000000034,-0.1329927896405127,-0.1303329988089236,0.4585234549277497
2.0999999999999943,-0.1190463093936291,-0.1612261586025976,0.4844202476135015
2.109999999999985,-0.0911522526456388,-0.1746776124515898,0.51855623475346
2.1200000000000045,-0.0368849803399379,-0.1561285406516327,0.5406881520435883
2.1299999999999955,0.042745093169563,-0.1129631593394241,0.557816373349487
2.1399999999999864,0.109186068034006,-0.0781121757055979,0.5815299293323685
2.1499999999999773,0.1522480924157944,-0.0420562577001043,0.6047182139704858
2.1599999999999966,0.1715304254175466,-0.0277805996709843,0.6448627018514804
2.1699999999999875,0.1710725382609163,-0.0177672004352453,0.6926340540661008
2.1799999999999784,0.1283032505413464,-0.0114242914169752,0.7393173784120631
2.1899999999999977,0.0777576040407908,-0.0144476451972525,0.7955795088753621
2.1999999999999886,0.017171284014123,-0.0226159856140945,0.8629277091491816
2.2099999999999795,-0.0379343216421533,-0.0249270563865124,0.928646750337318
2.219999999999999,-0.0968419566116061,-0.0450037968142105,0.9660496371519844
2.2299999999999898,-0.1709908203812213,-0.079575698924141,0.96406645363823
2.2399999999999807,-0.2252654962481498,-0.1169094281418996,0.947081658501246
2.25,-0.2677483948391844,-0.1516222889674794,0.9226491692847184
2.259999999999991,-0.2947148872509607,-0.1654504668595211,0.8969723108638779
2.269999999999982,-0.3152524259897517,-0.1840391692031664,0.8718305441738066
2.280000000000001,-0.3424301358823192,-0.1960491739446296,0.8459978435914456
2.289999999999992,-0.330700492136939,-0.1951804287342652,0.8185486691863361
2.299999999999983,-0.308000042081486,-0.2011023542717074,0.7909513090437303
2.3100000000000023,-0.2783476130289207,-0.2213648781760218,0.7692883627191756
2.319999999999993,-0.2370654340944966,-0.2586314964100123,0.7548402805509089
2.329999999999984,-0.2060737361548341,-0.299926820529045,0.7452213730111734
2.3400000000000034,-0.1958512872516835,-0.341209543076495,0.7371678894921605
2.3499999999999943,-0.1960540933278852,-0.3836740223129405,0.7310593898695354
2.359999999999985,-0.2159612636122946,-0.4271891644404424,0.7343318870654928
2.3700000000000045,-0.2331319929141646,-0.4629847014073857,0.7388417430884511
2.3799999999999955,-0.24419027713389,-0.5112238840201122,0.754236382884722
2.3899999999999864,-0.2198993717189919,-0.5226818295689359,0.7837409139533227
2.3999999999999773,-0.174408085787797,-0.5203780049819895,0.8001865027499028
2.4099999999999966,-0.1271931454155025,-0.5189263708177287,0.8136868780148553
2.4199999999999875,-0.0949792889293082,-0.5147371316974719,0.8194343560727595
2.4299999999999784,-0.0871644255447354,-0.510962123848748,0.818014523305433
2.4399999999999977,-0.0916528518126964,-0.5097486350669616,0.8146155711246634
2.4499999999999886,-0.1001915414751671,-0.5058994804401573,0.8040882606688964
2.4599999999999795,-0.1067631047190862,-0.4879525704961566,0.8024872907649093
2.469999999999999,-0.121840757961184,-0.4804712292016617,0.7926916362982545
2.4799999999999898,-0.1543057632423843,-0.4614886047823933,0.7752669539753231
2.4899999999999807,-0.1682515301249111,-0.4447811188763211,0.7534056311237366
2.5,-0.1787079387269222,-0.4281646896456352,0.7313560230734834
2.509999999999991,-0.1778293630163327,-0.4115445634984398,0.7003658559907148
2.519999999999982,-0.173975340955603,-0.3982303746663277,0.6707170459259362
2.530000000000001,-0.1678093607212035,-0.3751208443249462,0.6370884149079402
2.539999999999992,-0.1682476789469602,-0.3462444362737856,0.6075617950680274
2.549999999999983,-0.1713635547565024,-0.3298041364186634,0.5733661292541291
2.5600000000000023,-0.178571106215042,-0.3280584512674503,0.5496960009245051
2.569999999999993,-0.199225451013744,-0.3267630153244629,0.5199149830011477
2.579999999999984,-0.2060496582364046,-0.3138151931354506,0.4926818674435332
2.5900000000000034,-0.2113712551985249,-0.2897453381266266,0.4673292121103518
2.5999999999999943,-0.1955945865542146,-0.2609840071470356,0.4566021374407928
2.609999999999985,-0.1786018838668148,-0.2293192828260453,0.4451210462383712
2.6200000000000045,-0.165654887791852,-0.1876087694585621,0.4310741129116963
2.6299999999999955,-0.1522482982398801,-0.1524672262570151,0.4336107866788397
2.6399999999999864,-0.1442792601240257,-0.1356245024101379,0.4435781219796277
2.6499999999999773,-0.1471050011520792,-0.1131919249489212,0.4565101734094922
2.6599999999999966,-0.1345090887685026,-0.0975018878020074,0.4721025528652083
2.6699999999999875,-0.1240674049514159,-0.0796706602934011,0.4840902458647087
2.6799999999999784,-0.112205633508881,-0.0624852034175832,0.4911721320214947
2.6899999999999977,-0.1153891153456657,-0.0384400477280704,0.4984288009620885
2.6999999999999886,-0.1111179317873456,-0.0091054434815796,0.5020151586804413
2.7099999999999795,-0.1112819968877845,0.0049952059255334,0.4961228267787391
2.719999999999999,-0.1132979873780227,0.0287426054490256,0.4894563823866395
2.7299999999999898,-0.109120840715633,0.0515356060591775,0.4841333166369183
2.7399999999999807,-0.0879539728071831,0.0654430480228505,0.4799757459562179
2.75,-0.078596371502656,0.0700317979686005,0.4674077831603501
2.759999999999991,-0.0746186674744392,0.077958331256349,0.4589938557165587
2.769999999999982,-0.0648852169365958,0.0893450901995706,0.4469429279157794
2.780000000000001,-0.0709425567964591,0.1075617175962668,0.4349415132389339
2.789999999999992,-0.0650004907358057,0.1256582563930062,0.4317520111574586
2.799999999999983,-0.0664659854871327,0.1541445822991766,0.4225697117772666
2.8100000000000023,-0.0826749224696366,0.1861525795090915,0.4277324949003322
2.819999999999993,-0.0905431756575006,0.2143193218922348,0.4241135910904321
2.829999999999984,-0.1163144648254778,0.2470342507423612,0.419196077716357
2.8400000000000034,-0.1251002852957898,0.2978074594666592,0.4121996090043127
2.8499999999999943,-0.1427964840577683,0.3332048412120059,0.4059816389689599
2.859999999999985,-0.1672404377834956,0.3486338378246614,0.3963517075264848
2.8700000000000045,-0.2117606927628497,0.3624108870339463,0.3860163796531912
2.8799999999999955,-0.2496637185152573,0.3716517661711616,0.3833877782094267
2.8899999999999864,-0.281932501154581,0.3787376073397199,0.3948983137773085
2.8999999999999773,-0.2964419227975439,0.4023876670750273,0.4224493223461398
2.9099999999999966,-0.2908944358871492,0.415934869532825,0.4339774015026156
2.9199999999999875,-0.3372711362873383,0.4105285380567769,0.4107732788284014
2.9299999999999784,-0.3642285318966546,0.3701739275477337,0.4022672494376352
2.9399999999999977,-0.3698995402115788,0.3648362485547439,0.4178787763801761
2.9499999999999886,-0.3596565181835396,0.3709778658204899,0.4516316522091063
2.9599999999999795,-0.3354422042959232,0.3662112395331005,0.4905307300084828
2.969999999999999,-0.3106791452610825,0.3694028178201966,0.5181373486247206
2.9799999999999898,-0.3164814789189259,0.331460772143425,0.5193067195273264
2.9899999999999807,-0.3151167304751537,0.301718739797275,0.5403740043686277
3.0,-0.2788589461374922,0.2818336222267768,0.5773251609621367
3.009999999999991,-0.2173631442456849,0.274429682874812,0.6285266251140018
3.019999999999982,-0.186499958903538,0.2417569762920672,0.676099531108297
3.030000000000001,-0.1683935517826918,0.1908675340823769,0.6934924848813592
3.039999999999992,-0.1938849248074488,0.1603689540121424,0.7206994773876046
3.049999999999983,-0.2136379876699675,0.1623303323755652,0.7532852441262436
3.0600000000000023,-0.1851189885967817,0.1556103514110564,0.7608444332627615
3.069999999999993,-0.2124352955064565,0.1665011345799008,0.7673393677454994
3.079999999999984,-0.1594852712912323,0.1827361314183219,0.7721466802069886
3.0900000000000034,-0.122900555203166,0.1825398271044153,0.7563142181142161
3.0999999999999943,-0.1052293544034175,0.1696009859142905,0.7622255474281262
3.109999999999985,-0.0635755724406805,0.1440260181817942,0.7590511900154179
3.1200000000000045,-0.0049807072162521,0.0994034888990108,0.7383973431082874
3.1299999999999955,0.0503906736569774,0.0697049120575568,0.700107270426095
3.1399999999999864,0.0968326021973141,0.0363388308293916,0.6691128752308655
3.1499999999999773,0.1451058800578733,0.0045753550080483,0.6281981660694562
3.1599999999999966,0.1889798345386289,-0.0249307191949174,0.5982114293678262
3.1699999999999875,0.2555424131608016,-0.0624519652054972,0.5806156221192232
3.1799999999999784,0.3426935773621262,-0.074357522522048,0.5614472342773853
3.1899999999999977,0.4374314279817187,-0.0857822261739729,0.5454081462896117
3.1999999999999886,0.5414867498199106,-0.1069477256171392,0.527092362665731
3.2099999999999795,0.618471617526623,-0.1297979527810141,0.5257856621940649
3.219999999999999,0.6820919514809788,-0.159288640752813,0.5246922966760911
3.2299999999999898,0.7344831167907268,-0.1877275298950357,0.5239565102720075
3.2399999999999807,0.7509880417398607,-0.1943293390001701,0.5173239352628882
3.25,0.7721038097515845,-0.1786211984250562,0.5090513876710534
3.259999999999991,0.7874895144547114,-0.1352286328869245,0.5113002001985438
3.269999999999982,0.7897241316290758,-0.0871328666968987,0.5090114354727976
3.280000000000001,0.7853018693163918,-0.0577474440311521,0.5018887092043518
3.289999999999992,0.7674823637793964,-0.0222293303317831,0.4996515810366556
3.299999999999983,0.7437840239082318,0.0008272322468682,0.4901771916451161
3.3100000000000023,0.70111987178109,0.0122214731255907,0.4865196865423244
3.319999999999993,0.631308984650079,0.0262871522510311,0.4775972996595173
3.329999999999984,0.5656779930115787,0.0504095139943317,0.4713315523218901
3.3400000000000034,0.5048104716223879,0.0911422015287957,0.4652977116970461
3.3499999999999943,0.4583282962885351,0.1255987418720152,0.4592915697520587
3.359999999999985,0.4300697962577697,0.1621827798206539,0.4591451840764531
3.3700000000000045,0.4404730906325897,0.1768809386352941,0.4583689142126596
3.3799999999999955,0.4796573775954227,0.1789361745680993,0.4667643336392162
3.3899999999999864,0.5198757475547845,0.1798646484516139,0.4554556934516339
3.3999999999999773,0.5273564934378321,0.1644681962232516,0.4511402841401333
3.4099999999999966,0.4621344549486917,0.1476464572614502,0.4478296395312394
3.4199999999999875,0.3839136493558811,0.1611221738694739,0.4402682768735402
3.4299999999999784,0.3306608527984721,0.1907334949405528,0.4351666296292036
3.4399999999999977,0.3027052350893969,0.2356828400238187,0.4313274465529826
3.4499999999999886,0.267364824993085,0.2522730649878075,0.4337577792558157
3.4599999999999795,0.2192793866185355,0.2433674181706584,0.4222383655958108
3.469999999999999,0.1494889534731164,0.2358237417135935,0.4157383014130648
3.4799999999999898,0.0795289737088781,0.2105396501146789,0.3919917089382685
3.4899999999999807,0.0676684654172505,0.1873581184081811,0.3718791116588798
3.5,0.0637125880533471,0.1565253543899164,0.3437626437246309
3.509999999999991,0.0238825852375228,0.1321256270639766,0.3081648138353852
3.519999999999982,-0.0265849564417766,0.1022816219242156,0.2759116093564591
3.530000000000001,-0.0766812145635466,0.0694006929441506,0.2411373155058491
3.539999999999992,-0.1215151792549363,0.0619992494067912,0.2058887454538299
3.549999999999983,-0.1445062762311267,0.0273668641851774,0.1682904882691934
3.5600000000000023,-0.151117661856792,-0.0103818721823441,0.1525066971900417
3.569999999999993,-0.1532570352924932,-0.0521007980683537,0.1444197302041708
3.579999999999984,-0.166884452551842,-0.0946748427798235,0.1294441659492943
3.5900000000000034,-0.1838311826494241,-0.1285029515139401,0.1091928261401239
3.5999999999999943,-0.217244283418192,-0.1629128111996384,0.0835687482115421
3.609999999999985,-0.2896129456181369,-0.2061749370652726,0.063538634626594
3.620000000000005,-0.3925883585417873,-0.2382565823884039,0.0352502550098243
3.629999999999996,-0.5110848228717562,-0.2482779398860911,0.0149243377207281
3.6399999999999855,-0.6239233768947037,-0.2625186661632213,0.001447652480593
3.649999999999977,-0.5777308543919145,-0.2771713512645033,-0.0303972784664989
3.6599999999999966,-0.4003054529815923,-0.3029219722679182,-0.064441504518332
3.669999999999988,-0.2016239763061874,-0.3354518827421544,-0.0836992961146929
3.6799999999999775,-0.0161070196034972,-0.3477973779962022,-0.0914832063772843
3.6899999999999977,0.1111463296427613,-0.3681231593672531,-0.0883644796664663
3.6999999999999886,0.1423799945811091,-0.3803143824248511,-0.0797325181730394
3.70999999999998,0.0739679099112591,-0.3644197237048202,-0.0642699770128216
3.719999999999999,-0.0082379676081488,-0.3559051469598363,-0.0367916062521923
3.7299999999999898,-0.0957068558574039,-0.3384773631622101,-0.0112761095402545
3.7399999999999807,-0.1826529222209082,-0.3251897059174321,0.0228193938249585
3.75,-0.2608757733378258,-0.3229764176436281,0.0545266580260667
3.759999999999991,-0.3344289549717045,-0.3159791058879787,0.066494235905269
3.769999999999982,-0.4058875995128082,-0.3189702893888694,0.0798865109628358
3.780000000000001,-0.4551900226708023,-0.3040961838783765,0.103705771997445
3.789999999999992,-0.4462387853199506,-0.2764501292715476,0.125933791630267
3.799999999999983,-0.3972222380700959,-0.2537186492096699,0.1456560582908213
3.8100000000000014,-0.312639316577332,-0.2196663513817117,0.1795708866781413
3.819999999999993,-0.2703222007286932,-0.198392144818229,0.213158247526596
3.829999999999984,-0.2974868584438964,-0.163969310635088,0.2603385980466689
3.8400000000000034,-0.3667521052492286,-0.1135315322798123,0.2994409513298061
3.8499999999999934,-0.4952378786501167,-0.094997551190736,0.3105014431453531
3.859999999999985,-0.6073894616677562,-0.0871276886100312,0.3055904897321973
3.870000000000005,-0.702284930552859,-0.0851916710568372,0.2866756599347825
3.879999999999996,-0.7703879076437564,-0.0768605195714455,0.2631398737859601
3.8899999999999855,-0.7997081753268697,-0.0804051855251653,0.2440353446180743
3.899999999999977,-0.8299589195918599,-0.0793515603742399,0.2146067620557541
3.9099999999999966,-0.8397100410420043,-0.080482924351729,0.1741796566028795
3.919999999999988,-0.8288731531551098,-0.0679066537162991,0.1199223369592537
3.9299999999999775,-0.8184567307275491,-0.0634032268364578,0.0471172252945679
3.9399999999999977,-0.8463776741849803,-0.0613185504039435,-0.0199219533418253
3.9499999999999886,-0.8752630103775364,-0.0661487558078954,-0.1041096142469852
3.95999999999998,-0.9071028909771685,-0.0759574881718836,-0.1672240190091324
3.969999999999999,-0.9445704554707146,-0.0854377310538116,-0.2260747203112343
3.9799999999999898,-0.970761144550221,-0.0904380580549343,-0.2792829129013027
3.9899999999999807,-0.9702642413838476,-0.0813068496942577,-0.3294652299943372
4.0,-0.9302588185252212,-0.0741746475214173,-0.3719683828595911
4.009999999999991,-0.8698124275216118,-0.0726498722883255,-0.4018854031543752
4.019999999999982,-0.8055515028598887,-0.067626630668102,-0.4212394862020617
4.030000000000001,-0.7442180625049998,-0.0791500927844573,-0.430643849921734
4.039999999999992,-0.666093969078043,-0.0893101166864208,-0.4356365958653967
4.049999999999983,-0.5792705132282863,-0.1054918192692936,-0.433424217485473
4.060000000000002,-0.4863757138612764,-0.1216130982889069,-0.4374824993496869
4.069999999999993,-0.3927176394820935,-0.1400980711203608,-0.4125111939698245
4.079999999999984,-0.3378896847024797,-0.1437498360627159,-0.3741331282563518
4.090000000000003,-0.2953066232619415,-0.1624405233632605,-0.3445416357755577
4.099999999999994,-0.2541842098044882,-0.1782080128476066,-0.3111905742048763
4.109999999999985,-0.1991881364246638,-0.1975340336093266,-0.2536007663230339
4.1200000000000045,-0.1113453418067239,-0.2144703944978258,-0.2067881598616796
4.129999999999996,-0.0042697190337474,-0.2453460732179739,-0.1659470728466798
4.139999999999986,0.0861407862352706,-0.2979576104696431,-0.1041256896356303
4.149999999999977,0.1610225123605569,-0.3324816510970212,-0.0272888205191529
4.159999999999997,0.2316433127121467,-0.369296419647271,0.0556245432795805
4.169999999999988,0.2592437483323324,-0.3991804548479433,0.1154779418356042
4.179999999999978,0.2655519583814147,-0.4094599988716129,0.1685628939190049
4.189999999999998,0.2623383313319326,-0.4124551331022719,0.1941247906685671
4.199999999999989,0.2577091102085024,-0.4224312509247835,0.2035891939235134
4.20999999999998,0.2545767310110015,-0.4215923937683678,0.1997497306115305
4.219999999999999,0.2916999499432287,-0.4173633604167599,0.1835907920737176
4.22999999999999,0.325653765734589,-0.3871101880942347,0.1747123526141974
4.239999999999981,0.3236550050637956,-0.3488406559582406,0.1632378837693868
4.25,0.2599243615349946,-0.3019598259548179,0.1539166882866354
4.259999999999991,0.1673251397745058,-0.2554654521021473,0.1254232325426527
4.269999999999982,0.0814615689508119,-0.2104566222679627,0.0811255846620845
4.280000000000001,-0.007007485668784,-0.1661090579882677,0.0275040557884606
4.289999999999992,-0.0771292899917065,-0.1241839727083106,-0.0432228234524021
4.299999999999983,-0.1236499940188625,-0.0756603948217124,-0.1150566901505091
4.310000000000002,-0.1692994169561799,-0.0303725652314319,-0.1820758108325543
4.319999999999993,-0.2195784570567991,0.0401070860442049,-0.2352524665552642
4.329999999999984,-0.2595304548598097,0.1024762320583289,-0.2891608762298758
4.340000000000003,-0.2915169652771196,0.1693267015873558,-0.328745088907404
4.349999999999994,-0.3068612739418712,0.2194367339112464,-0.3627720952219575
4.359999999999985,-0.3256958162712705,0.2425911351956272,-0.3978537201254893
4.3700000000000045,-0.3381940937794997,0.2238206839860751,-0.4154116690516876
4.379999999999996,-0.3275093635947896,0.1905347549506156,-0.416914011774724
4.389999999999986,-0.3201942857446178,0.1604711841733836,-0.404088425888616
4.399999999999977,-0.3184768648948983,0.1496672596558537,-0.4012860663066143
4.409999999999997,-0.3426255628691395,0.1417355478136478,-0.3954422961186056
4.419999999999988,-0.386364028059153,0.1341023847300358,-0.3912732238981585
4.429999999999978,-0.424480534600653,0.140772408524052,-0.3960828354692865
4.439999999999998,-0.4463383538319895,0.1659057523380877,-0.4077006667368428
4.449999999999989,-0.4591159215027074,0.1918145788189379,-0.4373370517677505
4.45999999999998,-0.456072893903829,0.2275883644054268,-0.4687539974184089
4.469999999999999,-0.4556633459713226,0.2641076985609982,-0.5047428231274116
4.47999999999999,-0.4590314111175602,0.284512178500274,-0.5590995393899435
4.489999999999981,-0.4613398768813742,0.2968938309728246,-0.6325091652701714
4.5,-0.4744735834262368,0.3173755415716376,-0.7169009966386333
4.509999999999991,-0.4937251282768246,0.3318863354908919,-0.8137643415865466
4.519999999999982,-0.4989909614570775,0.3500620216437209,-0.9037638597891604
4.530000000000001,-0.4752928861795422,0.3807096853316684,-0.9815061181064866
4.539999999999992,-0.4448260235022719,0.4044388239316353,-1.0596450808059688
4.549999999999983,-0.4142124746749583,0.4279987873543383,-1.128161385854305
4.560000000000002,-0.3946574555733216,0.4592407046389651,-1.190739262431424
4.569999999999993,-0.3855796373118948,0.4638612868326934,-1.238382025537305
4.579999999999984,-0.3575627580427008,0.4613621557319355,-1.2923869276949678
4.590000000000003,-0.3061300824963469,0.4487873597184004,-1.318271646138134
4.599999999999994,-0.2878749684812651,0.4169174050999505,-1.3439840530913103
4.609999999999985,-0.2621867510036337,0.3853830438802083,-1.3704860993225816
4.6200000000000045,-0.2269985800207889,0.3602919833343563,-1.3872731579394524
4.629999999999996,-0.1924379609892636,0.3381363281963646,-1.4205642087528096
4.639999999999986,-0.1544090945959285,0.3244550270075204,-1.4485729553429498
4.649999999999977,-0.1361664409500051,0.3108753055314489,-1.4851171371163638
4.659999999999997,-0.1107109225598345,0.298709802611227,-1.5151153674374227
4.669999999999988,-0.0761415321334364,0.2745512833483434,-1.5466495938602
4.679999999999978,-0.0376895014069634,0.2552210278449106,-1.5783709405658943
4.689999999999998,-0.0092028952725728,0.2350852696436228,-1.5961109541205607
4.699999999999989,0.0098320425788175,0.1997367179714998,-1.607870922988928
4.70999999999998,0.0189698572901606,0.1686167600259216,-1.6247290906645449
4.719999999999999,0.0458352389198325,0.1526689019120688,-1.6373429191259163
4.72999999999999,0.073515177126835,0.1475763825225599,-1.637088725828126
4.739999999999981,0.1007996535920934,0.1548843878347472,-1.650146111793189
4.75,0.111693924489707,0.1719513791313308,-1.6577215663052929
4.759999999999991,0.1134656682827765,0.203191688397207,-1.6559427997101228
4.769999999999982,0.1289606785706992,0.2346974053882371,-1.67061825677002
4.780000000000001,0.1680621384030158,0.2653621458429467,-1.69246038329307
4.789999999999992,0.2021846849849196,0.298861335100989,-1.7121063568978885
4.799999999999983,0.2231975220109076,0.3363872339390449,-1.739123963381687
4.810000000000002,0.2449372883310134,0.3959963835728212,-1.745436664257377
4.819999999999993,0.2576531885509746,0.4529139990477919,-1.7470040244871383
4.829999999999984,0.2780804408900079,0.5119512070335238,-1.7341810661593902
4.840000000000003,0.2798894390267527,0.5648010018272129,-1.7143936946764031
4.849999999999994,0.2625690684880896,0.5803417504410512,-1.679626008702181
4.859999999999985,0.2546463267301636,0.5811231319994283,-1.6353310050525562
4.8700000000000045,0.2387235063310371,0.6078343306133387,-1.597492024476611
4.879999999999996,0.217190670443618,0.6445493974432083,-1.5703764430261231
4.889999999999986,0.191836784095819,0.6666257206145166,-1.535857526355827
4.899999999999977,0.1614688426566378,0.6643475684721356,-1.5063751600945523
4.909999999999997,0.1316882812455688,0.6405793028736104,-1.4732094291429831
4.919999999999988,0.1334555202848416,0.6161054578542151,-1.4498512186316337
4.929999999999978,0.1337034920909366,0.590232340565006,-1.434590896700001
4.939999999999998,0.1484533202403005,0.5655583218065339,-1.4415595701756112
4.949999999999989,0.189651792697358,0.5539823559138137,-1.459973375337289
4.95999999999998,0.2114932187301181,0.5591425433647977,-1.48410555114752
4.969999999999999,0.2068662291639368,0.5640777540732737,-1.5063756843811318
4.97999999999999,0.1789486072091053,0.5517909285605311,-1.5310133409262008
4.989999999999981,0.1102642835717241,0.5443264400377639,-1.5443363214733032
5.0,0.0342752850158483,0.5237518600514688,-1.5509923883070411
5.009999999999991,-0.0645125667490847,0.505984469915931,-1.5434126487553983
5.019999999999982,-0.124428196691876,0.4791760934222622,-1.5269486556527236
5.030000000000001,-0.1537866112944452,0.4459695402950246,-1.512131018428716
5.039999999999992,-0.1424289611212397,0.4175782862537787,-1.500842740706699
5.049999999999983,-0.1140438564515338,0.3866735907477596,-1.503683447202919
5.060000000000002,-0.1095236942308379,0.3678647762215492,-1.5224618983480755
5.069999999999993,-0.1061901331992159,0.3667389461076559,-1.544976732033336
5.079999999999984,-0.0906741149426956,0.3659290296598398,-1.5597154527082686
5.090000000000003,-0.0523913833741499,0.3688780224132948,-1.5952377106916609
5.099999999999994,-0.0056499596088686,0.3574728742699798,-1.6220517457682746
5.109999999999985,0.035407421399135,0.3400978476191363,-1.6455318622354596
5.1200000000000045,0.0869509773626879,0.3041252134365752,-1.659465185287491
5.129999999999996,0.1164277434893355,0.2682952661841297,-1.6640799015842829
5.139999999999986,0.1485103109580902,0.2458966491042698,-1.6637234708102262
5.149999999999977,0.1657297653321821,0.2247456883500432,-1.668685851575129
5.159999999999997,0.1683000505488172,0.2299608504810549,-1.6635939530701134
5.169999999999988,0.1702574381897014,0.2403501331124411,-1.6287071358897351
5.179999999999978,0.1859612037975221,0.2402611311775767,-1.5806279070087654
5.189999999999998,0.2215428768186449,0.2382925285965278,-1.5070024399055837
5.199999999999989,0.2480783864834561,0.2227885197936266,-1.428985163028858
5.20999999999998,0.2722457799102186,0.2089819928888847,-1.3489060000348911
5.219999999999999,0.2906531353210704,0.2025665227744643,-1.2748607208165326
5.22999999999999,0.3046740587985898,0.1848950653122201,-1.1929232661876008
5.239999999999981,0.3114652032366459,0.1898357163924827,-1.111832713580724
5.25,0.2927999599119278,0.1936202660294535,-1.0438754718837495
5.259999999999991,0.2514540359036077,0.1925891289584948,-0.9742786847101677
5.269999999999982,0.1949548319360732,0.1621803961598109,-0.9264387713535026
5.280000000000001,0.1395145094550037,0.1202267513537267,-0.8785974637080908
5.289999999999992,0.1233346179396891,0.086518490266409,-0.8386074582524741
5.299999999999983,0.1399488733114055,0.0556352487323313,-0.8029381149721
5.310000000000002,0.1941873411650057,0.0481136012329418,-0.7678468188094022
5.319999999999993,0.2642352116229629,0.0411121622485499,-0.7403450917240392
5.329999999999984,0.3397602664055187,0.0372976976890617,-0.7126285910986551
5.340000000000003,0.4261557128817535,0.0185369198802389,-0.6946729052779994
5.349999999999994,0.4703351807797792,-0.0345956415014325,-0.7021456199894132
5.359999999999985,0.4954125240328735,-0.1234312280601219,-0.722789175266937
5.3700000000000045,0.4955564160803994,-0.1694551941476207,-0.729489641456465
5.379999999999996,0.4589555738262545,-0.1893253350375913,-0.7134204864299986
5.389999999999986,0.402262902988411,-0.1501341434831594,-0.6744911421058919
5.399999999999977,0.3168491121714302,-0.0810644832530259,-0.6238842326546077
5.409999999999997,0.2218672039254541,0.0040117341513695,-0.5741744217192746
5.419999999999988,0.0949910209630076,0.0808487860449335,-0.5464908861655384
5.429999999999978,-0.0499221409328436,0.1452809445156264,-0.5127345060943636
5.439999999999998,-0.2197218405358479,0.2020327967323128,-0.4862647431181391
5.449999999999989,-0.4126969525700381,0.2241585410893049,-0.477370542759741
5.45999999999998,-0.5772757131059587,0.2287970889241889,-0.4832611885675171
5.469999999999999,-0.7000437665895346,0.2328619399926197,-0.497673066804919
5.47999999999999,-0.7795576306337586,0.2414550871471772,-0.5193081523620925
5.489999999999981,-0.8121925901840032,0.236200423521212,-0.5385952421632915
5.5,-0.8111342249930238,0.240582041944381,-0.5639495047184475
5.509999999999991,-0.7571192378265368,0.2388158202309449,-0.5965835892985902
5.519999999999982,-0.6505218524836609,0.2342932893605979,-0.6476872029627944
5.530000000000001,-0.4992834145059261,0.2226532127627206,-0.6950866130020388
5.539999999999992,-0.3566716142769419,0.2104264529598341,-0.7548776961120852
5.549999999999983,-0.2337914348060983,0.2144789271501528,-0.8080599851564748
5.560000000000002,-0.1354448069610629,0.2250546289147882,-0.8589548566732034
5.569999999999993,-0.0633413136928099,0.2351626248125226,-0.8992778321647102
5.579999999999984,-0.0103120524068057,0.2533343575443775,-0.9383384934014964
5.590000000000003,0.0217157881141553,0.2730529133504305,-0.97160999348677
5.599999999999994,0.0527056240498983,0.2871806575197312,-0.9994095307429696
5.609999999999985,0.080918269120671,0.2975585926060579,-1.0155227281735366
5.6200000000000045,0.105613424211471,0.3066507766460273,-1.0376443235065855
5.629999999999996,0.1262379859095747,0.3243588744199983,-1.046251324155944
5.639999999999986,0.1310758396046155,0.3444952502378406,-1.060102090631658
5.649999999999977,0.129034897740235,0.3576909850126494,-1.0726595369885257
5.659999999999997,0.132173351330642,0.3509568274387125,-1.0815227906587137
5.669999999999988,0.1569711472358253,0.3454107542398779,-1.0856354246724942
5.679999999999978,0.1990654943458733,0.3295540085066057,-1.0622367453070891
5.689999999999998,0.2660031716448633,0.3225711003374,-1.0300164981786148
5.699999999999989,0.3246099152183908,0.3047641516718933,-0.9889053474360532
5.70999999999998,0.356745376461922,0.2932066904517155,-0.9610501069146056
5.719999999999999,0.3760851917953131,0.2843278046643917,-0.9337949484489716
5.72999999999999,0.3867535535251808,0.2702087508102003,-0.9162110573301544
5.739999999999981,0.3576862725433264,0.2440003877038931,-0.9135426979277936
5.75,0.3330055580008554,0.2287881738253686,-0.9048587736872744
5.759999999999991,0.2854419160623462,0.2020475398341982,-0.8901801353614742
5.769999999999982,0.2400258042028598,0.1806305493501548,-0.8711220969632958
5.780000000000001,0.1841915437748762,0.1787845161085254,-0.8446158497506179
5.789999999999992,0.1517238537750369,0.1677812027075196,-0.7963632623918963
5.799999999999983,0.1542949008629237,0.1611584081741739,-0.7561160869552945
5.810000000000002,0.1667647393317091,0.1416524766565639,-0.704900800278623
5.819999999999993,0.196263581556325,0.1096670085697167,-0.6413960391421738
5.829999999999984,0.2146635186725279,0.066395009294574,-0.5900868404028062
5.840000000000003,0.2321379612396586,0.0216846072348646,-0.5462851331270355
5.849999999999994,0.2483000202877622,-0.0208763055271873,-0.5136973403848948
5.859999999999985,0.2484657947411117,-0.066002758220351,-0.4928110486799015
5.8700000000000045,0.241449456031367,-0.1017323409580229,-0.4910961016256641
5.879999999999996,0.219352666732682,-0.1315673729550222,-0.4964251639849197
5.889999999999986,0.1814545232967283,-0.1620936362086666,-0.5013915350291251
5.899999999999977,0.1294876251899883,-0.1604454172884595,-0.5279233503166851
5.909999999999997,0.1176504525760851,-0.1282978071153057,-0.5479585360792305
5.919999999999988,0.1446063217091634,-0.0692019495733772,-0.5748623589776922
5.929999999999978,0.2050761460904696,-0.0044447373220131,-0.6245123896810678
5.939999999999998,0.2515225349651355,0.0603177389190451,-0.6925092650347084
5.949999999999989,0.2706806126769091,0.1295168389151448,-0.7585825738236793
5.95999999999998,0.2831348689710127,0.1901461023554243,-0.8236974546382821
5.969999999999999,0.2643076316938935,0.240154944719967,-0.8760642419562628
5.97999999999999,0.2269292071575505,0.282983992803084,-0.9040443332785312
5.989999999999981,0.1754735836988886,0.3194315248777582,-0.9246236752642812
6.0,0.1275232025333403,0.3446896474812759,-0.935211950339756
6.009999999999991,0.0971937686047217,0.354958269160828,-0.9335976997785864
6.019999999999982,0.0894292792154727,0.3723288159357513,-0.9221223984953774
6.030000000000001,0.0815605042160718,0.3653183664384678,-0.8991468243238963
6.039999999999992,0.0655404817391435,0.3609265027320152,-0.8773206116880525
6.049999999999983,0.0248337496881052,0.3549423402359469,-0.8645987237706387
6.060000000000002,-0.0343820433511045,0.3363949339140835,-0.8648842908252231
6.069999999999993,-0.1003780726842414,0.3349431064808723,-0.8662859553200477
6.079999999999984,-0.1648217965875614,0.3253869850579386,-0.8615270040127289
6.090000000000003,-0.2146969323480367,0.327622101042189,-0.8593711480934179
6.099999999999994,-0.255671075544285,0.3381076141942521,-0.850511038789421
6.109999999999985,-0.2854217764836957,0.3412684693543323,-0.8406452067104991
6.1200000000000045,-0.2944106162638667,0.345456037079504,-0.8316641717220568
6.129999999999996,-0.297337725418124,0.3523423428136448,-0.8364896390669334
6.139999999999986,-0.3009281613225231,0.3704281808486445,-0.8397685616711965
6.149999999999977,-0.2945925980054398,0.3803296944659431,-0.846788013121389
6.159999999999997,-0.3009093514074624,0.3931394147064531,-0.8440625714586272
6.169999999999988,-0.3014786245663179,0.3983389565005886,-0.8369517406887742
6.179999999999978,-0.3125528278469232,0.412244563720117,-0.8229651840437783
6.189999999999998,-0.3150825209122054,0.4152296827092779,-0.8105691321784294
6.199999999999989,-0.317846791017997,0.40807321379203,-0.8166988837440688
6.20999999999998,-0.2941404631570532,0.4051239694145472,-0.8073327497182005
6.219999999999999,-0.2712677418423467,0.3928563827823791,-0.8010865632512876
6.22999999999999,-0.2499766870538739,0.3831091565928941,-0.7980211751262959
6.239999999999981,-0.2339754306993902,0.3633732023019563,-0.7982588232174478
6.25,-0.2315249110576401,0.3372791015829688,-0.7939974478882302
6.259999999999991,-0.2315102822958435,0.2999815824678501,-0.787904222536405
6.269999999999982,-0.2437294543846096,0.263388313099299,-0.7899567739777843
6.280000000000001,-0.2586334721140778,0.2266465928691629,-0.7954426000850126
6.289999999999992,-0.2692485395814546,0.1798888795729492,-0.8110852697587526
6.299999999999983,-0.2518976685292064,0.1504550041977542,-0.8229521345515437
6.310000000000002,-0.2226702260434154,0.1128647986859616,-0.8322141434812345
6.319999999999993,-0.1919986890160325,0.0928171729978926,-0.8325399586277635
6.329999999999984,-0.186738396540464,0.0725826502919877,-0.8186491758772099
6.340000000000003,-0.2063657510355697,0.044751376087653,-0.7960797499822252
6.349999999999994,-0.2472216915179004,0.0232458893562328,-0.777760999365017
6.359999999999985,-0.2857353406181252,-0.0112366847775546,-0.7635046458898571
6.3700000000000045,-0.2981823620441044,-0.0362611354298845,-0.7537971215971025
6.379999999999996,-0.2729383218424338,-0.053012562884353,-0.751337397676792
6.389999999999986,-0.2237393548279843,-0.0542181729858852,-0.7584135012484775
6.399999999999977,-0.1653606433613068,-0.0300348825447954,-0.7499977925865888
6.409999999999997,-0.1077509904165542,-0.0017749095533587,-0.7307970381096927
6.419999999999988,-0.065749489355397,0.0341521030304417,-0.6890143995790953
6.429999999999978,-0.0415504898469056,0.0613571518086622,-0.6385593653264152
6.439999999999998,-0.0432296320380912,0.074125650651033,-0.5972646241362254
6.449999999999989,-0.0686515162638681,0.0567399607864964,-0.5401385754950055
6.45999999999998,-0.0804984717746822,0.0415704851717888,-0.5243695382800706
6.469999999999999,-0.1030817848386636,0.0159265876846593,-0.5217679008627497
6.47999999999999,-0.1200822470442529,-0.0107423568458823,-0.5306795679184214
6.489999999999981,-0.1073956342339428,-0.0310101791295913,-0.5384926217537681
6.5,-0.0554451581286441,-0.0369771660300029,-0.5135371981113989
6.509999999999991,0.0109022391135439,-0.0441629432411828,-0.4780118274687059
6.519999999999982,0.0354979987962762,-0.0341929914280182,-0.4279433808527465
6.530000000000001,0.054036880228217,-0.0129287443154452,-0.3686189579204433
6.539999999999992,0.0518306054973409,0.009195798812887,-0.3325107145667002
6.549999999999983,0.0603219283161295,0.0427702453182116,-0.3210524733557756
6.560000000000002,0.0826469091566009,0.0733853505079487,-0.3281833636100651
6.569999999999993,0.0946661700818121,0.1043193469074662,-0.3507711903288008
6.579999999999984,0.1135839776967528,0.1416097402935695,-0.3714974586936493
6.590000000000003,0.155256825779444,0.1644295159578107,-0.3854438641674004
6.599999999999994,0.2206398479823829,0.1932769271702465,-0.4044353713265694
6.609999999999985,0.3120271270840052,0.2104761529386255,-0.4194977825450452
6.6200000000000045,0.4100308069404794,0.2295612291399276,-0.4329616445772868
6.629999999999996,0.4907043222664292,0.2570521272894866,-0.4682866563007801
6.639999999999986,0.5297296398872201,0.2743278645836494,-0.5033452458173983
6.649999999999977,0.5359006134504903,0.2957454003464911,-0.5289787338589157
6.659999999999997,0.5321419937909094,0.3001145987831183,-0.5567889525970535
6.669999999999988,0.5210663569248858,0.2999144101799226,-0.570359728345743
6.679999999999978,0.5066287897696713,0.2846739122491127,-0.5704028695488069
6.689999999999998,0.4967941667394489,0.2908801028222581,-0.5665473550291849
6.699999999999989,0.4742271447767141,0.2901236930674252,-0.5535989811859721
6.70999999999998,0.4588873735305405,0.2985319482606348,-0.5459653037018865
6.719999999999999,0.4669756734064962,0.3037028915176913,-0.5321468771847764
6.72999999999999,0.4626908101508936,0.3006680629279245,-0.5127098384475388
6.739999999999981,0.4266816208817542,0.3028628534496439,-0.4892836721587141
6.75,0.341064057339316,0.2925646592172824,-0.4591170482152123
6.759999999999991,0.2401245321701905,0.2837923024818893,-0.417904314648343
6.769999999999982,0.1189717381960083,0.2754076074263987,-0.3667005871323867
6.780000000000001,-0.0173327909553258,0.2742156840769263,-0.3309253456397188
6.789999999999992,-0.1672897135779572,0.2772659207777235,-0.31069942382595
6.799999999999983,-0.308880678057405,0.2884892011625079,-0.290193702327891
6.810000000000002,-0.4211266859817675,0.2792042356038369,-0.260597138648883
6.819999999999993,-0.4876025458942593,0.27891004302423,-0.2230819182503842
6.829999999999984,-0.5255860538417136,0.2726875406318887,-0.1964328065274619
6.840000000000003,-0.5129830116457548,0.269015866395824,-0.1709387947850888
6.849999999999994,-0.4934752095226439,0.2703711174241394,-0.1404099548278901
6.859999999999985,-0.456861830518121,0.2695002882190778,-0.1130424593695816
6.8700000000000045,-0.4159423247881706,0.2735732271032334,-0.091395733404415
6.879999999999996,-0.3647023758465915,0.2661429910197537,-0.0807502954772318
6.889999999999986,-0.3155639593172728,0.2729017852814099,-0.0664307856503465
6.899999999999977,-0.254528754045228,0.2831263600003224,-0.0446262518628964
6.909999999999997,-0.1526546365532758,0.2772010744500963,0.0065282201031875
6.919999999999988,-0.0215418324956894,0.2631710731533883,0.0593083372033814
6.929999999999978,0.1045015527912147,0.2350736247273981,0.1145068092397807
6.939999999999998,0.2118201243635203,0.199926786611241,0.169589703752533
6.949999999999989,0.2641041980950523,0.1601779257407036,0.2072888723463032
6.95999999999998,0.2823790668632234,0.1157724958213075,0.2425999510151804
6.969999999999999,0.287085544896566,0.0954738218322376,0.2708343639514044
6.97999999999999,0.2636694637732237,0.0727069640380923,0.2799540166123925
6.989999999999981,0.2286107519598666,0.0572176506419093,0.2883956345437352
7.0,0.1964559855476902,0.0551896272740602,0.2825590351495499
7.009999999999991,0.1940528315230845,0.0579155268617025,0.2661260626727955
7.019999999999982,0.1786682676355146,0.0723120942783871,0.2233151038383944
7.030000000000001,0.1607735033474216,0.0842170933793066,0.1688889051707375
7.039999999999992,0.1674198846683235,0.1100988985389936,0.0880151017013486
7.049999999999983,0.1767599803347662,0.1280151900008266,0.0016209527049174
7.060000000000002,0.1924320574970262,0.1397824435656294,-0.0899287881723396
7.069999999999993,0.2002061448197755,0.1508641922743921,-0.1635785904308976
7.079999999999984,0.2186600952831431,0.1713837841935535,-0.2242198022534566
7.090000000000003,0.2413838916836233,0.1960730058889111,-0.2529719542741292
7.099999999999994,0.2663094346849327,0.1952672885811644,-0.2319911152780013
7.109999999999985,0.2710275218759279,0.1956522353473186,-0.1950345407192808
7.1200000000000045,0.2750697626541588,0.1858847958951813,-0.1447946410306899
7.129999999999996,0.2945680368471809,0.155829911788156,-0.0816732102219889
7.139999999999986,0.2924570066205065,0.1120473912017894,-0.0336661751845038
7.149999999999977,0.2961874513317114,0.04874287934331,-0.0165062355076621
7.159999999999997,0.2745662916453418,-0.0291085639764011,-0.0207880292486001
7.169999999999988,0.2510353548381112,-0.1119031754858326,-0.0698388131473261
7.179999999999978,0.2127976901038454,-0.1884141425365065,-0.1212109205950585
7.189999999999998,0.1627090206169744,-0.2570621911122586,-0.1941058154205928
7.199999999999989,0.1109416550928188,-0.3109182766590219,-0.2690333421470442
7.2099999999999795,0.08850235759945,-0.343803147393424,-0.3368803890356511
7.219999999999999,0.0533714885585521,-0.3404016971491539,-0.3989382434694942
7.22999999999999,0.0066794532960239,-0.3406216684808709,-0.4267571340552889
7.239999999999981,-0.0440161377310635,-0.3589307672216614,-0.4324723216129913
7.25,-0.0832693910066218,-0.3773539889563931,-0.4120926774456221
7.259999999999991,-0.1203601138256963,-0.4051919621003575,-0.3966132581255407
7.269999999999982,-0.1055958585078634,-0.4192576446422749,-0.3783737908552892
7.280000000000001,-0.0556359305326615,-0.4260219099938366,-0.3743542160659125
7.289999999999992,0.0192919359211819,-0.424788829251761,-0.3770258104356188
7.299999999999983,0.1011466833920225,-0.4080450227827479,-0.3658980518664497
7.310000000000002,0.1560073391334639,-0.3753026540045883,-0.3508761914687499
7.319999999999993,0.1748397901607273,-0.3449543002876492,-0.3499807398562181
7.329999999999984,0.1653469215919608,-0.3217980070779592,-0.3522409963392048
7.340000000000003,0.1386918204343505,-0.2908407257976101,-0.3543557757879003
7.349999999999994,0.1084802975793986,-0.2546089249526883,-0.3543644013748308
7.359999999999985,0.0779764593916729,-0.2024633112603979,-0.348285180251804
7.370000000000003,0.0465971532317931,-0.1508178225987754,-0.3430228559953571
7.3799999999999955,0.0096628552045866,-0.1036024898242091,-0.3409365036684451
7.389999999999986,-0.0467945469237031,-0.0734188996140452,-0.3279191412536645
7.399999999999977,-0.1060950580400224,-0.0383258410193412,-0.3216102530619481
7.409999999999997,-0.1385845966595744,0.0128982655125437,-0.2921841081779743
7.4199999999999875,-0.1585930230567396,0.0644484592825312,-0.2582631803606393
7.429999999999978,-0.1564057170837352,0.1212906489536262,-0.2258390437801726
7.439999999999998,-0.1445600950486832,0.1730281711226146,-0.2105733419108454
7.449999999999989,-0.1242068645785239,0.2261515514596254,-0.2124286537169082
7.4599999999999795,-0.1168471448745371,0.2678224604496823,-0.2214532442056964
7.469999999999999,-0.1258991294856607,0.2783286048527559,-0.2298291598732078
7.47999999999999,-0.1298455257645621,0.2672097828071862,-0.234267823973987
7.489999999999981,-0.1108392023027842,0.2308318330203725,-0.2468137799204866
7.5,-0.06146356568701,0.2048446960756935,-0.2536374710682182
7.509999999999991,-0.0127013928585674,0.1510967337340557,-0.2793444197165829
7.519999999999982,0.051855458829387,0.1319738330707829,-0.3216325275587616
7.530000000000001,0.1044019681971334,0.1386300812494338,-0.382942565767526
7.539999999999992,0.1109334042604647,0.1288119295698824,-0.4629025203521374
7.549999999999983,0.0761481569884567,0.1007307216084694,-0.5259739795931654
7.560000000000002,0.0211995270332126,0.0735100887612562,-0.5853689345442576
7.569999999999993,-0.0361923721808466,0.0747300081760774,-0.6194182904722205
7.579999999999984,-0.0609031054791344,0.1156058637777549,-0.6223298952990636
7.590000000000003,-0.0851167133934878,0.2115709388750274,-0.5886053678943282
7.599999999999994,-0.1484218888995465,0.3112432510872283,-0.568744889589704
7.609999999999985,-0.237061773172729,0.4073716533518324,-0.5774520905850947
7.620000000000003,-0.3580444670328039,0.4897318372526759,-0.5952349207103956
7.6299999999999955,-0.4951752239010238,0.5532961715503638,-0.5918417554176615
7.639999999999986,-0.6057049620207895,0.596757700587845,-0.5822874363584014
7.649999999999977,-0.7198055562739849,0.6374162397566943,-0.5859306814395049
7.659999999999997,-0.8106042080880569,0.6525941541086199,-0.5738427292100732
7.6699999999999875,-0.8648983781857715,0.679842269043154,-0.5451338890181477
7.679999999999978,-0.8972798232870841,0.6944833598666085,-0.5030637393537493
7.689999999999998,-0.9291088910677584,0.7041624811091228,-0.4348442383140698
7.699999999999989,-0.9742000416336104,0.7329575602699954,-0.3571101769270624
7.7099999999999795,-1.022639814449665,0.7501918001407211,-0.289427487905368
7.719999999999999,-1.0460948127988563,0.7621706336614278,-0.2419605222541895
7.72999999999999,-1.0586325285919136,0.7756740112124377,-0.2126012704938475
7.739999999999981,-1.0733930405979653,0.7929547038428735,-0.1753371236364768
7.75,-1.0286843509350558,0.7942415011607551,-0.1385604309920956
7.759999999999991,-0.9571173063375864,0.793025207125139,-0.0965646952743474
7.769999999999982,-0.8724207586007228,0.7906243822090125,-0.049244943599392
7.780000000000001,-0.7892337633164147,0.77688951863932,-0.0010634124331234
7.789999999999992,-0.7509896337904283,0.7407654065753793,0.0875819020790103
7.799999999999983,-0.7684533519280279,0.6962160857270994,0.2190769226572968
7.810000000000002,-0.6844165430160907,0.6403324705686776,0.3297126933748689
7.819999999999993,-0.5742032489894487,0.5814265956898885,0.3609624527539183
7.829999999999984,-0.4972183822328225,0.538101508382245,0.3563500157261036
7.840000000000003,-0.4487667748744595,0.5142354871262487,0.3531464086747227
7.849999999999994,-0.3482491329747819,0.4898607504909241,0.3559136669262771
7.859999999999985,-0.2385838510789741,0.4539011868145031,0.3551496070956781
7.870000000000003,-0.141979733032963,0.4141614429091336,0.3502290059925813
7.8799999999999955,-0.0385134419892469,0.3735141426328663,0.3211661900028826
7.889999999999986,0.025232627597413,0.33904414110477,0.2886171585188851
7.899999999999977,0.0602116262387804,0.3025019024869368,0.2676920455407158
7.909999999999997,0.0760385321066781,0.2600323153941759,0.2433642446923593
7.9199999999999875,0.1307659913578051,0.2231215193768012,0.223444022844658
7.929999999999978,0.2145205448526153,0.1737583566550257,0.1998299832900134
7.939999999999998,0.2912540928952778,0.1237539962613637,0.1844350135658236
7.949999999999989,0.3644398455338172,0.0876658538548423,0.1692574411637208
7.9599999999999795,0.4117703911852415,0.0513808486745516,0.1734668722461907
7.969999999999999,0.4435997054073424,0.0200252261826559,0.1690887461180874
7.97999999999999,0.4530265184189082,-0.0086952438210176,0.1611077526971607
7.989999999999981,0.4496142932442257,-0.0288312652254285,0.1511045348256671
8.0,0.4374488268391422,-0.0554007039600311,0.1433974469493494
8.009999999999991,0.4324976993492903,-0.0817944823674461,0.1347411580214634
8.019999999999982,0.4223403958261892,-0.1049170629587642,0.1372593260030773
8.030000000000001,0.4179864867826111,-0.1414520321028935,0.1535007985724922
8.039999999999992,0.4178128007423169,-0.1733768786210398,0.1667698436614394
8.049999999999983,0.4197273920334696,-0.1965044531640418,0.1838901931290412
8.060000000000002,0.4154497411563893,-0.2298269152905942,0.2019618758606892
8.069999999999993,0.3912154195500258,-0.2570552005273748,0.2143070103046161
8.079999999999984,0.3604560001076421,-0.2865364764167101,0.2153759293584879
8.090000000000003,0.3101880712502765,-0.3167767640551854,0.2235775440188495
8.099999999999994,0.2569578777555631,-0.3477211000703688,0.2364733181054517
8.109999999999985,0.2214428771049334,-0.3864797875745239,0.2400570672395485
8.120000000000005,0.221479948937902,-0.417294983273311,0.234936611148837
8.129999999999995,0.2714608245541483,-0.4438425690983403,0.2310354410633684
8.139999999999986,0.3372753536015528,-0.4567395531387629,0.2227782346896664
8.149999999999977,0.3827097368894352,-0.4597547052937809,0.2047764461345456
8.159999999999997,0.4069319486498416,-0.4718056833934698,0.1909174871787327
8.169999999999987,0.4117727363818743,-0.4796495465540856,0.1794036970257222
8.179999999999978,0.4092689660008077,-0.483692229892962,0.164589872359688
8.189999999999998,0.4305614704301943,-0.4855923068240456,0.1462071705094512
8.199999999999989,0.4377196228236891,-0.4705094561249632,0.1259797321984015
8.20999999999998,0.4485348901160705,-0.4530141469416346,0.098627466164671
8.219999999999999,0.4813655549145021,-0.4341142520412802,0.0815990392052984
8.22999999999999,0.4931652672025429,-0.4196970991290777,0.0617831071533259
8.23999999999998,0.5154222333579663,-0.3951287813272912,0.0596422120457159
8.25,0.512933000835657,-0.385460411318096,0.0631705908779738
8.259999999999991,0.507924252467821,-0.3732661574732223,0.0662433179261232
8.269999999999982,0.4980183846325388,-0.3669319113044716,0.0787660099557355
8.280000000000001,0.488009575494476,-0.3709983055010061,0.0755200586087541
8.289999999999992,0.4605784847571427,-0.3669722983226316,0.0775489145542111
8.299999999999983,0.4328176374807684,-0.3734749212166623,0.0797028350195883
8.310000000000002,0.387970354638442,-0.3900764014971724,0.0883764792275791
8.319999999999993,0.3391864029502783,-0.4045974513347832,0.1057946710993973
8.329999999999984,0.3076523925933289,-0.4181594880906715,0.1183775599394948
8.340000000000003,0.264881923309937,-0.4091821179037688,0.1222395045041058
8.349999999999994,0.2557574490288799,-0.4017523308384741,0.1159353196089067
8.359999999999985,0.2619534615623946,-0.3734822811752096,0.1121291898542724
8.370000000000005,0.2818037350762242,-0.3525290163489366,0.0980756964802277
8.379999999999995,0.2953357679537385,-0.3388292445735346,0.0911230148867348
8.389999999999986,0.2878293842909969,-0.3140228660418488,0.080058862720947
8.399999999999977,0.2731564565159984,-0.2911937815541836,0.0776386337175162
8.409999999999997,0.245152273600896,-0.2789464843594272,0.0713264780604204
8.419999999999987,0.2196595539263276,-0.2550903499029056,0.0594874555807956
8.429999999999978,0.1948831414151278,-0.227169333117485,0.0436407747127032
8.439999999999998,0.1740458354426534,-0.2063311312783946,0.0435328729437226
8.449999999999989,0.1614513035389192,-0.1842550447684337,0.0440562387491354
8.45999999999998,0.1436357050426124,-0.1700813394474201,0.0545757905527304
8.469999999999999,0.1305541506854454,-0.1518366987125323,0.0598876489513633
8.47999999999999,0.1095685754311722,-0.1411135418208674,0.0591958584415097
8.48999999999998,0.0913765557139477,-0.1254067645144197,0.0559677865022119
8.5,0.0749077735628383,-0.1216011525516648,0.047807043074375
8.509999999999991,0.0588720841129935,-0.1265947883932482,0.047459947919386
8.519999999999982,0.0458585544160796,-0.1265816739839437,0.0455285592550434
8.530000000000001,0.027736700488885,-0.1184288380535936,0.0509955229148292
8.539999999999992,0.0156677575332104,-0.1132449167454779,0.048458459836036
8.549999999999983,0.0018237407077971,-0.0971801525130634,0.0476782160953311
8.560000000000002,-0.0089357401921863,-0.0912022151604071,0.0423211099179045
8.569999999999993,-0.0149449251336609,-0.0976345829082434,0.0348387068532226
8.579999999999984,-0.0009975587920183,-0.0952492428012679,0.036875322864095
8.590000000000003,0.0069216437466825,-0.0980528802278586,0.0355272688161188
8.599999999999994,0.0129518784884674,-0.0962827333488444,0.0360445689964838
8.609999999999985,0.0290006321691264,-0.0953303035720717,0.0253438957303063
8.620000000000005,0.0339910391942633,-0.0806257403971216,0.0182826991704754
8.629999999999995,0.0385522784220149,-0.0775682615057134,0.0134506149788294
8.639999999999986,0.056309622529947,-0.0776140449281639,0.022278854516965
8.649999999999977,0.0572770122380076,-0.078633258840895,0.0203203446420332
8.659999999999997,0.0577932186405596,-0.0771670687964455,0.0187826854243282
8.669999999999987,0.0446084397875904,-0.0794109207864386,0.0137181536765989
8.679999999999978,0.0376492022309213,-0.0838618270719601,0.0164394957624215
8.689999999999998,0.0295010691906594,-0.0870247187962233,0.0194500156210521
8.699999999999989,0.0050218890444466,-0.0936303168654767,0.0187399757605369
8.70999999999998,0.0071079302779441,-0.0949507244642088,0.0228928995358908
8.719999999999999,0.0007614605931577,-0.0922143601306786,0.0315108304049462
8.72999999999999,0.0032312258585506,-0.0913649599552796,0.043973625173462
8.73999999999998,-0.0019404427572065,-0.1011767706304763,0.0579079697828348
8.75,-0.0164511724714866,-0.1068546766635979,0.0713222288242304
8.759999999999991,-0.0161222438224111,-0.1139387441475059,0.0776345646940202
8.769999999999982,-0.0203706591045319,-0.1164386582675367,0.0840433946623931
8.780000000000001,-0.0341895464386917,-0.1127917836500953,0.0820398222402454
8.789999999999992,-0.0288647172539548,-0.128956462898244,0.0854784027420804
8.799999999999983,-0.0214119251424346,-0.1366711450877759,0.0858927688343557
8.810000000000002,-0.0127111225644518,-0.1368189918828524,0.0986563675145098
8.819999999999993,0.0050245111136939,-0.1380114076645588,0.1084601370200593
8.829999999999984,0.0093886405674901,-0.1305287023541981,0.1134079176937645
8.840000000000003,0.0103170872559915,-0.1290218324896844,0.1116693110463878
8.849999999999994,0.0151757553269494,-0.123734014056553,0.1104569578529167
8.859999999999985,0.0290826246461138,-0.1225554292764669,0.0940055134348221
8.870000000000005,0.0318734914175621,-0.1206230125989384,0.0832611747891973
8.879999999999995,0.0318001894214525,-0.1166695181053261,0.0751922243909742
8.889999999999986,0.0327257127492633,-0.106514201669667,0.0780627327786355
8.899999999999977,0.0353318624505303,-0.0890720679951339,0.0811796717515369
8.909999999999997,0.0523522764655912,-0.0804107031994033,0.0790405846315804
8.919999999999987,0.0672294772115633,-0.0645560020587288,0.0869751657955519
8.929999999999978,0.0772286430355948,-0.0588555427218591,0.0854355012217731
8.939999999999998,0.0718350014428138,-0.0509396801294813,0.0831990159852307
8.949999999999989,0.0577668765561173,-0.0465824412497195,0.0853577540331654
8.95999999999998,0.0382435728847974,-0.0446039693797823,0.0895776872853415
8.969999999999999,0.0246479916298071,-0.042482402099668,0.0897415821558562
8.97999999999999,0.0116343476406714,-0.0483469346210577,0.0903485598353494
8.98999999999998,0.0176907625948959,-0.0570495521725386,0.089166814960806
9.0,0.0412992886857981,-0.0762334228235506,0.09552466496047
9.009999999999993,0.0712221601459606,-0.074280091216774,0.0903842941739993
9.019999999999982,0.1094540562866338,-0.0713394629530485,0.0846590845225481
9.03,0.1361127041484896,-0.0723832849266682,0.0832393948695321
9.039999999999992,0.1356622494074059,-0.0759800599552091,0.0845938439463201
9.049999999999985,0.1378570183495265,-0.0801185510630799,0.0785116863761072
9.060000000000002,0.1292926257965189,-0.0758902557588339,0.0861693940958884
9.069999999999991,0.1104775588702207,-0.0742706256009633,0.080388455236096
9.079999999999984,0.0859644983892433,-0.0598052929104588,0.0830716679889344
9.090000000000003,0.0448930589743588,-0.0058343525558264,0.0733977245420478
9.099999999999994,-0.0051970661275035,0.0330809933162252,0.0710841959477697
9.109999999999983,-0.0572708288754544,0.0504477098969613,0.0720604241623646
9.120000000000005,-0.1073313071190376,0.0632312381996144,0.0707241240272089
9.129999999999995,-0.1462985433298491,0.0678576023126189,0.0766192190806546
9.139999999999986,-0.1724048039813286,0.0600049619931644,0.0870696281482339
9.149999999999975,-0.1904478347095202,0.0420200313651462,0.0975701081400847
9.159999999999997,-0.1798309156277554,0.0361607427334079,0.1038897940052751
9.169999999999987,-0.1601517592428871,0.0249980692009063,0.1151877040398715
9.179999999999978,-0.1223642132936032,0.0112530115717763,0.1054178665131767
9.189999999999998,-0.0727665504630215,-0.0028866035862374,0.0957040503694189
9.199999999999989,-0.0317011373856845,-0.0162079715687602,0.0953612418574277
9.20999999999998,-0.0120808982728716,-0.0199219355246402,0.0885027627862504
9.22,-0.011763596019556,-0.0167820074539118,0.0843673147579255
9.22999999999999,-0.0069840696642347,0.0028258517218749,0.0662052902489635
9.23999999999998,-0.0121301301893921,0.0119487096694625,0.0651736693195172
9.25,-0.0331339919442755,0.0219775723723486,0.0615388924792935
9.259999999999993,-0.057341133465798,0.0387366424510905,0.067936705404237
9.269999999999982,-0.074298821663455,0.0384860470972144,0.0723805909168549
9.28,-0.0922061850192622,0.0456940764298019,0.0802736869868591
9.289999999999992,-0.0807989998110341,0.0379464194407494,0.0905996713268986
9.299999999999985,-0.0721547993619385,0.0265114265482117,0.0994088100239583
9.310000000000002,-0.059710254876843,0.0178405887281339,0.1212324079418451
9.319999999999991,-0.0636223522617566,-0.0043342419269112,0.1362388801612074
9.329999999999984,-0.0664293053805783,0.0005524928145615,0.1437305413506862
9.340000000000003,-0.0769359754070115,0.0051538798268046,0.141218198170769
9.349999999999994,-0.0961993163787273,0.0177277905198748,0.1438751698138378
9.359999999999983,-0.1011600847121472,0.0293014606501492,0.1323539038603247
9.370000000000005,-0.0959152274781874,0.0273367147748033,0.1206221115069953
9.379999999999995,-0.0857832870560896,0.026298786559617,0.1193106131097975
9.389999999999986,-0.0682042332781106,0.0168160537580303,0.1123541576054755
9.399999999999975,-0.0475467885415127,0.0075831227441409,0.1125577490179023
9.409999999999997,-0.0181052593708852,0.0099258736586051,0.117415623881252
9.419999999999987,-0.0264670184615946,0.0052815126319215,0.1168865440049587
9.429999999999978,-0.0393744947659633,0.0010031525788515,0.1166426994024354
9.439999999999998,-0.0393803884936536,0.0095819611216874,0.1180529682977218
9.449999999999989,-0.0493680119343555,0.0090242501137669,0.1181358498749023
9.45999999999998,-0.0501423859822606,0.0106588704287608,0.1143896617233789
9.47,-0.0391547853036586,0.0106953141141037,0.1077388374269349
9.47999999999999,-0.0371301225673167,0.0002006161141204,0.1216789327504348
9.48999999999998,-0.0294742704053751,-0.0078331451882597,0.1227265241423927
9.5,-0.0247470485844818,-0.0027895421182671,0.1212684757365508
9.509999999999993,-0.0264518294986765,0.0049008815292164,0.119913966131787
9.519999999999982,-0.0378628162083158,0.0033403481305709,0.123141620122321
9.53,-0.0397642010421669,0.0099067243198895,0.119613524211163
9.539999999999992,-0.0460016279725706,0.0041501100976867,0.117437975441531
9.549999999999985,-0.0651575612258441,0.010583478956672,0.117243193178727
9.560000000000002,-0.0793083163639272,0.030041512457461,0.1172987562082116
9.569999999999991,-0.1355520722145254,0.0458921708840586,0.116607741486855
9.579999999999984,-0.1811139159477546,0.0844588697413806,0.1193939434073359
9.590000000000003,-0.238201178757537,0.1073276933685108,0.1212003914708349
9.599999999999994,-0.2983669859942756,0.1444070522132087,0.1180853605696713
9.609999999999983,-0.3828362814744925,0.1768804155866841,0.1099031043495994
9.620000000000005,-0.452340069741892,0.2079608126489233,0.1020174716002326
9.629999999999995,-0.3259839961584261,0.1912494797632776,0.1035719897108166
9.639999999999986,-0.0417569568912458,0.0978818032990508,0.085024672871105
9.649999999999975,0.1067208679305894,0.0136966303229905,0.080921739696092
9.659999999999997,0.1220132726904433,-0.0464627944830351,0.0762428287127075
9.669999999999987,0.1560988797551118,-0.0667842611552716,0.0560083882793718
9.679999999999978,0.1682376365595943,-0.0400168305751372,0.0368849326642839
9.689999999999998,0.1427286712359294,-0.0045726284987382,0.0341315364344515
9.699999999999989,0.0731371433122862,0.032625070621159,0.0370767715257289
9.70999999999998,-0.0463213466699187,0.0635958260969146,0.0558720381426587
9.72,-0.1720807780601258,0.0828515819657485,0.0841896729337794
9.72999999999999,-0.2605473255265627,0.1113531421260582,0.1026119665053974
9.73999999999998,-0.3560485805765633,0.1487351458421167,0.1158568545477055
9.75,-0.4548653325020819,0.1825734553992415,0.121949595755771
9.759999999999993,-0.5465586214092512,0.2125903929583075,0.1470992940944874
9.769999999999982,-0.6552346929926256,0.2404283045794146,0.1699653209817531
9.78,-0.7024908229653505,0.2626029042433441,0.1896486176349325
9.789999999999992,-0.7304770109706553,0.2879402557669958,0.2116737167418323
9.799999999999985,-0.588389693883563,0.3070301398508797,0.2054663327319291
9.810000000000002,-0.3183381448299721,0.2935941792224373,0.1902755301417173
9.819999999999991,-0.13032622234215,0.1792740878189115,0.1750561222621314
9.829999999999984,0.018550716814757,0.0350664983254081,0.1460390600364192
9.840000000000003,0.0007281089790319,-0.0335652967093374,0.1491402931500634
9.849999999999994,0.0845553377418767,-0.0978480204897695,0.1214130043530716
9.859999999999983,0.1952367115365264,-0.1309917974339685,0.0929200690278312
9.870000000000005,0.3180732318194347,-0.1559595451948665,0.0938598806490329
9.879999999999995,0.2973192772251271,-0.1247044652178828,0.1199235610378772
9.889999999999986,0.2452936733387888,-0.0728256007446052,0.1545148479262862
9.899999999999975,0.1665074340635249,-0.0272855027510636,0.1713922824647464
9.909999999999997,0.1064217346193012,0.0334473392424368,0.1870235318960636
9.919999999999987,-0.0089725977832388,0.0430081264842396,0.1937262078111048
9.929999999999978,-0.1167899753404729,0.0570248585625489,0.1953383693081372
9.939999999999998,-0.1860629911026705,0.0787040024017304,0.2079395397261095
9.949999999999989,-0.2410786105195803,0.0875663057009254,0.2261452118274355
9.95999999999998,-0.2514043276997156,0.1036671852440589,0.2298768007183187
9.97,0.0130714141183083,0.0088995050413504,0.1894798225404123
9.97999999999999,-0.0017552489659652,-0.0161881484922247,0.1976332560913543
9.98999999999998,-0.0008907614383755,-0.0226056497131215,0.1884401618702283
10.0,0.0029239952940491,-0.0496755087203551,0.167663889936706
10.009999999999993,-0.0285290387687341,-0.0126544254370147,0.1489975179146506
10.019999999999982,-0.0248921540656231,0.0071401937366354,0.127075423662489
10.03,-0.0240729046005133,-0.0052781238155888,0.1275951719289674
10.039999999999992,-0.0121446577423912,-0.0215185879943854,0.1363131514568835
10.049999999999985,0.0010635108262461,-0.0325232834345962,0.1310414507132564
10.060000000000002,0.0347885596160035,-0.0196762150964221,0.1404263139750463
10.069999999999991,0.045708883569705,-0.0087382769870805,0.136312909558617
10.079999999999984,0.0487993682119354,0.0047232287519216,0.1466522078669675
10.090000000000003,0.0532950031696825,-0.0026645496564115,0.1516180716155782
10.099999999999994,0.038968352527827,-0.0085715317411695,0.1727470624336462
10.109999999999983,0.0399537892452391,-0.0162601392497511,0.1902803346417989
10.120000000000005,0.0378771982104557,-0.0198136035224913,0.1888157195361498
10.129999999999995,0.0267579137447497,-0.0158932747370455,0.1819911362593122
10.139999999999986,-0.0130067557735173,-0.0202021582974683,0.1542032222908446
10.149999999999975,-0.0642643262278971,-0.0310037585372479,0.1331530159120211
10.159999999999997,-0.0946540872192923,-0.0312177322405213,0.1104498373882303
10.169999999999987,-0.1080536208685231,-0.0401229820742121,0.0930228295554426
10.179999999999978,-0.1193975097390453,-0.0448197793632272,0.0911090817916773
10.189999999999998,-0.115731558763219,-0.0426490859843827,0.1048798980744834
10.199999999999989,-0.0782315400672596,-0.0343707335299535,0.0987752293553657
10.20999999999998,-0.0303176693452734,-0.0464929591604878,0.0861990418081509
10.22,0.0018789855011926,-0.061497063796038,0.0762744563513911
10.22999999999999,0.0024356842040161,-0.0597999177925171,0.0781120424796956
10.23999999999998,-0.003370028968473,-0.0523429299198854,0.0864993426528617
10.25,-0.0218031503940042,-0.0504414455027509,0.1077632411857855
10.259999999999993,-0.0398080725706643,-0.057246957902076,0.1240977384748061
10.269999999999982,-0.0327290562603442,-0.0642474147371672,0.1549520009558501
10.28,-0.0117442896070354,-0.0808978104474219,0.1899638925542259
10.289999999999992,-0.0031772304985499,-0.1022740168324118,0.1945817315299395
10.299999999999985,-0.0037253566056135,-0.0875563658747301,0.1805430262222036
10.310000000000002,-0.0107558327366244,-0.0761484201652576,0.1648233625703717
10.319999999999991,-0.0133865160899263,-0.0399371902667622,0.1585034101055811
10.329999999999984,-0.0409396351855183,0.0031062970123517,0.1409591762750305
10.340000000000003,-0.0373044150939318,0.0660527102124019,0.0948875873466878
10.349999999999994,-0.0031376494259193,0.1309231081757744,0.0557747926924381
10.359999999999983,-0.0165842323831864,0.1974057418676458,0.0490453847544396
10.370000000000005,0.0102393676267096,0.2270787317306226,0.0608497990274897
10.379999999999995,0.1963582335333363,0.0640912841573662,0.0687222155117919
10.389999999999986,0.1545154435920366,0.0357789241725051,0.1212871962848065
10.399999999999975,0.1306648928007336,0.0203449478419871,0.1305221150925038
10.409999999999997,0.1130174219462541,0.015029439624307,0.1075785204641054
10.419999999999987,0.090597615122023,0.036418507252005,0.0748733067603057
10.429999999999978,0.0489983722234253,0.0213001859564398,0.0501626219835816
10.439999999999998,0.0369350710873473,0.0299100993551337,0.0362572735563888
10.449999999999989,0.0263849873578336,0.0089226579113112,0.0439559742405008
10.45999999999998,0.0103360072568398,-0.0029915862408539,0.048628215029827
10.47,0.0127783937980521,0.0041538620057457,0.063260258229453
10.47999999999999,0.0009356790752974,0.0098527028992202,0.0681441311184655
10.48999999999998,0.0292373384087238,0.0084572654277934,0.0668054753539392
10.5,0.0535839218434109,-0.0042280580626854,0.0655950070932598
10.509999999999993,0.1090326550557621,0.0080176335756232,0.0636864185615156
10.519999999999982,0.1128807110127654,0.0169453513341173,0.0677329146340041
10.53,0.1577603337749696,0.0243736943625873,0.085983815847605
10.539999999999992,0.0912372570806808,-0.0497580340384062,0.1230500234721992
10.549999999999985,0.1446241971713855,-0.2237724261510661,0.1211895815748042
10.560000000000002,0.5680121680480272,-0.2098216731927811,0.0582240333578478
10.569999999999991,0.6939484606013123,-0.225974809454055,0.0327627407393978
10.579999999999984,0.9420139106194236,-0.2448340772346072,0.0025270817801843
10.590000000000003,1.190432300858414,-0.2649608159615973,-0.0152350439192445
10.599999999999994,1.2669383699347367,-0.3613594419241077,-0.0020483297137938
10.609999999999983,1.298332690203971,-0.4193805257700259,0.0007947302205658
10.620000000000005,1.5078708516167805,-0.4351837415865315,-0.0180850989346637
10.629999999999995,0.655472717638583,-0.0798594554672435,0.0168482185976475
10.639999999999986,-0.3103175606469159,0.4100316032611993,0.051893791584055
10.649999999999975,-0.1790000034184961,0.5891212712523798,0.0460586565183057
10.659999999999997,-0.3604510685396543,0.6217494390425872,0.0799273615447757
10.669999999999987,-0.1683717591163392,0.2893399556258702,0.1616741036464481
10.679999999999978,-0.1537141544549936,0.1253280753762376,0.3029308217499366
10.689999999999998,-0.1637141120658521,-0.1149041766596483,0.4170528143156218
10.699999999999989,0.0210014376602851,-0.2319182966568829,0.41837403243872
10.70999999999998,-0.0016690693401845,-0.0575581015340303,0.3561940601082005
10.72,0.0124647337003546,0.0015685221057835,0.2834163820147992
10.72999999999999,-0.0137961889422715,0.1260735495946422,0.2306816041650252
10.73999999999998,-0.0470428367034321,0.069480097173297,0.1691128210811937
10.75,-0.041016062559852,-0.0152031992383961,0.1268691224987676
10.759999999999993,0.0246662976042029,-0.0328022693731341,0.0805632532878142
10.769999999999982,0.0460696463024596,-0.0440400068657237,0.0284420623272906
10.78,0.0292036027892822,-0.0021333878620663,0.0143947772225072
10.789999999999992,-0.0433431736635103,0.0321160871187912,0.0305064156966325
10.799999999999985,-0.097760720632104,0.0297829255586542,0.0384116239116982
10.810000000000002,-0.0567189908672486,0.0250740050479956,0.0355192992482706
10.819999999999991,-0.0118475648302029,0.0054764296101942,0.0425081441419176
10.829999999999984,0.0266821255747179,-0.0146736305269534,0.0440919230438357
10.840000000000003,0.0060793252846005,-0.0080364131101074,0.0302941120825679
10.849999999999994,-0.0270071936945023,0.000651546149057,0.0017078351585891
10.859999999999983,-0.0425595329528238,0.0246769276819271,-0.0062118707935936
10.870000000000005,-0.0414175039258859,0.0192036484265219,-0.00863239915135
10.879999999999995,-0.0179696224926079,-0.0009847085320026,-0.0073394731925173
10.889999999999986,-0.0036876337652976,-0.013911804064594,-0.000383953006563
10.899999999999975,-0.0166910664512346,-0.0150760921684941,0.0023252419374162
10.909999999999997,-0.0122436310601403,0.0045007551019673,0.0063301880667479
10.919999999999987,-0.0175054465394697,0.0127036117562529,0.0040290354830129
10.929999999999978,-0.0171862338010074,0.0123592394907194,0.0011313911124451
10.939999999999998,-0.0161736478966475,-0.0042040557778128,0.0056867885862985
10.949999999999989,0.002561862049848,-0.0040517462803418,0.0131842718505609
10.95999999999998,0.0016354941269736,-0.0037540332232327,0.0024375585142404
10.97,-0.0147157237813853,0.0018681124066497,-0.0110359979858343
10.97999999999999,-0.0291482060141076,0.0055942730847302,-0.0216486125724172
10.98999999999998,-0.0283873233018532,0.0061549442226043,-0.0222750157962884
11.0,-0.0181769269162075,-0.0018915487397098,-0.0209876694687768
11.009999999999993,-0.0135994731572232,0.0014109763534177,-0.0137095896893299
11.019999999999982,-0.0146775315233441,0.0087108609181789,-0.0159142742901185
11.03,-0.0191546786058633,0.0075578994777338,-0.01139511260627
11.039999999999992,-0.0168897123263186,0.0076156186197029,-0.0080822010237978
11.049999999999985,-0.0189051859466263,0.0095250803934559,-0.0102865177371776
11.060000000000002,-0.0115642714143405,0.0012604084718149,-0.0054365497873916
11.069999999999991,-0.0015134935347593,0.001798267408631,-0.0062214992548093
11.079999999999984,-0.0088051433809334,0.004909708208812,0.0007040366068175
11.090000000000003,-0.0169348427434409,-0.0006545676664105,0.002094328441784
11.099999999999994,-0.0183671510521845,0.0004892550721129,8.330712255679576e-05
11.109999999999983,-0.0187278353204392,0.0002594667206098,-0.0008546912379562
11.120000000000005,-0.0190784150574434,-0.0027101084239661,-0.0073799999562343
11.129999999999995,-0.0158972620987895,-0.0077660623014815,-0.0147901400571281
11.139999999999986,-0.0185875446775898,0.0009249407717809,-0.0177364878359585
11.149999999999975,-0.017606804777988,-0.0025475355090513,-0.022749519309528
11.159999999999997,-0.0174906261073688,0.007814439207069,-0.0215758439452442
11.169999999999987,-0.0169766004521037,0.0063689410901181,-0.0221315502551937
11.179999999999978,-0.0194106719547291,0.0053060342344514,-0.0138369241403331
11.189999999999998,-0.0156282010802655,0.0048018058995566,-0.0048647482978441
11.199999999999989,-0.0210223409308476,0.0022158636612464,0.0010291227750874
11.20999999999998,-0.0142088285079766,0.0058197365153326,0.001441753228243
11.22,-0.0162606312172312,0.0039592959225585,-0.0020053763516185
11.22999999999999,-0.0161984415537854,-0.0003516319362962,-0.0003077836948963
11.23999999999998,-0.0085422012736776,0.000361716160559,-0.0007783217015575
11.25,-0.0127543656232289,0.002143884409742,-0.0042025692515101
11.259999999999993,-0.0096684559880007,0.002851179038591,-0.0065467122165511
11.269999999999982,-0.017724702851722,-0.0077704111390682,-0.0090601648057381
11.28,-0.0214523356086146,-0.0057932835816314,-0.0097739420886692
11.289999999999992,-0.016878464751366,0.0044037378790564,-0.014432624187191
11.299999999999985,-0.0165148769847045,0.0028525043683115,-0.018569499212399
11.310000000000002,-0.0173421894974626,0.0018005108249475,-0.0190606636821877
11.319999999999991,-0.0191598539660141,-9.689291410259412e-05,-0.0190695847958549
11.329999999999984,-0.0169554997786287,0.0026480333183316,-0.0193289127594394
11.340000000000003,-0.0185531660370111,0.0056125746285373,-0.0175028767370409
11.349999999999994,-0.0169661761762358,0.0049126294526203,-0.0069323118109828
11.359999999999983,-0.0169557821814194,0.002760226120838,0.0021156328353834
11.370000000000005,-0.0166226250346742,0.0072538128822858,0.0042153046768055
11.379999999999995,-0.0118400598743578,0.0053033028948726,0.0121747891864746
11.389999999999986,-0.0126513329420929,0.0067814237475687,0.0124301747025322
11.399999999999975,-0.0185864439958553,0.0107109145875506,0.0049946379854268
11.409999999999997,-0.0134796720832571,0.0062819666098876,0.0090020427653158
11.419999999999987,-0.0125071571408205,0.0019741942746405,-0.0012733905628659
11.429999999999978,-0.0172260719180716,-0.0014474766894276,-0.0129339036411238
11.439999999999998,-0.0172823577204905,0.002031784815046,-0.0203709728093126
11.449999999999989,-0.0228228614886308,-0.0030852628882591,-0.0311290017601472
11.45999999999998,-0.0208384454614039,-0.0007124631187121,-0.0310975923590085
