time,Gyr_X,Gyr_Y,Gyr_Z
0.0,-0.0392435645691538,0.1546932081828231,0.0230038926018567
0.0100000000000051,-0.0374106519578029,0.1545966952499858,0.0277624246339877
0.019999999999996,-0.0231949878712727,0.1540554095953386,0.0274802015442957
0.0300000000000011,-0.0127607887916886,0.1518479679248188,0.0360286723923239
0.0400000000000062,-0.0168920108642891,0.1590329771866697,0.0334709366123114
0.0499999999999971,-0.0111786144693054,0.1632817754545099,0.0328947262476115
0.0600000000000022,-0.0112305620415564,0.1550509501994938,0.0287448567346725
0.0700000000000073,-0.007193011016446,0.1576001064895753,0.0263841534025322
0.0799999999999983,-0.0126423052836961,0.1597704573357114,0.0273637508113016
0.0900000000000034,-0.018777377348649,0.1481781734153323,0.0252047431929239
0.1000000000000085,-0.0333155927821353,0.1425862483452432,0.0241532652727071
0.1099999999999994,-0.0400006577121095,0.1368859454699917,0.0214518263790184
0.1200000000000045,-0.0390287607257238,0.1342907171164373,0.0200504139501127
0.1299999999999954,-0.0370348081409728,0.1234868078448894,0.0260875059830308
0.1400000000000005,-0.023027522264739,0.1178186115214793,0.0185584295924628
0.1500000000000056,-0.0225235249934133,0.1091954401028512,0.0240630956396543
0.1599999999999966,-0.0162437525524603,0.0922477490171104,0.028348287306738
0.1700000000000017,-0.0220030191196861,0.080856705449488,0.0197196441784094
0.1800000000000068,-0.0204857890323536,0.0707734348589244,0.0280204268262959
0.1899999999999977,-0.0295357059390315,0.0572480739406364,0.021386525340387
0.2000000000000028,-0.0333450548060209,0.0470426742204406,0.0193226114053499
0.2100000000000079,-0.035657343782718,0.0318649644098157,0.0148061322600894
0.2199999999999988,-0.0247143442820514,0.0146335942574416,0.0140143618283108
0.2300000000000039,-0.0221190950886996,-0.0021722932978133,0.0099097596685115
0.2400000000000091,-0.0311822162311785,-0.0016049496653404,0.003733469384758
0.25,-0.0267783118828225,-0.0101482486175961,0.001446743278727
0.2600000000000051,-0.0187434959747098,-0.009813629701107,-0.0083249461138767
0.269999999999996,-0.0187483099708685,-0.0164667515431364,-0.0101201528861848
0.2800000000000011,-0.0236258233618446,-0.0252020653655147,-0.0175935631484176
0.2900000000000062,-0.0155464984052566,-0.0261627827157769,-0.0213108001400103
0.2999999999999971,-0.0060770601045824,-0.0258628044940525,-0.0202326894156159
0.3100000000000023,0.0023129305413141,-0.0167480457924988,-0.0214467149847678
0.3200000000000074,0.0087772198529583,-0.0246408196190079,-0.0220357045879855
0.3299999999999983,0.0119244205721528,-0.0221883608389016,-0.0249745960262636
0.3400000000000034,0.0176444950567621,-0.0232597517310759,-0.028672185966813
0.3500000000000085,0.030137763499986,-0.0210073549984331,-0.0222816138400392
0.3599999999999994,0.0297402345589254,-0.0168146238905018,-0.0275325343794826
0.3700000000000045,0.025987988413266,-0.0142589163355237,-0.0311997894888077
0.3799999999999954,0.0333018499161626,-0.0015702881358755,-0.0269538713155368
0.3900000000000005,0.0188318115446176,0.0059462010814793,-0.0339104823802425
0.4000000000000057,0.0145451795273074,0.0193836404482422,-0.0363602111862797
0.4099999999999966,0.0147071282686254,0.0169505960887383,-0.037584348949786
0.4200000000000017,0.018373697706544,0.0229105989404907,-0.0429278619444812
0.4300000000000068,0.0176575872031714,0.0290154102411784,-0.0460287778342525
0.4399999999999977,0.0240483020092736,0.0264608902750849,-0.0492789749153599
0.4500000000000028,0.0167415706816687,0.0305738724749227,-0.0508048355542009
0.4600000000000079,0.0136860670266898,0.041515474936122,-0.0576301348395355
0.4699999999999988,0.0203967855751106,0.0280855746275392,-0.0569759674137284
0.480000000000004,0.0175761490865423,0.0329293019700988,-0.0570557068413686
0.4900000000000091,0.0226780645488627,0.0318404073108591,-0.0529735717431659
0.5,0.0191927074555068,0.0270589628776102,-0.0575445837189954
0.5100000000000051,0.0256571333977436,0.0363536220865988,-0.0495676061513733
0.519999999999996,0.0291052378061006,0.0310166514312144,-0.0489338198989145
0.5300000000000011,0.0293301109303583,0.0256502857445453,-0.041375635024515
0.5400000000000063,0.0277044258413765,0.0232185633215507,-0.0391401025670433
0.5499999999999972,0.0283080343231546,0.0303305326889067,-0.0378651421898681
0.5600000000000023,0.0229895108114325,0.0186648545441315,-0.0318362722229655
0.5700000000000074,0.0225333384515362,0.0195780073917012,-0.0335922103579642
0.5799999999999983,0.0143556194505897,0.0125381260721819,-0.0327152366702964
0.5900000000000034,0.0071984728318484,0.009223966751676,-0.0331675377197613
0.6000000000000085,0.0165842294228519,0.01293476629047,-0.0332724082390386
0.6099999999999994,0.0126829472621808,0.0119583835738585,-0.0329874460237624
0.6200000000000045,0.0144648794647367,0.0157384396678546,-0.0368411458526023
0.6299999999999955,0.0139630192307314,0.010563884775608,-0.0397910136305544
0.6400000000000006,0.0079442267951991,0.0161182945809489,-0.0413362138151468
0.6500000000000057,0.007397847734048,0.012341518500778,-0.047792139138106
0.6599999999999966,-0.0006853973072939,-0.0001397535872458,-0.0507245966658072
0.6700000000000017,-0.0058475395842874,-0.0043050906477514,-0.0570287094173347
0.6800000000000068,-0.0027617623582368,-0.004677640962079,-0.0620834057659419
0.6899999999999977,-0.0100246364625088,-0.0093047076770343,-0.0617559488300291
0.7000000000000028,-0.0155982694709041,-0.0170894269632085,-0.0686284057696043
0.710000000000008,-0.0171003944102329,-0.0217595357427908,-0.0637435359220168
0.7199999999999989,-0.0143475339791361,-0.0284079402682784,-0.0615463268693643
0.730000000000004,-0.009554023712632,-0.0245098815356308,-0.0680106538308116
0.7400000000000091,-0.001476654369438,-0.0273166612665086,-0.0667227991790405
0.75,-0.0082016773845648,-0.0322067014909261,-0.0604456457287225
0.7600000000000051,-0.0129408239728861,-0.0295524010234289,-0.0603718601759367
0.769999999999996,-0.0050069904724044,-0.032290597097625,-0.0604134384216924
0.7800000000000011,-0.0195513638694551,-0.0399327380646021,-0.0569649312839818
0.7900000000000063,-0.0172693728664535,-0.0318497842903704,-0.0564724624922506
0.7999999999999972,-0.0250433807895653,-0.0326806796116255,-0.0585419281133984
0.8100000000000023,-0.0222176392570876,-0.0349092860336646,-0.0612688227543245
0.8200000000000074,-0.0236680076219628,-0.0331499206739469,-0.0679942097533494
0.8299999999999983,-0.0246248238551552,-0.0314408951347853,-0.0797836018937694
0.8400000000000034,-0.0172198760016156,-0.0286539509947572,-0.0759281116476879
0.8500000000000085,-0.0189833992045156,-0.0224463735026729,-0.0761421940587905
0.8599999999999994,-0.0271419982144146,-0.01927583925807,-0.0767921888388511
0.8700000000000045,-0.0244488081010253,-0.0233918117092497,-0.0813171904611066
0.8799999999999955,-0.0279383009434808,-0.0143040981430077,-0.0817162892100213
0.8900000000000006,-0.0376849879489197,-0.0147923540799908,-0.0803785695174541
0.9000000000000057,-0.0290522959505126,-0.0198687103060631,-0.0691030080771908
0.9099999999999966,-0.0290465910853028,-0.0123641123555525,-0.0652053468146028
0.9200000000000016,-0.0258294506531889,-0.0045957721700969,-0.0636238188920828
0.9300000000000068,-0.0207227986922317,0.0039429167007588,-0.0594130862175169
0.9399999999999976,-0.026909947017222,-0.0030962146910709,-0.0539478092258818
0.9500000000000028,-0.0317189879221454,-0.00660967595276,-0.056126502178399
0.960000000000008,-0.0190216910425399,-0.0036537081967688,-0.0477898097068257
0.9699999999999988,-0.0213966490192225,-0.0057736326599091,-0.0408808043842082
0.980000000000004,-0.0250259270569995,0.0029299897027088,-0.0460239005063666
0.9900000000000092,-0.020513044169851,0.0027072673013579,-0.0433785532638168
1.0,-0.0218762580280033,0.0001262794258138,-0.0403495142052152
1.0100000000000051,-0.020741790484174,0.0039869035828258,-0.0447004313866665
1.019999999999996,-0.0304404553134396,0.005977966911313,-0.0468743147782764
1.0300000000000011,-0.0372222237202005,0.0117012170184689,-0.0501960552023155
1.0400000000000065,-0.0381953942632341,0.00776560814294,-0.0588379536579034
1.0499999999999972,-0.0355391355696335,0.0085841563597434,-0.0606754491877429
1.0600000000000025,-0.0382493400608451,0.006158471623551,-0.0608921342364777
1.0700000000000074,-0.0257795031784189,0.0093721741517601,-0.0644406437583843
1.0799999999999983,-0.0187729797357295,0.0111469962889954,-0.0715320023689813
1.0900000000000034,-0.0166534159963882,-0.0001734953639134,-0.0615912909617121
1.1000000000000083,-0.0138638991632488,0.0006527978251507,-0.0708797610975305
1.1099999999999994,0.0035879511747883,-0.0159685289579427,-0.0655306066707545
1.1200000000000043,0.0062087789585407,-0.019188432642945,-0.0686330584864037
1.1299999999999957,0.0049056644415292,-0.0249612578211184,-0.0711162197712251
1.1400000000000006,0.0008121494696295,-0.0331962383875274,-0.0724419327967611
1.1500000000000057,-0.0053676086731232,-0.0363373533722799,-0.0749463871030498
1.1599999999999966,-0.0153282093721244,-0.0379352169914062,-0.0843385949906705
1.1700000000000017,-0.0200900121647051,-0.0406091358935805,-0.0934191378312219
1.1800000000000068,-0.0156765914520002,-0.0514041345950971,-0.0977146283266825
1.1899999999999975,-0.0190209160137028,-0.0523124264447601,-0.1077661351762224
1.2000000000000028,-0.0105847529259959,-0.045040782770738,-0.1177343543812152
1.210000000000008,-0.0072636220603649,-0.0421094841496497,-0.1231269916545951
1.2199999999999989,0.0019377942854293,-0.0391659089806894,-0.1270782638352713
1.230000000000004,0.0061469145172264,-0.0402112769774979,-0.127777747411054
1.240000000000009,0.0038571774591812,-0.0485014829380698,-0.1352409559141767
1.25,0.0013772677894551,-0.0471035558683292,-0.1366903269888712
1.2600000000000051,0.001887866308218,-0.0460855294673871,-0.1384459850766169
1.269999999999996,0.0020666728089829,-0.0410143762613485,-0.1419544871217758
1.2800000000000011,0.004395030664743,-0.0445284208919645,-0.1463149545182399
1.2900000000000065,0.0050286486272273,-0.0494892352901623,-0.151843937981417
1.2999999999999972,0.0094879649148735,-0.0544574285126395,-0.1448175390704667
1.3100000000000025,0.0113822329709018,-0.0542681202885281,-0.1438727319663768
1.3200000000000074,0.0121258005996749,-0.0502490618387136,-0.1494320593091888
1.3299999999999983,0.0057829435258218,-0.0495411076463766,-0.1484491551687569
1.3400000000000034,0.0035700891490366,-0.0510396494834097,-0.1509180236067713
1.3500000000000083,0.0137561194200095,-0.0478082922150933,-0.1467546373523338
1.3599999999999994,0.0149291789526512,-0.0531665787468812,-0.1524003194035542
1.3700000000000043,0.0243758398554045,-0.0545179053558518,-0.1479367456305324
1.3799999999999957,0.0276678229432719,-0.0535876953110501,-0.1478313800353283
1.3900000000000006,0.0225357891234837,-0.0575757342120233,-0.1618912930169626
1.4000000000000057,0.0163630805000183,-0.0602564815467689,-0.162645696622303
1.4099999999999966,0.0143271291726113,-0.0599094582322858,-0.1628061820844945
1.4200000000000017,0.0221989019456989,-0.0579660646352983,-0.1621430082535022
1.4300000000000068,0.0152859208808571,-0.0603187484936323,-0.1634689865315759
1.4399999999999975,0.0153134287502473,-0.0630366918670973,-0.1669539529567629
1.4500000000000028,0.0126314913001177,-0.0581429405525647,-0.1603212915652177
1.460000000000008,0.0040294978934528,-0.0575880666785314,-0.1561138563486702
1.4699999999999989,0.0115488919106601,-0.0652294813709891,-0.1464674330404007
1.480000000000004,0.0003780840251988,-0.0618050180000778,-0.1450111515717189
1.490000000000009,-0.0071529779860736,-0.0636140734130819,-0.1356290564302071
1.5,-0.002231075209443,-0.0629226748554339,-0.1376914494087075
1.5100000000000051,-0.020048135243682,-0.0579281375882294,-0.1352004089767629
1.519999999999996,-0.0209497687316873,-0.0610975106919349,-0.1199654138730159
1.5300000000000011,-0.0223130887938045,-0.0697318219542825,-0.1149649099888719
1.5400000000000065,-0.0211141878974975,-0.074351168245473,-0.1107285913703585
1.5499999999999972,-0.0239262057092211,-0.0683481984381132,-0.0981866224030173
1.5600000000000025,-0.0320998936300065,-0.0742975680212416,-0.0941798624717849
1.5700000000000074,-0.0332525463085447,-0.0641018262578061,-0.0851511714638659
1.5799999999999983,-0.0333046663660064,-0.0641604943340121,-0.0778282274325418
1.5900000000000034,-0.0163385980552257,-0.0711948688263915,-0.0646749038417009
1.6000000000000083,-0.0287089621184705,-0.0629994694470437,-0.058526260631086
1.6099999999999994,-0.0313974935540479,-0.0596534855150444,-0.0554572643307195
1.6200000000000043,-0.0411593554418379,-0.0565057961670847,-0.0464405765824023
1.6299999999999957,-0.0476828119807812,-0.0494092979411371,-0.0450580202898172
1.6400000000000006,-0.0446057873224083,-0.0423536967804256,-0.0373368104161176
1.6500000000000057,-0.04770330890932,-0.0420380751345318,-0.0314451073726994
1.6599999999999966,-0.0425873448828886,-0.0387346095095173,-0.033322746054354
1.6700000000000017,-0.0494392145471684,-0.0308486862759749,-0.0261700243489087
1.6800000000000068,-0.0534845892792505,-0.0264673559924905,-0.0231090136138276
1.6899999999999975,-0.048578058415817,-0.0180511026069024,-0.0178583873757143
1.7000000000000028,-0.061478231835676,-0.0053250179624956,-0.0090812959399542
1.710000000000008,-0.0550701233846536,-0.0014778251759437,-0.0081385030421903
1.7199999999999989,-0.0448797824803719,-0.0034241269568054,-0.000549156569004
1.730000000000004,-0.0428142444997226,0.0124394813827724,0.0069831810702676
1.740000000000009,-0.0448489436139027,0.0132357741589711,0.0059868395286763
1.75,-0.0454528966640041,0.01204264939335,0.0066754846010402
1.7600000000000051,-0.0444446959621433,0.0305314519836122,0.0083784523389136
1.769999999999996,-0.0516064491761562,0.0317788782373379,0.0123885472869703
1.7800000000000011,-0.0553429318416216,0.0328937727137741,0.0181672330163633
1.7900000000000065,-0.061249785889739,0.034773803964884,0.0218728258862357
1.7999999999999972,-0.0661759099426817,0.0412587191686616,0.0271852677642723
1.8100000000000025,-0.0733595581541469,0.0401659621391122,0.0268025994660172
1.8200000000000076,-0.0870559959929657,0.047745689730018,0.0327419619994394
1.8299999999999983,-0.0944459498484717,0.0470899585681528,0.0302043925073559
1.8400000000000036,-0.0949430261980283,0.0488379416858723,0.0347313359728928
1.8500000000000083,-0.0924093478824931,0.0509685172127324,0.0379232713962179
1.8599999999999997,-0.091046001046302,0.0459210216584717,0.0334171640045233
1.8700000000000043,-0.0755236727082149,0.0454767948854165,0.0307556674600236
1.8799999999999957,-0.0704560568794004,0.044399037542649,0.0327836980872996
1.8900000000000008,-0.0708817815146983,0.0359546402112379,0.0281745668079089
1.9000000000000057,-0.069162140898279,0.0315570520998722,0.01719751152519
1.9099999999999968,-0.0750538307757254,0.0366670701255225,0.0058939402187249
1.9200000000000017,-0.0767012058151917,0.0317374131287497,0.0058887012747447
1.9300000000000068,-0.0856236630333636,0.0272587421709799,-0.0056368514836515
1.9399999999999975,-0.0757807802155915,0.0198280303457596,-0.0051427602562707
1.9500000000000028,-0.0761540921822702,0.0167634766029267,-0.0044659789956307
1.960000000000008,-0.0752447978325526,0.0210943597336378,-0.0013259795864441
1.9699999999999989,-0.0677373674126927,0.0126280625930356,0.0021912836202869
1.980000000000004,-0.0634836065227582,0.0126460712869058,0.0038739867401224
1.990000000000009,-0.0565971765437717,0.0099024189319316,0.0064116864801511
2.0,-0.0426694150764608,0.0035458968744749,0.0147440965329417
2.010000000000005,-0.0332177649573921,0.0064062844444516,0.0151616308765997
2.019999999999996,-0.0287089915962912,-0.0001777225912142,0.0221650009715102
2.030000000000001,-0.0188690736008529,-0.0032051384122896,0.0380536974027177
2.0400000000000063,-0.0194062926822237,-0.0075414689967272,0.038778724248144
2.049999999999997,-0.0291526746228386,-0.0165083312848575,0.0375120074769143
2.0600000000000023,-0.0392263264326609,-0.019031646720319,0.0454458255064259
2.0700000000000074,-0.0346494004934121,-0.0269801396568059,0.0520052753236837
2.0799999999999983,-0.0340455822219404,-0.037619351997349,0.0590465651052329
2.0900000000000034,-0.0455963275065074,-0.0343245281422464,0.0586103457733929
2.1000000000000085,-0.0460942590834476,-0.0430670761251555,0.0586279792092493
2.1099999999999994,-0.0500607852518475,-0.0436569122164435,0.0558653598675024
2.1200000000000045,-0.0628763948355157,-0.0462127436755158,0.0580942474398434
2.1299999999999955,-0.07440339104589,-0.053371271501723,0.0566024548590177
2.140000000000001,-0.0802642657636196,-0.059171413955226,0.0459746711083531
2.1500000000000057,-0.0834384393304174,-0.0585240567071603,0.0514875379890552
2.1599999999999966,-0.0828911496031258,-0.0657377588312114,0.0475667434772
2.1700000000000017,-0.0712503945963441,-0.0635032978450797,0.0481018703160924
2.180000000000007,-0.0729989220670512,-0.0708019853877412,0.0521725308851
2.1899999999999977,-0.0698829912822089,-0.0703649467962253,0.0552772699684084
2.200000000000003,-0.0612095984338161,-0.0697456017560016,0.0554831989063123
2.210000000000008,-0.0482810267234454,-0.0753845085918958,0.0566375320051155
2.219999999999999,-0.0491461764547436,-0.0815133900447362,0.0630610865190907
2.230000000000004,-0.0520827570679542,-0.0785646525820672,0.0627978153513708
2.240000000000009,-0.0609607654500842,-0.0773453720323412,0.0559240437576546
2.25,-0.0662156976138925,-0.0911131989901598,0.0530258194183853
2.260000000000005,-0.0685847300979449,-0.0852798829227478,0.0480664413173232
2.269999999999996,-0.0649777347662566,-0.0771197970022817,0.0528875068787269
2.280000000000001,-0.0692779124082096,-0.0805195940863929,0.0615344595428679
2.2900000000000063,-0.0817989738888953,-0.0745881372619457,0.0540676237914181
2.299999999999997,-0.0890024005040231,-0.0774043864109088,0.0483758102232772
2.3100000000000023,-0.1015660924316344,-0.0766439144133722,0.0428736067191102
2.3200000000000074,-0.1163627972883317,-0.0703070455563159,0.0441738659357905
2.3299999999999983,-0.1228262879139713,-0.0647913255228925,0.0441545577474243
2.3400000000000034,-0.1160487640381234,-0.0583140304263821,0.0423540217790521
2.3500000000000085,-0.1122346939609894,-0.0604038749841279,0.0419537099615427
2.3599999999999994,-0.1163912223164402,-0.0488759068290441,0.0344763244797732
2.3700000000000045,-0.1244788358209498,-0.0481209926308031,0.0343305071547551
2.3799999999999955,-0.1283794911991333,-0.0395170272626093,0.0237908275959406
2.390000000000001,-0.1347209402258022,-0.0382736133576325,0.0173442068979142
2.4000000000000057,-0.1410877915220357,-0.0362107399904037,0.0111460957155725
2.4099999999999966,-0.1649755893005145,-0.0272979699919415,-0.0030638927759952
2.4200000000000017,-0.1758391110083152,-0.0209106522288056,-0.0084521000769587
2.430000000000007,-0.1847465650774448,-0.0087261586417942,-0.022639922223017
2.4399999999999977,-0.1957408965917261,0.004792001824849,-0.0338145405670141
2.450000000000003,-0.2038227572269414,0.0095801200243585,-0.0464473714008356
2.460000000000008,-0.2222040624139518,0.0174597261152372,-0.0577208359651731
2.469999999999999,-0.2293392628849718,0.0265592863600139,-0.0678216767365698
2.480000000000004,-0.231746459266786,0.0328845563962082,-0.0737616033592241
2.490000000000009,-0.2259555439989623,0.0474034493350836,-0.0718717211771318
2.5,-0.2156984370976067,0.052043379327016,-0.0732084341814409
2.510000000000005,-0.2017181177154845,0.0685318753808812,-0.077017688005757
2.519999999999996,-0.1862295945747752,0.0901733767476102,-0.0733507335195293
2.530000000000001,-0.1683544340050832,0.113448154882615,-0.0729128038861002
2.5400000000000063,-0.1514982506855597,0.1330918030664439,-0.0666708321239038
2.549999999999997,-0.1256661247746503,0.1532262960545662,-0.0638371482131331
2.5600000000000023,-0.0992156899137809,0.1705463956805598,-0.0565181131413122
2.5700000000000074,-0.0854864954370002,0.1985858175959915,-0.058587520508125
2.5799999999999983,-0.0805669593779085,0.2155659394069543,-0.068832037476071
2.5900000000000034,-0.0747109508367212,0.2321767164336836,-0.0741439500276871
2.6000000000000085,-0.0736277703659667,0.2457552695831888,-0.0899818770807841
2.6099999999999994,-0.0936595519131123,0.256416496381376,-0.1012966230415576
2.6200000000000045,-0.0912242549135027,0.2610773943082854,-0.1142992691479991
2.6299999999999955,-0.0985870444443113,0.2586572164531334,-0.1269209251674458
2.640000000000001,-0.0945507455316481,0.2527528205673123,-0.1399833882682945
2.6500000000000057,-0.0998659557093454,0.2348369898739255,-0.1452034603457477
2.6599999999999966,-0.0834205436503825,0.225772441607271,-0.1446961364842919
2.6700000000000017,-0.0678287057227363,0.2077351913290483,-0.1570036016386646
2.680000000000007,-0.0455424051342751,0.194057903362318,-0.1652085510159655
2.6899999999999977,-0.0224081428835216,0.1783562921585005,-0.1669031521374825
2.700000000000003,-0.0207240587063058,0.1826658035145372,-0.1781610399265392
2.710000000000008,-0.014364913069616,0.1781764893528143,-0.1982421979413089
2.719999999999999,-0.0083136545534861,0.1846174166798607,-0.210163143252732
2.730000000000004,-0.0121766462918058,0.1983529936553896,-0.2243491893574593
2.740000000000009,0.0056545176059001,0.2157998918710911,-0.2369095232007215
2.75,0.0075654322334386,0.2334678022685312,-0.2600015555452094
2.760000000000005,0.0243000161420426,0.2403740684731301,-0.2655302132620664
2.769999999999996,0.0368031947426606,0.2440717985764774,-0.2675086552313757
2.780000000000001,0.0439293523357807,0.2413643302772343,-0.2596225982140929
2.7900000000000063,0.055563364164248,0.2357811171717032,-0.2511284643572686
2.799999999999997,0.0592645722327165,0.2321339376342533,-0.2559281382070416
2.8100000000000023,0.0600989160934435,0.2417002975592256,-0.2495822198882728
2.8200000000000074,0.0562965857259617,0.2474009885324556,-0.2531818858795077
2.8299999999999983,0.0572496721494864,0.2444327421567581,-0.2635899458668234
2.8400000000000034,0.0557709993841341,0.2519556293948214,-0.262778241314516
2.8500000000000085,0.0698032933720003,0.2503507114191156,-0.263830533690125
2.8599999999999994,0.08577300019377,0.2506830688324596,-0.2575025295469499
2.8700000000000045,0.0988627643713903,0.2518415040355017,-0.238451916167618
2.8799999999999955,0.1236470228098384,0.24488409547456,-0.222199974078788
2.890000000000001,0.087882345535483,0.2574406232957917,-0.1829768103415519
2.9000000000000057,0.1167656784422989,0.2857561329044907,-0.158674202564289
2.9099999999999966,0.1766581364260532,0.2967885761722666,-0.1744909543354796
2.9200000000000017,0.1803455708537128,0.305492314472871,-0.2022007316233946
2.930000000000007,0.1745613498890124,0.3190955393472502,-0.2463720231482921
2.9399999999999977,0.1784657549400415,0.3028715406023932,-0.2687100785389472
2.950000000000003,0.1916067481940886,0.3024800402984325,-0.2975246118654124
2.960000000000008,0.199922370204179,0.2783143716156422,-0.3289955550263164
2.969999999999999,0.2031693252497528,0.2466671346967792,-0.3405647307695854
2.980000000000004,0.1986826918564893,0.2097357591709815,-0.3387179752662213
2.990000000000009,0.2015481664499003,0.1505759453455747,-0.3251638081597994
3.0,0.1751730461692238,0.1075345800817886,-0.3190815570282632
3.010000000000005,0.142568676021878,0.0516965716570512,-0.3022629945521586
3.019999999999996,0.112673575256598,-0.0063561361378523,-0.2840292886666446
3.030000000000001,0.0767008787694946,-0.0678548768479197,-0.266949894981223
3.0400000000000063,0.0383620516920321,-0.1275109900069409,-0.2556376180810016
3.049999999999997,0.0006075551568682,-0.1808705385538712,-0.2493302584698647
3.0600000000000023,-0.0325360260003716,-0.2448260947484365,-0.240889888071229
3.0700000000000074,-0.0834550332488586,-0.307166019592906,-0.2420139057558844
3.0799999999999983,-0.1095480222178709,-0.3537065645682017,-0.2419190515920991
3.0900000000000034,-0.1236682844283383,-0.4017484928155639,-0.2389372425162877
3.1000000000000085,-0.1365344789548161,-0.4461863959163942,-0.254225484931184
3.1099999999999994,-0.139070044907007,-0.4814793951401162,-0.2647215323321945
3.1200000000000045,-0.152351330043569,-0.5211942520573732,-0.2762709149069867
3.1299999999999955,-0.1481397204411263,-0.5600028786368197,-0.2911566182163159
3.140000000000001,-0.1138682335206559,-0.5960392792621975,-0.2849016820809262
3.1500000000000057,-0.0765841328006895,-0.6497244347857276,-0.2877503819231968
3.1599999999999966,-0.1142471837621447,-0.7240288929565816,-0.2886305155491923
3.1700000000000017,-0.1501721532177756,-0.802712727993498,-0.273803681364887
3.180000000000007,-0.1611843783045526,-0.8641883222563151,-0.2638284999065596
3.1899999999999977,-0.1940147128679588,-0.8902093209354245,-0.2527057915750722
3.200000000000003,-0.2106372958428531,-0.8837203764770095,-0.2676645287329158
3.210000000000008,-0.2005355866909014,-0.8311005374541686,-0.2842763773290959
3.219999999999999,-0.1735531943653684,-0.764175240718947,-0.2984076346472405
3.230000000000004,-0.147267209350648,-0.6740415805125449,-0.3039809473342748
3.240000000000009,-0.1142967585470375,-0.5726312609710387,-0.2947065218590161
3.25,-0.0897212187366917,-0.4518620547142274,-0.2740764303355503
3.260000000000005,-0.0846721332108412,-0.320110617115394,-0.254342874818479
3.269999999999996,-0.0908208536251009,-0.1936873530606914,-0.2198441508588424
3.280000000000001,-0.101744102716865,-0.0708051248086708,-0.1964407205579011
3.2900000000000063,-0.1012604060153907,0.0367267435512328,-0.1830389442848486
3.299999999999997,-0.1025717180578562,0.1248071683016932,-0.1702524195066102
3.3100000000000023,-0.116806985616289,0.2003295221147127,-0.1611779803134308
3.3200000000000074,-0.131624636658773,0.2620379291760246,-0.1610672396363631
3.3299999999999983,-0.1551444066837215,0.3031105363473718,-0.1745008482973997
3.3400000000000034,-0.1675064005720751,0.3459991066481528,-0.1852801489520151
3.3500000000000085,-0.1387937491739519,0.3753121642557354,-0.1767303444255822
3.3599999999999994,-0.102053624684754,0.3815693007661688,-0.1548764549081464
3.3700000000000045,-0.0758176149796523,0.3799716282056078,-0.1232873140100783
3.3799999999999955,-0.0451961522145094,0.3511644021941986,-0.0667881752720529
3.390000000000001,0.0034858335517619,0.3180448148965983,-0.0344532875287601
3.4000000000000057,0.0274259607085994,0.277427465852021,-0.0201182738298412
3.4099999999999966,-0.0211553861930894,0.2247413136354887,-0.0048416892610588
3.4200000000000017,-0.0411097071313928,0.1659253222500629,0.0105303660010302
3.430000000000007,-0.0434366050192052,0.1136495121606957,0.0414581522081355
3.4399999999999977,-0.019693242948065,0.0656770036093732,0.0687347814028254
3.450000000000003,0.0095931979093841,0.0245281668917639,0.1037083196185293
3.460000000000008,0.0448419497222224,-0.0194153184440776,0.1499257812903562
3.469999999999999,0.0913439745773181,-0.0722163518729764,0.1982026089611362
3.480000000000004,0.1028034633237436,-0.1247215200804836,0.2448215837520794
3.490000000000009,0.1220197924447467,-0.1768710882931717,0.2740935693910793
3.5,0.1393401375356749,-0.2300218765621162,0.2930827511119719
3.510000000000005,0.1668178782951565,-0.2657225951482074,0.3114436038708371
3.519999999999996,0.2030231191687917,-0.2951068232375904,0.3337351249260551
3.530000000000001,0.2206032595182681,-0.305959302114404,0.348801193616971
3.5400000000000063,0.2247778908137208,-0.3053713684847938,0.3641780751445464
3.549999999999997,0.2076337890564377,-0.2750677533409684,0.3693996673842562
3.5600000000000023,0.1734451621428416,-0.2397515777585688,0.3722390402804395
3.5700000000000074,0.1322451490945629,-0.2015310165050454,0.3736469596612801
3.5799999999999983,0.0863017821783963,-0.1267180921693362,0.3655466750848833
3.5900000000000034,0.0194241420544625,-0.060905076636385,0.354057184073849
3.6000000000000085,-0.0449619104821875,0.0220875410046646,0.345114199767262
3.61,-0.0961856632909634,0.1120253743486008,0.3288768241819778
3.620000000000005,-0.1261030170397986,0.2218617857550816,0.3052635744376529
3.629999999999996,-0.1303534889469794,0.3284342058155463,0.2799364775069762
3.640000000000001,-0.1179201331779245,0.4375252852340575,0.2647097985919979
3.6500000000000057,-0.1047001910566142,0.5310548886134688,0.2583844077314145
3.6599999999999966,-0.0894239279594591,0.5839059081451003,0.2644679228271812
3.6700000000000017,-0.0727324046827767,0.6301693321147619,0.2678282970286264
3.680000000000007,-0.0544525346462968,0.6493959565984738,0.2814499274013416
3.6899999999999977,-0.0457493572393236,0.6539286821138397,0.2682135399578741
3.700000000000003,-0.0280843875647143,0.6439564266373254,0.2410164311363916
3.710000000000008,-0.0147737529128404,0.6034206205272845,0.2073170645510125
3.719999999999999,-0.0102270068882428,0.5472644394363397,0.1682706722497802
3.730000000000004,-0.0149367019662487,0.4890015633321671,0.1301440407315468
3.740000000000009,-0.0213307405867926,0.409092994714741,0.0905167612766396
3.75,-0.030719466993391,0.3240990650939263,0.0576476142517035
3.760000000000005,-0.037718112805598,0.2381838766560634,0.0161415170936365
3.769999999999996,-0.0367166822707058,0.1531344211306499,-0.0250054996998111
3.780000000000001,-0.047477619532074,0.0525753685860505,-0.0551732538661505
3.7900000000000063,-0.0477182128050638,-0.036494345799156,-0.0821979149130236
3.799999999999997,-0.0486550411810991,-0.1213172601947937,-0.1016381143729694
3.8100000000000014,-0.0329873179033967,-0.1846210313372866,-0.1115499010280335
3.820000000000008,-0.0209221271960977,-0.2379766119657667,-0.1223049413107951
3.8299999999999983,0.0007007714743969,-0.2827764015207493,-0.126026401115682
3.8400000000000034,0.0144347988004097,-0.3288652249581776,-0.1320857900906928
3.850000000000009,0.0238782337619317,-0.3585165689482433,-0.139137311446435
3.86,0.0382168084773127,-0.3877978932663534,-0.1572501801217619
3.870000000000005,0.0508994093231567,-0.4089983702379904,-0.1701760853683249
3.879999999999996,0.048152154718654,-0.4086484505813287,-0.1898968204497729
3.890000000000001,0.0487497697387117,-0.4058624286173881,-0.2020495460521879
3.9000000000000057,0.0520489611966131,-0.3859625176855176,-0.2085463322855975
3.9099999999999966,0.0439837134585593,-0.3619431123535432,-0.2127696941201153
3.9200000000000017,0.0430728280097644,-0.315896593175502,-0.2041587005041994
3.930000000000007,0.0313989949891268,-0.2666066962282309,-0.1999204829660178
3.9399999999999977,0.0250730321017533,-0.2093473218495297,-0.1912344715663226
3.950000000000003,0.0190992317938787,-0.1429404623618611,-0.1787196234726035
3.960000000000008,0.0059614350065575,-0.0683336765177268,-0.1638583419340517
3.969999999999999,0.0034879749554,-0.0006286838028343,-0.1530601156133251
3.980000000000004,-0.008264450441698,0.0659204205865975,-0.1411585840437776
3.990000000000009,-0.0141412559774933,0.1276646031052642,-0.1253795234078917
4.0,-0.0152003085773517,0.1678541726793138,-0.1009121403578283
4.010000000000005,-0.0174601617032386,0.2043686954834701,-0.0790794259836957
4.019999999999996,-0.0043000789408703,0.2251372248529978,-0.0586229590959266
4.030000000000001,0.0034356642680645,0.2411173320048148,-0.0322118758229512
4.040000000000006,-0.0029232885826094,0.2352213982849094,-0.0056559259923406
4.049999999999997,-0.0141216957567406,0.2297700924095873,0.014551315084812
4.060000000000002,-0.0137021393199858,0.2157260006035109,0.0374566829237399
4.070000000000007,-0.0135497717857926,0.1982129145261413,0.0504132219162663
4.079999999999998,-0.0138123966691254,0.1736436230468333,0.0558131778914936
4.090000000000003,-0.0142064090334853,0.1496054776720447,0.0600710629763309
4.1000000000000085,-0.0157288803213621,0.1242193175997835,0.0639297188385649
4.109999999999999,-0.0014208584297978,0.0988071691028664,0.0694602066326352
4.1200000000000045,0.0095817077322644,0.0746666705203002,0.0792452498460564
4.129999999999996,0.0045869046139995,0.0495560567615697,0.0842267995879433
4.140000000000001,0.006238333249897,0.0278741794283748,0.0811265497240249
4.150000000000006,0.0028469827709613,0.0341631922403671,0.0811802391250068
4.159999999999997,-0.0137221121089793,0.0109561000501991,0.0720930526077599
4.170000000000002,-0.0302009110748684,-0.0121653573449628,0.0629983704447543
4.180000000000007,-0.0410144476929904,-0.0308019749334186,0.0488913464518344
4.189999999999998,-0.046948400126394,-0.0484579603483786,0.0401078864109409
4.200000000000003,-0.0420115565072176,-0.0698093433140693,0.0262676124722484
4.210000000000008,-0.0403131274693181,-0.0902660827756393,0.0107002659494904
4.219999999999999,-0.0276800075440349,-0.101378841804316,-0.0075288545086465
4.230000000000004,-0.0184947857517405,-0.1122115402735887,-0.0313732726696044
4.240000000000009,-0.0161113858859539,-0.1219517555999975,-0.0495172409025409
4.25,-0.0172436207338943,-0.1157831850271698,-0.0764576399407043
4.260000000000005,-0.0165765972990577,-0.1013026469064613,-0.1105209468515944
4.269999999999996,-0.0189508340757048,-0.0993014154534541,-0.1383459659388337
4.280000000000001,-0.0248407804360965,-0.0853137561246264,-0.1794146600734671
4.290000000000006,-0.025951233486395,-0.0802697094396998,-0.2321444731903133
4.299999999999997,-0.0241089187961452,-0.0726831012881092,-0.291524830595794
4.310000000000002,-0.031010318351963,-0.0611841961907552,-0.3590083460245732
4.320000000000007,-0.0349869958984457,-0.0563153275663222,-0.4327833610781377
4.329999999999998,-0.0390093554686538,-0.0416153192162413,-0.496122284054111
4.340000000000003,-0.0210796287687779,-0.0388555478714674,-0.5618786998282332
4.3500000000000085,0.0095103199705676,-0.0300617684409462,-0.6306325378625625
4.359999999999999,0.05659455156779,-0.0322500343441697,-0.7035558892266364
4.3700000000000045,0.0812937207909817,-0.0452196787893974,-0.7944860969266971
4.379999999999996,0.1067578211507109,-0.0578964906360559,-0.905118553764092
4.390000000000001,0.1076970142377739,-0.0792908672836247,-1.029719115600276
4.400000000000006,0.1078123865114794,-0.0962645315811042,-1.1682917624019002
4.409999999999997,0.1108685673988191,-0.1108554378436677,-1.3049240504184674
4.420000000000002,0.1178934443944397,-0.122756518603618,-1.4514173839457352
4.430000000000007,0.1456303560386939,-0.1328806701235278,-1.604869558331341
4.439999999999998,0.1692891589805525,-0.1256901786536083,-1.7763887436955843
4.450000000000003,0.1972822467718764,-0.1367722670193007,-1.9619402496005531
4.460000000000008,0.230174648102329,-0.1363171886452718,-2.160275573523671
4.469999999999999,0.251917258593619,-0.1326546245462941,-2.365804249544503
4.480000000000004,0.2630842142735114,-0.1268225695395269,-2.577089502222317
4.490000000000009,0.2697470656875242,-0.1206399128998152,-2.7917315258053965
4.5,0.2414059479218538,-0.1153771009770912,-3.0196679355764826
4.510000000000005,0.2168988694310927,-0.1003232983597615,-3.242734924094401
4.519999999999996,0.1921258489141581,-0.1022126197964954,-3.4665131528157347
4.530000000000001,0.1685970412850762,-0.0968007716734245,-3.6842279488100136
4.540000000000006,0.163932465955081,-0.0932126958705167,-3.9008980553611377
4.549999999999997,0.1766951099277142,-0.0823988811311743,-4.120378953191519
4.560000000000002,0.1722027027985733,-0.0553448201077655,-4.332917531060878
4.570000000000007,0.180189890163467,-0.0107467210822688,-4.535200011023685
4.579999999999998,0.1885394857005211,0.0483589951138894,-4.715874588156429
4.590000000000003,0.1700512566816653,0.1123583775456765,-4.895476035814646
4.6000000000000085,0.1358522563394678,0.1761805925335541,-5.045903782944824
4.609999999999999,0.0751324383502926,0.2345285132836603,-5.181488080669438
4.6200000000000045,0.0226575318459233,0.2862420908847348,-5.317938095630708
4.629999999999996,-0.0185530232674844,0.364653685511109,-5.455448946894392
4.640000000000001,-0.0341373686904919,0.4398606533784915,-5.581466617851882
4.650000000000006,-0.0434834854229999,0.5220314686784187,-5.671421281431108
4.659999999999997,-0.0392351276115378,0.6240600961936843,-5.731777430192654
4.670000000000002,-0.0292937741953686,0.7335148235306869,-5.743682994467876
4.680000000000007,-0.0084014092007722,0.8356876892205217,-5.718515776778727
4.689999999999998,0.0076073688178781,0.945030597143376,-5.665963169018254
4.700000000000003,0.0214883410390573,1.0578985720010905,-5.590759439372548
4.710000000000008,0.017180419382148,1.1726243100054523,-5.494250456368943
4.719999999999999,0.0059619292817368,1.271232620500802,-5.387194867388403
4.730000000000004,0.0118137778736507,1.3614630138668544,-5.25206214358712
4.740000000000009,0.015908130633135,1.4156066988165132,-5.081512867987223
4.75,0.0146608443390797,1.434593602645563,-4.882179318591
4.760000000000005,0.0136961471388586,1.4393362977546815,-4.670539124867368
4.769999999999996,0.0012560652826585,1.4178616204542829,-4.444946986190511
4.780000000000001,-0.0074743411414151,1.4017715845234109,-4.200767246681724
4.790000000000006,-0.0377962742681719,1.3694595958493463,-3.934642254673221
4.799999999999997,-0.0692587959460733,1.3220893919237446,-3.664165778837602
4.810000000000002,-0.0916514960108646,1.2520681008181596,-3.378331334914916
4.820000000000007,-0.1172358461385847,1.1674089775322976,-3.090493455904926
4.829999999999998,-0.1413969274073657,1.05685951087522,-2.811822030069054
4.840000000000003,-0.1797949910940394,0.9364176995818048,-2.527813760066281
4.8500000000000085,-0.1798145189448523,0.7926753488124234,-2.2497093246880104
4.859999999999999,-0.1347924624188506,0.6556326435700394,-1.965193134582928
4.8700000000000045,-0.0928920904898737,0.524800800256224,-1.6790631648842358
4.879999999999996,-0.0473090925636853,0.3997023248099904,-1.3865089449044632
4.890000000000001,-0.0073730762978408,0.2740712052414902,-1.0841171620706311
4.900000000000006,0.0425422006788323,0.1559085126201738,-0.7793805105560507
4.909999999999997,0.085673180874567,0.0366767776637872,-0.4942067835054348
4.920000000000002,0.1105043270832425,-0.0976795931461686,-0.2033527016752661
4.930000000000007,0.1270504920132668,-0.2177751505655918,0.0644230604680091
4.939999999999998,0.1411437339141084,-0.3248677669005734,0.3267820394591608
4.950000000000003,0.1653867449455693,-0.4195936417885823,0.5843087876044344
4.960000000000008,0.1853740789704188,-0.4757260221956229,0.8353782037384079
4.969999999999999,0.194720346242501,-0.5152861864944425,1.0842094582395991
4.980000000000004,0.1983581244202507,-0.5433178477836661,1.3326395348455111
4.990000000000009,0.1955327583258821,-0.547134774560729,1.58376849361347
5.0,0.1742242888372557,-0.5489877759986744,1.8312938408966717
5.010000000000005,0.1512568724628679,-0.5691967619590935,2.074272459008853
5.019999999999996,0.125286690687732,-0.593973913766954,2.3008070552542224
5.030000000000001,0.1073303429131159,-0.6210775603640571,2.5235835174984613
5.040000000000006,0.1040218439001937,-0.6594979295408421,2.720827814301401
5.049999999999997,0.089668030221348,-0.6984868713536942,2.9235210007018133
5.060000000000002,0.0798074293066039,-0.7215976199935553,3.118566589298449
5.070000000000007,0.0660505098906245,-0.7510556938597002,3.313422830852172
5.079999999999998,0.0541780278743045,-0.7697505638440441,3.509492603752104
5.090000000000003,0.0326277220857135,-0.7842174020121235,3.692820774158311
5.1000000000000085,-0.0166328144345795,-0.8050810990110198,3.8663176019980487
5.109999999999999,-0.0807597621547599,-0.8261696004001898,4.04968638013354
5.1200000000000045,-0.1620162297257805,-0.8529509296836143,4.21593334532893
5.129999999999996,-0.2295712458863957,-0.8826391051463914,4.386941649954943
5.140000000000001,-0.2920430872183265,-0.9176296842684684,4.540020834824454
5.150000000000006,-0.3444832229754263,-0.9485892043758676,4.682901770028928
5.159999999999997,-0.3909563996370997,-0.9757653266848104,4.835266834207051
5.170000000000002,-0.4346146789733041,-1.0063513480221482,4.983233172935679
5.180000000000007,-0.4874347433485245,-1.0298820517228753,5.1295865711534585
5.189999999999998,-0.5467634752741866,-1.0921467322348646,5.270188008984877
5.200000000000003,-0.5842676240536852,-1.184768201038624,5.398127653642961
5.210000000000008,-0.6117413653772306,-1.2750402188706125,5.514230237682336
5.219999999999999,-0.6080263767606943,-1.3823804355401816,5.628460582211391
5.230000000000004,-0.5774089417286681,-1.481620634257531,5.739053460237255
5.240000000000009,-0.5318529065182751,-1.544082515273859,5.836850484548027
5.25,-0.4862529391220362,-1.587456329025895,5.939959826260829
5.260000000000005,-0.4419762234504963,-1.6111946767393142,6.041217226641621
5.269999999999996,-0.4133349567111824,-1.6255681884887785,6.14099050052032
5.280000000000001,-0.3844066083033883,-1.6271555362794472,6.232713623497301
5.290000000000006,-0.37394284984511,-1.624873346667154,6.317275732225167
5.299999999999997,-0.3592708133701336,-1.606005130955955,6.3871693364429385
5.310000000000002,-0.3208189467327526,-1.5565940516497383,6.450582577862809
5.320000000000007,-0.2762079670572128,-1.4933428419059986,6.518453774977301
5.329999999999998,-0.2186411133452513,-1.3757289818846248,6.58382196401296
5.340000000000003,-0.1663009178634098,-1.235063709509875,6.653420653935356
5.3500000000000085,-0.1018991082454563,-1.0796017193835277,6.71936851217088
5.359999999999999,-0.0473865956243131,-0.9188721017580312,6.772557047345974
5.3700000000000045,-0.0087701849329231,-0.7558462211064048,6.804644607962958
5.379999999999996,0.0259112818010662,-0.6020686618704206,6.824525835841779
5.390000000000001,0.0292168025514022,-0.4382307954969328,6.842056976845159
5.400000000000006,0.0077171404927316,-0.279976308701634,6.853685758817805
5.409999999999997,-0.0043862614004284,-0.122402631959881,6.859672060743335
5.420000000000002,-0.0059949014887779,0.0199197900275629,6.860575304368621
5.430000000000007,-0.0180636066386778,0.138421955707511,6.86040430190004
5.439999999999998,-0.0277441038995789,0.2247785104184843,6.855028177325424
5.450000000000003,-0.0358562539973995,0.293297418855294,6.837433793868644
5.460000000000008,-0.043913217543383,0.3269151646943699,6.812176129945441
5.469999999999999,-0.0555496457476458,0.3368157337392916,6.779812223244024
5.480000000000004,-0.0864961098326882,0.3043870909596308,6.730130725155865
5.490000000000009,-0.1100370159338049,0.2478602817778669,6.656862720574583
5.5,-0.1365110085844199,0.1921837123140648,6.571658562803049
5.510000000000005,-0.1564699310692407,0.1312089386225271,6.463444029493998
5.519999999999996,-0.1665712588772294,0.0711306642487071,6.334396022360661
5.530000000000001,-0.1697888174376375,0.0120629627207293,6.191304561950925
5.540000000000006,-0.1614806048410609,-0.0403849727054451,6.029854666340779
5.549999999999997,-0.1080040035568432,-0.0805037985052977,5.860666717066681
5.560000000000002,-0.0287098473758649,-0.118598076220239,5.673368713121185
5.570000000000007,0.0504835165408702,-0.1562627721241301,5.482027825583536
5.579999999999998,0.1514921553638934,-0.1859308923274733,5.280296142618898
5.590000000000003,0.2378940037880382,-0.1981408664858472,5.053896967496296
5.6000000000000085,0.3073002500196565,-0.2081557516444205,4.822498507238385
5.609999999999999,0.3493692347126275,-0.200808273053182,4.57270324201022
5.6200000000000045,0.3729688249621778,-0.186219445442221,4.313621651492823
5.629999999999996,0.3903885521475276,-0.1659600244234331,4.043367366520683
5.640000000000001,0.4123788489737932,-0.1460407729571002,3.749335979796998
5.650000000000006,0.43574389035142,-0.139772822218187,3.4535232137655307
5.659999999999997,0.444410035544455,-0.1358479352460165,3.151459103252696
5.670000000000002,0.4342698329788328,-0.1265841335559698,2.840236920967671
5.680000000000007,0.4184770012452986,-0.1206581950509725,2.522323019382612
5.689999999999998,0.4004143137087146,-0.1143081261317204,2.183417528377736
5.700000000000003,0.3459843036363896,-0.0965062433446037,1.8421443505360864
5.710000000000008,0.2552900906047899,-0.0848840889258499,1.491748183961603
5.719999999999999,0.1507353993402876,-0.079185376285222,1.1342218336019023
5.730000000000004,0.0676693862222318,-0.0755393303367148,0.7708263191818643
5.740000000000009,0.0007083704127352,-0.0796416998269251,0.410589583602448
5.75,-0.0460154391732947,-0.0803015277151442,0.0389820203595217
5.760000000000005,-0.0498371943998201,-0.0841918703266356,-0.3342225068691002
5.769999999999996,-0.0559877006473741,-0.0961345481229488,-0.7188226750356351
5.780000000000001,-0.0570027741980668,-0.1102492096089323,-1.095845283739244
5.790000000000006,-0.0754519696156114,-0.1631615676949807,-1.4624684633207632
5.799999999999997,-0.1087878306832377,-0.211606279082563,-1.821846212745002
5.810000000000002,-0.1304865102203206,-0.2610297254575923,-2.162157369256413
5.820000000000007,-0.1491595752389457,-0.3068979981094338,-2.49546589577159
5.829999999999998,-0.140073506052719,-0.3506695737051335,-2.8279354240305032
5.840000000000003,-0.1235064374696292,-0.4025205712396058,-3.152400046787692
5.8500000000000085,-0.0908867226354546,-0.4375349739642654,-3.4653680931579065
5.859999999999999,-0.0299307961571407,-0.4924424289006166,-3.760682130894984
5.8700000000000045,0.0404936506302352,-0.5666617768183473,-4.041125690324488
5.879999999999996,0.0982252076940419,-0.6393167546259051,-4.292582692976173
5.890000000000001,0.1624774907050112,-0.7115572746248477,-4.524454045178965
5.900000000000006,0.2084462035318043,-0.7801471255427365,-4.754484556774411
5.909999999999997,0.2371233430544473,-0.8361528895602023,-4.981652257023069
5.920000000000002,0.2642376165824888,-0.8829149944141566,-5.200415790479153
5.930000000000007,0.2738181542694678,-0.9259570209133534,-5.4139175188620525
5.939999999999998,0.2696449204222535,-0.9491919135239466,-5.62099736130325
5.950000000000003,0.256794735532268,-0.9660657777671916,-5.8124528760021255
5.960000000000008,0.2294815753068545,-0.9769967267557572,-5.98739398539912
5.969999999999999,0.2060558145605188,-0.9812639102609734,-6.131800663191998
5.980000000000004,0.1962011458472695,-0.968978856561526,-6.263253560487335
5.990000000000009,0.2122658847416029,-0.9312928449043596,-6.381878656860563
6.0,0.2395011876305899,-0.8733209557876548,-6.481088638587041
6.010000000000005,0.269590090812843,-0.7919441701104014,-6.552549409080257
6.019999999999996,0.3057149873329051,-0.6957395650258924,-6.613508072193051
6.030000000000001,0.3299274661944458,-0.5922663591629076,-6.656931101574865
6.040000000000006,0.3413660201069545,-0.4853794499659012,-6.699583485527826
6.049999999999997,0.3457839631680623,-0.3824710168680225,-6.754777749588578
6.060000000000002,0.3358040724730033,-0.3008128443423711,-6.801467584029479
6.070000000000007,0.3130779257555517,-0.2352774139859734,-6.8591419915122085
6.079999999999998,0.2868584809422697,-0.1717178051410434,-6.91966747588236
6.090000000000003,0.2686494552654214,-0.1398577815412953,-6.965057915868862
6.1000000000000085,0.2737832041972089,-0.115987396662366,-7.000016995677423
6.109999999999999,0.2703657016578559,-0.0915311962622409,-7.021119776677073
6.1200000000000045,0.266374366341765,-0.0555905548580259,-7.029557378815498
6.129999999999996,0.2527937597180048,-0.0173312951680293,-7.014090164180674
6.140000000000001,0.2441083949486167,0.0270939808735598,-6.986543633601015
6.150000000000006,0.2466249033073154,0.0714538661424369,-6.959444049698672
6.159999999999997,0.2411689206579647,0.1260184662599769,-6.923931602822937
6.170000000000002,0.2214499924003839,0.1764392428780191,-6.883806676046338
6.180000000000007,0.1934012959629544,0.2403043861958426,-6.846633355998244
6.189999999999998,0.1716969007053649,0.3069793663358766,-6.798389009377874
6.200000000000003,0.1578404425249861,0.3773318938706237,-6.72658495056977
6.210000000000008,0.1537868991003886,0.4317643182348587,-6.639806942607931
6.219999999999999,0.1771885119424674,0.4859446542957798,-6.540154838725808
6.230000000000004,0.1930051511098955,0.5349366046897365,-6.4363580331398085
6.240000000000009,0.2280406890006669,0.5649116094094948,-6.328845562396213
6.25,0.2388795468272188,0.5856926528929913,-6.206244665747137
6.260000000000005,0.2734825735667101,0.586346313242472,-6.060598627547869
6.269999999999996,0.2991278317561512,0.5748149408098284,-5.901755166363199
6.280000000000001,0.3152888045956128,0.5419668331140828,-5.745988160541534
6.290000000000006,0.3223531346315227,0.5015213209426373,-5.586442547813693
6.299999999999997,0.307001934057472,0.4670271411115941,-5.424245939369726
6.310000000000002,0.2740004452969771,0.431340018008258,-5.259686333764708
6.320000000000007,0.2242625514920329,0.4118877777569566,-5.0963773791932185
6.329999999999998,0.1677620002293459,0.3853463494949293,-4.918188182335497
6.340000000000003,0.113710951992414,0.3734449700487434,-4.741675661499652
6.3500000000000085,0.0870377303946035,0.3564618405369585,-4.55054163586346
6.359999999999999,0.0720164995719,0.3558504545235422,-4.355229830052815
6.3700000000000045,0.0613839382203565,0.3638097396549141,-4.144389161483812
6.379999999999996,0.050258915965467,0.3711845207081423,-3.903297759434315
6.390000000000001,0.0370241972694939,0.3829608420562058,-3.646950695203963
6.400000000000006,0.0157397222248034,0.377108843720691,-3.3663484740542104
6.409999999999997,-0.0160617421255927,0.3655258632098361,-3.0745162462077538
6.420000000000002,-0.0457280179225323,0.3361487056835527,-2.7714164596002933
6.430000000000007,-0.0624123354502062,0.3052277656707437,-2.4511625796742704
6.439999999999998,-0.0604862869643324,0.2689981404818149,-2.115457380491949
6.450000000000003,-0.0458190766606772,0.2254870933248197,-1.7827863298469289
6.460000000000008,-0.0326870756572465,0.1744726632413197,-1.4434350085859062
6.469999999999999,-0.0339185676114534,0.124629658709544,-1.081446078180076
6.480000000000004,-0.0334371028215589,0.0659490452723099,-0.7007782772330083
6.490000000000009,-0.0377563650716661,0.0136504395438855,-0.3342926082558397
6.5,-0.0346264556065098,-0.024010286707043,0.0394326604241173
6.510000000000005,-0.027343343475522,-0.0659158382028754,0.4159312565124163
6.519999999999996,-0.0345863575794064,-0.1041657845887954,0.7799113405827203
6.530000000000001,-0.0439717019160912,-0.1481756648895161,1.1464412561329516
6.540000000000006,-0.0643697603716215,-0.2070350774773703,1.504221579851306
6.549999999999997,-0.0962072804676655,-0.2668066446876465,1.8464198420278055
6.560000000000002,-0.1210991773830585,-0.3347066906095243,2.1833300844564896
6.570000000000007,-0.1593188683126338,-0.3900539443396353,2.5147291297587837
6.579999999999998,-0.2072483554340534,-0.4320180189427338,2.830798658166806
6.590000000000003,-0.2372459514067391,-0.4821905537008679,3.1430775865425997
6.6000000000000085,-0.2648756716967408,-0.5284972080871639,3.4147843230825745
6.609999999999999,-0.3054311087927189,-0.57136142096702,3.688241633078664
6.6200000000000045,-0.3528051387522601,-0.6147781894899069,3.948853462071261
6.629999999999996,-0.3918025186272582,-0.6591407073878827,4.1925850893000405
6.640000000000001,-0.4319237647562126,-0.7218684246410974,4.412766443012749
6.650000000000006,-0.47186227719814,-0.78853886739077,4.612193264832965
6.659999999999997,-0.5156127010953583,-0.8600900682333038,4.81084725578309
6.670000000000002,-0.5695557107142288,-0.9373819782366772,4.9942550216318615
6.680000000000007,-0.6190587219257131,-1.0139945542832698,5.173534815303563
6.689999999999998,-0.6576710620832913,-1.0833647395897203,5.348015559514923
6.700000000000003,-0.6908356322120115,-1.1379261362292867,5.519204733495515
6.710000000000008,-0.7127469904094791,-1.184939479686537,5.677912638803222
6.719999999999999,-0.7278259733699863,-1.2195866739153511,5.819035307274005
6.730000000000004,-0.7434894633420575,-1.23892955855173,5.95325291422256
6.740000000000009,-0.7585882128139776,-1.252746817958064,6.070572257430192
6.75,-0.7773950121551552,-1.2680499775161835,6.183459383796962
6.760000000000005,-0.7830587208746799,-1.2706385420483015,6.285873499104482
6.769999999999996,-0.786506625797928,-1.2424583237589628,6.385492407454192
6.780000000000001,-0.7725773196219932,-1.2095723819387636,6.464693148425219
6.790000000000006,-0.7485777708969632,-1.1512042101909818,6.518519425048437
6.799999999999997,-0.7066239728586734,-1.099328940735665,6.5580852778160965
6.810000000000002,-0.6924340160448126,-1.040896226945511,6.588616071982955
6.820000000000007,-0.6702688746166879,-0.9767131983071782,6.632367041255113
6.829999999999998,-0.6565647835302341,-0.9100286899564328,6.661736740098507
6.840000000000003,-0.633101161823313,-0.8295639058042992,6.686362980128028
6.8500000000000085,-0.6032043992185565,-0.7365843314991776,6.700144651031573
6.859999999999999,-0.5620392100543217,-0.6371200296061478,6.701006907574503
6.8700000000000045,-0.5223055196611596,-0.5175164809310189,6.694985251814498
6.879999999999996,-0.516607360201252,-0.4005885703806298,6.67847646306657
6.890000000000001,-0.5093707285152282,-0.286561753824936,6.654845362156278
6.900000000000006,-0.5030139597140594,-0.1626852989937572,6.632217087673658
6.909999999999997,-0.5142424700267338,-0.0516258473398277,6.611511504523573
6.920000000000002,-0.5411187217081584,0.060972679349597,6.598325761697653
6.930000000000007,-0.5639975256806391,0.1679628664801224,6.565513942408191
6.939999999999998,-0.5766440452987505,0.2529582081890306,6.51397970985423
6.950000000000003,-0.5807184931230234,0.3212302195605254,6.474386472644532
6.960000000000008,-0.6016286257228748,0.371339291565444,6.428642048223973
6.969999999999999,-0.6421874994235126,0.4080776013571589,6.363669035094179
6.980000000000004,-0.6611542012742273,0.4331390642225723,6.279914889261787
6.990000000000009,-0.6589134265826574,0.4327362945197253,6.178825164858536
7.0,-0.6356707170897382,0.4169129604880455,6.064630507244018
7.010000000000005,-0.6069442319316009,0.3737304600920496,5.948891684745937
7.019999999999996,-0.5786533762391063,0.3398405821431758,5.8181795633733255
7.030000000000001,-0.5710553163602222,0.2855389367165235,5.667901106359531
7.040000000000006,-0.5515270975370179,0.2385639317972606,5.498961590857851
7.049999999999997,-0.5369093562044275,0.1737434289971104,5.310556208443158
7.060000000000002,-0.5237747235709304,0.107750846700606,5.093895673839246
7.070000000000007,-0.4854611941162801,0.0377626513723358,4.851600573518008
7.079999999999998,-0.4380292867350275,-0.0275703690735847,4.597983194259489
7.090000000000003,-0.3638749104411721,-0.0818833601593305,4.322557443821494
7.1000000000000085,-0.2824867312915115,-0.107630525836844,4.0440106151837565
7.109999999999999,-0.2018172308938084,-0.1156389203069751,3.755432523925096
7.1200000000000045,-0.1399799006576929,-0.1298088424454873,3.43343908259622
7.129999999999996,-0.1123817728142783,-0.1252421254398992,3.0877791422028293
7.140000000000001,-0.1090167996967156,-0.1245885953144049,2.7224856943202607
7.150000000000006,-0.1070958430445921,-0.1283186204828264,2.341575813472301
7.159999999999997,-0.0875404498570439,-0.1263737422026557,1.9459176985120583
7.170000000000002,-0.0609433515642489,-0.1338689923445593,1.5436287921410978
7.180000000000007,-0.0346347621498874,-0.1451831918719125,1.1499804156788795
7.189999999999998,-0.0309641178858809,-0.1596514023436974,0.7424459415669268
7.200000000000003,-0.0379774482821538,-0.169114594564412,0.3340370788322829
7.210000000000008,-0.0619508623961398,-0.1749906152113773,-0.08595640368063
7.219999999999999,-0.0902451241532135,-0.1756586354555452,-0.4895409228616541
7.230000000000004,-0.1075702218395064,-0.1715236920744698,-0.8896928739278367
7.240000000000009,-0.1028163858291381,-0.1845377601051101,-1.2771257255168482
7.25,-0.0960722695366001,-0.1881146228651265,-1.6385693224313975
7.260000000000005,-0.0553547978659387,-0.2012823380903673,-2.0015065865111006
7.269999999999996,-0.0053488152810833,-0.2044235130659513,-2.3310117160963486
7.280000000000001,0.0573629918500696,-0.2193330862325322,-2.641515115250555
7.290000000000006,0.148057127580345,-0.2368368468422501,-2.92949914005197
7.299999999999997,0.2224864347158638,-0.2460636134776939,-3.203575224129235
7.310000000000002,0.281390469539254,-0.2694659824011602,-3.456103809731223
7.320000000000007,0.3327744365571229,-0.2823740318198053,-3.694450680570362
7.329999999999998,0.3831897975044859,-0.2841561043723907,-3.916939568399306
7.340000000000003,0.4305472487453128,-0.2870822724369735,-4.124438583783673
7.350000000000008,0.4923706484475009,-0.27232061642729,-4.306349899813619
7.359999999999999,0.5443062125422313,-0.2520316187772418,-4.492154718718445
7.370000000000003,0.5892805321458937,-0.2415664383443371,-4.6562708014631164
7.3799999999999955,0.6346084842707268,-0.2343687505999892,-4.81339140300555
7.390000000000001,0.6743466326608538,-0.2348112340555555,-4.9748227612361005
7.400000000000006,0.721533195402406,-0.2311835967133416,-5.132409267629553
7.409999999999997,0.7627349705323041,-0.2221426579158662,-5.282438706800114
7.420000000000002,0.8180455207233093,-0.2181827864824007,-5.417637284606316
7.430000000000007,0.8677700969650719,-0.1978171693393727,-5.54707594891828
7.439999999999998,0.9047299407857958,-0.1637930572146257,-5.66877777957124
7.450000000000003,0.9268215816653922,-0.1273585680392289,-5.785199663784737
7.460000000000008,0.9506064263120024,-0.0892274314748674,-5.903199307768161
7.469999999999999,0.9638184119469992,-0.0669147578569577,-6.0245959902078114
7.480000000000004,0.9537989970844364,-0.057132158421254,-6.152686270783709
7.490000000000009,0.9237869976694127,-0.071860396663362,-6.292243349126029
7.5,0.8911176232633294,-0.086070997806907,-6.421169287973692
7.510000000000005,0.8672114049876011,-0.0982393371485853,-6.543574089738498
7.519999999999996,0.8512621523903402,-0.1034983515639369,-6.651446879763416
7.530000000000001,0.8363658095476094,-0.095974604600595,-6.739175577715792
7.540000000000006,0.8172877734602425,-0.0668007543497059,-6.824820529729425
7.549999999999997,0.7849237707101432,-0.0208234766210469,-6.893023044675793
7.560000000000002,0.7536646106312734,0.0320094581798914,-6.949802261516665
7.570000000000007,0.7317843943239514,0.0880537599465319,-7.004408205201126
7.579999999999998,0.6946949600897938,0.1366762967735928,-7.039307793654798
7.590000000000003,0.6502058764342278,0.1711890559722023,-7.0552656289877165
7.600000000000008,0.6078302325188953,0.1799506608849295,-7.052051696306419
7.609999999999999,0.5525398599399832,0.1742987794941522,-7.052848915955402
7.620000000000003,0.4952236864585317,0.1900903308547802,-7.050831091296687
7.6299999999999955,0.4373415620081629,0.227078078449407,-7.039322386872038
7.640000000000001,0.3883447954294304,0.2849445360751062,-7.013174649303885
7.650000000000006,0.3618271719750466,0.3524908803204294,-6.964433825083297
7.659999999999997,0.3547181244369446,0.4081142993602504,-6.909459748585202
7.670000000000002,0.3724078122611318,0.4555982202079953,-6.8378435709807
7.680000000000007,0.3858969024605261,0.4919719464145702,-6.758574729988662
7.689999999999998,0.3898876374876037,0.5233968063247748,-6.6633454619544645
7.700000000000003,0.3834696804498831,0.5458350915686039,-6.56591118166882
7.710000000000008,0.3515681204482798,0.5459999784126868,-6.467310146889935
7.719999999999999,0.3096030540300817,0.554592487559992,-6.373617187141067
7.730000000000004,0.2607639066761489,0.5624184263747014,-6.269445249306633
7.740000000000009,0.2066920268567615,0.5698908447763309,-6.163894038228478
7.75,0.1620506900331646,0.5946851799007569,-6.058553394477834
7.760000000000005,0.1118306622455023,0.6059083264790815,-5.933283716815163
7.769999999999996,0.0627829093337562,0.6214898031475024,-5.781834722993912
7.780000000000001,0.0358204764759445,0.644880453375326,-5.613793748299026
7.790000000000006,0.0138878305970331,0.6588847207516452,-5.432748063041327
7.799999999999997,-0.010153619280808,0.6703951199016956,-5.235502704385959
7.810000000000002,-0.0302083391570709,0.666430337194545,-5.023516478799283
7.820000000000007,-0.0612673017440058,0.6673668914636104,-4.788112331640314
7.829999999999998,-0.0870567603038223,0.6580682973989703,-4.533444694466567
7.840000000000003,-0.1053289647468739,0.657331005956784,-4.256939055515016
7.850000000000008,-0.1131771070966875,0.6582088224045105,-3.945845289797016
7.859999999999999,-0.1245270551463339,0.6497656813541078,-3.62207314131008
7.870000000000003,-0.1447521723380866,0.6387205085198204,-3.27169244640014
7.8799999999999955,-0.1722853353241865,0.6199173476984741,-2.9137027690326294
7.890000000000001,-0.1750973488676778,0.5859941945076688,-2.547871904179036
7.900000000000006,-0.1753126569480057,0.524662127205546,-2.1682341316001783
7.909999999999997,-0.1826115854142217,0.45758736088384,-1.7834633765754335
7.920000000000002,-0.1704589725611476,0.379490853267144,-1.3817387247500876
7.930000000000007,-0.1438243319420372,0.3050759522839038,-0.9684953643626694
7.939999999999998,-0.1258238867536992,0.2270202457694555,-0.5529643463098067
7.950000000000003,-0.1209308862941145,0.1427848312444208,-0.1292529123626523
7.960000000000008,-0.1142523843744878,0.0589818454781334,0.2886243807435182
7.969999999999999,-0.1173304261091754,-0.0264413106453546,0.704233336317172
7.980000000000004,-0.1263795083801743,-0.129791479113345,1.117552997527286
7.990000000000009,-0.1269604188699579,-0.2256208691744657,1.5043177845998694
8.0,-0.1033399041960634,-0.3345496747967308,1.891944538751876
8.010000000000005,-0.0781997497041007,-0.4325210264158305,2.2630943394233167
8.019999999999996,-0.0709965390981359,-0.517117663314285,2.6059814957234857
8.030000000000001,-0.0683549344144655,-0.613972287350803,2.9262575009297147
8.040000000000006,-0.0810792244532502,-0.6890476659373695,3.2205826983339265
8.049999999999997,-0.1086794596737548,-0.7651314620994081,3.5057937218100323
8.060000000000002,-0.1383256924301457,-0.8240643812798006,3.764936021682579
8.070000000000007,-0.1677820401762861,-0.8807373243339097,4.014689944811309
8.079999999999998,-0.1891471593283727,-0.9416231928469811,4.234236452577475
8.090000000000003,-0.2145398379228198,-0.9972675710920118,4.436660849141589
8.100000000000009,-0.2598656627426521,-1.0425726254107082,4.613087509480496
8.11,-0.2924689185780813,-1.0889312566114313,4.790644401376127
8.120000000000005,-0.3210709135717438,-1.140526713365872,4.940769763276041
8.129999999999995,-0.3562292366383789,-1.1927648831179123,5.083898817364912
8.14,-0.3902345816262215,-1.2515581890190373,5.214032947463212
8.150000000000006,-0.4290526905550861,-1.3033214346724304,5.330277002487976
8.159999999999997,-0.4596397898570942,-1.3455336947329548,5.454753055961065
8.170000000000002,-0.5048725181795612,-1.3830827406915402,5.578601316398399
8.180000000000007,-0.5495027470724202,-1.4180593425725871,5.693280582380127
8.189999999999998,-0.5766178862351446,-1.4552138790318303,5.787908255637469
8.200000000000003,-0.5959945317855305,-1.4871700040098743,5.873602448611277
8.210000000000008,-0.6138486292245385,-1.5111055162390676,5.953166439773551
8.219999999999999,-0.6337603687761142,-1.5132084654193356,6.024203946575192
8.230000000000004,-0.6535468898379498,-1.510868576304143,6.091923196449978
8.240000000000009,-0.6679808925365555,-1.4746529309254384,6.140769210766457
8.25,-0.6586739728237445,-1.4338560690296491,6.182868767408174
8.260000000000005,-0.6473565563184808,-1.3997728022099316,6.233804086824718
8.269999999999996,-0.6285088318293371,-1.3734530119932318,6.266437986278513
8.280000000000001,-0.6233434064486348,-1.3400168162525536,6.293737653017242
8.290000000000006,-0.5982889540190002,-1.305502933159462,6.306051937072395
8.299999999999997,-0.5812894020630488,-1.2703586288312778,6.315656503282039
8.310000000000002,-0.5629116754781679,-1.2277111679352497,6.3184844264831215
8.320000000000007,-0.5357248251530412,-1.182828088386901,6.337861253091882
8.329999999999998,-0.4972723317245932,-1.133000084688712,6.349324813859465
8.340000000000003,-0.4558487933433827,-1.0768084702894547,6.350436428835051
8.350000000000009,-0.4377622846313196,-1.0259115918534405,6.32860568474415
8.36,-0.4331919896075111,-0.9520741909566492,6.2996216664717775
8.370000000000005,-0.4373753774995696,-0.8777921231098259,6.272317957885269
8.379999999999995,-0.4343500728837216,-0.7906126476557912,6.241740948927663
8.39,-0.4314668340183289,-0.7020642701305168,6.197917612013229
8.400000000000006,-0.4319432373298704,-0.6094920008291843,6.162089157643609
8.409999999999997,-0.4299328542388926,-0.5217126710290096,6.111887596081179
8.420000000000002,-0.4285599768927398,-0.4296201598640816,6.03842681093824
8.430000000000007,-0.4399804941705843,-0.3176508463461915,5.957822061893486
8.439999999999998,-0.4580597026631794,-0.2293881599940567,5.867031420097856
8.450000000000003,-0.4587978810391102,-0.1217081450963195,5.779976548412387
8.460000000000008,-0.4599695033018022,-0.0257315480256577,5.66690465315368
8.469999999999999,-0.4555664803777121,0.061438501168282,5.5533096032132745
8.480000000000004,-0.4535857054494385,0.1215533188355209,5.432295681235511
8.490000000000009,-0.455984434229964,0.1778012383090813,5.294944347594837
8.5,-0.4521519775096059,0.2080099300105901,5.147009560525777
8.510000000000005,-0.4477071158622114,0.2108118179255078,4.981137483782938
8.519999999999996,-0.4499734215077767,0.2065661181377051,4.801548321647999
8.530000000000001,-0.4433812030302751,0.1866987362279977,4.625590251629096
8.540000000000006,-0.4313378080446391,0.1517196510519813,4.443810354886074
8.549999999999997,-0.3988340457456514,0.0964208909245548,4.267473383056299
8.560000000000002,-0.3606205286627226,0.0578614607119978,4.0795385518163325
8.570000000000007,-0.3457743172024116,0.0068525584742195,3.875654698854276
8.579999999999998,-0.3316782703170156,-0.043710429762605,3.6633957233172327
8.590000000000003,-0.3101565489850151,-0.083223465203389,3.440868955853044
8.600000000000009,-0.3046727795544285,-0.1123934089751983,3.199185181669474
8.61,-0.2869965079070725,-0.1466296933624805,2.9411824251019425
8.620000000000005,-0.2792566731178432,-0.1779233984097107,2.6713546295444206
8.629999999999995,-0.251854208361926,-0.2031079769623679,2.3889530915050465
8.64,-0.2496129409033499,-0.2235759277512266,2.0942427280682425
8.650000000000006,-0.2498658762333691,-0.2330669573623995,1.7960089321965145
8.659999999999997,-0.2405988821360999,-0.2390876866169056,1.47824708234431
8.670000000000002,-0.2414701375535041,-0.2414529536707879,1.15364159883414
8.680000000000007,-0.2429672647912608,-0.2486634240441655,0.8355996435791323
8.689999999999998,-0.2346019408807458,-0.2555015305689647,0.5077059915568881
8.700000000000003,-0.2158435956729896,-0.2676952438854776,0.1765464308041796
8.710000000000008,-0.1925046631307492,-0.2808353409566208,-0.1567332134865319
8.719999999999999,-0.1670124212523913,-0.2944125025917664,-0.4743484929765512
8.730000000000004,-0.1330201089657086,-0.2955982583285066,-0.8059685360119717
8.740000000000009,-0.1133935779870463,-0.2962398182175467,-1.1221507703565627
8.75,-0.0830397800045943,-0.297372176286641,-1.4361911056388024
8.760000000000005,-0.0489710110427353,-0.299736709046361,-1.7416960804079762
8.769999999999996,-0.0143017115914444,-0.2935808001112067,-2.040299546419309
8.780000000000001,0.0417033750152312,-0.2958447876895839,-2.330714763593421
8.790000000000006,0.1125951121461487,-0.3053888692132874,-2.6115138320567874
8.799999999999997,0.1629473989216488,-0.3231141714920109,-2.890161133164154
8.810000000000002,0.2276538512400389,-0.3290266008936222,-3.148110822906442
8.820000000000007,0.2800002559424316,-0.3209686738499244,-3.4030623637118125
8.829999999999998,0.3513944503752713,-0.304657847707176,-3.64097004290218
8.840000000000003,0.4242697885497212,-0.2822012918261081,-3.858939096970397
8.850000000000009,0.5012159781790944,-0.2640557061284176,-4.061175681118717
8.86,0.571714569744529,-0.2292086442394113,-4.268379761177197
8.870000000000005,0.6166194394955282,-0.1885387843063883,-4.479016582429819
8.879999999999995,0.6502728622738448,-0.1327313376682046,-4.679082406994161
8.89,0.6582485650864289,-0.0659201348979582,-4.873232284491908
8.900000000000006,0.663057876476028,0.0067941483464259,-5.058909914958445
8.909999999999997,0.6788413246289033,0.0869660454905397,-5.222907623025089
8.920000000000002,0.7052672776233381,0.1505641246545873,-5.3798709128303495
8.930000000000007,0.7490208769191324,0.2044505937412451,-5.530358367527377
8.939999999999998,0.7908264187243369,0.2545196640267226,-5.672431075266915
8.950000000000003,0.8182094647010015,0.2965722452213378,-5.796831723690224
8.960000000000008,0.823854601046508,0.3238960907292652,-5.91467094350607
8.969999999999999,0.8063386933832646,0.3469096993852749,-6.03433865111631
8.980000000000004,0.7791814490364104,0.3733485032286971,-6.141581667791617
8.990000000000009,0.7297750369371703,0.4011509232644077,-6.239383044820721
9.0,0.6728532242865638,0.4337630933881879,-6.327321940621242
9.010000000000003,0.6123522265612136,0.476504417083924,-6.406840120846876
9.019999999999996,0.5497523821333474,0.5104617210613502,-6.477401271266722
9.03,0.5183078050408434,0.5486889494658967,-6.537876010714027
9.040000000000006,0.4862429884181199,0.5744138886394716,-6.581388083071797
9.049999999999995,0.4391537686504521,0.6019839373362422,-6.626187819453707
9.060000000000002,0.3924174915700989,0.6193783303345249,-6.648636302848236
9.070000000000007,0.3208099672621807,0.6401588666713839,-6.664169678476838
9.079999999999998,0.2542939884555017,0.6700911001736424,-6.681183855830263
9.090000000000003,0.1859364649452757,0.6939641741549711,-6.683374328116065
9.100000000000009,0.1321011346181631,0.7059998326305531,-6.687365511246145
9.11,0.0774295224945472,0.7317911421195726,-6.6880282429575
9.120000000000005,0.0293404185897932,0.7327572881561186,-6.682797663011904
9.129999999999995,-0.0074379599297651,0.750997588230354,-6.673832463172637
9.14,-0.063327686384294,0.7779002845524939,-6.659462601552665
9.150000000000006,-0.1043033577383318,0.8121345079362533,-6.639029929199267
9.159999999999997,-0.1465128842482393,0.8517704826724615,-6.611629057184247
9.170000000000002,-0.1734171698386517,0.8907056439935923,-6.572710059662065
9.180000000000009,-0.2050245072990107,0.9509114927273764,-6.531543545929475
9.189999999999998,-0.2149501054296738,0.9992896274166884,-6.4774122241760015
9.200000000000005,-0.2179520391185058,1.0430911279277693,-6.420009886872981
9.210000000000008,-0.2358430120501902,1.0726251880938145,-6.349695613288784
9.22,-0.2586233699636021,1.080663861526871,-6.284599915915199
9.230000000000004,-0.2899344577667217,1.0815478041712985,-6.211502444048885
9.240000000000007,-0.3165988867017543,1.0897861323397386,-6.120442278508883
9.25,-0.3520928909119125,1.0945075573202705,-6.014912573918708
9.260000000000003,-0.3518792538223663,1.081578457193952,-5.895897581035623
9.269999999999996,-0.3394312826519332,1.0741402281071857,-5.758669040614925
9.28,-0.3177447973841489,1.0633743705259322,-5.596394836880503
9.290000000000006,-0.3068852731455224,1.0500712761614182,-5.41640481105357
9.299999999999995,-0.3143541536682468,1.043464758554446,-5.206681231744223
9.310000000000002,-0.3104737341233492,1.0362985837951282,-4.98762991104832
9.320000000000007,-0.3176570188681454,1.0157557293259052,-4.731968440247638
9.329999999999998,-0.3150752394473883,0.9826436089117428,-4.442902651226508
9.340000000000003,-0.3147126543033174,0.9432155656710546,-4.129254673705199
9.350000000000009,-0.2992136790645385,0.8913659005598216,-3.787967481455384
9.36,-0.2776242575669537,0.8266457387144998,-3.4277142269705427
9.370000000000005,-0.2424846822073397,0.7625629329134689,-3.039882644231624
9.379999999999995,-0.2104166490463107,0.6835215400649869,-2.6143011557684197
9.39,-0.1986596933250587,0.6056585937526721,-2.171908981095524
9.400000000000006,-0.1614857996683885,0.5271238014621179,-1.7013340445317493
9.409999999999997,-0.1213245064233646,0.4305712831997355,-1.22703886039879
9.420000000000002,-0.1022218094181425,0.3294824222028484,-0.7555306945254779
9.430000000000009,-0.0820899090517607,0.229519186826432,-0.2758534109092966
9.439999999999998,-0.054721032794833,0.1310406942132726,0.2232227997102111
9.450000000000005,-0.0151055778204261,0.0195511395857494,0.7330648354377253
9.460000000000008,0.0514273565586662,-0.0845084877847773,1.217356788669547
9.47,0.1287724161703605,-0.1825549642495549,1.6839645139494253
9.480000000000004,0.1912079653590821,-0.2826601099771941,2.1300478530943927
9.490000000000007,0.2277662257064424,-0.3696104837186392,2.5423934777000863
9.5,0.2455305845848336,-0.4550848660189123,2.9301207124209223
9.510000000000003,0.2430565070332186,-0.5279955583458223,3.291064041955288
9.519999999999996,0.2215644499530727,-0.6055974861698393,3.623016468646884
9.53,0.1958257734901347,-0.6895387358290809,3.936177296055496
9.540000000000006,0.1678435745723257,-0.7538300288678467,4.222408608056009
9.549999999999995,0.1428981639203901,-0.8150839915922388,4.47640960431132
9.560000000000002,0.1236707682798815,-0.8655416148224453,4.703209577062853
9.570000000000007,0.1006269546889755,-0.9076606446886504,4.90955936817113
9.579999999999998,0.0631767123366233,-0.9461398668905816,5.084391863466248
9.590000000000003,0.0140568614321279,-0.9887878908522452,5.268026476248743
9.600000000000009,-0.0566774655885255,-1.0355244637466712,5.431437724838115
9.61,-0.1251418943356435,-1.070252073868659,5.582250594605268
9.620000000000005,-0.1918772266121917,-1.116978022892641,5.721982727002161
9.629999999999995,-0.2375636344335054,-1.1544330144831,5.8471058218954335
9.64,-0.2879197686627995,-1.2035192863114093,5.94980446148311
9.650000000000006,-0.3499997977342183,-1.2382241299357135,6.026082747922917
9.659999999999997,-0.3993776003591668,-1.280567346592106,6.08530109842306
9.670000000000002,-0.4650683575895261,-1.3237967307985865,6.12705360756356
9.680000000000009,-0.5326518612640582,-1.3609653670549802,6.178826347884125
9.689999999999998,-0.5951627192846789,-1.393657845959943,6.210109039937524
9.700000000000005,-0.6376239414333238,-1.4170482797798871,6.234985966954215
9.710000000000008,-0.6420105177929147,-1.4406739433830975,6.243755904138264
9.72,-0.6247613468875208,-1.4580200962912628,6.25258651861378
9.730000000000004,-0.6277182700894556,-1.4665486876408038,6.25602462541961
9.740000000000007,-0.6298691878025574,-1.4795062740123424,6.2477284128058335
9.75,-0.6355568992340419,-1.4729009629882777,6.239701595523435
9.760000000000003,-0.6283592980244505,-1.4704187415853518,6.213003348783388
9.769999999999996,-0.6306199780033978,-1.4600093941802883,6.197048030517284
9.78,-0.6263015451467274,-1.4461741582039545,6.171388951117685
9.790000000000006,-0.6245309699676842,-1.4263340956102644,6.123542138580277
9.799999999999995,-0.6192414687218182,-1.4129358449809488,6.076299898708079
9.810000000000002,-0.6012491326464983,-1.391588585970839,6.021190616754212
9.820000000000007,-0.5788505757595668,-1.3719152814134152,5.971756791414822
9.829999999999998,-0.5511242493877978,-1.335644291757158,5.921196040921638
9.840000000000003,-0.5220703188567615,-1.270255149330267,5.878863373445833
9.850000000000009,-0.4793221010581421,-1.209242186180476,5.857881240274963
9.86,-0.4442492698132542,-1.1214965589999186,5.844371348967778
9.870000000000005,-0.4133040087226501,-1.0240735455874377,5.836754725610594
9.879999999999995,-0.3819086751861582,-0.911902917966462,5.8381624234102905
9.89,-0.3630946005271209,-0.7858988288167638,5.833608492140824
9.900000000000006,-0.3715764709536232,-0.6704585105377284,5.831936208839273
9.909999999999997,-0.3951926842145219,-0.5726769346439733,5.820007987777975
9.920000000000002,-0.4378786050781806,-0.472169569744171,5.784000595399114
9.930000000000009,-0.4688380270082176,-0.3832468827585314,5.736911453472567
9.939999999999998,-0.4950346571008281,-0.3083494963426508,5.679926202000032
9.950000000000005,-0.5092406926354247,-0.2369008739744543,5.610559546801763
9.960000000000008,-0.4915196914452207,-0.1828153376083837,5.550733692631619
9.97,-0.4707419849847081,-0.136824835074958,5.4761059676710895
9.980000000000004,-0.440265607427715,-0.0857316991776789,5.387759723903075
9.990000000000007,-0.4177316546912407,-0.0476608295854509,5.283772524879097
10.0,-0.3834291665702607,-0.0204773545283411,5.166358785183599
10.010000000000003,-0.348074992701708,-0.0046232800022579,5.027117134913973
10.019999999999996,-0.3055017706150515,0.0229364899069305,4.883553295165329
10.03,-0.2756241934461552,0.0246793205345253,4.727568328268734
10.040000000000006,-0.2470121090221505,0.0337730101731169,4.575105175870823
10.049999999999995,-0.196571452327946,0.0419082028442125,4.420482627453503
10.060000000000002,-0.1419888782222589,0.0527046162549901,4.258848942641382
10.070000000000007,-0.0858603171951584,0.0524163987305325,4.084582745019784
10.079999999999998,-0.040993147592973,0.0443219512976475,3.8985406168411343
10.090000000000003,-0.007545101117804,0.0376709879294725,3.708567128601549
10.100000000000009,0.0187923635625951,0.0221391013523144,3.500436895561231
10.11,0.0379688211136307,0.0100953687858879,3.273173604298821
10.120000000000005,0.0832446377287414,0.0024361489234681,3.035282518457308
10.129999999999995,0.1293765408688494,-0.0017807484522208,2.7837963382209168
10.14,0.1584033785844713,-0.0301175164576302,2.527732971866632
10.150000000000006,0.167445430180944,-0.0397380086651901,2.247283061784084
10.159999999999997,0.1546799920009443,-0.0552776323280758,1.9381703757061797
10.170000000000002,0.1352611807114674,-0.0671953952141059,1.6079598598653146
10.180000000000009,0.1174459386972712,-0.0804755114184164,1.2608433838128756
10.189999999999998,0.1172394714577053,-0.0966574682042689,0.8992807137821475
10.200000000000005,0.1265967619396593,-0.1048499919334292,0.5340385059120579
10.210000000000008,0.1484943058515609,-0.1134971363538877,0.1606504884037659
10.22,0.1868469748101526,-0.1226970189089875,-0.2172647566474304
10.230000000000004,0.2178188437866001,-0.1497004166484664,-0.5936375972361625
10.240000000000007,0.2577201636778835,-0.1895458083890289,-0.9623452583949706
10.25,0.2894849990247067,-0.2249564944258383,-1.3395545119928152
10.260000000000003,0.3082783851263606,-0.2749599639994226,-1.706480553991671
10.269999999999996,0.3133267906667333,-0.3365185134838236,-2.063549130652934
10.28,0.2996151784190968,-0.3960300276589819,-2.4264011260560303
10.290000000000006,0.2735382939807021,-0.4735489433095969,-2.785647223599629
10.299999999999995,0.2493046113118699,-0.5355808173865848,-3.155255531967317
10.310000000000002,0.2378471888808867,-0.5878779819910886,-3.518276873351573
10.320000000000007,0.2466135822386509,-0.6225432997716608,-3.8670208305042895
10.329999999999998,0.2923930123507038,-0.6324410662902005,-4.190775169546536
10.340000000000003,0.3751066582127994,-0.623076711387969,-4.471662003472054
10.350000000000009,0.4639115880186577,-0.5972609530497534,-4.730057151180074
10.36,0.538372792305249,-0.5709346088144281,-4.966461086565659
10.370000000000005,0.6098420950349283,-0.5328661273153098,-5.187353060716806
10.379999999999995,0.6848447276525718,-0.4754613925822275,-5.404968985284297
10.39,0.7539172329645671,-0.4120980717072482,-5.597337181102413
10.400000000000006,0.7994441831914343,-0.3214732977494668,-5.773518802261112
10.409999999999997,0.8020668340082373,-0.2309142462317729,-5.92881702645809
10.420000000000002,0.7834515411031646,-0.1503719592544556,-6.069282160682774
10.430000000000009,0.7638843727957695,-0.0658559703197062,-6.201493214659735
10.439999999999998,0.7409599626323645,0.0130377540540542,-6.32801191262884
10.450000000000005,0.7405552935380075,0.075914758081018,-6.445781668671979
10.460000000000008,0.7293607967928218,0.1312097348505932,-6.560270460153383
10.47,0.7085310934315726,0.1568669024363219,-6.660200587983063
10.480000000000004,0.6958853228034565,0.1609935992269161,-6.755695632225564
10.490000000000007,0.651676760750961,0.1533550388408932,-6.845211296942043
10.5,0.6218356973895109,0.1402209440445507,-6.934403713418449
10.510000000000003,0.5674223286980811,0.1275959489210854,-7.017506605195359
10.519999999999996,0.5074532718935192,0.1152509249903919,-7.07901109433281
10.53,0.4213145873949205,0.1093509326781758,-7.1320639782339645
10.540000000000006,0.3200915856366516,0.1189477385957099,-7.189641689487929
10.549999999999995,0.2171238324126528,0.1500353963242957,-7.245375429369757
10.560000000000002,0.1003833716354781,0.1994134709093926,-7.276548723696668
10.570000000000007,-0.0305055858064164,0.2680613539742307,-7.296603906544636
10.579999999999998,-0.1606937319154527,0.3511419035171913,-7.301496036413574
10.590000000000003,-0.2649927063504752,0.4559318483881575,-7.302833855112631
10.600000000000009,-0.3509742977758531,0.5638885486565709,-7.302240238273939
10.61,-0.4026358251883211,0.6777791683415604,-7.288494041952683
10.620000000000005,-0.4351521872283831,0.7843046719627337,-7.267269172339114
10.629999999999995,-0.439696519602985,0.8983671438715484,-7.241394220927742
10.64,-0.4449242788095537,1.003105931803477,-7.209527342335079
10.650000000000006,-0.4526713253808604,1.1032566451518353,-7.173473163920909
10.659999999999997,-0.4893685541993763,1.1951219698801403,-7.125694075024232
10.670000000000002,-0.538709419023695,1.29295333971328,-7.083751049934023
10.680000000000009,-0.5572432429089371,1.3679717205068775,-7.0484023612247375
10.689999999999998,-0.5511186866798266,1.4469310348906577,-6.99344785526401
10.700000000000005,-0.5434650519468317,1.4951019303212931,-6.941159813748768
10.710000000000008,-0.5208659085605252,1.5279857022939418,-6.8559501044984
10.72,-0.4913481862156402,1.5452919099335414,-6.748465086002603
10.730000000000004,-0.4728359092504605,1.5388335523532206,-6.64087009871038
10.740000000000007,-0.4500715655432758,1.529831718479273,-6.508294264887219
10.75,-0.4353509738516504,1.503364582410418,-6.36675075797586
10.760000000000003,-0.4443563118073362,1.4677562830918405,-6.221176148716316
10.769999999999996,-0.459047905591842,1.4268429308732635,-6.064916326041417
10.78,-0.4740785336870649,1.3798910046733357,-5.891258665315921
10.790000000000006,-0.4849041332763504,1.334219637562305,-5.675803496898757
10.799999999999995,-0.4683515497194178,1.297593648801396,-5.435976562322385
10.810000000000002,-0.4360586707069038,1.2680444695950095,-5.175124846790076
10.820000000000007,-0.4052714469665733,1.2327328330326883,-4.881373011107448
10.829999999999998,-0.3381413426025932,1.1768055963754,-4.563957827437672
10.840000000000003,-0.2715721999860774,1.115129482181818,-4.206425750312087
10.850000000000009,-0.2014090334794632,1.0290117853496197,-3.8208633762275577
10.86,-0.143498525439988,0.9232429744284344,-3.4145201248264554
10.870000000000005,-0.0661775224722456,0.8079043838394828,-3.007008966818124
10.879999999999995,0.009232325210942,0.6824437160442746,-2.587962779517929
10.89,0.0940544322171898,0.5523275743190549,-2.1572695009180043
10.900000000000006,0.1748114310571733,0.4066618060682989,-1.7138609719231663
10.909999999999997,0.2401653083039918,0.2559570791514401,-1.2348713509775369
10.920000000000002,0.312588930594146,0.103769052716473,-0.7529033577329834
10.930000000000009,0.3932060497469231,-0.0589679602536282,-0.2822583297891857
10.939999999999998,0.478740164300122,-0.2154412899005553,0.2011429229116303
10.950000000000005,0.5440750041278761,-0.3600374392722029,0.6874860971112451
10.960000000000008,0.5875935310629609,-0.4988922534658061,1.1629410819163086
10.97,0.6159467117556144,-0.6273755801631797,1.6319410838186454
10.980000000000004,0.6209139942335474,-0.7332243803508979,2.09670627229921
10.990000000000007,0.6142552982210239,-0.8228829432811727,2.540157838303919
11.0,0.6098486403442632,-0.8994415703165404,2.958025211756261
11.010000000000003,0.5798829395030454,-0.9742497060351324,3.357989285059451
11.019999999999996,0.5566063156099141,-1.028184083211281,3.7390570308628375
11.03,0.511520485698136,-1.0767783178953942,4.112759697077614
11.040000000000006,0.4569700239271437,-1.1042111580158385,4.469802850149224
11.049999999999995,0.3916343731546451,-1.122075219603632,4.798856295300583
11.060000000000002,0.3220404848956027,-1.1385612841350308,5.1176468055095805
11.070000000000007,0.2616345015822003,-1.1500583591140765,5.418596499273318
11.079999999999998,0.2097185719619166,-1.1583629868945138,5.69338663230728
11.090000000000003,0.1937539035594118,-1.163735717350023,5.949215005998504
11.100000000000009,0.1734379167131498,-1.155946787572553,6.18279224652573
11.11,0.1410305532162948,-1.1640026936776549,6.3934878140569325
11.120000000000005,0.0934603794322452,-1.1650656460968651,6.586709462791555
11.129999999999995,0.0170870630203025,-1.15577038172174,6.757715950017526
11.14,-0.052078284170488,-1.157705579565273,6.908949759829888
11.150000000000006,-0.141062208955123,-1.1423743955356476,7.023924971291288
11.159999999999997,-0.2397070977794397,-1.1168939296574734,7.113116431270655
11.170000000000002,-0.3352167416926263,-1.078126099846498,7.182338484297468
11.180000000000009,-0.4032278024000745,-1.0339859811209169,7.23895904662176
11.189999999999998,-0.4349228818404956,-0.9899960776671436,7.294682526417571
11.200000000000005,-0.4571915875659398,-0.9522813997590414,7.339785313882192
11.210000000000008,-0.4696509361468414,-0.9111985955280228,7.40710923971246
11.22,-0.4673493749159851,-0.8654123263665051,7.463971899546072
11.230000000000004,-0.4620082221984928,-0.8322783458048211,7.4994885059476175
11.240000000000007,-0.4672699970531547,-0.7949042787198451,7.512399291544999
11.25,-0.4828894498826869,-0.7480425748646281,7.501133398311427
11.260000000000003,-0.5144310322219454,-0.6982554883267559,7.469047794327858
11.269999999999996,-0.5397720349261987,-0.660396063428523,7.425641103019461
11.28,-0.5401422720136909,-0.603181110100976,7.387142398525705
11.290000000000006,-0.5189987434164437,-0.5581993880505992,7.34062136460056
11.299999999999995,-0.4962822057042808,-0.5224557987635381,7.2973130512062845
11.310000000000002,-0.4474581441485695,-0.4789015969194746,7.233171183538568
11.320000000000007,-0.3986753954315463,-0.4334686907866046,7.151106166743064
11.329999999999998,-0.3687138085684225,-0.375808712803246,7.052843450732727
11.340000000000003,-0.3701819133388034,-0.3368378820041841,6.937660814111843
11.350000000000009,-0.3988802024140683,-0.283505223249856,6.825804555599818
11.36,-0.4318163317137322,-0.240009990370162,6.706000493513611
11.370000000000005,-0.443384649325915,-0.1924574481168299,6.590467322527513
11.379999999999995,-0.4384606028889799,-0.1519063653947372,6.483379085147552
11.39,-0.4129774799367031,-0.1204236387867526,6.364280111061732
11.400000000000006,-0.363836102069175,-0.0912519859846889,6.258612318573554
11.409999999999997,-0.3132416900981078,-0.0896028784473939,6.145521068424554
11.420000000000002,-0.2864751428216134,-0.0881645611658483,6.042429189565586
11.430000000000009,-0.280798841958952,-0.107089096406566,5.937312831625656
11.439999999999998,-0.2628207105273922,-0.1335224202200292,5.830061559070518
11.450000000000005,-0.2513244841985022,-0.1577367686010934,5.713069265722629
11.460000000000008,-0.242686913624489,-0.1841316622519281,5.59473797776722
11.47,-0.2296294209156945,-0.1947935063795003,5.473410461515685
11.480000000000004,-0.210056009857771,-0.2175809383591922,5.337471002465255
11.490000000000007,-0.163635218906498,-0.2144129799753904,5.175781808505705
11.5,-0.095356293915166,-0.2036509576707263,4.980580447068516
11.510000000000003,-0.0382867010803486,-0.1956132100702833,4.757466229674935
11.519999999999996,0.0015630856483016,-0.1853367364327274,4.504897833630828
11.53,0.0160534300027433,-0.1785958274607704,4.229692608484008
11.540000000000006,0.0160576425137366,-0.1724894631586538,3.911706455639835
11.549999999999995,0.0167648758351196,-0.1752115037703825,3.570790066728432
11.560000000000002,0.0237602808723872,-0.1756290279077402,3.185075374557187
11.570000000000007,0.0151727798694806,-0.1789484399586054,2.7447817322387205
11.579999999999998,-0.0308921441041288,-0.1818376921534708,2.269231548185084
11.590000000000003,-0.1184474004529769,-0.1858084321286146,1.7532446206523296
11.600000000000009,-0.196095581668229,-0.1964297360178477,1.2349175443123277
11.61,-0.2853002631085807,-0.2175975639837259,0.7013338742950276
11.620000000000005,-0.3654611468342251,-0.2557578256377488,0.1725351960391351
11.629999999999995,-0.4328737364750665,-0.2836207704042899,-0.3473603229812215
11.64,-0.4477342097724243,-0.3258834570989955,-0.8620345233563936
11.650000000000006,-0.4555174158412407,-0.3686369182891162,-1.3593188386375232
11.659999999999997,-0.4577156868682872,-0.4101260041271146,-1.8228871183679127
11.670000000000002,-0.4465721313197696,-0.4496747203439571,-2.2505285508398027
11.680000000000009,-0.445510120063554,-0.4781248518011405,-2.6581637879553166
11.689999999999998,-0.4289720045502717,-0.5239358635210773,-3.0289130770416848
11.700000000000005,-0.4204438312802914,-0.5470244111936099,-3.3823202243553863
11.710000000000008,-0.3804003456176947,-0.5677498924607576,-3.711518892290559
11.72,-0.3269506041174641,-0.5787640072961265,-4.01035561662995
11.730000000000004,-0.2778310659856752,-0.5699765218375986,-4.270418265511842
11.740000000000007,-0.2152680429546047,-0.5383537441491488,-4.496242205916844
11.75,-0.1527483028857097,-0.4816351726416599,-4.687938896343487
11.760000000000003,-0.0767294287526767,-0.4126365569596615,-4.844225544918813
11.769999999999996,-0.0088841830435012,-0.3127234358287487,-4.969743840236172
11.78,0.0688216084474514,-0.2098569787363353,-5.076436720619695
11.790000000000006,0.1231086775988842,-0.0895961714836985,-5.170886303849609
11.799999999999995,0.1920731391695002,0.0227992267956775,-5.252647521784321
11.810000000000002,0.2737921532230604,0.1261842033201429,-5.33409267730018
11.820000000000007,0.3527811375006026,0.2340957748673864,-5.394667183080403
11.829999999999998,0.4301250131762358,0.3212173579869007,-5.451880452779657
11.840000000000003,0.4922632730821555,0.3968578693244558,-5.503968991732206
11.850000000000009,0.5468287481956523,0.4594509158622198,-5.554401139787641
11.86,0.6033638228342222,0.5121379774163586,-5.612094637348787
11.870000000000005,0.6666801266937168,0.5508606930115069,-5.683364337529917
11.879999999999995,0.7234524670576339,0.5665519504279442,-5.755892543770093
11.89,0.7622464910716057,0.5810050076160289,-5.82980509192457
11.900000000000006,0.7695062815513107,0.5916983235128479,-5.914825982178181
11.909999999999997,0.7689035951399636,0.589409407308599,-5.999359890238726
11.920000000000002,0.7344777841994709,0.5652956256211734,-6.09113310166998
11.930000000000009,0.6772990903037631,0.5327676281324972,-6.186751637459349
11.939999999999998,0.6064782533909935,0.5192738954822258,-6.286581392411713
11.950000000000005,0.5515940233513026,0.4983963426126723,-6.386723167566578
11.960000000000008,0.5262822675844318,0.480335596467678,-6.487429203651623
11.97,0.4920628256084529,0.4643011166537896,-6.577394543087952
11.980000000000004,0.4466707219489821,0.459138232157071,-6.637801782739393
11.990000000000007,0.3683846957131197,0.4513800676238751,-6.700610629879409
12.0,0.3006882114119982,0.4530127192250046,-6.761546802694026
12.010000000000003,0.2276176396426799,0.4654753396472399,-6.815867603571332
12.019999999999996,0.1278145390142912,0.4664842682692559,-6.845744594826685
12.03,0.0119791166075825,0.4717856087859476,-6.863358632717767
12.040000000000006,-0.1238934468671765,0.476740470046239,-6.879066462192607
12.049999999999995,-0.2379603590972628,0.4983812991739701,-6.891220375805014
12.060000000000002,-0.3349664396874198,0.5124966162005642,-6.916621872285506
12.070000000000007,-0.4213971247087289,0.5535657012563342,-6.94069223005596
12.079999999999998,-0.5115571885074199,0.619480263499022,-6.969063176606046
12.090000000000003,-0.5989282275254809,0.6864049293989359,-6.975951901330086
12.100000000000009,-0.6620351430318653,0.7737047136910311,-6.960165255318361
12.11,-0.7111692237695046,0.8633300154446116,-6.91284041974585
12.120000000000005,-0.7271213732207192,0.9547639836391512,-6.839101352236463
12.129999999999995,-0.7189730866010409,1.0527565924231992,-6.745120365036375
12.14,-0.6931315705627481,1.1419061077422057,-6.607834619296453
12.150000000000006,-0.6664832986028455,1.2198510216077236,-6.4430701259272025
12.159999999999997,-0.6201257671674995,1.2758063412986038,-6.270097374137755
12.170000000000002,-0.5887527007530823,1.2966792925894943,-6.089034966979511
12.180000000000009,-0.5663923046378897,1.283792776170748,-5.886827598988103
12.189999999999998,-0.5470420296384587,1.2655472275592947,-5.655078250351872
12.200000000000005,-0.5016491160388699,1.233066951727935,-5.411434173357061
12.210000000000008,-0.4562745467093352,1.184538490128844,-5.137312292334614
12.22,-0.4068154157137293,1.1383766451331914,-4.82674179261616
12.230000000000004,-0.3481081119488821,1.079939017532447,-4.476092807326123
12.240000000000007,-0.2838172120338282,1.0118479947153955,-4.083711237016477
12.25,-0.213713332446602,0.8922023512767044,-3.675565680696122
12.260000000000003,-0.1272888378837236,0.7666041843211856,-3.226657176006241
12.269999999999996,-0.043602335932656,0.623385786736633,-2.770334533540717
12.28,0.0405425502617885,0.4540446210390793,-2.313785662529251
12.290000000000006,0.127350324904291,0.2819743435207315,-1.8482647076556276
12.299999999999995,0.1973432492168851,0.112150143209358,-1.3795054239434903
12.310000000000002,0.2459594039121878,-0.0472319397831489,-0.9015308168372616
12.320000000000007,0.281637075696135,-0.1893473832294088,-0.4355899445352544
12.329999999999998,0.2957054072635161,-0.331964067861363,0.0385769142565907
12.340000000000003,0.3026358224786964,-0.4596101617594867,0.5116885027342686
12.350000000000009,0.3216204624695002,-0.5871308831795395,0.9778930160731244
12.36,0.3517130762788437,-0.6978380866299675,1.4240396446280366
12.370000000000005,0.4061855625908342,-0.792869597983378,1.852375232985616
12.379999999999995,0.4609002790300396,-0.8569002179777397,2.2653644093450453
12.39,0.5203841844476231,-0.9206085255495052,2.647344484849957
12.400000000000006,0.5658343204437755,-0.9673222274756156,3.013378176037633
12.409999999999997,0.5934400000064,-0.9906503111644008,3.365606197042167
12.420000000000002,0.6243711286023425,-0.9959633401463948,3.7068769146125753
12.430000000000009,0.6503395632765303,-1.004648143206672,4.029224670428468
12.439999999999998,0.6660056352757098,-1.001446967453603,4.337045934121402
12.450000000000005,0.670900990463685,-0.987991675025639,4.626539664819019
12.460000000000008,0.6673087116498693,-0.982212271630654,4.879854033499685
12.47,0.6381589457504552,-0.9480100655573548,5.11376064227212
12.480000000000004,0.5993321543868654,-0.9198286121957108,5.328390101859941
12.490000000000007,0.5502584038923569,-0.8727098819646478,5.526261881160307
12.5,0.4962291635860416,-0.8265024107544662,5.716926540336397
12.510000000000003,0.4387986734960136,-0.7677504933269876,5.89700336990347
12.519999999999996,0.4116643984345368,-0.701458698457581,6.052277240986188
12.53,0.3974964562221681,-0.6475535879516865,6.195441828586507
12.540000000000006,0.3539701209951567,-0.579677486974295,6.31014160426355
12.549999999999995,0.2557010620018702,-0.4986522138697856,6.383493465922897
12.560000000000002,0.135808940070598,-0.4075991864227082,6.451743844855258
12.570000000000007,-0.0107121279271314,-0.3116105524470284,6.528763558029614
12.579999999999998,-0.1402270709323563,-0.2236368180287815,6.587329349107015
12.590000000000003,-0.267106044652294,-0.1548890718979659,6.654795428783857
12.600000000000009,-0.3628725569754652,-0.0903079657438426,6.702721867905497
12.61,-0.409353662505212,-0.03776971023347,6.737202653211192
12.620000000000005,-0.4109068074049164,0.0080394025760212,6.753072959732761
12.629999999999995,-0.4063188016566644,0.0596655805480748,6.715334037598652
12.64,-0.4133465125395782,0.1062222524185761,6.635915804392687
12.650000000000006,-0.4192795246205734,0.1499643861842549,6.493306428566625
12.659999999999997,-0.406253625908556,0.1966609533966249,6.290915351590893
12.670000000000002,-0.3916332960658941,0.2291585998761953,6.036322366214094
12.680000000000009,-0.3922159245669905,0.2511283106613253,5.751504951380839
12.689999999999998,-0.3568671968240391,0.2737926409582431,5.458868893360026
12.700000000000005,-0.3185042143696304,0.2816745676074306,5.124999688420735
12.710000000000008,-0.2658682543009197,0.2707009124620811,4.739826245874067
12.72,-0.2312842967211433,0.2463394919893929,4.330581079648892
12.730000000000004,-0.2458392814924648,0.2146421618077275,3.9030627895579215
12.740000000000007,-0.2704217617916206,0.1795173987186297,3.478055991698334
12.75,-0.2967676855867081,0.1412341359297401,3.063097798188935
12.760000000000003,-0.3130184832638889,0.0900438144670407,2.677899407604811
12.769999999999996,-0.3066759134933455,0.0594266567781015,2.3206337848673573
12.78,-0.3127749159774255,0.0226072953795651,1.974035613771496
12.790000000000006,-0.3271164484761231,-0.0180066879286057,1.6418222931281532
12.799999999999995,-0.3294235560661348,-0.0490946772706096,1.3317247242263284
12.810000000000002,-0.3036714209037252,-0.0730700168975788,1.0445635262956088
12.820000000000007,-0.2682013928165072,-0.0954526496979953,0.7830769421230612
12.829999999999998,-0.2335985420360736,-0.1138305608247741,0.5501124251757882
12.840000000000003,-0.2019465939159789,-0.1389320560946563,0.342838157225294
12.850000000000009,-0.1752531708324624,-0.167757645190208,0.1721379102718042
12.86,-0.1496710878444306,-0.1897087376921581,0.0329085788372417
12.870000000000005,-0.1375846460883943,-0.2194504601757823,-0.093491010669751
12.879999999999995,-0.1091010463159107,-0.250601097887266,-0.1983447071066444
12.89,-0.0991421057648177,-0.2746294636422671,-0.2874179150467637
12.900000000000006,-0.0829010589643772,-0.3057109773383701,-0.3519854318117838
12.909999999999997,-0.0815342736080265,-0.3316087546464762,-0.410755085833194
12.920000000000002,-0.0823161290230112,-0.3543155616445701,-0.473537361911817
12.930000000000009,-0.0860136307445541,-0.366287983244234,-0.5292822659750863
12.939999999999998,-0.0720085443589562,-0.3685218571385786,-0.5747164674702411
12.950000000000005,-0.0492996240439084,-0.3759742862455179,-0.6165629981832919
12.960000000000008,-0.0290845150649968,-0.3773702612894228,-0.6542302083539019
12.97,0.0135276844149983,-0.3645678766678707,-0.6847529789621312
12.980000000000004,0.0427390563429659,-0.3419388415468036,-0.71336317134791
12.990000000000007,0.067191716176339,-0.3150788315927207,-0.7305014409211436
13.0,0.0759969171988679,-0.2811074004212295,-0.7419672377160081
13.010000000000003,0.0731704468078216,-0.2567440808991826,-0.7576593902347143
13.019999999999996,0.0543056930766929,-0.2301223477905371,-0.7661155170260739
13.03,0.0292335221373112,-0.2041069210707184,-0.7685217853183479
13.040000000000006,-0.0113025742595187,-0.1977838650837567,-0.7694926495505623
13.049999999999995,-0.0406600289406868,-0.1780990269372797,-0.765523387353136
13.060000000000002,-0.0581397849798849,-0.1433327808962725,-0.7539172704052242
13.070000000000007,-0.067175050719986,-0.1147390268658989,-0.7411672384915865
13.079999999999998,-0.0656630955907738,-0.0819677915360557,-0.7047649722256848
13.090000000000003,-0.0692601887485242,-0.0718384190915622,-0.6637387563822421
13.100000000000009,-0.0649699700549848,-0.0700175898660064,-0.6167849143463917
13.11,-0.0765762363126764,-0.0650412399800674,-0.5868004729783258
13.120000000000005,-0.0894997846885952,-0.0808113563659311,-0.564516654410011
13.129999999999995,-0.1163593888502187,-0.0859329536975706,-0.545264037485194
13.14,-0.1363632994375535,-0.0915916270646941,-0.5260617422841476
13.150000000000006,-0.1383594884572962,-0.0895772094219853,-0.4944624069061172
13.159999999999997,-0.1452039107063717,-0.0823482048588988,-0.449945086127108
13.170000000000002,-0.1312189429895923,-0.0836537334002379,-0.4018793266336167
13.180000000000009,-0.1132575315673252,-0.0785750429378014,-0.3567571345226966
13.189999999999998,-0.0905563049827013,-0.0906253843665432,-0.3026154812331394
13.200000000000005,-0.0729961000428867,-0.1006376258393582,-0.2624404613095973
13.210000000000008,-0.0700934075119935,-0.1125707346336495,-0.22001850369481
13.22,-0.0499835641268404,-0.1315648257673364,-0.1725130027717839
13.230000000000004,-0.0359699855607137,-0.1352294208866702,-0.1004160333370094
13.240000000000007,-0.0140253763254377,-0.128326873807153,-0.0275385279692423
13.25,0.0130668521352535,-0.1152797692153799,0.0492126786499682
13.260000000000003,0.0454747930119727,-0.0987037763430078,0.1244251454035383
13.269999999999996,0.0387718655025335,-0.0760807561424644,0.1938190707223486
13.28,0.0095743014081668,-0.064269402150279,0.2451127774079199
13.290000000000006,-0.0378187150234466,-0.0619898928740349,0.2859345891219829
13.299999999999995,-0.0793711436219501,-0.0621220902092507,0.3115764607693447
13.310000000000002,-0.0989300991960375,-0.0521111893532223,0.3284083771394921
13.320000000000007,-0.1185300529174812,-0.0375653429843931,0.3405235421308484
13.329999999999998,-0.1328171052301349,-0.0233949516134923,0.340208151500824
13.340000000000003,-0.1409885179949074,0.0106008602789908,0.3416071382316413
13.350000000000009,-0.1251668120299539,0.0305486075680283,0.345551506226339
13.36,-0.08931492958229,0.0503063998551324,0.3500171487112567
13.370000000000005,-0.0475022294225848,0.0688558113191926,0.3433432559012041
13.379999999999995,-0.0139032525358921,0.0767060458250705,0.3316226230435449
13.39,0.0121382229678273,0.086706238133446,0.315699651730002
13.400000000000006,0.0270673399673581,0.0886045881009226,0.2850041140316326
13.409999999999997,0.0348794722568626,0.0854066548999949,0.2601478889464885
13.420000000000002,0.0331359577421644,0.0714298050724906,0.2401863718489808
13.430000000000009,0.0460821864178024,0.0587359367747127,0.2124713119382408
13.439999999999998,0.0696173008748274,0.063779474407869,0.1930683617346517
13.450000000000005,0.0923716823814086,0.0520987631593722,0.1631400908941325
13.460000000000008,0.1129823467159048,0.0352147330331103,0.130310798603551
13.47,0.11256977835858,0.0218660728394985,0.1063402629552917
13.480000000000004,0.1157029280502744,0.0133179905035597,0.0760853926775672
13.490000000000007,0.1182809281118204,0.0094855468006175,0.0434148821848566
13.5,0.1191191215008688,0.0002262943209998,0.0113523506964562
13.510000000000003,0.1176113605771475,0.0005990542832526,-0.0184502147385675
13.519999999999996,0.1060727022148387,-0.002523029728292,-0.0388108017550062
13.53,0.114762088953839,-0.0034906299108744,-0.0741914095347986
13.540000000000006,0.1121336872207511,-0.0031133458964061,-0.1018459356609083
13.549999999999995,0.105163788624799,-0.0087177876337541,-0.1185309404703245
13.560000000000002,0.1023570421449804,0.0037337626326004,-0.1578384625875848
13.570000000000007,0.0887586989106276,0.0051703236836572,-0.1759911262212044
13.579999999999998,0.0812936678725532,0.0095121270960002,-0.2048327125808363
13.590000000000003,0.0778842295166943,0.0019991027081159,-0.2132208387476986
13.600000000000009,0.0804814658735109,0.0121371518728742,-0.2264002669538013
13.61,0.0915343636565419,0.0115460691847185,-0.2301400617853853
13.620000000000005,0.0888141463799376,0.0008643887368582,-0.2360509954861572
13.629999999999995,0.1014461027619253,-0.000387190871942,-0.2451091858324123
13.64,0.0991046190138611,-0.005733441043527,-0.2511563048386102
13.650000000000006,0.0967511789876601,-0.0083701036134145,-0.2541453342215613
13.659999999999997,0.1011719316921691,-0.008727413222004,-0.2485704365871284
13.670000000000002,0.1055505024440526,-0.0090860094617955,-0.2430416008612394
13.680000000000009,0.0918680962060066,-0.0067891420788619,-0.2381643462864005
13.689999999999998,0.0686780240961102,-0.0022803117015242,-0.2161438611938899
13.700000000000005,0.0293859699722245,0.0074083550245255,-0.2050121589327971
13.710000000000008,-0.021289943776902,0.0329932359484763,-0.1740113032697738
13.72,-0.0987563064189134,0.0440959235860273,-0.1631995501321408
13.730000000000004,-0.2170044007365655,0.0482126122936689,-0.1630607667292073
13.740000000000007,-0.3532605759285484,0.0516192083085435,-0.1421057592121993
13.75,-0.5001809119166647,0.0552769140600254,-0.1406850787902553
13.760000000000003,-0.6803262499621745,0.0585160120176435,-0.1263312556994021
13.769999999999996,-0.9299106791448952,0.071211973810263,-0.1040781087399653
13.78,-1.2018283693844458,0.0903751207014856,-0.071029530830056
13.790000000000006,-1.5048162259733204,0.0986804160690943,-0.0194019733836065
13.799999999999995,-1.82902169423028,0.1204812907227625,0.0548449480331905
13.810000000000002,-2.1687922615131927,0.1279721577976925,0.1564162946525091
13.820000000000007,-2.5249638405484243,0.1379194146044488,0.2825381456016337
13.829999999999998,-2.875767550388332,0.1547371559814805,0.432401720285199
13.840000000000003,-3.21307392685347,0.1912221803084448,0.5881452467101443
13.850000000000009,-3.523792938403212,0.2104573894046757,0.7581286374337542
13.86,-3.820976899448092,0.2431246843560637,0.9416804185038372
13.870000000000005,-4.1494073210280185,0.2442687087435864,1.1349805335695096
13.879999999999995,-4.460354823193832,0.2052812491084482,1.3493932377455709
13.89,-4.738061043247036,0.1559965793034895,1.5599936463439317
13.900000000000006,-5.002805262447085,0.0742646056319632,1.761161220677097
13.909999999999997,-5.204448335571518,-0.0351021868968105,1.9394672614007096
13.920000000000002,-5.34626929359962,-0.1442358661267626,2.1007807684943485
13.930000000000009,-5.403890884088093,-0.2664161094454862,2.2425459936722354
13.939999999999998,-5.427493626982455,-0.3887640999532199,2.365793173220696
13.950000000000005,-5.418274556027873,-0.5173449828138914,2.4696316202509974
13.960000000000008,-5.397790363341525,-0.6329667519150998,2.540251191502961
13.97,-5.387021249758608,-0.7729856438595428,2.603147306923152
13.980000000000004,-5.369676486239865,-0.9303752612145876,2.6447832331231824
13.990000000000007,-5.390109237616119,-1.0971503737576789,2.631664501378855
14.0,-5.368494302717358,-1.2686966764731005,2.555413771082071
14.010000000000003,-5.1899608340695815,-1.4196523408040655,2.4220062984179704
14.019999999999996,-4.960344470705869,-1.5581873036968483,2.267893249908082
14.03,-4.690761812980576,-1.6420397929479331,2.1616321697861745
14.040000000000006,-4.35405698863344,-1.685594010699279,2.104834707265648
14.049999999999995,-3.978178939852768,-1.6875475293199875,2.0715999777779173
14.060000000000002,-3.5752249552314157,-1.6569883005082298,2.003443857190805
14.070000000000007,-3.175381602759624,-1.612400730400824,1.9042638906831264
14.079999999999998,-2.7712229014749394,-1.5299164084310075,1.7782978755425751
14.090000000000003,-2.394955852849002,-1.4257816092304911,1.6535218030440044
14.100000000000009,-2.0748903138793238,-1.283860055638799,1.545244080525022
14.11,-1.7969593708069105,-1.117785150491011,1.4334075719841752
14.120000000000005,-1.5496297703869433,-0.9372314190372114,1.31919029149636
14.129999999999995,-1.3263244686162108,-0.7507843801607775,1.2018964588789591
14.14,-1.1462641855258644,-0.5679973455759499,1.0781763144955974
14.150000000000006,-1.0298154811287414,-0.3745993389803412,0.9650757184116092
14.159999999999997,-0.947194454240142,-0.1963535391596431,0.8557882148610351
14.170000000000002,-0.8648439068811258,-0.0315516628371215,0.7517272685809544
14.180000000000009,-0.7667102242412605,0.1207688849584659,0.6607287155171965
14.189999999999998,-0.6220602629293942,0.2687721301821104,0.5703945992342869
14.200000000000005,-0.4277181716863549,0.3998394073598695,0.4669850063433849
14.210000000000008,-0.1475861486897073,0.5072008760930127,0.3444152632049242
14.22,0.1982373487933952,0.5773769694971082,0.2107943361723403
14.230000000000004,0.6153040757848038,0.6267833227073919,0.0615216401910461
14.240000000000007,1.098150328575468,0.6653051759910168,-0.0927558949944055
14.25,1.6522140120340554,0.6857008853708206,-0.2188836405749115
14.260000000000003,2.227741701509568,0.6904137085898064,-0.3336473003793754
14.269999999999996,2.8347557705166064,0.6888923143725902,-0.4119379973306634
14.28,3.4341826267596502,0.6839462912099021,-0.4779978200099113
14.290000000000006,4.013402399953037,0.6684334612543421,-0.5374300068570509
14.299999999999995,4.513392537145654,0.6703458961324901,-0.6072670163101068
14.310000000000002,4.905381010723449,0.6833415757229704,-0.7024059853228355
14.320000000000007,5.174914084323812,0.7058081273896197,-0.813470113538626
14.329999999999998,5.37810438624453,0.7122637540146216,-0.9408897417006457
14.340000000000003,5.551702822054213,0.7283587963150507,-1.0854781787299
14.350000000000009,5.693480730014617,0.7248305599200741,-1.2206521387467928
14.36,5.861988568076788,0.7017098454400543,-1.3319711215566032
14.370000000000005,6.026624673149124,0.6669583174953241,-1.43097017339056
14.379999999999995,6.128778104353179,0.6177789048246146,-1.531542556029995
14.39,6.158813519967962,0.5431677965649512,-1.6498100701230227
14.400000000000006,6.176617582024346,0.4450626749699802,-1.7888482245825357
14.409999999999997,6.242833088633933,0.3355210017674441,-1.9466464494440328
14.420000000000002,6.337885627109274,0.2349922284030561,-2.095394286807735
14.430000000000009,6.406208792465266,0.1321538890279666,-2.224848685278383
14.439999999999998,6.412923003539445,0.0355266344292505,-2.334515574031303
14.450000000000005,6.402811192413102,-0.0695577281821819,-2.432903815524696
14.460000000000008,6.348492739208569,-0.1730687507447365,-2.502143898459777
14.47,6.101197310703919,-0.2553128571748191,-2.545401936711638
14.480000000000004,5.838251809407669,-0.3270932851412408,-2.5931732309862827
14.490000000000007,5.675897855624803,-0.3859690133222153,-2.650858105360644
14.5,5.611520877118015,-0.4468797707205452,-2.728521122395145
14.510000000000003,5.638822754330173,-0.5296884829089212,-2.808898540606336
14.519999999999996,5.598079965277401,-0.5964356091141352,-2.866034231444598
14.53,5.60140002170288,-0.6732763211510933,-2.8914947037484127
14.540000000000006,5.696678029568663,-0.7632277505758718,-2.8877257452959664
14.549999999999995,5.782906945522226,-0.8622021326609421,-2.8482962956748072
14.560000000000002,5.758819914794702,-0.9577816681132422,-2.784199930540621
14.570000000000007,5.6122386352910745,-1.0124248094262742,-2.7104703853071257
14.579999999999998,5.424794988103996,-1.038617232422797,-2.6507351585292893
14.590000000000003,5.240633550469057,-1.0460927731146543,-2.609333822759236
14.600000000000009,5.093166486768475,-1.021285572626119,-2.5820135613159105
14.61,5.080701684186464,-0.9887131579647492,-2.5822954358213024
14.620000000000005,5.267018840087301,-0.9744070096739288,-2.615149489084438
14.629999999999995,5.436711099621246,-0.9368372293931744,-2.638887458088779
14.64,5.452394105098536,-0.8722466020187989,-2.619141911848466
14.650000000000006,5.3006839295086285,-0.8015118427446871,-2.56144805375371
14.659999999999997,5.012042338209368,-0.7149211732081038,-2.461790731524193
14.670000000000002,4.642736711946013,-0.6036390587527565,-2.3546720737479423
14.680000000000009,4.2746966097719685,-0.4811054125461119,-2.246429469575414
14.689999999999998,3.9609147834369423,-0.3374798769218997,-2.1342856549770053
14.700000000000005,3.705434647900853,-0.1876645985412303,-2.016984446988009
14.710000000000008,3.5235597573834703,-0.0312876380434318,-1.894523685382038
14.72,3.372538191771313,0.1226224330141838,-1.7450167275775554
14.730000000000004,3.208313839563141,0.2689608322993181,-1.5833786691343
14.740000000000007,2.9828957371469644,0.4213976455875065,-1.4182034649330324
14.75,2.68565580896451,0.543172837866372,-1.2680233574920374
14.760000000000003,2.3436588076215727,0.6520663897992761,-1.1204711271603696
14.769999999999996,2.0283529583765447,0.7414438019969134,-0.9726708345732747
14.78,1.7633350545211466,0.8045371739973647,-0.8275538996636346
14.790000000000006,1.5520897000659235,0.8584493617606703,-0.684207835043427
14.799999999999995,1.3814043810587755,0.8947594234420457,-0.5311382184339778
14.810000000000002,1.21018467134983,0.9271913122471144,-0.3797841996369903
14.820000000000007,1.028727399925465,0.9517568272317712,-0.2282283477082659
14.829999999999998,0.811836912492414,0.9511262563350804,-0.0870081880909556
14.840000000000003,0.5786095761534195,0.9428884834593204,0.0494074035812563
14.850000000000009,0.3192476893756,0.9123288763746092,0.1613492542823693
14.86,0.0508956382332612,0.865945580307029,0.2709452368678467
14.870000000000005,-0.2479300526934315,0.8084692007518749,0.3572387269694204
14.879999999999995,-0.5613278014860078,0.7405750197190708,0.4318544189765654
14.89,-0.8795582188562825,0.6646942456927369,0.5022044931349003
14.900000000000006,-1.2300670529536746,0.5917086084350993,0.5516326169516144
14.909999999999997,-1.5608546936178105,0.5062290884993723,0.5923158802934012
14.920000000000002,-1.8867014700641933,0.4191346732673036,0.6341761254296783
14.930000000000009,-2.2141159836077087,0.3176758984964579,0.6797315628672452
14.939999999999998,-2.565515418251388,0.2090590396374188,0.7331295211258851
14.950000000000005,-2.941251717751122,0.093859082483158,0.7825854890576088
14.960000000000008,-3.331923119222836,-0.014212688408847,0.8186283875572997
14.97,-3.724858136643773,-0.1290714104065866,0.8345485855937467
14.980000000000004,-4.096817911386838,-0.2259134812957703,0.8369916606317
14.990000000000007,-4.428669986102845,-0.3098483214659041,0.8381435839281042
15.0,-4.723429415670961,-0.3881500583289508,0.826701865535597
15.010000000000003,-5.039367045734973,-0.4555219634944437,0.8254393678865172
15.019999999999996,-5.344004519724615,-0.5283144455063661,0.8282185347516736
15.03,-5.646130228335811,-0.6029894302536912,0.8473000805111413
15.040000000000006,-5.95090196948666,-0.6799735248136825,0.8659060888935478
15.049999999999995,-6.224335000760536,-0.7463646251488322,0.875819152019929
15.060000000000002,-6.474096690514931,-0.822864031702795,0.8800736065122516
15.070000000000007,-6.675105725261015,-0.8894959932680224,0.8781915915251078
15.079999999999998,-6.857767157941144,-0.9581348187176276,0.8752909651014191
15.090000000000003,-7.011486177974746,-1.0233818023845935,0.8688907267201899
15.100000000000009,-7.106417465031854,-1.0942289489033898,0.8626304181453044
15.11,-7.105662953406533,-1.1470204745924144,0.8506009382382028
15.120000000000005,-7.030716927719301,-1.189740538284689,0.8541279394256949
15.129999999999995,-6.89230742794398,-1.2157868566140548,0.8677533593907253
15.14,-6.786097979228162,-1.2280217322918332,0.9040167206792378
15.150000000000006,-6.715443823972723,-1.224051742032941,0.979740214613086
15.159999999999997,-6.686639974615475,-1.2275185636851906,1.072698623308487
15.170000000000002,-6.676308605200609,-1.2338870227964711,1.173506759220022
15.180000000000009,-6.633449161278221,-1.247575063573928,1.2690658657776
15.189999999999998,-6.579957417137472,-1.2807783504738184,1.3454246001061465
15.200000000000005,-6.472294669812584,-1.31707234897824,1.401962869675704
15.210000000000008,-6.336352047280081,-1.361248055701416,1.4268419853845655
15.22,-6.227819094710513,-1.384688958242356,1.4117084628366798
15.230000000000004,-6.132293027384098,-1.3977263495525076,1.359519310846946
15.240000000000007,-6.039929037228664,-1.3878451932192044,1.2881620363828528
15.25,-5.934338325539728,-1.341564321240703,1.218765229516224
15.260000000000003,-5.786954545578388,-1.2822832389663483,1.1793949312211591
15.269999999999996,-5.668636881350845,-1.2118066177177207,1.1883197025045626
15.28,-5.590352021240503,-1.1485516403635987,1.2232252725631656
15.290000000000006,-5.519765120938793,-1.0756926647483296,1.2757865148399203
15.299999999999995,-5.407050447577601,-1.0091152446297786,1.3214856881538353
15.310000000000002,-5.25210382791526,-0.9825306151711332,1.3798466325631689
15.320000000000007,-5.025180835046811,-0.9727849873317174,1.4062472835735855
15.329999999999998,-4.740506226546265,-0.980317076886072,1.4038287658257376
15.340000000000003,-4.420810026933267,-0.9976949526058756,1.3737933629353167
15.350000000000009,-4.087734716577198,-1.0254396749111336,1.330065423713119
15.36,-3.7942471608717625,-1.0502390612806012,1.2965738298841756
15.370000000000005,-3.502639662561382,-1.058328959395823,1.2352389688019818
15.379999999999995,-3.1923256227610564,-1.0481571501514175,1.156641214009987
15.39,-2.873764878567256,-1.0188739128008817,1.0611895864140966
15.400000000000006,-2.5620025454328204,-0.9763749292818512,0.9522482877696664
15.409999999999997,-2.2701095347760445,-0.924044548407143,0.8288066199153129
15.420000000000002,-1.980939789946191,-0.8762005812849729,0.723191126633341
15.430000000000009,-1.670797169332617,-0.8243358076256825,0.6135234258596639
15.439999999999998,-1.3659542307607817,-0.7634686350892361,0.5151641728839217
15.450000000000005,-1.055112070005907,-0.6930617583430316,0.4306409026422143
15.460000000000008,-0.7676781380038354,-0.6159394221684735,0.3725664592758111
15.47,-0.48127702857936,-0.5401800633548393,0.3095599736168983
15.480000000000004,-0.1876837817813046,-0.4476427892181199,0.2506983390378236
15.490000000000007,0.1150347273999195,-0.358165261815399,0.1910809933643681
15.5,0.4717678248204482,-0.2598395703547636,0.1065019422566037
15.510000000000003,0.8673373623068473,-0.1559271122433577,0.0421798353307099
15.519999999999996,1.2771005731054634,-0.0514361014547867,-0.0156677411854759
15.53,1.70320825639456,0.046499972441679,-0.0482527631598475
15.540000000000006,2.1246383417547605,0.1228780947662608,-0.0709916885621787
15.549999999999995,2.553134104545852,0.1959860181878548,-0.0947169258029376
15.560000000000002,2.95482518736356,0.2488402210053398,-0.1316650780563802
15.570000000000007,3.3551521714359023,0.28644200659108,-0.1742834686562596
15.579999999999998,3.727810417300778,0.350265153154846,-0.2445584672850643
15.590000000000003,4.084252442999071,0.41346181838396,-0.3245737531862916
15.600000000000009,4.406491388125626,0.4751566561834037,-0.402218694840421
15.61,4.68098956563094,0.5344778270931413,-0.4737898454235866
15.620000000000005,4.948102652480003,0.5795680017559013,-0.5183384143342162
15.629999999999995,5.224548432609961,0.6067998665533132,-0.5327992998698685
15.64,5.511383545350899,0.62516963903542,-0.5559669442966573
15.650000000000006,5.78460725500956,0.6416410115402394,-0.5804534801043046
15.659999999999997,5.992949278542142,0.6603843943468728,-0.6051615841774788
15.670000000000002,6.186478643882428,0.6903019717932918,-0.6074987145876337
15.680000000000009,6.4377456411800855,0.7166906655620827,-0.6154767700180571
15.689999999999998,6.688126843503923,0.7345911881044708,-0.6169948601220518
15.700000000000005,6.977629203023516,0.7401400851876786,-0.6227917958146585
15.710000000000008,7.253460861236669,0.7239435360859657,-0.6451609416378201
15.72,7.4740878483173585,0.6835440544395375,-0.6742798745871585
15.730000000000004,7.596732672954411,0.6137949264087691,-0.7155107540403894
15.740000000000007,7.640441373017466,0.5383867404777909,-0.7635350794716029
15.75,7.629351781873315,0.4540564478764766,-0.7905427440797184
15.760000000000003,7.577746164136174,0.3603370430066405,-0.8314355529829056
15.769999999999996,7.499504504939378,0.2582331709663476,-0.8552696076069435
15.78,7.417161363670885,0.157788889213757,-0.8858397436753651
15.790000000000006,7.357663269355923,0.0554810718284493,-0.9234141434666664
15.799999999999995,7.28728075852743,-0.0494858876503635,-0.966138149799072
15.810000000000002,7.240750877839357,-0.1441179179744149,-1.0316995476660578
15.820000000000007,7.182147042506741,-0.2369050371761671,-1.111277511000177
15.829999999999998,7.086019173561667,-0.3233099473896854,-1.1953289946222618
15.840000000000003,6.947223658351983,-0.39898974182594,-1.264841368588545
15.850000000000009,6.743749824822863,-0.464737580570499,-1.3256457937901391
15.86,6.510244260693321,-0.5230100005022235,-1.3725991271878848
15.870000000000005,6.247584590336103,-0.5824790011191028,-1.4095856564743257
15.879999999999995,5.960554059781096,-0.646056265100635,-1.455324656292906
15.89,5.643974371606904,-0.7045345741265389,-1.5091788210755592
15.900000000000006,5.283918069702339,-0.7762415347772362,-1.5606773175464623
15.909999999999997,4.874910358336443,-0.8391756833772657,-1.5764205025336426
15.920000000000002,4.462204786475311,-0.8918248540271779,-1.596402305775848
15.930000000000009,4.077772302807164,-0.9323278827403932,-1.5982392747227732
15.939999999999998,3.756960102008912,-0.9629728382212476,-1.581754816561743
15.950000000000005,3.517979017206609,-0.990828473790562,-1.5563504835723625
15.960000000000008,3.3390604010207805,-1.0046192327296786,-1.5052982417103464
15.97,3.211392991290734,-1.0129908895113082,-1.432122947205376
15.980000000000004,3.072551617430751,-1.0228719794405938,-1.3155505791447133
15.990000000000007,2.896800905466823,-1.0210568282030887,-1.1725518393520824
16.0,2.675104625985901,-1.015690168327278,-1.0255761049107623
16.010000000000005,2.4066283507138264,-0.9823776249218265,-0.8817463570074477
