time,Gyr_X,Gyr_Y,Gyr_Z
0.0,-0.0282930875296542,0.0005802851479758,-0.0019183359526001
0.0100000000000051,-0.0279881153633,0.0046837159845729,-0.0037935698977476
0.0200000000000102,-0.0285346020402727,-0.0001843675650052,-0.0053231017861292
0.0300000000000011,-0.0284308367332696,0.0010085773781753,-0.0047656191915611
0.0400000000000062,-0.0270061758717456,0.0022500005103196,-0.0056759059698853
0.0500000000000113,-0.0245380219477177,-0.0001055424090541,-0.0066568398487369
0.0600000000000022,-0.0251156317260216,0.0025923193133471,-0.0079233175832673
0.0700000000000073,-0.025953838273179,0.0018411413128632,-0.011680738695248
0.0800000000000125,-0.0242714011124815,0.0035989119904769,-0.0127552241683926
0.0900000000000034,-0.0273754538641532,0.0034187834499512,-0.0153742927510603
0.1000000000000085,-0.0261994279243614,0.0044101543679593,-0.0153684901598861
0.1099999999999994,-0.0250005519581778,0.0039743439455438,-0.0162049709966005
0.1200000000000045,-0.0289688979735601,0.0012652264198591,-0.0187361484953919
0.1300000000000096,-0.0307050039995233,-0.0001881483651216,-0.0179148305893425
0.1400000000000005,-0.0295302458212466,-0.001499536892032,-0.0154843293020131
0.1500000000000056,-0.0294747965527592,-0.001716347502312,-0.0168238921704991
0.1600000000000108,-0.0228791070234067,-0.0018366778346807,-0.0161930232392751
0.1700000000000017,-0.0163990974957167,-0.0009258039721903,-0.0128634967220562
0.1800000000000068,-0.0110035808002087,0.000560203964177,-0.012889131062114
0.1900000000000119,-0.0052582300560297,0.0028403277339791,-0.0102070661266218
0.2000000000000028,-0.0024736079715958,0.0033772460589915,-0.013450567932607
0.2100000000000079,-0.0002997499730062,0.0025994158205278,-0.0152002945737222
0.2199999999999988,0.0015641671198087,0.0028649635588704,-0.0129091505679101
0.2300000000000039,0.0030416683938307,0.0017238460737647,-0.0138222598250546
0.2400000000000091,0.0013179565758341,-0.0005816624756982,-0.0083651359127626
0.25,0.0012345444268865,0.0031848973634129,-0.0071483724540871
0.2600000000000051,-0.00407952795625,0.0030565704403909,-0.0058900029149516
0.2700000000000102,-0.0077852528861427,0.0016153574420316,-0.0038039403738237
0.2800000000000011,-0.0118145849000485,-0.0004438405633427,-0.007665302431705
0.2900000000000062,-0.0143150350605764,0.0030014578980215,-0.0039861968083589
0.3000000000000113,-0.0180429321498949,0.0013259014566572,0.0010225318354108
0.3100000000000023,-0.0144051919489945,-0.004142618786312,0.0035463100039541
0.3200000000000074,-0.0123762511376359,0.0001463261548811,0.0046384340020078
0.3300000000000125,-0.0094033009119571,-0.0005620512906425,0.0065518466214481
0.3400000000000034,-0.0070766517499194,-0.0014211092980981,0.0072023524840441
0.3500000000000085,-0.0090803701565692,0.0003276525652712,0.005784852985502
0.3599999999999994,-0.0034244895794022,0.0024803545544509,0.0052518289499292
0.3700000000000045,-0.0085477303652513,0.0057881066103609,0.0076714548818027
0.3800000000000096,-0.0105984625741889,0.0069689203619026,0.0030677433848975
0.3900000000000005,-0.0069551558316242,0.0061941057802848,0.0037160208786286
0.4000000000000057,-0.01261667054743,0.0064608521051204,0.0084067840699834
0.4100000000000108,-0.012662967101446,0.0038561264843225,0.0106395386331692
0.4200000000000017,-0.0116328116459855,-0.0020143093795784,0.01512422979081
0.4300000000000068,-0.0141433845855123,-0.0014135338655273,0.0181585699404511
0.4400000000000119,-0.028766532726293,-0.0013972613516465,0.0236950493265914
0.4500000000000028,-0.037005880189194,0.001976002606802,0.0240771964936265
0.4600000000000079,-0.0476225918955735,0.0063647828279451,0.0234105179285379
0.4699999999999988,-0.0532948541894384,0.0078188542066827,0.0262688535957997
0.480000000000004,-0.0572485003770612,0.0089589487102855,0.029400856826037
0.4900000000000091,-0.0601269298020442,0.0107536504931431,0.0219655890115193
0.5,-0.0709441868273788,0.0124339118002923,0.0230311360637336
0.5100000000000051,-0.0728952529994181,0.0142680202183354,0.0194648126336057
0.5200000000000102,-0.0733273727332214,0.0115737927637515,0.0150588031410949
0.5300000000000011,-0.0777570650897038,0.0077849090637188,0.0136687629944224
0.5400000000000063,-0.0782524872105142,0.004318285410903,0.0171278711190993
0.5500000000000114,-0.0761902624665284,-0.002795835032254,0.0139289417221262
0.5600000000000023,-0.0726929342958048,-0.0030645511341585,0.0146289936773741
0.5700000000000074,-0.0671396844702431,-0.0053439192612026,0.0161010115970422
0.5800000000000125,-0.0622000974459358,-0.0054047456896698,0.0195116794596475
0.5900000000000034,-0.0512532305155528,-0.0078872539965485,0.0117202903462201
0.6000000000000085,-0.0448749399058638,-0.0099465912429093,0.0112761158877601
0.6099999999999994,-0.0359637185185571,-0.006225701404837,0.0110912843468645
0.6200000000000045,-0.0279292531209117,-0.0059985526360629,0.013816378986285
0.6300000000000097,-0.0191704124554519,-0.0041097167560834,0.010397176398337
0.6400000000000006,-0.0057626184273864,0.0008613538470275,0.0108012188164908
0.6500000000000057,-0.0018707000377307,0.0052879355830526,0.013751576434305
0.6600000000000108,0.0017988113047334,0.0078269413284526,0.007383648917942
0.6700000000000017,-0.0055514050148091,0.0071588236287532,0.0033542313522697
0.6800000000000068,-0.0331506128704386,0.0184302705857958,-0.00603959374511
0.6900000000000119,-0.0565038895289106,0.022057173252907,-0.0016306511715164
0.7000000000000028,-0.0876233218621865,0.0235940165954094,-0.0117514332216305
0.710000000000008,-0.1143869973499372,0.0260646057993212,-0.0214608199229851
0.7199999999999989,-0.1510447823344953,0.0145355458646881,-0.0222194624681101
0.730000000000004,-0.1971529277960552,0.0176301172346462,-0.0336641047116904
0.7400000000000091,-0.2358149438579366,0.0087095644549741,-0.0293223632858243
0.75,-0.290334633578185,0.0123496952790983,-0.0325701424720665
0.7600000000000051,-0.3393329798167674,0.0159309166027703,-0.0315029171945536
0.7700000000000102,-0.3821956267199791,0.0084085383463391,-0.0202342520370311
0.7800000000000011,-0.4299354788358728,0.0045032439641403,-0.0105468039539358
0.7900000000000063,-0.47418256207336,0.0083008812856907,0.0001360639045412
0.8000000000000114,-0.5136833481074481,0.0076477080007096,0.0079559924548128
0.8100000000000023,-0.5305074020991941,-0.0212453343498505,0.0056050456629627
0.8200000000000074,-0.5608349452496932,-0.027863814984216,0.0006992525020004
0.8300000000000125,-0.5754981406127125,-0.0497640650614937,-0.0068582392578671
0.8400000000000034,-0.5949830654683906,-0.0550328230436706,-0.0159000165465784
0.8500000000000085,-0.6238530981997035,-0.0424730280308206,-0.0140208992797104
0.8599999999999994,-0.6397922550408367,-0.0481863447054097,-0.0157154283283797
0.8700000000000045,-0.6616345779796684,-0.0566578636582717,-0.0144055261514947
0.8800000000000097,-0.6645507561138384,-0.0706632406169169,-0.0016643144637856
0.8900000000000006,-0.6566038311147436,-0.0874675129900759,0.0224543003817038
0.9000000000000057,-0.6483720220512277,-0.0759092060805039,0.0316460551836175
0.9100000000000108,-0.6309373259096974,-0.0715084935389793,0.03129502988
0.9200000000000016,-0.5974339322934616,-0.0788150840333914,0.034701424912054
0.9300000000000068,-0.5657612467900136,-0.0826768765271653,0.0383173131092601
0.940000000000012,-0.5465346311474694,-0.082162930774756,0.0383471208968828
0.9500000000000028,-0.522459433200481,-0.0716182673759959,0.0348179660767946
0.960000000000008,-0.5090967482395772,-0.0662466983301541,0.0297275097847289
0.9699999999999988,-0.5030021867606781,-0.0590965660416714,0.0224054271017145
0.980000000000004,-0.50866572759673,-0.0545196098139071,0.0236372438214593
0.9900000000000092,-0.5183966165692464,-0.0555514904432462,0.0220557061554329
1.0,-0.5363346412245455,-0.0547921946635769,0.014944782721209
1.0100000000000051,-0.5571683240397762,-0.0554497753999556,0.0082597169088833
1.0200000000000102,-0.5826328589515215,-0.0564077809456919,0.0054632718358782
1.0300000000000011,-0.6095775496718981,-0.0535766416553601,0.0026663647550578
1.0400000000000065,-0.6389885433321169,-0.0537143382075899,-0.0087274676466627
1.0500000000000114,-0.6710349504208315,-0.0477678247860942,-0.019470246768978
1.0600000000000025,-0.7102042805365639,-0.0424019594522346,-0.0281931683888991
1.0700000000000074,-0.756648457461644,-0.0425755155812736,-0.0427736351804131
1.0800000000000125,-0.80677880865079,-0.0452193370802075,-0.0615047703759298
1.0900000000000034,-0.8500658700506297,-0.0469090618876259,-0.0675983750465746
1.1000000000000083,-0.9011864043531744,-0.0501735046404968,-0.0697599336448102
1.1099999999999994,-0.947380299669294,-0.0498605413070606,-0.0758677110525305
1.1200000000000043,-0.9882539775584084,-0.0487293140619984,-0.0830025215150404
1.1300000000000097,-1.0182749601999748,-0.0495732688783296,-0.0828855305978279
1.1400000000000006,-1.0551935601407645,-0.0483466281495313,-0.0856456054492687
1.1500000000000057,-1.099721682121368,-0.0470618578927707,-0.0868255665498819
1.1600000000000108,-1.1600963559511568,-0.0524392617237925,-0.0872755536622945
1.1700000000000017,-1.2242841846381574,-0.0538109236910979,-0.0943159261157211
1.1800000000000068,-1.305368115379696,-0.061547652931526,-0.0979061418395784
1.190000000000012,-1.3889084354062438,-0.0633027754743879,-0.1044410116944987
1.2000000000000028,-1.4662239015962866,-0.0651874202626617,-0.1030756800997064
1.210000000000008,-1.534321452340061,-0.0651631912841716,-0.0987176361699456
1.2199999999999989,-1.5866078191957065,-0.0610939471075977,-0.0986686120693936
1.230000000000004,-1.6275546442222708,-0.059524084765797,-0.1029506656247351
1.240000000000009,-1.6444915931925863,-0.0642964103453132,-0.0953699571521776
1.25,-1.6629119268210866,-0.0701569423381338,-0.0779655342244448
1.2600000000000051,-1.689163048581228,-0.0783159128253126,-0.0580934606084694
1.2700000000000102,-1.7138303934397925,-0.0959549865848898,-0.0308850815572889
1.2800000000000011,-1.7448344827439175,-0.1141290571290661,-0.0024642217230265
1.2900000000000065,-1.7807016407449223,-0.1213155866713756,0.0217231143023169
1.3000000000000114,-1.819071785150856,-0.1312878334893982,0.0516793477657942
1.3100000000000025,-1.8650230525001743,-0.1387702849418749,0.0767072684259792
1.3200000000000074,-1.9246100118878045,-0.1430989539634425,0.0921263508986712
1.3300000000000125,-1.9882553601027777,-0.1466316274066853,0.1136373800539707
1.3400000000000034,-2.066364238947016,-0.1496135173440702,0.1292906231694642
1.3500000000000083,-2.1510396301873413,-0.1498788263227952,0.1432026989554991
1.3599999999999994,-2.229193092467934,-0.1464744828036238,0.1531194226351505
1.3700000000000043,-2.298381595701628,-0.1491203766539139,0.1599667332201842
1.3800000000000097,-2.3665172448635605,-0.1585174939069624,0.1737079374625853
1.3900000000000006,-2.414990602715992,-0.1685650236166677,0.1783452552105897
1.4000000000000057,-2.446701253201769,-0.1793332506556816,0.1871032555115176
1.4100000000000108,-2.465270910645918,-0.1710368056192817,0.2013233618797378
1.4200000000000017,-2.467660150167463,-0.1454874166229698,0.2050311637611838
1.4300000000000068,-2.432576056955555,-0.1225067176720215,0.1986096861828754
1.440000000000012,-2.36594032086845,-0.1057526962289936,0.185632062789032
1.4500000000000028,-2.28933929837686,-0.0975310826680454,0.175632775056004
1.460000000000008,-2.217410785809849,-0.0942904444487016,0.1631394412011831
1.4699999999999989,-2.172690478612573,-0.0870352991742575,0.1549376858606048
1.480000000000004,-2.161251291153782,-0.0831608222183537,0.1433304645887824
1.490000000000009,-2.1825738083014445,-0.0836763093418205,0.1340012935732893
1.5,-2.232979329982109,-0.0939117826625082,0.1335488840003298
1.5100000000000051,-2.272696999181353,-0.1089409694750842,0.1351081007333145
1.5200000000000102,-2.2809396554953487,-0.1186552126417874,0.1364093132547916
1.5300000000000011,-2.2614494210403064,-0.1190647252773616,0.1364011757942729
1.5400000000000065,-2.2132415275817925,-0.1236432880464076,0.1534154251003018
1.5500000000000114,-2.164396744793439,-0.123782898716608,0.1789269940507298
1.5600000000000025,-2.1248474207361667,-0.1144967205662791,0.2046974715192543
1.5700000000000074,-2.097598899946422,-0.1040267235218357,0.2184929830317719
1.5800000000000125,-2.050763477425536,-0.1055349188410127,0.2232205581788956
1.5900000000000034,-1.974663572788285,-0.1072646995405883,0.2257566350583356
1.6000000000000083,-1.8631860132098417,-0.11356404346992,0.2206127026048192
1.6099999999999994,-1.7184135476972962,-0.1147054562628844,0.2127578215453332
1.6200000000000043,-1.5618236576487323,-0.1108659451676329,0.2099026563484042
1.6300000000000097,-1.4145785151829615,-0.105333267340993,0.2057277813334469
1.6400000000000006,-1.2698710890700171,-0.1032848414761812,0.1988575783127408
1.6500000000000057,-1.1252685571606054,-0.1005317419029212,0.188375444175523
1.6600000000000108,-0.978657823098949,-0.0955986897137409,0.1636379888227561
1.6700000000000017,-0.810503587231173,-0.0895427912734994,0.1302854715769914
1.6800000000000068,-0.6303903762734656,-0.0818227942271758,0.0986580390094401
1.690000000000012,-0.4431143480523836,-0.0738013972620347,0.0679104072273028
1.7000000000000028,-0.2619876354499377,-0.0579224762288439,0.0478303176935735
1.710000000000008,-0.0966218207285981,-0.0448385316282412,0.0327714012354241
1.7199999999999989,0.0565592277989511,-0.0336435196741483,0.0142861562664289
1.730000000000004,0.2032590350714689,-0.0236638865001769,-0.0106125197738295
1.740000000000009,0.3581735761451377,-0.0148415416651926,-0.0341410306191662
1.75,0.4973305861193396,-0.0017854675741251,-0.0644685963259072
1.7600000000000051,0.6058893116037138,0.0156069190706266,-0.0872088924434127
1.7700000000000102,0.7020537328506282,0.0284354105967616,-0.1079104604392975
1.7800000000000011,0.7736624802697217,0.0308996828704055,-0.1129395828338925
1.7900000000000065,0.8354196641505167,0.026129008650727,-0.1146087634972366
1.8000000000000114,0.897411560655549,0.0199802483413882,-0.1079275960388381
1.8100000000000025,0.964398844875588,0.0096123253920542,-0.111001515328435
1.8200000000000076,1.047249612509592,0.0068647308318439,-0.1183256136469507
1.8300000000000125,1.143276153229877,0.0234935728067083,-0.1229442528610871
1.8400000000000036,1.2406617298263714,0.0441052766545523,-0.1378294676022235
1.8500000000000083,1.3161681187298475,0.0647247258949289,-0.1454424299386758
1.8599999999999997,1.3666612792918726,0.0595965989631907,-0.143190473930062
1.8700000000000043,1.400170520920749,0.0422436124947386,-0.124776431915185
1.8800000000000097,1.422710758602169,0.0241537716025964,-0.1116757900120768
1.8900000000000008,1.4467833778601973,0.0096872263189232,-0.0904500352173423
1.9000000000000057,1.485435058656605,-0.004013916919568,-0.0767410938675202
1.9100000000000108,1.5553385125221149,-0.0031442563027018,-0.0676743860192948
1.9200000000000017,1.6432114396230375,0.0025262593087269,-0.0711916815388686
1.9300000000000068,1.738888726231615,0.0140119402224985,-0.0768781197845475
1.940000000000012,1.8243010821848025,0.0212457106831241,-0.0873088550579714
1.9500000000000028,1.8901587830091116,0.0079843691564515,-0.0931063395941766
1.960000000000008,1.936907699073924,0.0038240299750873,-0.0945673482073365
1.9699999999999989,1.968783505656248,-0.0009036176919205,-0.0840519559781694
1.980000000000004,1.9940929188648808,-0.0061829551669473,-0.0599279731069682
1.990000000000009,2.019905975157164,-0.0034768951920497,-0.0412301546212623
2.0,2.0485920447893733,0.0071837319817625,-0.030335366086822
2.010000000000005,2.0664478673377893,0.0226098617443223,-0.0208220315677544
2.0200000000000102,2.085884496022758,0.0299028917893832,-0.003451976022803
2.030000000000001,2.106859151865061,0.0315373739061809,0.0028991151742533
2.0400000000000063,2.117111078414142,0.0286860163746782,0.0096476587387695
2.050000000000012,2.1162202949497426,0.0272682445156938,0.0026417897076729
2.0600000000000023,2.0905004019527484,0.0166626474037409,-0.0026091861111588
2.0700000000000074,2.0641436323327027,0.0031610893589421,-0.0053389720500188
2.0800000000000125,2.040130316669171,0.003313911802576,-0.0039655548670723
2.0900000000000034,2.027216156123328,0.0019620309638465,-0.0074394475882985
2.1000000000000085,2.017732413389838,0.0032919655953605,0.0009116900451679
2.1099999999999994,2.019521914621516,0.0111210868333764,0.0088471328170096
2.1200000000000045,2.032526821992321,0.0127690940177561,0.0218315628134556
2.1300000000000097,2.054400066788888,0.0199428995076065,0.0273515460524121
2.140000000000001,2.088913382876787,0.0300975699320379,0.0343671784629684
2.1500000000000057,2.126733717278994,0.0492004158651125,0.032337625191625
2.160000000000011,2.1711691371163115,0.0602998276697351,0.0272723905450883
2.1700000000000017,2.222204618335555,0.0772203991206555,0.0191161027840479
2.180000000000007,2.2795278024468324,0.0936904190048983,0.003669646384922
2.190000000000012,2.3505896840115112,0.1005045298969564,-0.009934204773361
2.200000000000003,2.4298370512000345,0.1196751291811932,-0.0230095301152103
2.210000000000008,2.5110488052540263,0.1328091430154179,-0.0353624400397736
2.219999999999999,2.594196768552248,0.1294919786372453,-0.0529267206853509
2.230000000000004,2.6715867126934154,0.1307097724711374,-0.0744588312637775
2.240000000000009,2.7403290169347985,0.1414311510146618,-0.0954185973031366
2.25,2.795996928005754,0.1537531186103155,-0.1189066945605773
2.260000000000005,2.837808867143208,0.1602500150526781,-0.1383787429553303
2.2700000000000102,2.874733699787538,0.1601860912515514,-0.1453322020980155
2.280000000000001,2.908367811358213,0.1635362006265127,-0.1505377785564317
2.2900000000000063,2.9388104953654985,0.1688860505523529,-0.1495416027867668
2.300000000000012,2.9664943771347745,0.1791424128095499,-0.1562074622887047
2.3100000000000023,2.9914061885166863,0.1911561829599499,-0.1623683810018291
2.3200000000000074,3.0123564872465574,0.2140321744525788,-0.1681559395604557
2.3300000000000125,3.033359626895527,0.2389894539316863,-0.1679659466192755
2.3400000000000034,3.0536120616887463,0.2705857031740736,-0.1518604291489103
2.3500000000000085,3.066973710224515,0.2791832061915665,-0.1359637899594932
2.3599999999999994,3.071950553205581,0.2902206509458867,-0.1066596733994594
2.3700000000000045,3.0633914669993683,0.3057606469547243,-0.0786640913639683
2.3800000000000097,3.036001508569695,0.3204497204201329,-0.0491456169280737
2.390000000000001,2.985940436655364,0.3153706198315684,-0.0292839822083403
2.4000000000000057,2.9326097692940256,0.300860365320928,-0.0102076597991545
2.410000000000011,2.861172239523579,0.2902893935817266,0.0122928435754089
2.4200000000000017,2.7767728234569304,0.2858231461685707,0.0429437947790901
2.430000000000007,2.6937342180140367,0.2795731394376228,0.0736735915274862
2.440000000000012,2.597475570387624,0.2724918864011293,0.1000104523487475
2.450000000000003,2.498894088154858,0.2645898388903948,0.1301132242209786
2.460000000000008,2.4045316551303797,0.2458093956827524,0.1686328215748035
2.469999999999999,2.3187115961366587,0.2307123744337126,0.2062197861470014
2.480000000000004,2.227507638032166,0.2239419668811363,0.2376081136064172
2.490000000000009,2.130733471997837,0.2076845797786683,0.2550941501296493
2.5,2.025880391455505,0.1770837077004607,0.2590819110543785
2.510000000000005,1.911204007716252,0.1430503461399096,0.2578811677123976
2.5200000000000102,1.7890684022286585,0.1106598787753446,0.270418912078349
2.530000000000001,1.6669371504864816,0.0747491390819175,0.2805381264937971
2.5400000000000063,1.5564963170262942,0.0365442883952036,0.2905347914056762
2.550000000000012,1.4607090500796516,-0.0059155797684179,0.3003992659025825
2.5600000000000023,1.3824814346189385,-0.0454540008318687,0.3067789125396709
2.5700000000000074,1.3190668562331431,-0.0734473523059868,0.2996600543456296
2.5800000000000125,1.2701758964537806,-0.0999321769436253,0.2885220832624783
2.5900000000000034,1.2538364589866635,-0.1132143563116786,0.2816122805031686
2.6000000000000085,1.2674245456838165,-0.1401776649407582,0.2778185295167674
2.6099999999999994,1.3105132340868386,-0.1484062775794952,0.2680506607179654
2.6200000000000045,1.3933621320162253,-0.1668014671706927,0.2579078268997799
2.6300000000000097,1.502748368904797,-0.2001126706742276,0.2503459149776981
2.640000000000001,1.6307432456710185,-0.2268819045057735,0.2416262901429551
2.6500000000000057,1.7725153886254814,-0.2490434242482283,0.2305517613236369
2.660000000000011,1.905221978130836,-0.246423890721755,0.2152320934704232
2.6700000000000017,2.0210327453316945,-0.2349840443458136,0.1952531143809771
2.680000000000007,2.1133083099518,-0.2144876805758026,0.18395937155194
2.690000000000012,2.179556977604417,-0.2019226778981317,0.1793056327470844
2.700000000000003,2.218780699231986,-0.2014999085754318,0.1751201714417494
2.710000000000008,2.2236045718432167,-0.1932823289908908,0.1779434101870237
2.719999999999999,2.1977325339717817,-0.1804160099103192,0.1850908295498454
2.730000000000004,2.14323593003713,-0.1628999345823917,0.1887455464294708
2.740000000000009,2.0596816966433606,-0.1592489332225317,0.1949072240957504
2.75,1.9448294226474772,-0.1503844846012348,0.1990412507727698
2.760000000000005,1.8097586113157555,-0.1457509712956651,0.194850719823684
2.7700000000000102,1.6516756496626646,-0.1435765744346984,0.1891073412055613
2.780000000000001,1.4685527627439854,-0.1500840730535732,0.1832758882783903
2.7900000000000063,1.2826608532754369,-0.1404806307666608,0.167693290374754
2.800000000000012,1.1036845580652213,-0.1338923990945093,0.1586654986925149
2.8100000000000023,0.93856384413011,-0.1258474508880971,0.1556334032720982
2.8200000000000074,0.8078668736048068,-0.1208356708156946,0.1401393453115183
2.8300000000000125,0.7157601944039925,-0.1213060533238862,0.1181861473785469
2.8400000000000034,0.660602688733225,-0.1085602152717227,0.0950046515003224
2.8500000000000085,0.6395912918941635,-0.0864046012741148,0.0794891633182019
2.8599999999999994,0.6187578090245363,-0.0604636145369821,0.0758426126418888
2.8700000000000045,0.5925610775083848,-0.0383631930799804,0.0736430839113983
2.8800000000000097,0.5600173632591171,-0.0218722157444566,0.0643821430511036
2.890000000000001,0.518765453373901,-0.0147439511400108,0.0486342473643009
2.9000000000000057,0.47896627802592,-0.0084247386947012,0.029763474287377
2.910000000000011,0.4449057067287394,0.0042498601220495,0.0102924250322013
2.9200000000000017,0.4227284506734582,0.0166409493232923,-0.0023313970349538
2.930000000000007,0.3942188249886592,0.0296411599940836,-0.0174042995701065
2.940000000000012,0.3585321616101876,0.0372100868358241,-0.0190061254632857
2.950000000000003,0.3055923843340674,0.0463640253139482,-0.010509706790539
2.960000000000008,0.2289812212028562,0.0489496357458457,0.0047708811205867
2.969999999999999,0.1403894815747663,0.0423577276834971,0.0106567208302672
2.980000000000004,0.04771362363672,0.0360357833631851,0.008274058411898
2.990000000000009,-0.0342921887339667,0.0321379692232112,0.0025857410350376
3.0,-0.1157844153313758,0.0279004020272696,-0.0081203109183101
3.010000000000005,-0.1916961784222618,0.0296758594958893,-0.0082996160581361
3.0200000000000102,-0.2655428225967242,0.0329851205083721,-0.0070794829209219
3.030000000000001,-0.346992945772049,0.0298413243624114,-0.0008298917703661
3.0400000000000063,-0.4201465225228643,0.028216904471948,-0.0034927140444878
3.050000000000012,-0.495974238738801,0.0257129131498836,-0.013196854527698
3.0600000000000023,-0.5544806027769755,0.0243195651890583,-0.028752666853874
3.0700000000000074,-0.5980181243638837,0.0251072842430881,-0.0493815168641254
3.0800000000000125,-0.6509090151527966,0.0346337441329528,-0.0665315776602451
3.0900000000000034,-0.7042491420006248,0.0436482785455534,-0.0737233792989689
3.1000000000000085,-0.7621186721987838,0.0579678476129612,-0.0709522587330149
3.1099999999999994,-0.8252121227093993,0.0678207453447893,-0.0650529526226625
3.1200000000000045,-0.8848103988223105,0.0771966491929873,-0.0656050742774652
3.1300000000000097,-0.9367343338130252,0.0876148487494796,-0.0734913123694989
3.140000000000001,-0.9859066505036082,0.0896121249196897,-0.0888451259697806
3.1500000000000057,-1.036354485894469,0.0973811738087042,-0.093280682439969
3.160000000000011,-1.0981838482740436,0.1093136157866876,-0.0954722312005833
3.1700000000000017,-1.167812018670033,0.1173379037413224,-0.0973487349040219
3.180000000000007,-1.2429474911132536,0.1195609656923159,-0.0897207687206067
3.190000000000012,-1.3223562405622402,0.1226552054487404,-0.0756160437000651
3.200000000000003,-1.3918829974380575,0.1187418407540525,-0.0638026084860938
3.210000000000008,-1.447606693514763,0.1230842951073294,-0.0589023731406532
3.219999999999999,-1.5060861246286688,0.1204623940782133,-0.065544334942531
3.230000000000004,-1.5728469343099718,0.1159282939714588,-0.0701426360407002
3.240000000000009,-1.6465996178927278,0.1071051719129429,-0.0725663814007184
3.25,-1.723714673903885,0.1010225130662821,-0.0622432423570205
3.260000000000005,-1.790544954123494,0.0982387239780277,-0.0539680972376662
3.2700000000000102,-1.8483364271854072,0.0892219039423827,-0.0457933668446607
3.280000000000001,-1.8974908565294448,0.0792415012288153,-0.0417976359335825
3.2900000000000063,-1.934720637230604,0.0600014456286971,-0.0379660187444217
3.300000000000012,-1.9590654225802704,0.0413639053821345,-0.0343286490018331
3.3100000000000023,-1.9834855536460336,0.0312287699800202,-0.0395288084376961
3.3200000000000074,-1.9993197587799665,0.0273972835649434,-0.042873982472786
3.3300000000000125,-2.0211061860901,0.0216348975176423,-0.0517982577141021
3.3400000000000034,-2.0441076078504934,0.0155476901205592,-0.0562000287702657
3.3500000000000085,-2.067658900037339,0.0104801463516229,-0.038275651324809
3.3599999999999994,-2.0834253706495485,0.001053043981627,-0.0292146641079541
3.3700000000000045,-2.0936833154405283,-0.0051169003610426,-0.0264046288198091
3.3800000000000097,-2.0992027577250263,-0.0099804541193098,-0.0296158056723022
3.390000000000001,-2.09225659783088,-0.0112231559916903,-0.042941215505422
3.4000000000000057,-2.076425510181656,-0.0023138914111643,-0.0635085038412482
3.410000000000011,-2.057936600733467,0.0143458475644164,-0.079106469755057
3.4200000000000017,-2.0268236734013025,0.0303091459012422,-0.0868057456137624
3.430000000000007,-1.9974757253938935,0.0462460984690303,-0.0872725702171382
3.440000000000012,-1.9731575707312412,0.0480217940422172,-0.0852027969837337
3.450000000000003,-1.9407087217604104,0.0411982268954301,-0.0754261745412278
3.460000000000008,-1.9023197064542456,0.0402066650099671,-0.0711516250890639
3.469999999999999,-1.875026374783233,0.0387505860982457,-0.0736241960208368
3.480000000000004,-1.861015512950348,0.0395797134783455,-0.0794404105213081
3.490000000000009,-1.862590000573918,0.0392424020956066,-0.0829936407592484
3.5,-1.88158566610694,0.03869441954124,-0.0796488599294515
3.510000000000005,-1.908954832546154,0.0313083323485562,-0.0684118389336859
3.5200000000000102,-1.9346324068752023,0.028577963208056,-0.0583653744605996
3.530000000000001,-1.9582735163804736,0.0154250180611029,-0.0519974169664405
3.5400000000000063,-1.9842795036216463,0.002948164394229,-0.0534388258368678
3.550000000000012,-2.01926507073864,-0.0056646664962766,-0.057455959310079
3.5600000000000023,-2.0603469042511326,-0.0064864128627803,-0.0598551617659405
3.5700000000000074,-2.1071479588617192,-0.0051125197293828,-0.0597048854058749
3.5800000000000125,-2.15505013512119,-0.0117866182670454,-0.0546726305736817
3.5900000000000034,-2.1945518106826896,-0.0187959356123276,-0.0429192722536847
3.6000000000000085,-2.229454316533872,-0.0231693461398284,-0.0363670141681306
3.61,-2.2668200191101118,-0.0259834766647924,-0.0311529450807655
3.620000000000005,-2.307618327332382,-0.0316556396833026,-0.0265647776882489
3.6300000000000097,-2.341422698864101,-0.0366127408079364,-0.0181681761186356
3.640000000000001,-2.3666099102545903,-0.036050818740216,-0.0071796013648535
3.6500000000000057,-2.3728303075896866,-0.0284509439451095,0.0023676653265453
3.660000000000011,-2.3622865021711026,-0.0182612188383616,0.001009133466057
3.6700000000000017,-2.3381541014648954,-0.0041275666675795,0.0004123899398963
3.680000000000007,-2.3084965187825053,0.0033477699937945,-0.0007364359443652
3.690000000000012,-2.2765001131295763,0.013630506112748,0.0025390694452249
3.700000000000003,-2.226064171929564,0.0178790934765369,0.0021971319246403
3.710000000000008,-2.175280754114777,0.0272191262008731,0.0002177376792239
3.719999999999999,-2.113058469496956,0.033657750948974,-0.0006332928705503
3.730000000000004,-2.0562893252382004,0.0485728377135156,-0.0016810658461322
3.740000000000009,-2.014549100896595,0.0591295270065344,-0.0103378847781398
3.75,-1.986773126584702,0.0675248815508493,-0.0135847608600272
3.760000000000005,-1.9779933333023223,0.0716502498021092,-0.015334146983404
3.77000000000001,-1.9889530348037912,0.0702216278719925,-0.0130794573672571
3.780000000000001,-2.0066134883801743,0.0582371200017155,-0.0111153651812618
3.7900000000000063,-2.028001744997977,0.0427440270371705,0.0039244822058964
3.8000000000000114,-2.047511360787368,0.0311174458638845,0.0197157500129569
3.8100000000000014,-2.0576179067658438,0.0184559536611718,0.0209987624213553
3.820000000000008,-2.0624859307807277,0.0201064606019576,0.0251100955789398
3.830000000000013,-2.0733824981808966,0.0275649537729903,0.0234697861772647
3.8400000000000034,-2.094053389952192,0.0318932065515817,0.0173275145811005
3.850000000000009,-2.121126776477809,0.0328361579528665,0.0046782285952593
3.86,-2.148927006668149,0.0271136387789178,0.0001917761847409
3.870000000000005,-2.162537636760704,0.0228674829945578,-0.0051817844298741
3.8800000000000097,-2.165192121971603,0.012542138135478,-0.0026562232418176
3.890000000000001,-2.1596914546287413,0.0140285926145156,0.0050609359951213
3.9000000000000057,-2.1596604729067543,0.0264360784068639,0.0208024304228569
3.910000000000011,-2.163119532053984,0.0339115595159083,0.0246213932017425
3.9200000000000017,-2.1818464854936708,0.0326393429359875,0.0249952732458944
3.930000000000007,-2.215147202334089,0.0459040165989068,0.0144111780775474
3.940000000000012,-2.249908599547293,0.0543922923884925,-0.0082242316217968
3.950000000000003,-2.2867572789368893,0.0484031715453255,-0.0188797801491064
3.960000000000008,-2.312696881902282,0.0516848979727572,-0.0195551081457253
3.969999999999999,-2.3293019340962013,0.0601614022537667,-0.0281239645674432
3.980000000000004,-2.323862678745374,0.0537708735610397,-0.0311933232215641
3.990000000000009,-2.317855222787751,0.0631886759680241,-0.0333050382725109
4.0,-2.3081255283175683,0.0665717888078331,-0.0404575047240925
4.010000000000005,-2.315562773502955,0.0684198039519667,-0.0469364493103334
4.02000000000001,-2.331362700989577,0.0753860940007237,-0.049514033192662
4.030000000000001,-2.335026713162277,0.0765098093491364,-0.0497346192224862
4.040000000000006,-2.331040472120294,0.0912716390680484,-0.0570458484408656
4.050000000000011,-2.3063802973958496,0.1065411609890078,-0.0812907187086341
4.060000000000002,-2.264498021347574,0.1058958821936107,-0.1179674309739556
4.070000000000007,-2.1963070730506304,0.1123855286845393,-0.1521696411691645
4.0800000000000125,-2.098862398637688,0.1199101085336276,-0.1704080117400488
4.090000000000003,-2.002514350527201,0.1271231340295946,-0.1610723829172914
4.1000000000000085,-1.8970526265382777,0.1290059380648154,-0.1429031905663091
4.109999999999999,-1.801506745489708,0.1361678432519176,-0.1207554015562843
4.1200000000000045,-1.7080678061444494,0.1263616309250938,-0.1065511623978805
4.13000000000001,-1.6013319438610596,0.0941774141512564,-0.1181670161616685
4.140000000000001,-1.4903740200548312,0.0654093028966437,-0.1398050325002527
4.150000000000006,-1.3574451163267105,0.0517151669541266,-0.1444439033225871
4.160000000000011,-1.214205313146687,0.0410351787572415,-0.1368009533466206
4.170000000000002,-1.052738664771583,0.0497975920489146,-0.1137794197050987
4.180000000000007,-0.8690111410191834,0.0624450458350051,-0.0963215112172109
4.190000000000012,-0.6730994227067404,0.063719813208415,-0.0820041150974983
4.200000000000003,-0.464875080117742,0.0673570721212092,-0.0719543315441786
4.210000000000008,-0.2577904410189575,0.0708022487544772,-0.0778269105046647
4.219999999999999,-0.0379591305344971,0.0721768512864312,-0.0925257552940171
4.230000000000004,0.1700532140225831,0.0784061798587812,-0.1030340219847853
4.240000000000009,0.3776795122294424,0.0770779388520777,-0.1022587832182175
4.25,0.5743409458043044,0.0749836431149303,-0.0883588850919351
4.260000000000005,0.7541407002014876,0.0774129879306261,-0.0672693546245704
4.27000000000001,0.9099505060939516,0.0838584100251953,-0.048261325261565
4.280000000000001,1.0295005592323558,0.0883798746652642,-0.0334957292241377
4.290000000000006,1.1222832858082372,0.0790860672427806,-0.015100652893812
4.300000000000011,1.1995150904889198,0.0675727241389776,-0.0029096833489172
4.310000000000002,1.2686541076738538,0.0609799149633692,0.0057462224559394
4.320000000000007,1.3327242138874913,0.0542164478733156,0.0154099455097118
4.3300000000000125,1.395606060556859,0.0545865684212688,0.0162536042137569
4.340000000000003,1.455049215548045,0.0593660463614755,0.0257595095426483
4.3500000000000085,1.509944279473166,0.0582424017144875,0.0353462204449725
4.359999999999999,1.5558714835934075,0.0587487287654565,0.0530461251016237
4.3700000000000045,1.5884724784731403,0.0528649758625369,0.0710164431360698
4.38000000000001,1.622272016651388,0.0461128550790185,0.0855420409649337
4.390000000000001,1.6593594382753574,0.0335946426840926,0.0970024578285768
4.400000000000006,1.6988855476619027,0.0260724231015869,0.0968881451901095
4.410000000000011,1.7317713973019262,0.0162105629252449,0.0902752517110226
4.420000000000002,1.7588709516243148,0.0028555630306175,0.0908779864158591
4.430000000000007,1.7810630472795592,-0.0117850262343874,0.0985035631953224
4.440000000000012,1.8092988300809876,-0.0208117219584724,0.1106809687736176
4.450000000000003,1.83934024076458,-0.0209081625264995,0.1255494308166891
4.460000000000008,1.8690852340562911,-0.0210911090769619,0.1289855306167302
4.469999999999999,1.8930034104812448,-0.0268014893735634,0.1251886152205206
4.480000000000004,1.9085952864805245,-0.026398916040716,0.1163662312654615
4.490000000000009,1.921916670119511,-0.0330990813302502,0.1024848319384935
4.5,1.935955780796888,-0.034166107005788,0.0932653721684008
4.510000000000005,1.958531509828288,-0.0254428645810833,0.0901681659460361
4.52000000000001,1.984825406874768,-0.0195760166673831,0.0867493660049242
4.530000000000001,2.015077178016245,-0.0113665610792791,0.0946862262862886
4.540000000000006,2.0404065115432006,-0.009736168786766,0.1020679252483437
4.550000000000011,2.0514752483063194,-0.0088995547884065,0.1070653519539154
4.560000000000002,2.061229670309956,-0.0154234724018023,0.109182701456116
4.570000000000007,2.062701858967078,-0.0152121287368234,0.1082133273458956
4.5800000000000125,2.0549907852397085,-0.014931941833852,0.1042975127244286
4.590000000000003,2.045542448353947,-0.0070605440626547,0.1028930224726251
4.6000000000000085,2.0360712532970653,0.0006330177765391,0.1034168209158527
4.609999999999999,2.0250341282109083,0.0028923014378745,0.1096494096735779
4.6200000000000045,2.0030050781720665,0.0064987048024734,0.1189715732144418
4.63000000000001,1.9783128443036115,0.003757300736226,0.1278106229461736
4.640000000000001,1.952730250648934,0.0017053013252038,0.1302245331770277
4.650000000000006,1.9184007573626245,0.0009894774126633,0.1336857672864279
4.660000000000011,1.886622179937822,-0.00132415099118,0.1375811106883577
4.670000000000002,1.8583300858289575,0.0022899697439332,0.1409722702954888
4.680000000000007,1.826866276188708,0.0006168310325715,0.1418948345578291
4.690000000000012,1.8133053965396608,-0.0021692425620842,0.1316003138717003
4.700000000000003,1.8017484999889888,-0.0033448091612912,0.1224157521238026
4.710000000000008,1.8007303141100055,-0.0044337579191507,0.1076819394442712
4.719999999999999,1.8091470055191377,-0.0030953532520419,0.099381626359024
4.730000000000004,1.8234041232414304,-0.0032443315481389,0.0904925413437954
4.740000000000009,1.834880716939767,-0.0084224932162299,0.0799244222755113
4.75,1.8566246269382416,-0.0126001718255161,0.0678705720225644
4.760000000000005,1.8740766328123928,-0.0222030509915589,0.0577793087943538
4.77000000000001,1.889001215286903,-0.0255494508068729,0.0451313307828982
4.780000000000001,1.90843644409144,-0.0270497098543387,0.0350336585321066
4.790000000000006,1.9279194934976127,-0.0266103812106329,0.0203653255411888
4.800000000000011,1.9486854771674291,-0.0303332677049685,0.0068170815931246
4.810000000000002,1.971793479651005,-0.0268100584393231,-0.0056960416364365
4.820000000000007,2.001128108603115,-0.0241985634905718,-0.0195792609079434
4.8300000000000125,2.028343478050248,-0.0182435534132932,-0.0317825804369578
4.840000000000003,2.060562580167228,-0.0072610902630237,-0.0386519369701303
4.8500000000000085,2.0859101670655806,0.0030140565512169,-0.0436548559220516
4.859999999999999,2.109893339602398,0.0078664511410451,-0.0468191352245433
4.8700000000000045,2.1396004263755817,0.0002716548688073,-0.0485861923858342
4.88000000000001,2.1546700000019894,-0.0104239518363727,-0.0527196911545214
4.890000000000001,2.1680591781323497,-0.0107473865012738,-0.0456085145669188
4.900000000000006,2.173871314064406,-0.0074795614338097,-0.0339741490136462
4.910000000000011,2.172439882663567,0.005807176592529,-0.0232722066247121
4.920000000000002,2.170939975679139,0.0115614525966078,-0.0149890184425131
4.930000000000007,2.1619674214930957,0.0167433868935694,-0.0031968212027964
4.940000000000012,2.152491922792277,0.020019225685542,0.0065288012711893
4.950000000000003,2.144549950041124,0.0152903017523176,0.0172973238264037
4.960000000000008,2.127248017129129,0.008718419795436,0.0244693469906437
4.969999999999999,2.102849579726413,0.0102349272346292,0.0292321925859361
4.980000000000004,2.065574386597369,0.0201934968037308,0.0307768730328416
4.990000000000009,2.0218823923793225,0.0343610000623334,0.0362420410675537
5.0,1.9716268331613171,0.0462100576304285,0.0427416712041257
5.010000000000005,1.9249756140418797,0.0556016870595597,0.048885783673776
5.02000000000001,1.8760366113440023,0.0587577850023144,0.0553273685396155
5.030000000000001,1.828857833491072,0.0595749125480809,0.0613032979905273
5.040000000000006,1.7820629830500117,0.0573004514977104,0.065288656753392
5.050000000000011,1.7285202144215697,0.0540199111878662,0.0644911595577668
5.060000000000002,1.6692058566890515,0.0539737071665663,0.0643730633146973
5.070000000000007,1.6098276128440012,0.0508119089717014,0.0683979431181236
5.0800000000000125,1.540490978972992,0.0509224613186874,0.0694647947133538
5.090000000000003,1.4722024226967516,0.0408524162455459,0.0775114996887077
5.1000000000000085,1.4124518508763642,0.0282033330896923,0.0792176693705926
5.109999999999999,1.3484836158061118,0.0129392515768505,0.084462439109767
5.1200000000000045,1.2907593986030437,-0.0047995291847669,0.0905318975598883
5.13000000000001,1.2364304666785368,-0.0267983568034117,0.0936389132211419
5.140000000000001,1.1832105275339382,-0.0350620572745675,0.0966831047334242
5.150000000000006,1.1195482662279763,-0.0324567517731407,0.0914018426459363
5.160000000000011,1.0590926178411035,-0.0312528573355538,0.0925048796228086
5.170000000000002,1.0000093640136647,-0.0312821329192484,0.0974394353234756
5.180000000000007,0.9448195743221094,-0.0407315667594004,0.1060518930482457
5.190000000000012,0.9045376906293596,-0.0573156058502865,0.1120392295589681
5.200000000000003,0.871389306884723,-0.0530563505296622,0.1082597109681766
5.210000000000008,0.8577873473973063,-0.0484083840944764,0.1025818658310828
5.219999999999999,0.8576004788466726,-0.0447525223179396,0.0992351700939277
5.230000000000004,0.8758265496716601,-0.0441799512357183,0.0930296867949107
5.240000000000009,0.8932781194497934,-0.0469931151562112,0.0910787365265331
5.25,0.9180979901958932,-0.0490647272373049,0.0893311621581791
5.260000000000005,0.944322270824026,-0.0561660920383525,0.0931032690082913
5.27000000000001,0.9793013483496624,-0.0559322683611247,0.0980266409538053
5.280000000000001,1.0214778542872909,-0.0580342093119047,0.0971890899022894
5.290000000000006,1.0647117025411506,-0.0628841223546805,0.0978538784591497
5.300000000000011,1.1231816661323974,-0.0647706528061546,0.0996899557686213
5.310000000000002,1.1841119523541532,-0.0749153650197048,0.0885737401728829
5.320000000000007,1.2400774482898782,-0.0851002404033548,0.0738159976720826
5.3300000000000125,1.299787127040892,-0.0918221506455395,0.0565128998508175
5.340000000000003,1.358821952856918,-0.1011417268039514,0.0370459575971859
5.3500000000000085,1.4160361577141685,-0.1078643769428493,0.0420814374324957
5.359999999999999,1.481848821199218,-0.1173424623408364,0.0336996918312617
5.3700000000000045,1.5467412824691218,-0.124244351419614,0.0330796017193942
5.38000000000001,1.6049828433106272,-0.1298964607777862,0.058751548590011
5.390000000000001,1.6607942615509117,-0.1425781380912691,0.0802680380588963
5.400000000000006,1.6968612559180476,-0.1549499989917865,0.0906492570007119
5.410000000000011,1.720764794367491,-0.167204687173715,0.089971588892401
5.420000000000002,1.7230500309653365,-0.172508794656947,0.0915443004576825
5.430000000000007,1.712726832851554,-0.1776666899799267,0.0907614931487992
5.440000000000012,1.6861089226299544,-0.1831929631348531,0.0981981774438617
5.450000000000003,1.6491512053555064,-0.1906837699339515,0.1002797147568441
5.460000000000008,1.608304140859791,-0.1977659412668021,0.1035202469938758
5.469999999999999,1.5627467008607383,-0.2063105273660779,0.0990394536290443
5.480000000000004,1.5134374596985611,-0.2043186717899629,0.0878823860117968
5.490000000000009,1.4587074084631697,-0.2040343216561988,0.0736730526383211
5.5,1.399829412027821,-0.1961510600403779,0.0633537173490963
5.510000000000005,1.3241304298606371,-0.1865388610871132,0.0550781669649561
5.52000000000001,1.2467689100647432,-0.1825261753868048,0.0474060654171389
5.530000000000001,1.168159898893517,-0.1798445986858285,0.0405027699047818
5.540000000000006,1.0930044141532254,-0.1847444255523371,0.0344281781167602
5.550000000000011,1.0299327066265085,-0.1893786793864239,0.0216679969612576
5.560000000000002,0.9788587107636572,-0.1929408566874731,0.0076549098881821
5.570000000000007,0.9403130207087412,-0.1821520674003399,-0.0025534904299217
5.5800000000000125,0.9127656958352331,-0.1662108227469695,-0.0073783441468827
5.590000000000003,0.8922436602837105,-0.1521927504968166,-0.0068979269173312
5.6000000000000085,0.8807969455505061,-0.1338459050386555,-0.0090325817088085
5.609999999999999,0.8763005366595343,-0.1182323295836268,-0.013423156608834
5.6200000000000045,0.8681136578248201,-0.1109316710133769,-0.0194491538244028
5.63000000000001,0.8649183689079291,-0.1026279374809652,-0.0223310926691595
5.640000000000001,0.8603136970840755,-0.0915515177330422,-0.018646425324546
5.650000000000006,0.8570636837220221,-0.0824307754560271,-0.0158700157235941
5.660000000000011,0.8554846167833909,-0.0697260741216384,-0.0120928800638279
5.670000000000002,0.8423041130586923,-0.0567107620160629,-0.0037190096032791
5.680000000000007,0.8128648618782546,-0.0463999787655194,0.0061045808797284
5.690000000000012,0.771363434554315,-0.0362595595326468,0.0067697526715993
5.700000000000003,0.7165981148660497,-0.0298066085763549,0.0018902812022122
5.710000000000008,0.6480586549909917,-0.0310219912004428,-0.0075128451586053
5.719999999999999,0.5779455713380655,-0.0345871770277542,-0.0153278711140453
5.730000000000004,0.4968518042823858,-0.0399407121761367,-0.0159346489556496
5.740000000000009,0.4076244525656883,-0.0416577895408811,-0.0049519257684675
5.75,0.3103762502826374,-0.037726667014971,0.001530976750075
5.760000000000005,0.2007295717197186,-0.0313877266124389,0.0027361335990907
5.77000000000001,0.0839464051965017,-0.0281456460312682,0.0002254823550587
5.780000000000001,-0.0308801052972569,-0.0277593693040684,-0.0032682736565722
5.790000000000006,-0.1420781711852711,-0.0199789264143947,-0.0035597509344969
5.800000000000011,-0.2464526785469065,-0.0140190870159509,-0.0117409403841873
5.810000000000002,-0.3418739795685209,-0.0069511274603265,-0.0194072152156607
5.820000000000007,-0.4321498078722821,-0.0024152315677561,-0.0244749009656917
5.8300000000000125,-0.5157459373882944,-0.0005961755610472,-0.0285928303105854
5.840000000000003,-0.6047969361591463,0.0014152476220809,-0.0317882023549539
5.8500000000000085,-0.6854044345911183,0.0055197993836738,-0.0357265181944608
5.859999999999999,-0.772848333241542,0.011302476723989,-0.0507808486267262
5.8700000000000045,-0.8585767201593096,0.0147440960290436,-0.0656835058575619
5.88000000000001,-0.9403928351073544,0.0176458751250347,-0.0789711262397089
5.890000000000001,-1.0216141111723889,0.0251072073269194,-0.0866713667800488
5.900000000000006,-1.0987555548141887,0.0302156318741193,-0.0840065326376887
5.910000000000011,-1.1802939960211882,0.0355043910174862,-0.0821373893785236
5.920000000000002,-1.261067869006547,0.0386200698576581,-0.0748035755578146
5.930000000000007,-1.3409428751693009,0.0466013757154587,-0.0681289554955206
5.940000000000012,-1.4231723476068747,0.0482751834479426,-0.0629570876734773
5.950000000000003,-1.508625955620344,0.0502964208032196,-0.0635015220258487
5.960000000000008,-1.6008231043860732,0.0543633974292139,-0.0691960391568114
5.969999999999999,-1.6847958861334602,0.0538270010916463,-0.0799359857523789
5.980000000000004,-1.764212699911214,0.0463245876625639,-0.0846911737734023
5.990000000000009,-1.8416210804153348,0.0390950747871354,-0.0790214493623728
6.0,-1.9104728353251352,0.0311907563058062,-0.0606600448717671
6.010000000000005,-1.9781310776156624,0.0237563309427437,-0.0417558919102697
6.02000000000001,-2.030850206396534,0.0188925726264164,-0.0332534755831323
6.030000000000001,-2.068847579844857,0.0147559549352897,-0.0263972910500258
6.040000000000006,-2.0826444817415077,0.0198775329255422,-0.0271191804930453
6.050000000000011,-2.0890720024251026,0.0209592640523554,-0.0318083951822348
6.060000000000002,-2.086552455015404,0.0234420200021181,-0.0410436939831849
6.070000000000007,-2.075316561343178,0.0261284351663236,-0.0493961181624715
6.0800000000000125,-2.066362224109571,0.0302982729535903,-0.0601518708757755
6.090000000000003,-2.0498456020601594,0.0251260419197092,-0.0713971327210449
6.1000000000000085,-2.0214860387732934,0.0201094597835415,-0.0804176729107581
6.109999999999999,-1.983308110120844,0.019451427441965,-0.0775214892506001
6.1200000000000045,-1.93975601358952,0.0167289060161132,-0.0647289003524765
6.13000000000001,-1.8938587690541693,0.0221444453964638,-0.0467447550396489
6.140000000000001,-1.851046533473583,0.0253858360431907,-0.033450952368254
6.150000000000006,-1.8062836942453204,0.0340380400239152,-0.0406437322583389
6.160000000000011,-1.7617083728160896,0.036412789220094,-0.0556255290297023
6.170000000000002,-1.7152593252685504,0.0330091104355763,-0.0689432632856524
6.180000000000007,-1.669068856212605,0.0293183973223938,-0.0757102891380934
6.190000000000012,-1.6329601556492144,0.0229160442957664,-0.074168119382379
6.200000000000003,-1.60971322696277,0.0217591585835276,-0.0666166455247135
6.210000000000008,-1.6094788111249267,0.0180754040327482,-0.0597620997664635
6.219999999999999,-1.6245096923419169,0.0108500751563155,-0.0452321554136794
6.230000000000004,-1.6447269708719674,0.0043067857325542,-0.0285731684291055
6.240000000000009,-1.6517221576918373,-0.0014683066551599,-0.0259586849733395
6.25,-1.648999503871817,-0.0036618840207755,-0.0324375774682103
6.260000000000005,-1.6341881372871965,-0.0102223382403467,-0.0451074148561607
6.27000000000001,-1.624142261732736,-0.0143987698091882,-0.0488906256255082
6.280000000000001,-1.6343922549605836,-0.0197651571737009,-0.0535328596967966
6.290000000000006,-1.654212211664501,-0.0187572888078996,-0.0508351699150715
6.300000000000011,-1.697262845451128,-0.0186419161170403,-0.0415137709137363
6.310000000000002,-1.7474779800317717,-0.0238208278032519,-0.0378463842127173
6.320000000000007,-1.802240761881674,-0.0326611991385401,-0.0362023483836895
6.3300000000000125,-1.8494375377715155,-0.0442127444866673,-0.0421553849344995
6.340000000000003,-1.894877094996283,-0.0513612148005946,-0.0549128740769517
6.3500000000000085,-1.952825813984,-0.0592115626633905,-0.064565375758989
6.359999999999999,-2.0135194629457644,-0.0516382667735196,-0.0720308037637458
6.3700000000000045,-2.085380690459527,-0.0482414386275914,-0.0682994039795438
6.38000000000001,-2.152638309256291,-0.0502803054055897,-0.064199186303484
6.390000000000001,-2.2134281512803056,-0.0522797515093182,-0.0535969798244663
6.400000000000006,-2.2558250266546582,-0.055714659840386,-0.0434948078822593
6.410000000000011,-2.293050514549869,-0.0559869661267226,-0.0457296126387006
6.420000000000002,-2.3194554767738715,-0.0454196332024348,-0.0492278685274173
6.430000000000007,-2.3453990954896278,-0.0382803801149559,-0.0575358951420125
6.440000000000012,-2.3784955083705643,-0.0297405753969588,-0.0597812415291323
6.450000000000003,-2.401792460964525,-0.0212513441038013,-0.058596000742171
6.460000000000008,-2.408146737662935,-0.0151202408950176,-0.0451994639658983
6.469999999999999,-2.3892462292550443,-0.0042454026871209,-0.0270718223514464
6.480000000000004,-2.344494953718016,0.0021955394866287,-0.0099372597946517
6.490000000000009,-2.275228843649504,0.0058724303375836,0.0076133670508881
6.5,-2.197537814285431,0.0187404643671563,0.009972823205239
6.510000000000005,-2.117891647162568,0.0301573228920883,0.0070704966244507
6.52000000000001,-2.051430885466661,0.0324424691672662,-0.0049653724330815
6.530000000000001,-1.9834389100495065,0.0348380474064118,-0.009753918592426
6.540000000000006,-1.902077034545854,0.0381817629887639,-0.0078204230351627
6.550000000000011,-1.821824221060203,0.0467303611803561,0.0040717326135304
6.560000000000002,-1.736796242679971,0.0543460638685201,0.0145538852533537
6.570000000000007,-1.6546893872613708,0.0644415303937579,0.0207699107937689
6.5800000000000125,-1.5820861952837646,0.0663789411274948,0.0287078464544908
6.590000000000003,-1.5153393941524873,0.0607730389700988,0.0251632751924346
6.6000000000000085,-1.4660682427645078,0.0547795001106208,0.0194713539804669
6.609999999999999,-1.437368592760786,0.0524932652992545,0.0140287215691866
6.6200000000000045,-1.4270916083469811,0.0579202262285459,0.0106564074419792
6.63000000000001,-1.4351894329539547,0.0641267616672212,0.0141021576257712
6.640000000000001,-1.444954910912896,0.0678173166278186,0.0186609775541682
6.650000000000006,-1.4533356166536713,0.0688684618148397,0.0168548812460393
6.660000000000011,-1.4669006150059023,0.0660938816707798,0.0159041949093037
6.670000000000002,-1.486260733709701,0.0615375267663437,0.0102970014411226
6.680000000000007,-1.5060256377541057,0.0597174585469771,0.0117335061536167
6.690000000000012,-1.530908212470665,0.0591493623417902,0.0090547601543456
6.700000000000003,-1.554418108853299,0.0526159971925025,0.0019874503321728
6.710000000000008,-1.5876578647631543,0.0491056879159742,0.0026408762149072
6.719999999999999,-1.631038745819922,0.0480849804840698,0.0156140232875833
6.730000000000004,-1.680265755477786,0.0473340099058234,0.0346418009053172
6.740000000000009,-1.7345308585587542,0.0470137112646926,0.0470541725069367
6.75,-1.7828899510516325,0.0373280482616008,0.0479762432768775
6.760000000000005,-1.8259913783055095,0.0295702428045217,0.0407422375520733
6.77000000000001,-1.8648053836368603,0.0321386545264454,0.0287658268788823
6.780000000000001,-1.8947150857247668,0.0388555142069703,0.0163286744167095
6.790000000000006,-1.929169214585988,0.0402274136019383,0.0044964101360423
6.800000000000011,-1.963463369351017,0.0368635784324512,0.012549691091066
6.810000000000002,-1.9790458585611757,0.0368087289418251,0.0261333895336206
6.820000000000007,-1.9809174901058384,0.0293586525172753,0.029750655965114
6.8300000000000125,-1.9652127140668996,0.0152416360499324,0.0184264668870321
6.840000000000003,-1.930598741649148,-0.003453083397771,0.0017394270337613
6.8500000000000085,-1.8893970406209344,-0.0140241482936461,-0.0143737212344592
6.859999999999999,-1.8564502848503923,-0.0135151570759466,-0.0232550073755957
6.8700000000000045,-1.8246294161809733,-0.0027597019569382,-0.0221862575262567
6.88000000000001,-1.7905709170952553,0.0156485084873719,-0.0020352022221594
6.890000000000001,-1.7432320158683876,0.0186859266122789,0.0136539311213446
6.900000000000006,-1.6759708678302985,0.0099307957649528,0.0125607873515771
6.910000000000011,-1.581266329916894,-0.0005041923512407,-0.0010121338247676
6.920000000000002,-1.46571935473321,-0.0105747078648802,-0.0215296662223796
6.930000000000007,-1.348107422094636,-0.0090457607042439,-0.0284761293388951
6.940000000000012,-1.234729650515504,-0.0053198564762135,-0.0330327936839885
6.950000000000003,-1.1217447925256911,0.0050540507917758,-0.0227064523555785
6.960000000000008,-1.0040451843350098,0.0022995930063683,-0.0125920914948335
6.969999999999999,-0.8716674272339346,-0.0023683238955845,-0.0054062191685865
6.980000000000004,-0.7311487639877798,-0.0237476130475676,-0.0029110554167009
6.990000000000009,-0.5898421707145171,-0.0333437690513996,-0.0023167949910341
7.0,-0.4565648352434586,-0.0415846167610402,0.0074678742717625
7.010000000000005,-0.3280014190387245,-0.0454819168965636,0.0135298393187637
7.02000000000001,-0.1962315959710845,-0.0343060257103775,0.0148229870548172
7.030000000000001,-0.0673151680165182,-0.0263592293763122,0.023055001091874
7.040000000000006,0.0580592509287536,-0.0151705048658331,0.0305545354711926
7.050000000000011,0.1881618897309312,-0.0068219565043614,0.0342293465727604
7.060000000000002,0.3118555177804131,-0.0028669948806461,0.0316975689317718
7.070000000000007,0.4228645330076669,-0.0012191142059807,0.02901406740596
7.0800000000000125,0.5194321951189625,0.0113471900246481,0.0302221851951698
7.090000000000003,0.5887023288531588,0.0239055199866285,0.0372751752339006
7.1000000000000085,0.6473855711922852,0.0282116855758944,0.0442969785363326
7.109999999999999,0.6968351671236321,0.0233695649090167,0.0490014448363226
7.1200000000000045,0.7417013281257759,0.016310924689689,0.0563689095936645
7.13000000000001,0.7936838434141074,0.0064811102412357,0.058236283097047
7.140000000000001,0.8530259151098435,0.0036192651694783,0.0512035034779243
7.150000000000006,0.931623832534615,0.0019794195600703,0.0388996165832419
7.160000000000011,1.01798093882701,0.0014446446641213,0.0289553329920673
7.170000000000002,1.1120018386404011,0.0063588631687576,0.0173341881369806
7.180000000000007,1.2263238609653515,0.0158494911478133,0.0091899593914692
7.190000000000012,1.343419761989589,0.0225806447329057,0.0056149148141394
7.200000000000003,1.4687002322207372,0.0303603854681028,-0.0002726066385722
7.210000000000008,1.5875612929425862,0.0417742252211761,-0.007042475822531
7.219999999999999,1.7027891028454478,0.0512911107360573,-0.0022966477163438
7.230000000000004,1.8196498660008011,0.0621174275038224,-0.0026710576644436
7.240000000000009,1.931575495356006,0.0697815781978609,-0.0033947948422907
7.25,2.044430407025412,0.075212385684697,-0.0019793747574986
7.260000000000005,2.1530748391100487,0.0784290857008128,-0.0006144223930591
7.27000000000001,2.263198349065985,0.083840584600336,0.0027016698926145
7.280000000000001,2.362076355090293,0.0877693461370953,0.0074939849407068
7.290000000000006,2.4507040326417604,0.0885507249228853,0.0084557125862886
7.300000000000011,2.5178215748409114,0.0926206392630536,0.014958127654261
7.310000000000002,2.563973978417297,0.0946596248775033,0.0241556945416798
7.320000000000007,2.590323693359501,0.0901602675650686,0.0314093744803477
7.3300000000000125,2.596997581641734,0.0844754376911135,0.0359310513601094
7.340000000000003,2.598958067840003,0.0794784705705388,0.0392869172368517
7.350000000000008,2.5812291205246547,0.0789061854237024,0.0424102728103803
7.359999999999999,2.552853659713602,0.0821915259183323,0.0508610047613161
7.370000000000003,2.5145862220370314,0.0840606160825121,0.0620238127000462
7.38000000000001,2.472438679397273,0.0894748644850428,0.0704501254160657
7.390000000000001,2.423029287189568,0.0885212442266112,0.079825798215334
7.400000000000006,2.372851518894497,0.0900001513664642,0.0849767046219017
7.410000000000011,2.319401383253102,0.0879331400562584,0.0850180777663985
7.420000000000002,2.2633578094113065,0.0778394763275583,0.0863975783925695
7.430000000000007,2.19947362127254,0.074430678326217,0.0874663347761182
7.440000000000012,2.1292752798229424,0.0706479406741623,0.080025935534031
7.450000000000003,2.0644640913691865,0.0644459252703244,0.0696249064193023
7.460000000000008,1.9975364928594772,0.0556011540508918,0.0570115770305686
7.469999999999999,1.935019711228387,0.0462526501982331,0.0451016918677057
7.480000000000004,1.869574606155792,0.0419648534730527,0.0349113528619923
7.490000000000009,1.814510941919109,0.0405754011800306,0.0257463781623567
7.5,1.7625742793919508,0.0402287676981982,0.0211626780226223
7.510000000000005,1.7147929262388375,0.0409262992709175,0.0128912803818125
7.52000000000001,1.6777347640400968,0.0417608003292632,0.0075303335684568
7.530000000000001,1.6391785272002857,0.045593929807039,-0.0058308567881619
7.540000000000006,1.589274646345273,0.0432281897671683,-0.0248699507094411
7.550000000000011,1.5516981480382284,0.0391253346611218,-0.031579266480313
7.560000000000002,1.5116367405739504,0.0397506479580824,-0.0361769682297466
7.570000000000007,1.4827861114853929,0.0345700202215485,-0.0428398776617856
7.5800000000000125,1.4626326231329705,0.0268592789176429,-0.0444510972401718
7.590000000000003,1.4469131296979467,0.015447312111502,-0.0454116097295242
7.600000000000008,1.4354748237003228,0.0042999114704957,-0.0427115965679678
7.609999999999999,1.4282777874832937,-0.0055427250071019,-0.0370400826686604
7.620000000000003,1.426530949489082,-0.0118831658996705,-0.0318454465372553
7.63000000000001,1.4234283032986406,-0.0055640027743786,-0.0226044994957378
7.640000000000001,1.431126041639472,-0.005806351657055,-0.0107438109093292
7.650000000000006,1.441973152452495,-0.0051698437932967,0.0053762138894153
7.660000000000011,1.4646087427908896,-0.0083733501862989,0.0146340681601575
7.670000000000002,1.4889530322191329,-0.0152704732656747,0.0250948678887218
7.680000000000007,1.5160246169982123,-0.0204348753181098,0.0264917200328444
7.690000000000012,1.5374644083843505,-0.0115109025732055,0.0254130525707476
7.700000000000003,1.5624497779674955,-0.0017123866371174,0.0308826436682934
7.710000000000008,1.585249082315649,0.0177463032866379,0.0294974665915595
7.719999999999999,1.6107464959639408,0.0297967735925912,0.0342436513086527
7.730000000000004,1.6389991821045171,0.039812852919911,0.0428245909655753
7.740000000000009,1.662030645829032,0.0451459028693791,0.0498742309334767
7.75,1.6815605440036454,0.0450565166848851,0.052584735143721
7.760000000000005,1.6993419844519069,0.0521059511601114,0.0608577344368269
7.77000000000001,1.7171134721078292,0.0631605483382453,0.0654765980485164
7.780000000000001,1.730435370847948,0.0750239608256915,0.0672792264013519
7.790000000000006,1.739530271313135,0.0825525122674496,0.0703119018725717
7.800000000000011,1.7454150186810349,0.0862388267435571,0.0740674552771406
7.810000000000002,1.7511706155978823,0.0815129205105326,0.0830322946564064
7.820000000000007,1.7638045771280242,0.0733096541598262,0.0898517712930924
7.8300000000000125,1.774113510692559,0.0600832440997253,0.0983604334851687
7.840000000000003,1.7845017073047622,0.0474529055792856,0.1096840385653168
7.850000000000008,1.7945660949363125,0.0432464223496922,0.1195368751576675
7.859999999999999,1.801080845916001,0.0478232681946999,0.1339202289476947
7.870000000000003,1.8053904428613932,0.0413956084510831,0.1473379168613652
7.88000000000001,1.8132798469837743,0.0387492668046804,0.159691094513719
7.890000000000001,1.822974984770143,0.0303200117491125,0.162178047308837
7.900000000000006,1.8320421720245847,0.0218890401199038,0.1596291169618371
7.910000000000011,1.8434659338274355,0.0130435770062483,0.1517549921289586
7.920000000000002,1.8450702216646735,0.0073053309368023,0.143921366620563
7.930000000000007,1.8413700161202131,0.0074473772901403,0.1457028964983331
7.940000000000012,1.8379559710726447,0.0004589543991645,0.1536842012867647
7.950000000000003,1.8364600983972847,0.0047940625602349,0.1557116693061353
7.960000000000008,1.8282144514446963,0.011544976367335,0.1529407617013795
7.969999999999999,1.8229579505281868,0.0176764767429345,0.1470250086796011
7.980000000000004,1.8175955532648735,0.0194920225337873,0.1421162825522707
7.990000000000009,1.8082932481892016,0.0192396989898517,0.1419097803333373
8.0,1.7966134298257523,0.0157566601139193,0.1467536196991384
8.010000000000005,1.790708177315276,0.0102701046690225,0.1484447856847514
8.02000000000001,1.789021729250178,0.0101760524485777,0.143417941931871
8.030000000000001,1.7870926230407858,0.0041809595343472,0.1349991284929455
8.040000000000006,1.7825267137436296,0.0024225176176075,0.1309532819522309
8.050000000000011,1.772005289034383,-0.0051107630860137,0.1311410590749416
8.060000000000002,1.760906510322949,-0.0126291252720066,0.1274872804071046
8.070000000000007,1.74672191019542,-0.0181567910163314,0.1240155323891452
8.080000000000013,1.7211019532059282,-0.0240269572998511,0.1094613457418693
8.090000000000003,1.688313411464667,-0.0203822128703879,0.0982601708943513
8.100000000000009,1.6463928177306837,-0.0175617340827494,0.089503220206934
8.11,1.5967216766474157,-0.0184192257908232,0.0767201492708193
8.120000000000005,1.5426397161809384,-0.0153256580704659,0.0721697382736921
8.13000000000001,1.477414605530953,-0.0161605522134694,0.0758882337837096
8.14,1.4145386695572923,-0.0235839446681953,0.0771317371517194
8.150000000000006,1.3463004098599265,-0.0326897567438351,0.086078006359577
8.16000000000001,1.2739345791899694,-0.0417295443290576,0.0842274841808355
8.170000000000002,1.2088424918970928,-0.0476464726077155,0.0701034959371962
8.180000000000007,1.154109580934613,-0.05328312007897,0.0579180620171829
8.190000000000012,1.0901448573196129,-0.0518205507500103,0.0491611901009715
8.200000000000003,1.0212909675474056,-0.0505535560478286,0.0376849830729929
8.210000000000008,0.9462037721920072,-0.0487726684975635,0.0321645622281612
8.219999999999999,0.8575652266637053,-0.0467846428248356,0.0318091200238887
8.230000000000004,0.7588826515043844,-0.0422868853953731,0.031838220855685
8.240000000000009,0.6559468490741703,-0.0384234293490333,0.0298687257837907
8.25,0.5616019870442526,-0.0354424334233945,0.0160719450588089
8.260000000000005,0.4699041852977518,-0.0316512184833259,0.0047392981905041
8.27000000000001,0.3799194149226764,-0.0313965281521152,-0.0048227950382786
8.280000000000001,0.299957213076771,-0.0305151391497579,-0.0052040547153715
8.290000000000006,0.2239519706835742,-0.0310099560758628,-0.0078605922175098
8.300000000000011,0.1578621786261612,-0.0277483436989523,-0.0120225360322403
8.310000000000002,0.0965111248734807,-0.0214687114916843,-0.0129924817329884
8.320000000000007,0.0396914160643192,-0.018915834624574,-0.0163618158413178
8.330000000000013,-0.0090246372858927,-0.0162350905268569,-0.0279869486069399
8.340000000000003,-0.0555552272696761,-0.0191684818744583,-0.0409503511246124
8.350000000000009,-0.0894022568378108,-0.0198389700278961,-0.0510945516655124
8.36,-0.1248310246253525,-0.0200623943125047,-0.0541913971271103
8.370000000000005,-0.1644587771619323,-0.0240576253188994,-0.0493040866752219
8.38000000000001,-0.1994935502742822,-0.0245726170823433,-0.044812612225189
8.39,-0.2442614814141085,-0.0262880458247718,-0.0405278822021522
8.400000000000006,-0.2906331878116956,-0.0294113951449695,-0.040513753708122
8.41000000000001,-0.3464261176769486,-0.0317638011969056,-0.0476584732983514
8.420000000000002,-0.4085735536262541,-0.0385124339125394,-0.0578993684484639
8.430000000000007,-0.474455985490486,-0.0411668660829561,-0.0604407906589376
8.440000000000012,-0.5502612225396505,-0.047412434715993,-0.0565740347897714
8.450000000000003,-0.6300170537492418,-0.0482309255587105,-0.0463467855483085
8.460000000000008,-0.7145140172894042,-0.0546995900693307,-0.0352032266224231
8.469999999999999,-0.8031710433838745,-0.0569300338836928,-0.0328812039671052
8.480000000000004,-0.9037347598416744,-0.0535615093798656,-0.0308515748741127
8.490000000000009,-1.011817379207937,-0.053360372993629,-0.0282084370057413
8.5,-1.1217950541418,-0.0483456947680665,-0.0255803912864417
8.510000000000005,-1.2332394523767694,-0.0506852465958853,-0.0192279811067771
8.52000000000001,-1.3344118361848682,-0.0468870270194432,-0.0158343983956049
8.530000000000001,-1.4250888672818895,-0.0454131922345367,-0.0238323807263276
8.540000000000006,-1.508122325531966,-0.0461349663388561,-0.0392050333250759
8.550000000000011,-1.577586570049055,-0.0479383528154769,-0.0591548231025656
8.560000000000002,-1.6404276791671857,-0.0486649331703632,-0.0718902671922428
8.570000000000007,-1.7099736794651854,-0.0513241341074963,-0.0776070434844846
8.580000000000013,-1.7787763047314449,-0.0554402830614459,-0.0754322862395868
8.590000000000003,-1.8545143505630213,-0.059211207424898,-0.0680120708541304
8.600000000000009,-1.942816347523776,-0.0681584392253481,-0.0528064146744695
8.61,-2.0295272848601265,-0.0687286662547249,-0.0508668291030585
8.620000000000005,-2.109391741431343,-0.0770580479065319,-0.064554567633273
8.63000000000001,-2.183286923735136,-0.0841159425452995,-0.0701546005333111
8.64,-2.25671644499523,-0.0896774301940961,-0.0726281695293853
8.650000000000006,-2.3223844511778693,-0.0982469748784993,-0.0817798101387219
8.66000000000001,-2.379055360141451,-0.1067787637277491,-0.0911055663341505
8.670000000000002,-2.434231261625908,-0.1111069490020523,-0.0929514222301641
8.680000000000007,-2.47698162491434,-0.1167989628961528,-0.089983363143717
8.690000000000012,-2.5154915678363032,-0.1252212231850216,-0.0803386207388912
8.700000000000003,-2.5468941291418785,-0.1323764857380214,-0.0740099842718296
8.710000000000008,-2.565454798078369,-0.1341925397536462,-0.0733810902711925
8.719999999999999,-2.573309862680649,-0.1342373579580984,-0.0826942923878183
8.730000000000004,-2.5708360885894552,-0.1250877935842255,-0.0892801848367399
8.740000000000009,-2.545321505338591,-0.1171221532960169,-0.0883501303005474
8.75,-2.499037120706288,-0.1093586258989386,-0.0791988946176139
8.760000000000005,-2.4427917233497665,-0.09864426507848,-0.0640802944518562
8.77000000000001,-2.37879656058862,-0.0939479208783003,-0.0643198102994336
8.780000000000001,-2.327063645962731,-0.082062972760182,-0.0645954719587183
8.790000000000006,-2.29032398584892,-0.0724882105148684,-0.0658497625169091
8.800000000000011,-2.260816356531252,-0.0641751114204057,-0.0682414473718616
8.810000000000002,-2.2288085900015497,-0.0667043602243387,-0.0639315087421345
8.820000000000007,-2.1937642836031834,-0.0628021835242983,-0.0562149048938201
8.830000000000013,-2.163035674553925,-0.0643576717854238,-0.044319715134973
8.840000000000003,-2.14031377041029,-0.0617107921481017,-0.030138417840954
8.850000000000009,-2.1195302778756444,-0.0534750774674731,-0.0173277160777652
8.86,-2.1021462011964616,-0.0509100803820272,-0.0105059913018687
8.870000000000005,-2.084870059364777,-0.0441847697782611,-0.0140059260164975
8.88000000000001,-2.063095339736682,-0.0449859110745417,-0.0174717417372601
8.89,-2.0383117555907453,-0.052489091720469,-0.0190177900154245
8.900000000000006,-2.017286866232672,-0.0548592328891408,-0.0152480814455944
8.91000000000001,-1.99905573760127,-0.056364645502664,-0.0056391021409401
8.920000000000002,-1.973885656694237,-0.0492610722477876,0.0063114024590012
8.930000000000007,-1.9511613074225715,-0.0376358798725469,0.0088127935350371
8.940000000000012,-1.917276699279131,-0.0320301278984869,0.0140832615203117
8.950000000000003,-1.8821094048134168,-0.0317853682220712,0.0197330305454815
8.960000000000008,-1.854527844314016,-0.0357393693456766,0.015205518735912
8.969999999999999,-1.823101173877532,-0.0382640893423545,0.0090901480444023
8.980000000000004,-1.8069052185252683,-0.0424312880082883,0.0019806170055434
8.990000000000009,-1.7960546072539003,-0.0388332358903354,0.0016725277566205
9.0,-1.7925266862333096,-0.0320294173568622,0.0105105567206576
9.010000000000003,-1.7842678158133412,-0.0294297704928077,0.0137931703454066
9.02000000000001,-1.7705771711901426,-0.0294276918057905,0.0089234464159499
9.03,-1.7551388955843026,-0.0307232419642152,0.0055719735482512
9.040000000000006,-1.7308739652640075,-0.0308308292154933,0.0050262713858361
9.050000000000011,-1.7112984609230124,-0.0283274447197434,0.0020213595463094
9.060000000000002,-1.7031166844574182,-0.0267096381223969,-0.0015712758493108
9.070000000000007,-1.706448621078038,-0.0217099639663485,-0.0007484855299225
9.080000000000013,-1.7100479256120045,-0.0164814495144512,0.0061802912133114
9.090000000000003,-1.7130873390010513,-0.0082233952850354,0.016658207353379
9.100000000000009,-1.7088132465094945,-0.0047845342194688,0.0167348911164308
9.11,-1.698808739647267,-0.0016800119815282,0.0107714527802584
9.120000000000005,-1.6922712062142689,0.0009935124926789,0.0016582844973083
9.13000000000001,-1.6986429777317449,0.0003502168730245,-0.0102831135747681
9.14,-1.715672860691092,-0.0046437974623121,-0.0159741800296888
9.150000000000006,-1.739340080826859,-0.0092753579377178,-0.0075768681328918
9.16000000000001,-1.7624548474898594,-0.0069624607175889,0.017005331395953
9.170000000000002,-1.773910272836552,-0.0069341993414343,0.0342466671514417
9.180000000000009,-1.7791691292866945,-0.0075588939744428,0.0398217643004108
9.190000000000012,-1.77933434887014,-0.0067579585184706,0.0305522690415709
9.200000000000005,-1.7757868444780287,0.0019844290049704,0.0137019770187783
9.210000000000008,-1.7757842012970424,0.0177455499132176,-0.0070121574808726
9.22,-1.7827774001950991,0.0249330952733519,-0.0322897748120815
9.230000000000004,-1.7982933727745642,0.0280608989452612,-0.0334329037615701
9.240000000000007,-1.80652548764422,0.0309273326179208,-0.0228958579508275
9.25,-1.8112932048642676,0.026421214334815,-0.0129534451030315
9.260000000000003,-1.8113383504520275,0.0239732916202193,-0.0140623784081273
9.27000000000001,-1.803473899762721,0.024880197349146,-0.0203356429101166
9.28,-1.7978970220850503,0.0253844544391886,-0.0320243401759029
9.290000000000006,-1.801400307717927,0.0278145564742509,-0.0446052205951483
9.300000000000011,-1.805856203882402,0.0292142247646128,-0.0381030812930991
9.310000000000002,-1.808063221752888,0.0260991027540853,-0.0282126741038151
9.320000000000007,-1.8242862493598155,0.0225274590801669,-0.0225026489575035
9.330000000000013,-1.8410194519948213,0.0173773716698981,-0.0286582929712632
9.340000000000003,-1.8573508412967776,0.0159641800745114,-0.0432835631855274
9.350000000000009,-1.8720090343665172,0.0162850733070184,-0.0546634422190006
9.36,-1.886388735344832,0.012718355069764,-0.0679982766520451
9.370000000000005,-1.897684864280528,0.0104454525986638,-0.0728947711860784
9.38000000000001,-1.9132275747343293,0.0164821949116825,-0.0715941239214584
9.39,-1.9362517397195,0.0283485340754992,-0.0603149272028071
9.400000000000006,-1.9622648116182928,0.0380774465972821,-0.0471482053299256
9.41000000000001,-1.9877737015979708,0.0433167761784991,-0.0526017135622796
9.420000000000002,-2.009672654542135,0.0447974450429769,-0.0683408776249973
9.430000000000009,-2.0359875051509784,0.0440110282260168,-0.0897622480286601
9.440000000000012,-2.0606680049223765,0.0366316306380973,-0.0978231530513072
9.450000000000005,-2.070202193383085,0.029603647354336,-0.0838538822118282
9.460000000000008,-2.060043164391945,0.026506725578794,-0.0606578296963232
9.47,-2.042735888728246,0.0219256155841441,-0.0421537977773387
9.480000000000004,-2.0200905230371107,0.0194627353041393,-0.0359519627915486
9.490000000000007,-1.9853789944241031,0.0141440065753727,-0.0523254658252864
9.5,-1.936060139194816,0.007655140804237,-0.0728689228217101
9.510000000000003,-1.8790727973907329,0.0013258628278503,-0.0829033468140937
9.52000000000001,-1.8094225743562435,-0.0047827066845164,-0.0791114144914906
9.53,-1.7113398754387694,-0.009002513180239,-0.0656016218924722
9.540000000000006,-1.5962875097789389,-0.0103009507475201,-0.0643950777435475
9.550000000000011,-1.4635742839320156,-0.0158700720207559,-0.0741455252600131
9.560000000000002,-1.3259558371839038,-0.0126346091674241,-0.0912649580834806
9.570000000000007,-1.1870386238802932,-0.009978436656391,-0.0971692546384922
9.580000000000013,-1.052926725180644,-0.0084946154751681,-0.0878652247036048
9.590000000000003,-0.9279522682056988,-0.009688811977662,-0.0730453153087493
9.600000000000009,-0.7988525930985989,-0.0197653213147771,-0.0572653191479243
9.61,-0.6790028349286501,-0.0217529045698928,-0.049957963509788
9.620000000000005,-0.5621697314827334,-0.0258479841067071,-0.0490190383099417
9.63000000000001,-0.4581315566036431,-0.0320509867860523,-0.047844396376618
9.64,-0.3746060360219159,-0.0383343038673799,-0.0459112871764459
9.650000000000006,-0.2951632447983911,-0.035593623529929,-0.0280238075467369
9.66000000000001,-0.2271250335354712,-0.0283392881587263,-0.0073736211871142
9.670000000000002,-0.1519887014184553,-0.0271168076729882,0.0144688418218496
9.680000000000009,-0.0755715651344384,-0.0238652019050501,0.0271469152776213
9.690000000000012,-0.0089710155286635,-0.0199542069428209,0.0252368510760348
9.700000000000005,0.050969478608432,-0.0186184047626497,0.0228777007936181
9.710000000000008,0.0937476486684753,-0.0193969955386393,0.0242933649765347
9.72,0.1322808167707023,-0.0222048332926913,0.0319911694322568
9.730000000000004,0.1610238733293102,-0.0275191565789097,0.0435664856763165
9.740000000000007,0.197656724390761,-0.0288909595702804,0.0542615170861785
9.75,0.239190285392284,-0.0328709021617677,0.0561750341763248
9.760000000000003,0.2910120221112467,-0.0306078508562496,0.0541612823769327
9.77000000000001,0.3587868130193413,-0.0235417052138481,0.0437097203251155
9.78,0.4311412631356033,-0.0135820292614043,0.0381945376076548
9.790000000000006,0.5128026446871828,-0.0102303826308274,0.0391653097180571
9.800000000000011,0.5859637766926868,-0.013415225690332,0.044225715579747
9.810000000000002,0.6638279770257298,-0.0119549716589694,0.0428108308243593
9.820000000000007,0.7519913816526695,-0.0154533316563757,0.0387779751857049
9.830000000000013,0.8377753738083396,-0.012773656591958,0.0260102943308877
9.840000000000003,0.9361787323805416,-0.0100798928867121,0.0172084576208133
9.850000000000009,1.0423454467774418,-0.0016572885631362,0.0168597695530423
9.86,1.146675143019359,0.0056645658954526,0.0228785150179723
9.870000000000005,1.262420588351702,0.0135640323611775,0.03104940412125
9.88000000000001,1.3752685732625218,0.0187922611876274,0.0343992116628156
9.89,1.499085065979672,0.0232234249572192,0.0418860491966208
9.900000000000006,1.6207567973971748,0.0311123696254826,0.0557194695782675
9.91000000000001,1.7248873211423554,0.0305705704774724,0.0612674101941753
9.920000000000002,1.814884640041498,0.0297410340898805,0.0596826311625532
9.930000000000009,1.893775958056854,0.0365568713025742,0.0647985081816758
9.940000000000012,1.9633258886973344,0.0463465943410767,0.0684579526081499
9.950000000000005,2.0192839469181965,0.0550362939538128,0.0810285839228756
9.960000000000008,2.079609006723844,0.0630825827870592,0.0902522159344093
9.97,2.135392280645755,0.0765628944938379,0.0960724782286402
9.980000000000004,2.1981800487188408,0.0873676361053374,0.1019114644620124
9.990000000000007,2.254046905705597,0.0933374022689724,0.1066185966086511
10.0,2.3026837950975603,0.0912718249518546,0.1045920006192637
10.010000000000003,2.3483326676828256,0.0856602628896984,0.0990722320301269
10.02000000000001,2.3856423090616468,0.0801791727012242,0.0970326704231155
10.03,2.411485818010725,0.0771777458588996,0.105063703357237
10.040000000000006,2.431338926231706,0.0779655933823763,0.110163632008333
10.050000000000011,2.441511775811094,0.0712906776508148,0.1132231032553913
10.060000000000002,2.4525394290678726,0.0677097049427811,0.1215366071564213
10.070000000000007,2.467669214557819,0.0735251434315086,0.1222916246277112
10.080000000000013,2.487429442985328,0.0862323644638521,0.1227671338048217
10.090000000000003,2.514821695585698,0.0851646227756059,0.1230687724893336
10.100000000000009,2.5458764244652863,0.0799928722555974,0.1138057623252634
10.11,2.5759202663519574,0.0656558723891648,0.1043905198012225
10.120000000000005,2.5996650688186147,0.0554642068696449,0.0974614175788454
10.13000000000001,2.6169274700907144,0.057931563514675,0.0896694005142348
10.14,2.6331461954775284,0.0669181361073472,0.0848404234843501
10.150000000000006,2.6488701429464125,0.0776893856956948,0.079617053998376
10.16000000000001,2.6648529228380866,0.0762652078779767,0.0815930124860282
10.170000000000002,2.691664930198748,0.0717801443168041,0.0809102054446111
10.180000000000009,2.7210888677332266,0.0639165412101363,0.0771700793351218
10.190000000000012,2.749684607317638,0.0601075629354338,0.0675773582700998
10.200000000000005,2.770920422939103,0.0504740202857341,0.0527798578057489
10.210000000000008,2.788308885540585,0.042854984466736,0.0393516292416852
10.22,2.7938700326333485,0.0341127748306443,0.0239529485106503
10.230000000000004,2.789354871927452,0.0253729691815676,0.0072690415389383
10.240000000000007,2.775369642058211,0.0248888743326799,-0.003374892913877
10.25,2.7581824964593413,0.0185966007725553,-0.0150905152858082
10.260000000000003,2.7252601966212397,0.017490804590801,-0.0273905829008926
10.27000000000001,2.6845428709144747,0.0074035328740936,-0.0455902448570811
10.28,2.6428092613435434,-0.0088189346091201,-0.0698763051265014
10.290000000000006,2.587542507780134,-0.0146476981751163,-0.0877284578647182
10.300000000000011,2.5349294763741708,-0.0232287125402355,-0.102645012916262
10.310000000000002,2.480448894291808,-0.0346309143148721,-0.1155390273542846
10.320000000000007,2.4261930479470206,-0.0456139752764238,-0.1264391821006567
10.330000000000013,2.3631612122131807,-0.0534067174800116,-0.1321914837892344
10.340000000000003,2.2991464372074533,-0.0648269347085801,-0.1351425031751454
10.350000000000009,2.235344183658055,-0.0841065325336748,-0.1379128423060008
10.36,2.1679605103795123,-0.0926005385088082,-0.1358335836167108
10.370000000000005,2.1053959165081126,-0.0974387117581971,-0.1259968066855052
10.38000000000001,2.0384209149563555,-0.0942426007687251,-0.1094161239562438
10.39,1.9798310891427189,-0.0791063672426549,-0.0846153118086021
10.400000000000006,1.9228316998552508,-0.0719947355185831,-0.061249335202604
10.41000000000001,1.871731223141052,-0.0642728368553355,-0.0441053258305175
10.420000000000002,1.8231655402127496,-0.0526802317957339,-0.0301064158013599
10.430000000000009,1.7722650969417937,-0.0366506056117562,-0.014035941016735
10.440000000000012,1.7226294766233723,-0.0147172241187896,0.0104078797407314
10.450000000000005,1.673986319205631,0.0014258416991009,0.036768845908498
10.460000000000008,1.6224844878049935,0.0199845852221287,0.0559302874514965
10.47,1.5702959859041368,0.035316938641583,0.0681536532480213
10.480000000000004,1.5246058917542102,0.0527153647942116,0.0794512853164563
10.490000000000007,1.4894624103065146,0.0614049777510227,0.0937864990348697
10.5,1.462891396712769,0.0653990355013567,0.103434905847742
10.510000000000003,1.4563090589503511,0.0652316465101629,0.1188242059155829
10.52000000000001,1.4602212065602802,0.0623987002975699,0.1229311535149877
10.53,1.474736805054533,0.0609703198843816,0.1258012351370044
10.540000000000006,1.499055152897475,0.0561965301448927,0.1298362134803891
10.550000000000011,1.525686545860467,0.0635034710085052,0.1366336397100773
10.560000000000002,1.5724642040582884,0.060645245625832,0.1551995983577602
10.570000000000007,1.6306912732342758,0.0626919914585826,0.1583221065942631
10.580000000000013,1.7012250722571192,0.0546591919654381,0.165394420873381
10.590000000000003,1.7736875249997872,0.0418567948485957,0.1751721231832884
10.600000000000009,1.8499460244779031,0.03516625185671,0.1718162948639837
10.61,1.92061058636498,0.0298035194580716,0.1713001159795519
10.620000000000005,1.9948100425035884,0.0219746090002989,0.1667746962493698
10.63000000000001,2.063245409882395,0.0145182225294953,0.1626186454204386
10.64,2.119695979260205,0.0135602954285561,0.1663841056073932
10.650000000000006,2.169077733705548,0.0030844858755567,0.1704528556731616
10.66000000000001,2.214276853399849,-0.0056681179686637,0.1761121492055206
10.670000000000002,2.245248046692557,-0.0082805770925333,0.1791239717700262
10.680000000000009,2.256985090941853,-0.0120319577321033,0.1797074377588831
10.690000000000012,2.253991801956863,-0.0127482939504419,0.1687495604801881
10.700000000000005,2.2270236369228127,-0.0114728877663218,0.1607787822226899
10.710000000000008,2.1860459106913512,-0.0102963514998273,0.1585446212750788
10.72,2.119812802899701,-0.0115460331713565,0.1560509450649474
10.730000000000004,2.0395848188482164,-0.0165189557328026,0.1588495579392797
10.740000000000007,1.94654233432962,-0.0171040267977316,0.1591095736659717
10.75,1.844160618748906,-0.0258816198468192,0.1602493569167938
10.760000000000003,1.7416321862471276,-0.0389954428810196,0.157314399998715
10.77000000000001,1.6422226566625004,-0.0495593102527814,0.1442932932369063
10.78,1.557823547495623,-0.0588986226818398,0.1311734369000995
10.790000000000006,1.484923482249168,-0.0703197948174237,0.1142271543526621
10.800000000000011,1.4264105078941454,-0.0722439872622184,0.0864927754688757
10.810000000000002,1.3845368468431292,-0.0689080627721438,0.0606211832609195
10.820000000000007,1.3567190653590082,-0.0672636023658082,0.0453852861218992
10.830000000000013,1.335379652984798,-0.0663537204006797,0.0492763771305923
10.840000000000003,1.3203259372296858,-0.0743966691344026,0.0568219364773865
10.850000000000009,1.305744502663587,-0.0800731181800388,0.0570351395074268
10.86,1.2917713267863449,-0.0814427804965755,0.0504154306673028
10.870000000000005,1.2803293200179582,-0.0658436778221017,0.0255319206734853
10.88000000000001,1.2946881564148196,-0.0562265129242956,-0.0133317661390313
10.89,1.328011721648504,-0.0590744134506323,-0.0462376930361544
10.900000000000006,1.34634112488409,-0.0491460275015332,-0.0550872834688549
10.91000000000001,1.35057334081057,-0.0375751563517272,-0.0450837807053832
10.920000000000002,1.3313548570460765,-0.0298721444357561,-0.0223780507129205
10.930000000000009,1.2946672431437478,-0.0271773084944854,-0.0132981412097615
10.940000000000012,1.2419634870189504,-0.0273044734985223,0.0009874320950265
10.950000000000005,1.1804653733647377,-0.0209870138189861,0.0104970647548628
10.960000000000008,1.120644775231777,-0.0112756684824198,0.0099994046807045
10.97,1.060099245567773,0.004666033078193,0.0105940413280347
10.980000000000004,0.9954094390512128,0.0274802671433295,0.013470559101869
10.990000000000007,0.9254927819840087,0.0476877213148932,0.0256552706835085
11.0,0.8548665453938142,0.0606314100863907,0.0276291258855104
11.010000000000003,0.7795680893202104,0.0695333506970994,0.0246205685948357
11.02000000000001,0.7012918580600662,0.0770976147351586,0.0144411208753076
11.03,0.630482911316962,0.0796471413809055,0.0101834231844709
11.040000000000006,0.5620283161351399,0.0793624928522711,0.0092488305141515
11.050000000000011,0.5093136680689648,0.0741966960202231,0.0077657273791861
11.060000000000002,0.4628290169084214,0.0705183863480591,0.0070885726419584
11.070000000000007,0.4296644539754487,0.0745103237662058,-0.0040595567012463
11.080000000000013,0.397227859039819,0.0753359248563712,-0.014841399677759
11.090000000000003,0.3588335571668909,0.0704840442828446,-0.0218846911110204
11.100000000000009,0.319207766324672,0.0634165499850892,-0.0326136840643185
11.11,0.2645617844102103,0.0464821641228848,-0.0396748907350139
11.120000000000005,0.2158909693893356,0.0336823899330422,-0.0461248940051343
11.13000000000001,0.1508433501830824,0.0315930676179726,-0.0419568355063523
11.14,0.0822531569794019,0.0243090556228109,-0.0362053582201419
11.150000000000006,0.0185152060197135,0.0173765566832257,-0.0340515958186526
11.16000000000001,-0.0454483903956395,0.0112572245188363,-0.0376018404225371
11.170000000000002,-0.1020542544938845,0.0068356449667496,-0.0357502641053373
11.180000000000009,-0.1580252684411061,0.0091976235320779,-0.0324298243223568
11.190000000000012,-0.214819157456481,0.0109383381406216,-0.0290466638498234
11.200000000000005,-0.2687768763619743,0.0083611224509646,-0.0249911311854864
11.210000000000008,-0.3160867990132898,0.005411189579354,-0.0273026556692384
11.22,-0.3670846449791195,0.0028017886577291,-0.0265004812190708
11.230000000000004,-0.4136181395089099,-0.0001223204242993,-0.0192164987102146
11.240000000000007,-0.4531274414069806,-0.0050923274904921,-0.0141502453504696
11.25,-0.4853474498056532,-0.0140839266936133,-0.0124447642250439
11.260000000000003,-0.518528298264122,-0.0188177696959389,-0.0126346583980466
11.27000000000001,-0.5464756309435758,-0.028702175045106,-0.0128159719582189
11.28,-0.5745969597276742,-0.0353389534120136,-0.0047114740343804
11.290000000000006,-0.6111387509447433,-0.0347667612969287,-0.007169468733316
11.300000000000011,-0.6569600687735937,-0.0329977890702049,-0.0155101358474261
11.310000000000002,-0.7062019481437423,-0.0307335400675179,-0.0295063414789626
11.320000000000007,-0.7753578203559939,-0.026950084097511,-0.0403742816230401
11.330000000000013,-0.8455770123503664,-0.0208757970785107,-0.0489072779653975
11.340000000000003,-0.9052381800321988,-0.0250136316484025,-0.0499012670888456
11.350000000000009,-0.9646243467658736,-0.0277099202769583,-0.0543727186756091
11.36,-1.0104053394666963,-0.0294054896332715,-0.0525790622783335
11.370000000000005,-1.0499587974467608,-0.0344210350069136,-0.0477615792434436
11.38000000000001,-1.0716963878406434,-0.0385911747538581,-0.0517052247260271
11.39,-1.082679013757244,-0.0410515025273977,-0.0620272957311355
11.400000000000006,-1.090324994731123,-0.0465214151209309,-0.0889488079524115
11.41000000000001,-1.0946192002449302,-0.0455117848205437,-0.1111882050957651
11.420000000000002,-1.1147415958957685,-0.0454102889052801,-0.1283878983075859
11.430000000000009,-1.148728458565483,-0.0449523458789198,-0.1320706442556793
11.440000000000012,-1.1984211050611966,-0.0439478713307944,-0.129408168445929
11.450000000000005,-1.2666950819955842,-0.0432308996368315,-0.1177874071307516
11.460000000000008,-1.3373319433255275,-0.0383097174507631,-0.0913992458698323
11.47,-1.4027414496918666,-0.0364062881256433,-0.0725063608113306
11.480000000000004,-1.4537496955913929,-0.0323265368545735,-0.0635308080490882
11.490000000000007,-1.500623525437924,-0.0344142041861665,-0.064698337932867
11.5,-1.5314436840095325,-0.0346281676905074,-0.0835129474793052
11.510000000000003,-1.5566429272549558,-0.0375973597024056,-0.1002675507658242
11.52000000000001,-1.584347630607833,-0.0413750266360092,-0.1078124570491963
11.53,-1.6042095267333705,-0.0440885424829341,-0.1035973922999342
11.540000000000006,-1.6307308741511957,-0.0428906903781987,-0.0897289929876504
11.550000000000011,-1.656407368595488,-0.0424425961033487,-0.0711602167856847
11.560000000000002,-1.676705752169071,-0.0416837285651337,-0.0541243493270471
11.570000000000007,-1.6890478160678837,-0.0418427749626031,-0.0464897358898147
11.580000000000013,-1.6767409021287958,-0.0466280390590492,-0.040979451386396
11.590000000000003,-1.647740534285015,-0.0384477830360327,-0.0388597697873307
11.600000000000009,-1.6048350298517076,-0.0256715835764432,-0.0475165045158463
11.61,-1.5555003141681116,-0.0141197479980618,-0.0644412789424029
11.620000000000005,-1.5094640584244017,-0.0004550400606647,-0.0673538936735234
11.63000000000001,-1.468716902172548,0.0077593875804186,-0.0681278148999461
11.64,-1.4330656222629536,0.0086838062966742,-0.0565717249893501
11.650000000000006,-1.4099164950003746,0.0147805097973612,-0.0302154203960607
11.66000000000001,-1.380243178767497,0.0218010441176825,-0.0146513891134819
11.670000000000002,-1.3462486138127137,0.0314119015495182,-0.011594337438274
11.680000000000009,-1.3061905754404912,0.0381761362860601,-0.0118344836741848
11.690000000000012,-1.2583960508367238,0.0427368476312835,-0.0094381941681177
11.700000000000005,-1.218128679550489,0.0526272020333096,-0.0014511978473989
11.710000000000008,-1.180831730200529,0.0648318825478254,0.0098904157878682
11.72,-1.1577222348400864,0.077124284688768,0.0232413256461949
11.730000000000004,-1.142256004579534,0.0819892303334803,0.0262939141473224
11.740000000000007,-1.126644498496299,0.0827856571282116,0.0298829362535413
11.75,-1.0919877920540872,0.0729786349707494,0.025648310342501
11.760000000000003,-1.0435138247884097,0.0618652567696368,0.018003740206422
11.77000000000001,-0.9744933113823918,0.0516112725359077,0.0164753264090536
11.78,-0.9024220384035704,0.0508162948397542,0.0144285948148978
11.790000000000006,-0.8328347885082491,0.0576156516737929,0.0138185544023718
11.800000000000011,-0.7775361988808244,0.064508621018559,0.0071640671507108
11.810000000000002,-0.7432976717273904,0.0683944160539512,0.0039361848786488
11.820000000000007,-0.71448585710776,0.0629192845245327,-0.0018928802960359
11.830000000000013,-0.6806260815397103,0.0552202598851303,-0.0133112385779382
11.840000000000003,-0.6314618756647026,0.0404171588609965,-0.0168142212287388
11.850000000000009,-0.5731076425748538,0.0329234030895962,-0.0175507974525041
11.86,-0.5050997433855062,0.0350720282967836,-0.0176269050150256
11.870000000000005,-0.4466814078622789,0.0385595045278809,-0.0020107953753716
11.88000000000001,-0.3958644937594424,0.0467793752083298,-0.0041275771321671
11.89,-0.356759547710648,0.0525365138467307,-0.0075016601172493
11.900000000000006,-0.3414503576188886,0.0528952189156267,-0.0140018086986495
11.91000000000001,-0.3325639341292457,0.0499349878676253,-0.0281079023149996
11.920000000000002,-0.3335293004392842,0.0463493179362098,-0.0374286125469711
11.930000000000009,-0.3408723804571326,0.0392649109546221,-0.0409237167340651
11.940000000000012,-0.3498045058085089,0.0372189356971593,-0.0376352015179313
11.950000000000005,-0.3652519339277743,0.0369912450004595,-0.0297849922945594
11.960000000000008,-0.3821932489245035,0.0362183846296587,-0.018219725263498
11.97,-0.4032210874920255,0.0349755551572738,-0.0086254524025985
11.980000000000004,-0.4157724593846645,0.027848240034578,-0.0098661615845043
11.990000000000007,-0.4339335313163378,0.020109063548844,-0.0194290043257686
12.0,-0.4601123315913664,0.0170605324227348,-0.0326123771574839
12.010000000000003,-0.4891450037836887,0.0081057549085493,-0.0447956979537138
12.02000000000001,-0.5169159429648236,0.0042784769963512,-0.047430341100108
12.03,-0.5434684250541837,-0.0011805696653459,-0.0489651025199711
12.040000000000006,-0.565242899045552,-0.013888217364876,-0.0431776286802625
12.050000000000011,-0.5814718591115757,-0.0235519702907985,-0.03945330831167
12.060000000000002,-0.5932867195277446,-0.0382702813283442,-0.0374789857893053
12.070000000000007,-0.6037291937540175,-0.0488834638346918,-0.0344916859550152
12.080000000000013,-0.6132898123109126,-0.0589630418977509,-0.0338340582217464
12.090000000000003,-0.6213345714282982,-0.0719664943939006,-0.0333351040634661
12.100000000000009,-0.631000371825262,-0.0808982255501615,-0.0351476891819059
12.11,-0.6396188099329239,-0.0869578626039381,-0.0329907611366908
12.120000000000005,-0.6331590440651967,-0.1026617121793188,-0.0268981298879545
12.13000000000001,-0.6139276620216466,-0.1112595377308086,-0.0304755857078744
12.14,-0.5956016145766837,-0.1089895662799669,-0.0370828495908664
12.150000000000006,-0.5790379547135424,-0.106952468650189,-0.035562078630217
12.16000000000001,-0.5764480913636352,-0.103594548979581,-0.0385467220033106
12.170000000000002,-0.5843233164561868,-0.0991838579246709,-0.0513549659079173
12.180000000000009,-0.6001806886122029,-0.1022346149343602,-0.0688612545584584
12.190000000000012,-0.6269197007889298,-0.1077428060520052,-0.0876242756211952
12.200000000000005,-0.6659473342961932,-0.1095995742980289,-0.100618108807521
12.210000000000008,-0.7039238058946802,-0.1118669370742315,-0.0995809651131146
12.22,-0.7449390988252734,-0.1129784203278705,-0.0956020899311111
12.230000000000004,-0.7809788497817459,-0.113526304887264,-0.0878237017793704
12.240000000000007,-0.8134701405738729,-0.1030606986000274,-0.0886457101767468
12.25,-0.8390956121696737,-0.0957836848406853,-0.0916576852257333
12.260000000000003,-0.8582702905808344,-0.0922088749907874,-0.0966858444232941
12.27000000000001,-0.8806000101678833,-0.0893954460274658,-0.1053702193732887
12.28,-0.9048762289275556,-0.0895513553364911,-0.1007471155721321
12.290000000000006,-0.9279844774396956,-0.0836908368469493,-0.0837696223116494
12.300000000000011,-0.9421280473174134,-0.0785721787669035,-0.0639431526261324
12.310000000000002,-0.9528367620507062,-0.068106510282809,-0.0414805157449025
12.320000000000007,-0.9460874394673116,-0.0633871142917254,-0.0176694678889334
12.330000000000013,-0.9219640780338976,-0.0593070604263971,-0.0044771539366412
12.340000000000003,-0.8873087978515631,-0.0603403275620302,0.010330060720674
12.350000000000009,-0.847746596527377,-0.0605238259588867,0.0061717364474953
12.36,-0.8069754265718581,-0.058258860928403,-0.0029093028123651
12.370000000000005,-0.7702195670982458,-0.0508401711878607,-0.0095112454668049
12.38000000000001,-0.7403070410494944,-0.0438694131058385,-0.011750994827473
12.39,-0.7150154802906332,-0.0347627168946013,-0.0177214525553513
12.400000000000006,-0.6932289034756718,-0.0224771749423445,-0.0128408531167479
12.41000000000001,-0.676524072687649,-0.0161710043927855,-0.0072925085308642
12.420000000000002,-0.6641413068151515,-0.0065306511672963,-0.0080067397633732
12.430000000000009,-0.6570020896549235,-0.0026721911853257,-0.0051545968382337
12.440000000000012,-0.6508539814798997,-0.0014108730619239,-0.0062945743814891
12.450000000000005,-0.643990384754203,6.126055406622963e-06,-0.0060474902617493
12.460000000000008,-0.6288156636624319,-0.0010618835529449,-0.0024660623517645
12.47,-0.6068399476035975,0.0023755603692754,0.0028536094187891
12.480000000000004,-0.5743529856475657,0.0084397564025484,0.0089568686109002
12.490000000000007,-0.5408195695985787,0.019427086570131,0.0232192048911776
12.5,-0.5057471880650231,0.0305347846009348,0.0314129666027822
12.510000000000003,-0.4601710292181953,0.0379648736524385,0.0382886023348222
12.52000000000001,-0.426936959382772,0.0409178845758068,0.042589444921772
12.53,-0.3910511489685801,0.038412461022681,0.0424540880099449
12.540000000000006,-0.358832263241884,0.0298314974737985,0.0416775158284639
12.550000000000011,-0.3268802144276074,0.0207851783423722,0.0405002560937948
12.560000000000002,-0.2936717810914489,0.0158240929142325,0.0389632852894346
12.570000000000007,-0.2614982653277807,0.0191011262793133,0.0367261401090236
12.580000000000013,-0.2280632969974992,0.0249188364968753,0.0351396930881969
12.590000000000003,-0.2017864044981325,0.0256306307247465,0.0332276849259009
12.600000000000009,-0.1747472526638148,0.0242217942451212,0.034389642921356
12.61,-0.1499965390895674,0.0153821678551966,0.0335043141663145
12.620000000000005,-0.1340781344361414,0.0062528957676707,0.0297926443855017
12.63000000000001,-0.1186062770423996,-0.0003451994128457,0.0294397972264036
12.64,-0.1090400869426645,-0.0024902131011858,0.0273365662287496
12.650000000000006,-0.0988046529996138,-0.0041322226854803,0.0286049009845707
12.66000000000001,-0.0815943576051132,-0.0066193421004932,0.0273063594389779
12.670000000000002,-0.0579516044908009,-0.0064392390501864,0.0271230564697505
12.680000000000009,-0.033501792946081,-0.0060463178548227,0.023651450481033
12.690000000000012,-0.0158133370550102,0.0021424318411085,0.0252933898716556
12.700000000000005,0.0023342065212526,0.0044829659105384,0.0288107400873049
12.710000000000008,0.0201097427337042,0.0113889350201392,0.0282629025527313
12.72,0.0373060680242167,0.0181472587510805,0.0323970683524682
12.730000000000004,0.0511839064472542,0.0176418326068575,0.0312921904045886
12.740000000000007,0.0657214609073795,0.0279880178796315,0.0308524669253474
12.75,0.0780650667249567,0.0326129016851597,0.0261401400016577
12.760000000000003,0.0875096556107284,0.0296709595682696,0.0207307149736709
12.77000000000001,0.0944130808940494,0.0232961762988111,0.0192183715564563
12.78,0.1061371454163058,0.0207978697966711,0.0155678079370531
12.790000000000006,0.1081085975453581,0.0210548612140548,0.0140335161644976
12.800000000000011,0.107203890823383,0.01609470537211,0.0144332334172728
12.810000000000002,0.0992671687711942,0.0135090686342257,0.0125389691422642
12.820000000000007,0.0895839107857666,0.007564110123094,0.0117220163861389
12.830000000000013,0.0749870959628711,0.0030048006729546,0.0132906398745937
12.840000000000003,0.061465690936259,-0.0004268585695804,0.0121584160196706
12.850000000000009,0.0458774718955344,-0.0059805905707787,0.0084132809902537
12.86,0.0334745158153708,-0.0057881750109287,0.008684573716878
12.870000000000005,0.0231869278831573,-0.0076196110539381,0.0090893380527159
12.88000000000001,0.0101594486900792,-0.0083206370294847,0.0064726173200426
12.89,0.0070240779546188,-0.0133169520221142,0.0025688048298838
12.900000000000006,0.0034287986056197,-0.0190209360868202,0.0025426061773796
12.91000000000001,-0.0008599101056102,-0.0230797678396872,-0.0048955462189908
12.920000000000002,0.0015798220235328,-0.0220416308093001,-0.0051031281067007
12.930000000000009,0.0046471982984935,-0.0180077267751966,-0.0059444259660882
12.940000000000012,0.0026587260893387,-0.0118241205622072,-0.0094059591091253
12.950000000000005,0.0045677073306459,-0.0066933239449457,-0.0064101009102966
12.960000000000008,0.0095463818697142,-0.0058689608150848,-0.0039726928196881
12.97,0.0147239703465481,-0.0055063126949539,-8.130242567356267e-05
12.980000000000004,0.0178635152030062,-0.0029611523552346,-0.0001438618917485
12.990000000000007,0.0236295111041118,0.0001275535245548,0.0011128590684539
13.0,0.0249769544048457,0.0040036932134217,0.0008109659142334
13.010000000000003,0.0193428373090571,0.0054509214940017,-0.0004826523034248
13.02000000000001,0.0191241339588287,0.0027382239306945,0.0012230563769787
13.03,0.013133649712422,0.0017725845280667,0.0035314456280487
13.040000000000006,0.0051780335283381,-0.0013564730484999,0.0022486819931172
13.050000000000011,0.0037839467985425,-0.0017253029095835,0.0002363246676258
13.060000000000002,-0.0008312789037484,-0.0039338716954456,-0.0009752833376241
13.070000000000007,-0.0091930176261419,-0.0005748445342598,-0.003160561185116
13.080000000000013,-0.0183215640670693,-0.0011871990776525,-0.0058135322759972
13.090000000000003,-0.0300852609035389,-0.0046073174852247,-0.002126750393955
13.100000000000009,-0.0412304521176633,-0.006165745904016,-0.0033629261176214
13.11,-0.0435661429929273,-0.0055583011231121,0.0031308707313804
13.120000000000005,-0.0441256717474007,-0.0038646196067107,0.003233597705118
13.13000000000001,-0.0419081699230395,-0.0048003045220686,0.0022403834927582
13.14,-0.0340516034360822,-0.0030353135487004,0.0042765443474504
13.150000000000006,-0.0243262358086749,-0.0060368861132659,0.0057659972167581
13.16000000000001,-0.0121678853519771,-0.0070543254979248,0.0103449002482064
13.170000000000002,-0.006294736364091,-0.0046458299996058,0.0083074433721513
13.180000000000009,-0.0073547975450115,-0.0036818790967211,0.0113275992081905
13.190000000000012,-0.0073698360758935,-0.0020565391070458,0.0079944715198901
13.200000000000005,-0.0056236295620916,-0.0034166844821493,0.0086156075990288
13.210000000000008,-0.0104713322183642,-0.0083966058968033,0.0130429959184639
13.22,-0.0113843967396844,-0.0064528923794993,0.0121949513253057
13.230000000000004,-0.0080331678791785,-0.0047494867294546,0.0134048058797739
13.240000000000007,-0.0073618951958263,-0.0028387473861776,0.0157562663323736
13.25,-0.0044836063691532,-0.0025810712446277,0.0145744273450587
13.260000000000003,0.0026142413537591,-0.0017729936310932,0.0112668867832222
13.27000000000001,0.0050706206005394,0.0010617411125705,0.0159392017358896
13.28,0.0034627858735684,0.0029497920958082,0.0183019154545224
13.290000000000006,0.0050289701890275,0.0053592736290692,0.0147423911125182
13.300000000000011,0.0060262745112523,0.0062772368949829,0.0158536842616393
13.310000000000002,0.0104707364579786,0.005095551777287,0.0180574724415861
13.320000000000007,0.0095204067000879,0.0085532822726036,0.0197868972751076
13.330000000000013,0.0117515638762279,0.0075013244332691,0.0237968558447445
13.340000000000003,0.0120138686528538,0.0077802658391166,0.0218171084765699
13.350000000000009,0.0073223244704516,0.0122605766747357,0.0210429301729831
13.36,0.0035752391042483,0.0138310277975895,0.0238869257373545
