time,Gyr_X,Gyr_Y,Gyr_Z
0.0,-0.0225166171504846,0.0013427389557208,-0.0030047194820694
0.0100000000000193,-0.0156905217387058,0.0113094156322173,-0.0067177753806415
0.0200000000000102,-0.0158990818214102,0.0044398314604748,-0.0044680517150661
0.0300000000000011,-0.0203270096047673,0.0087212167048428,-0.0080717787555021
0.039999999999992,-0.0222987148318962,0.0045763486443417,-0.0082460105148401
0.0500000000000113,-0.0206391031239155,0.0059542818822429,-0.0150266188761045
0.0600000000000022,-0.0140914795757787,0.0079767983830549,-0.0131674250652646
0.0699999999999931,-0.0080092259068169,0.0045545181126025,-0.0129534733885318
0.0800000000000125,-0.0226135411701447,0.0064047321572506,-0.0128896331616182
0.0900000000000034,-0.0286523192621242,0.0039305061464579,-0.0085356448723244
0.0999999999999943,-0.0217259482675676,0.0071095028965357,-0.0076529099431711
0.1100000000000136,-0.0221569184352504,0.0060073687171174,-0.0079481888138909
0.1200000000000045,-0.0142944654974895,0.005331201028659,-0.0042079671295792
0.1299999999999954,-0.0162977362993724,0.0072509316479243,0.0027420013176769
0.1400000000000147,-0.0188057207166409,0.0063144405953184,0.0065066952143275
0.1500000000000056,-0.0150389412244437,0.0018112863081036,0.0083207792428212
0.1599999999999966,-0.0216034048120071,0.0005967518475357,0.0005200344065163
0.1700000000000159,-0.0171812261064724,0.0049319620578197,-0.0054763249774972
0.1800000000000068,-0.0173082722814947,0.0023494881877744,-0.0077531969683268
0.1899999999999977,-0.0221711204301094,-0.0001800575183344,-0.0109652910476297
0.200000000000017,-0.0196750632164236,0.0046864963876601,-0.01011697136415
0.2100000000000079,-0.0214038830993833,0.0063864201017075,-0.0083428523278833
0.2199999999999988,-0.0178886930178238,0.0092956622727752,-0.010910643208094
0.2300000000000182,-0.0199789712845021,0.0067613464978752,-0.006599458436627
0.2400000000000091,-0.0258745023264474,0.0057177617120643,-0.0060467237850015
0.25,-0.0204754233895142,0.0036883222808661,-0.0050403595541571
0.2600000000000193,-0.02369686920155,0.0036690814122173,-0.0194196032988667
0.2700000000000102,-0.0312868531831028,0.0079164474630243,-0.0290545757267051
0.2800000000000011,-0.0385550888514159,0.007878364211031,-0.0299924258164631
0.289999999999992,-0.0309311562770337,0.0043037744942359,-0.0313391081467399
0.3000000000000113,-0.0174800412398545,0.0057722445531074,-0.0293839082543414
0.3100000000000023,-0.0148359947654494,0.0066835743404614,-0.0323085014102761
0.3199999999999932,-0.0167660926502617,0.0077643404343514,-0.0310362801334757
0.3300000000000125,-0.0175105764726843,0.0085465907021907,-0.0359769751544753
0.3400000000000034,-0.0164060272623482,0.001920404409631,-0.0370205829105117
0.3499999999999943,-0.017288479340659,0.0039296269272214,-0.037748187824307
0.3600000000000136,-0.0168534272106492,0.0068911057158483,-0.0387501649708455
0.3700000000000045,-0.0191842555562672,-0.0005849727928571,-0.0410855641062283
0.3799999999999954,-0.0168793274586017,0.0103111273106768,-0.0447765833598865
0.3900000000000148,-0.0230725085457527,0.0104975850427576,-0.0387383218682928
0.4000000000000057,-0.0194074687079091,0.003404358840215,-0.0300598068282192
0.4099999999999966,-0.0150167395793722,0.0025752299760419,-0.0198127005638332
0.4200000000000159,-0.0203831326182953,0.0001912464413376,-0.0187759929147135
0.4300000000000068,-0.0168769715060727,0.0053409531645667,-0.0089257595231697
0.4399999999999977,-0.014094127410872,0.0074527966265942,-0.0059713986581121
0.450000000000017,-0.0172357900665496,-0.0003065109364408,-0.0080740267462025
0.4600000000000079,-0.0194047974929506,0.0009368686460922,-0.0055991413920288
0.4699999999999988,-0.0158386388331473,0.0016093374135347,-0.0003259783624668
0.4800000000000182,-0.017296268120454,0.0038970197916961,0.0077749549855085
0.4900000000000091,-0.0188682052557797,0.0073504018141093,0.0190738317441721
0.5,-0.0210333302065994,0.0067773726213172,0.0235500735006527
0.5100000000000193,-0.0182134460258955,0.0089293596456312,0.0371913467187826
0.5200000000000102,-0.0154054815899662,0.0012346655717898,0.0411051678276617
0.5300000000000011,-0.0167999968463236,0.0003659498105611,0.0413795898496815
0.539999999999992,-0.0177643760456248,0.0008106904062773,0.0414455534734942
0.5500000000000114,-0.0178932830608171,0.0014650773245866,0.0463050338624397
0.5600000000000023,-0.0157746226245482,0.0031045620610426,0.0441224426764749
0.5699999999999932,-0.0159828000417589,0.001971346122959,0.041455908174318
0.5800000000000125,-0.0196074748135358,0.0087279217015528,0.0487898958540587
0.5900000000000034,-0.0215692910863006,-5.218463920635929e-05,0.0468118524118498
0.5999999999999943,-0.0157968848535984,0.0011181180570947,0.0601143251591412
0.6100000000000136,-0.015498157008472,0.0042888352229385,0.0679262581368814
0.6200000000000045,-0.0155345103030175,0.0044509041572271,0.0702088273003342
0.6299999999999955,-0.0153396090855658,0.005254328221248,0.0798080474761171
0.6400000000000148,-0.0161642724709559,0.0099649568129247,0.0844301548116506
0.6500000000000057,-0.0169400691371923,0.008896079449855,0.0853708893995948
0.6599999999999966,-0.0156315068579697,0.0062027797794486,0.086381010357518
0.6700000000000159,-0.0202069341282879,0.0054930696429455,0.0854141933592876
0.6800000000000068,-0.0159695073706682,0.0079680748081887,0.0863203739650922
0.6899999999999977,-0.0148016929767393,0.0098813410257744,0.0875534392521587
0.700000000000017,-0.0176003801396809,0.0070147832923175,0.0836404142459006
0.710000000000008,-0.015280859129564,0.001712316580033,0.0848218086883915
0.7199999999999989,-0.0154729858668847,0.0047923039124758,0.0751452620935278
0.7300000000000182,-0.0151444881351639,0.0018308079916972,0.0773903253491564
0.7400000000000091,-0.0149706214492761,0.001891258620554,0.0817509093963398
0.75,-0.0155285900622465,0.0008029206118912,0.0836991566064098
0.7600000000000193,-0.0142618418769813,0.0032400403609497,0.0854334409425003
0.7700000000000102,-0.0093114789115177,0.0080109167133945,0.0772232559328533
0.7800000000000011,-0.0127140358872951,0.000232528312421,0.0764919364466079
0.789999999999992,-0.0082894505652339,0.0029204552724497,0.0657161333864306
0.8000000000000114,-0.0136157043724376,0.0037532747325517,0.0646282966417723
0.8100000000000023,-0.0190260380540953,0.0080171148207807,0.05405416772072
0.8199999999999932,-0.0154714001577941,0.0053691555600318,0.0451263627047313
0.8300000000000125,-0.0177507336692233,-0.0044086992824531,0.0461556555475162
0.8400000000000034,-0.0171593878669971,-0.0026734472823528,0.038038373244484
0.8499999999999943,-0.0163311514367284,0.0023742305316987,0.0291288365576882
0.8600000000000136,-0.0168219186897607,0.0045500229118635,0.0279109323204469
0.8700000000000045,-0.0163188216600525,0.0038005881539279,0.0274487913094007
0.8799999999999955,-0.0130845710714191,0.0074474841788826,0.0301136914346233
0.8900000000000148,-0.0121798712443192,0.0042210665507695,0.0315532660719974
0.9000000000000057,-0.0166207109114126,0.0002246473713102,0.0371481730475794
0.9099999999999966,-0.0169376477669394,0.0028196899753147,0.0445191316883397
0.920000000000016,-0.0168042293391106,-0.0009199128550273,0.0448557158566436
0.9300000000000068,-0.0166532872138693,0.0014591679123536,0.0471939193019354
0.9399999999999976,-0.0161721856859997,0.0068286076200962,0.0499693601319003
0.950000000000017,-0.0150091955363553,0.0076330365562728,0.0567740585079369
0.960000000000008,-0.0158088085371737,0.0069330492477638,0.0585625314764942
0.9699999999999988,-0.0153166243715457,0.0047415023693408,0.0648591720526871
0.9800000000000182,-0.0223968406964624,0.0070337989956844,0.0677769083064039
0.9900000000000092,-0.0246707224807864,0.003313275658558,0.0698045867308124
1.0,-0.0216005346509227,6.16444642034821e-05,0.0501371900750574
1.010000000000019,-0.0161539863370304,0.0027581402628517,0.0352989183294373
1.0200000000000102,-0.0165364726411711,-0.0006761280850455,0.0127102023893569
1.0300000000000011,-0.0166055813134345,-0.0001960278340393,-0.0108839467436946
1.039999999999992,-0.0180040806457925,0.0031647921190899,-0.0232208978363663
1.0500000000000114,-0.0163115783656128,0.0001076976674092,-0.0320253847972589
1.0600000000000025,-0.0193634366246496,-0.0003489596405094,-0.032148736156768
1.0699999999999932,-0.0241427627670613,0.0035710676611302,-0.0335384093803273
1.0800000000000125,-0.0237397171358094,0.0033274595404822,-0.0255262250721846
1.0900000000000034,-0.0245517283257497,-0.0044835054911217,-0.0148033359992752
1.0999999999999943,-0.0165430033439796,0.0005418493970171,-0.006479865054157
1.1100000000000136,-0.0173353018455586,-0.0005240345353884,-0.001476526114376
1.1200000000000043,-0.0154522429270298,0.0034996469912661,0.0015435265641906
1.1299999999999957,-0.0154851897756567,0.0071878473325033,-0.0010745216305667
1.1400000000000148,-0.016359123654702,-0.0001901446714409,-0.0046549168681163
1.1500000000000057,-0.0166013568991741,0.0037217966619924,-0.0058460581159133
1.1599999999999966,-0.0145151684902663,7.46125229489198e-05,-0.0066942553622981
1.170000000000016,-0.0208848926159401,0.0035897063546073,-0.0132354893729468
1.1800000000000068,-0.021451307599951,0.005649361990571,-0.0158945370840634
1.1899999999999975,-0.0332367640673271,0.0074526596046498,-0.0157149808513372
1.200000000000017,-0.0302460392520292,0.0035553843308658,-0.0219195420237028
1.210000000000008,-0.0283244623923301,0.001787047818018,-0.0215472201031037
1.2199999999999989,-0.0323620245663684,0.0025034700812908,-0.0246136938526555
1.2300000000000182,-0.0222381976495721,0.0021053343450128,-0.0227377577047981
1.240000000000009,-0.0160631639894006,0.007100952631742,-0.0173525063274742
1.25,-0.0152155735944417,0.0061230014346324,-0.0123033489833022
1.260000000000019,-0.0154442845021549,0.0079914801409807,-0.0005189239507137
1.2700000000000102,-0.0164197877828796,0.0045477549459639,0.0112487626187169
1.2800000000000011,-0.0119296687784015,0.0004337139765224,0.0240296263807728
1.289999999999992,-0.0105814211440603,0.0037788690773448,0.0298220052513522
1.3000000000000114,-0.0161134784108228,0.0050173748357287,0.0209506543469766
1.3100000000000025,-0.0154957441060048,-0.0017680464826648,0.0204863508281655
1.3199999999999932,-0.0157807661200716,0.0013562384927837,0.003362397392191
1.3300000000000125,-0.0166122325420063,-0.0020773543532308,-0.0044164838084194
1.3400000000000034,-0.0157400545409119,0.000120785315293,-0.017825601444063
1.3499999999999943,-0.0155881489492747,-0.0053883971973798,-0.0281850578455908
1.3600000000000136,-0.0238763359785491,-0.0068139521108972,-0.0301688312777249
1.3700000000000043,-0.0231081330448927,0.0066589219939273,-0.0297567866005085
1.3799999999999957,-0.0252806438726353,-0.0017202582777494,-0.024561933761631
1.3900000000000148,-0.020950248741222,0.0091240413843984,-0.0233186877329749
1.4000000000000057,-0.0143105590080071,0.0065335251966803,-0.0052271705659405
1.4099999999999966,-0.0191591120816979,0.0024683881747417,-0.003354631905104
1.420000000000016,-0.01717693200654,0.0061214723215999,0.005580477740834
