time,Gyr_X,Gyr_Y,Gyr_Z
0.0,0.0936063624102897,-0.0167258962220077,-0.0030711667629831
0.0100000000000051,0.1003010630503052,-0.01658999146697,0.0002572502844421
0.019999999999996,0.101516058176505,-0.0205946129011753,0.0076519479549375
0.0300000000000011,0.1023328907579528,-0.0184421627409821,0.0071663897028996
0.0400000000000062,0.0928472415365427,-0.0221058232120279,0.0072884085490933
0.0499999999999971,0.0924269150748606,-0.0189500677649324,0.0075495333998174
0.0600000000000022,0.0769636083150562,-0.0206426223919919,0.0093614382111043
0.0700000000000073,0.0592740175308928,-0.0246637250750739,0.0063097869938779
0.0799999999999983,0.0414854417049112,-0.0244028294256677,0.0080833631520951
0.0900000000000034,0.0196656388208291,-0.0226742880281559,0.0080826561288395
0.1000000000000085,0.0001897117971179,-0.0267569981605058,0.0069744761150952
0.1099999999999994,-0.0149760048037667,-0.0276238146036152,0.0059372819898031
0.1200000000000045,-0.024980583320301,-0.0194868081564392,0.0102917645538685
0.1299999999999954,-0.0354780691095756,-0.0183116274234372,0.0146544060184914
0.1400000000000005,-0.0359872625232695,-0.0132387382264419,0.0083658310968504
0.1500000000000056,-0.0362898512573651,-0.0089683326914491,0.0089514814128156
0.1599999999999966,-0.0363404748077561,-0.0141836745062923,0.0073898016126466
0.1700000000000017,-0.0306747379866774,-0.0140971456934073,0.0055124270615615
0.1800000000000068,-0.0198120579567162,-0.0145783266860751,0.0024566574407944
0.1899999999999977,-0.021728507857971,-0.0119584791525554,-0.0044234228674701
0.2000000000000028,-0.027591766528278,-0.0131010012418947,-0.002788161213759
0.2100000000000079,-0.0143810277215368,-0.0116078082880703,0.0009084040885299
0.2199999999999988,-0.0260476620791391,-0.0194874045622977,0.0013261444592029
0.2300000000000039,-0.0328426322555609,-0.0183690957661081,0.006560055014398
0.2400000000000091,-0.0234804380763515,-0.0206227070576608,0.0013979322914763
0.25,-0.0105779962890484,-0.0249221877499916,0.0034866360778707
0.2600000000000051,-0.0116072381058027,-0.0280340057761329,-0.0003599979879398
0.269999999999996,-0.0102952173621431,-0.0276607402526684,-0.0084365793882922
0.2800000000000011,-0.0038027132702748,-0.0342346732537434,-0.0189189656270019
0.2900000000000062,-0.0003776915445643,-0.0326865279970011,-0.0187469229329789
0.2999999999999971,-0.0123541126318975,-0.0283320095034248,-0.0203936503635245
0.3100000000000023,-0.0105020498898439,-0.0299821151390675,-0.0173793030902134
0.3200000000000074,-0.0127736483977702,-0.0209700866828031,-0.0094201437648528
0.3299999999999983,-0.0158278849248951,-0.0216295975615759,-0.0047585194191118
0.3400000000000034,-0.0097568630863789,-0.0166359034740559,-0.0032046013714561
0.3500000000000085,-0.0222191974407139,-0.0169897067607798,-0.0026180293905219
0.3599999999999994,-0.0192495920577278,-0.0084786509852768,0.0066133934145426
0.3700000000000045,-0.011502387309276,-0.004963257653753,0.0063575798566083
0.3799999999999954,-0.0106896169628863,0.0018498089150526,0.007597335456174
0.3900000000000005,-0.0105335325203543,0.0070616900308887,0.0162933355717577
0.4000000000000057,-0.0100817672889679,0.0133073669817211,0.0217390896896133
0.4099999999999966,-0.0115348973336031,0.0223564705383999,0.0195673657286761
0.4200000000000017,-0.0270760096632462,0.0196712025528068,0.019261190851063
0.4300000000000068,-0.0430807305528313,0.0230245996229409,0.0260201489470751
0.4399999999999977,-0.061870414204551,0.0171142968163328,0.0245707635590845
0.4500000000000028,-0.0806154383410469,0.0122640905088071,0.0304036264224836
0.4600000000000079,-0.0881226904563598,0.0052521856685745,0.0284781729719244
0.4699999999999988,-0.0852696477306147,0.0047600291784944,0.0299262452351164
0.480000000000004,-0.0916834022702911,0.0038858835080239,0.0210187260187853
0.4900000000000091,-0.0737931954541614,-0.0036240989669812,0.023186287501997
0.5,-0.0620791020429124,0.0036797759765333,0.0174616864301428
0.5100000000000051,-0.0548031791736749,0.0077015370194633,0.0071765093254919
0.519999999999996,-0.0468873080481382,0.0090575012930229,0.0085589108099816
0.5300000000000011,-0.0517125844994066,0.0055456509030515,0.0089944707223039
0.5400000000000063,-0.0517563508965636,0.0126888440339732,0.007924775325332
0.5499999999999972,-0.055621501800118,0.0066892786444218,0.0085843910944198
0.5600000000000023,-0.047296579162934,0.0112776382362722,0.0189755792086905
0.5700000000000074,-0.0390277015340144,0.014234353015775,0.0209574231563472
0.5799999999999983,-0.0344893992977849,0.0134020124416034,0.0296184635324049
0.5900000000000034,-0.0141249388522231,0.018158153312635,0.0357687264954891
0.6000000000000085,-0.0087150879435118,0.0211436267065544,0.0405315215687826
0.6099999999999994,-0.0099321054434729,0.0307237796667467,0.037040968752028
0.6200000000000045,-0.0115869069366553,0.0274040144721713,0.0489885460727413
0.6299999999999955,-0.0240494042033116,0.0269434201623515,0.0449924476715849
0.6400000000000006,-0.0294241993422942,0.0340464590112058,0.051183019027972
0.6500000000000057,-0.0354242946177792,0.0388635284066289,0.0527983172302947
0.6599999999999966,-0.0378079924685335,0.0393910173563953,0.0550359864874181
0.6700000000000017,-0.0290969997920149,0.0388570409799795,0.0529944920316605
0.6800000000000068,-0.0314908924221474,0.0358637112977766,0.0579470250623592
0.6899999999999977,-0.0324783118655786,0.0351500663677763,0.0578142718567249
0.7000000000000028,-0.0094505791188786,0.0303122933200736,0.0581193700172227
0.710000000000008,-0.0129666342409089,0.0332785166249434,0.0513119138341579
0.7199999999999989,-2.6274520019586365e-05,0.0242565175965638,0.0456059218460525
0.730000000000004,0.0220950125337053,0.0279246519461071,0.0250775412138454
0.7400000000000091,0.0405841636953748,0.018841994183896,0.0139106891888744
0.75,0.0627098576466077,0.0157274752673506,0.0014357903103674
0.7600000000000051,0.0878904049416356,0.0126182478378112,-0.0021120337939177
0.769999999999996,0.0930308791700135,0.0048497129199688,-0.0056662224553049
0.7800000000000011,0.0930195338901699,-9.96771513218508e-05,-0.0186622445875852
0.7900000000000063,0.0821117240176356,-0.0054327513862882,-0.0165600109212321
0.7999999999999972,0.061652540752219,-0.0162125439235443,-0.024214370982078
0.8100000000000023,0.0411628014313411,-0.0196016729529191,-0.0342790667607095
0.8200000000000074,0.0157119286912703,-0.0266621246732914,-0.0380203500820989
0.8299999999999983,-0.0084999567038465,-0.0331765080467981,-0.0464972590926439
0.8400000000000034,-0.0235778062513774,-0.029166673114536,-0.0431036835063477
0.8500000000000085,-0.0418364999435747,-0.0222318133982771,-0.0470966721902711
0.8599999999999994,-0.056735235208338,-0.0277116917208688,-0.049812883294439
0.8700000000000045,-0.0660746160517292,-0.0157000412509892,-0.0500242227709084
0.8799999999999955,-0.0683795091887815,-0.0115777837869468,-0.0428572049082248
0.8900000000000006,-0.0761287517075795,0.0024918352696794,-0.0315662321477029
0.9000000000000057,-0.096794462589897,0.0113359305984128,-0.018190285083468
0.9099999999999966,-0.1091499750295642,0.0163470508358899,-0.0148213380454687
0.9200000000000016,-0.1246744327128385,0.0304012062419851,-0.0085496387130256
0.9300000000000068,-0.1233895637100881,0.031542879336664,0.002365547391183
0.9399999999999976,-0.1097188282536901,0.0334348326282764,0.0070335747920767
0.9500000000000028,-0.0589094531790014,0.0291456841138736,-6.948308426505717e-05
0.960000000000008,0.0090851308322151,0.0306300702327458,-0.0010505961824792
0.9699999999999988,0.0931980436704952,0.0276310120037171,-0.004227262954976
0.980000000000004,0.1806395347423275,0.0248335743948045,-0.0169133455218546
0.9900000000000092,0.267662393674943,0.0257465162027432,-0.0114568816946532
1.0,0.3378069070725234,0.0266040409234321,-0.0200380135103993
1.0100000000000051,0.3835269248448138,0.0315373989997075,-0.040345899184564
1.019999999999996,0.4073510606721279,0.0410029488775544,-0.0522060990112313
1.0300000000000011,0.4113174560113129,0.0428096537771169,-0.0699539449411802
1.0400000000000065,0.3995128050729002,0.0408300629540841,-0.0908570092672012
1.0499999999999972,0.3964220022423945,0.0371896381917801,-0.0956977422084715
1.0600000000000025,0.3784125477959577,0.0414675090105068,-0.0840169881436699
1.0700000000000074,0.3507281871228059,0.055300897710072,-0.0788726593287382
1.0799999999999983,0.3109513579787175,0.0645617077745818,-0.0651456056886222
1.0900000000000034,0.251698037455061,0.0833007529850995,-0.0528477660986409
1.1000000000000083,0.1896428642738649,0.0851563897498313,-0.0472967937821249
1.1099999999999994,0.1123563384832534,0.0928045076982872,-0.0453929840696137
1.1200000000000043,0.0365157238844566,0.0956575734526714,-0.0316543422194497
1.1299999999999957,-0.0246862654719998,0.0836494722313393,-0.0339158228461373
1.1400000000000006,-0.0784076462022101,0.0784945807943047,-0.030605649341165
1.1500000000000057,-0.1166086849368767,0.0832959875484154,-0.0150472115210216
1.1599999999999966,-0.1594401984058069,0.0960374461217266,-0.0016320696552979
1.1700000000000017,-0.204153867039648,0.0973739090182682,0.003022036082789
1.1800000000000068,-0.2428896102114833,0.1091946335866036,0.0086737439140924
1.1899999999999975,-0.2894644187663759,0.1263479338822684,0.0203494595789816
1.2000000000000028,-0.3245628950450951,0.1373849794063152,0.025496403251232
1.210000000000008,-0.3413639977599183,0.1547394838607942,0.0254515866783176
1.2199999999999989,-0.3211656901795713,0.1671283803306677,0.0277483745605215
1.230000000000004,-0.2791608355701167,0.1752227829242912,0.02474364810983
1.240000000000009,-0.2283951028674626,0.176413767733547,0.0394236274130414
1.25,-0.173712971238018,0.1813511368507051,0.0551630970370883
1.2600000000000051,-0.1172567144892545,0.1856217935692942,0.0550457332431324
1.269999999999996,-0.0724815567074432,0.1825539008345744,0.0553363095701864
1.2800000000000011,-0.0318393787178757,0.1738206114234849,0.0624874886512831
1.2900000000000065,-0.008508886661754,0.1596854464655101,0.074492428655577
1.2999999999999972,0.0091535152643577,0.1523540865641929,0.0628913750090008
1.3100000000000025,0.0217726743622789,0.1267587314880082,0.0524195081211219
1.3200000000000074,0.0364137273652877,0.1109966171696927,0.0345531572333569
1.3299999999999983,0.0675580725120505,0.0935233736623619,0.0118014158414439
1.3400000000000034,0.0984692677549868,0.0775442807614705,-0.0117558369547091
1.3500000000000083,0.1252547371923008,0.0665899056320726,-0.0353203634995242
1.3599999999999994,0.1560858225184136,0.0528484004412142,-0.045359024077889
1.3700000000000043,0.1740210805179168,0.0392091434838242,-0.0618573101677425
1.3799999999999957,0.1900921061200603,0.0291470812719834,-0.0711521846541168
1.3900000000000006,0.1932456036870775,0.0194940045107675,-0.0703687440616121
1.4000000000000057,0.1779941658968055,-0.0009878744175672,-0.0709769258720204
1.4099999999999966,0.1458084266560658,-0.0154021944293624,-0.0652152733031473
1.4200000000000017,0.1020667982105808,-0.0336455306434738,-0.0544582979072845
1.4300000000000068,0.0447194759882064,-0.052718980668544,-0.0539539382232865
1.4399999999999975,-0.0114624320799769,-0.0502916725768841,-0.0554669879551367
1.4500000000000028,-0.0620851368249178,-0.0511358357882185,-0.0411140829494761
1.460000000000008,-0.1016922773477875,-0.0308135151804462,-0.0300006999755231
1.4699999999999989,-0.1396721861437689,-0.0066729298326465,-0.0205236735617902
1.480000000000004,-0.1601778112479328,0.0061611942235434,-0.0252769424997285
1.490000000000009,-0.1685470478353168,0.024918677662509,-0.0378374417743724
1.5,-0.187113880096876,0.0403333170642656,-0.0477179366409594
1.5100000000000051,-0.2058560527771488,0.0380370533866206,-0.0526790790635799
1.519999999999996,-0.2208516998450893,0.0212156524265599,-0.0625941280648888
1.5300000000000011,-0.2192387076698602,0.0107135799500424,-0.0770314940295747
1.5400000000000065,-0.1911801776621487,0.0083618679827844,-0.0762041227584451
1.5499999999999972,-0.1279898581094073,0.0294240581237143,-0.0749486085612367
1.5600000000000025,-0.0827980384907049,0.0485829284803249,-0.0623408174878332
1.5700000000000074,-0.0638731329332732,0.078305724424923,-0.0389065468592143
1.5799999999999983,-0.0662381771638287,0.0952869383939375,-0.0239575023708407
1.5900000000000034,-0.0638556401429381,0.1111230217539442,-0.0041934926301863
1.6000000000000083,-0.065448561068871,0.1277833130440119,0.003704273906837
1.6099999999999994,-0.0397503672435569,0.147520749546563,0.0069276380264232
1.6200000000000043,0.0119603714650491,0.1563033990241539,0.0012736013162038
1.6299999999999957,0.0782574194735466,0.174435092908348,-0.0158118332906813
1.6400000000000006,0.130030307629771,0.1811315928536565,-0.0253560867110991
1.6500000000000057,0.1638316659990487,0.1710306560944683,-0.0356278020691803
1.6599999999999966,0.1693971174232979,0.1619948396104642,-0.0451578077112173
1.6700000000000017,0.1539862823271994,0.1660463100015979,-0.0388073005431459
1.6800000000000068,0.1363040691725068,0.1693575708037443,-0.0356034232564868
1.6899999999999975,0.1314321021445922,0.1716398576248892,-0.0299921935623197
1.7000000000000028,0.1444880788814201,0.1941211733377423,-0.0200003946187292
1.710000000000008,0.1574601887023404,0.2121555958286818,-0.0162807169133663
1.7199999999999989,0.1676196253947904,0.2365095442729702,-0.0212007798656112
1.730000000000004,0.1686574603000571,0.2598166903418731,-0.0136444300763111
1.740000000000009,0.1402386721818431,0.2712288477281759,0.0074068614418933
1.75,0.1058178260171338,0.2929963392381139,0.024613232330501
1.7600000000000051,0.0728237287209245,0.3127509592232452,0.0439463175344903
1.769999999999996,0.0621190266943141,0.3440259122052441,0.055389719426352
1.7800000000000011,0.0405837037329967,0.3594686472816255,0.0755318640839639
1.7900000000000065,0.0601176050414423,0.3920531987640154,0.082666433436501
1.7999999999999972,0.0719613092864283,0.4146747062894997,0.0856198648317411
1.8100000000000025,0.0864431159145422,0.4376104815503499,0.1037973507149578
1.8200000000000076,0.0986960291972541,0.4713439092091531,0.1222852250563438
1.8299999999999983,0.1265906379316416,0.5052226413187614,0.135702786540533
1.8400000000000036,0.1705616462047328,0.5404047427567504,0.1402132374929477
1.8500000000000083,0.2203238706756665,0.5668763002431776,0.1478987183030642
1.8599999999999997,0.2544290930497491,0.6234065683358705,0.1643710588628136
1.8700000000000043,0.2635497341018797,0.6816087120104874,0.1946882058230122
1.8799999999999957,0.2190743362153832,0.7206941303916369,0.2319733535487639
1.8900000000000008,0.1654072987865254,0.7540325357296092,0.2524411622725937
1.9000000000000057,0.1127027187674086,0.7828086359684032,0.2679069005865202
1.9099999999999968,0.0678520897881506,0.800113159009572,0.2847882746671319
1.9200000000000017,0.0251283576826397,0.8064680883859959,0.3163979331416835
1.9300000000000068,0.0014471253028757,0.8212164773630579,0.352547473920477
1.9399999999999975,-0.0167050718032865,0.8417612655751829,0.3802701853887774
1.9500000000000028,-0.0363863511073757,0.8507451786405916,0.3934807762066181
1.960000000000008,-0.0409965878416545,0.8677524385131313,0.4137841595186713
1.9699999999999989,-0.0344684914666697,0.8858038181626466,0.434304203484912
1.980000000000004,-0.0346127765821773,0.8961339482337697,0.4487228882368075
1.990000000000009,-0.0488282136036279,0.9112695528237836,0.4691834257473543
2.0,-0.076916896855987,0.9151676484343082,0.5032685742733629
2.010000000000005,-0.1091183467293175,0.923731784978008,0.5321037746780677
2.019999999999996,-0.1117656085680088,0.9428230232866116,0.5617532144253214
2.030000000000001,-0.1035297324492163,0.9709077952983852,0.5813600152504085
2.0400000000000063,-0.076461685484904,0.9998684964512388,0.5829178497583802
2.049999999999997,-0.0431350552236934,1.0144861443493485,0.5762480813192208
2.0600000000000023,-0.0452247831527105,1.0245576461267916,0.5798786197552086
2.0700000000000074,-0.0776595235643828,1.0350222384888468,0.590071520770415
2.0799999999999983,-0.1047917366758595,1.0325656559134362,0.6063082177772156
2.0900000000000034,-0.1377040983963466,1.0337866995413978,0.6135553917504883
2.1000000000000085,-0.1478689590950756,1.03117418216839,0.6033602899168139
2.1099999999999994,-0.0899669578773154,0.9994072724202356,0.5685177079212668
2.1200000000000045,-0.0570587660400296,1.027542710297731,0.5221726957691867
2.1299999999999955,-0.1443890702258215,1.1123812835828697,0.5126134239293625
2.140000000000001,-0.2498483597629478,1.149534669685604,0.5175105278433373
2.1500000000000057,-0.3027376152689145,1.1809779460858132,0.5215887676861186
2.1599999999999966,-0.344631915767137,1.2070502259489313,0.5392874504956866
2.1700000000000017,-0.4003828200039093,1.2384949090401594,0.5624746511907447
2.180000000000007,-0.4223978748493803,1.2751989824646823,0.5808960277188363
2.1899999999999977,-0.4265587956115518,1.301767133156037,0.5844169921984571
2.200000000000003,-0.3964048228338809,1.3520533638113077,0.5821226887268299
2.210000000000008,-0.3873166269648448,1.3816792957833253,0.5674505268258773
2.219999999999999,-0.380642143365744,1.41304022087471,0.5575931128754079
2.230000000000004,-0.3886635473462412,1.4477149181672262,0.5418625594592739
2.240000000000009,-0.4001095890868423,1.481133420214226,0.5279756218103967
2.25,-0.410429771764948,1.507184064998556,0.5047172613738478
2.260000000000005,-0.380724190568279,1.5367349488681885,0.4881039197628589
2.269999999999996,-0.334548595741144,1.5681140198618582,0.4796999764849157
2.280000000000001,-0.2838335026908943,1.5866357950214025,0.4711443496998532
2.2900000000000063,-0.2380242436793551,1.6040114603450213,0.4640812981695131
2.299999999999997,-0.2154053626130965,1.6240985871822076,0.4566823779704725
2.3100000000000023,-0.2131560235000027,1.6304563655570132,0.4605766660074147
2.3200000000000074,-0.2176511988209471,1.6362607555223687,0.4532039873198472
2.3299999999999983,-0.2242044418472711,1.6355568725335912,0.4361204636183788
2.3400000000000034,-0.2171231890518758,1.6447724033083395,0.4166050683711466
2.3500000000000085,-0.1915363637270601,1.6478135799094438,0.3834291362489739
2.3599999999999994,-0.1444974335719095,1.6474502760637195,0.3574945052738803
2.3700000000000045,-0.1057612488744218,1.6440288397761065,0.3372839757882625
2.3799999999999955,-0.0863305637253531,1.627576742569715,0.3276662935978442
2.390000000000001,-0.056944650070496,1.6119603631821335,0.3319469489024678
2.4000000000000057,-0.0330159456349523,1.591657183069716,0.3382338586515007
2.4099999999999966,0.002422357701699,1.5736923266993406,0.3442751578897768
2.4200000000000017,0.0513872439690965,1.5507975123454518,0.3503374572608938
2.430000000000007,0.109051229335231,1.524812494575302,0.3398648240235939
2.4399999999999977,0.1931924356983649,1.4836082497762697,0.3336886205308004
2.450000000000003,0.263323054508869,1.4413979133941976,0.3138913253830026
2.460000000000008,0.3270786795904831,1.393701559686015,0.2923327822708352
2.469999999999999,0.3699063716823334,1.3631642097574914,0.2579152525458548
2.480000000000004,0.3872639239094113,1.3556853340940025,0.2312246008721626
2.490000000000009,0.4000732575403167,1.3546268796003815,0.2106496517718619
2.5,0.393956273393611,1.3356137191585806,0.2067737611952914
2.510000000000005,0.3964302790849316,1.312705697200108,0.2035138220607232
2.519999999999996,0.3750138993884667,1.2780594405603,0.215821503115157
2.530000000000001,0.3750422097298475,1.254096004852748,0.2233969205121152
2.5400000000000063,0.3653084532481819,1.2349583652838092,0.2085444891301019
2.549999999999997,0.3473825853834636,1.2171814679596658,0.1975782593495434
2.5600000000000023,0.3339718125489662,1.1955682121076987,0.1682464735544561
2.5700000000000074,0.3172801757114559,1.1885798196255069,0.1312698457895865
2.5799999999999983,0.3021905200471146,1.1920858730041295,0.12315742000246
2.5900000000000034,0.2864870314708292,1.202752440469835,0.1249376266550881
2.6000000000000085,0.2617033119736009,1.207805610269007,0.127483383145967
2.6099999999999994,0.242407003368444,1.2050988279130654,0.1284698309896924
2.6200000000000045,0.2132969331177067,1.1813172122053277,0.1222327379328165
2.6299999999999955,0.1715887637915165,1.1483939746196676,0.1116713877778885
2.640000000000001,0.1361841902132066,1.1295554601218214,0.1044995627348549
2.6500000000000057,0.1102771335156888,1.119167430776648,0.0974029116372609
2.6599999999999966,0.1020783798670849,1.121225824703651,0.0866191515541516
2.6700000000000017,0.0930005662656622,1.129324853912061,0.0817796171488709
2.680000000000007,0.0970303634393043,1.147855759921058,0.0799270687907313
2.6899999999999977,0.1279747261105046,1.1471424506657733,0.0730246305019054
2.700000000000003,0.1430078672214324,1.1452118620523717,0.0588567146964567
2.710000000000008,0.1408850006447536,1.1392025639140029,0.044046160812092
2.719999999999999,0.1235905769958185,1.1354779938837818,0.0444880854775507
2.730000000000004,0.1038814892391508,1.126783132185501,0.0474934899662132
2.740000000000009,0.0888345711529544,1.1269598401494894,0.0484724038734629
2.75,0.0974635408424218,1.1346019979903337,0.0451904793549723
2.760000000000005,0.1163558341626851,1.1316043356212526,0.0337649153488846
2.769999999999996,0.1338698983647965,1.1075491856795452,0.0372825676202147
2.780000000000001,0.1627668499891911,1.0736508297863832,0.0263063224773843
2.7900000000000063,0.1746258048143787,1.0281965277180405,0.0356140085287284
2.799999999999997,0.1884183590595665,0.9886554955141492,0.0469911076369262
2.8100000000000023,0.1924235403349302,0.9659880753092408,0.0496444817927601
2.8200000000000074,0.1853257362431378,0.9406980460280326,0.0516402656220403
2.8299999999999983,0.195248363278561,0.9163209145012068,0.0403958065920457
2.8400000000000034,0.1925206478399772,0.8769614951766036,0.0377624957314354
2.8500000000000085,0.1753821830101787,0.8269686657181726,0.0216198601300228
2.8599999999999994,0.1433264843606493,0.7728429248589125,0.0329461979858772
2.8700000000000045,0.1121872555873187,0.6922840794441997,0.0437437474697665
2.8799999999999955,0.0912895134825019,0.606318879735342,0.0425722578226056
2.890000000000001,0.092875157889071,0.5386086796562135,0.0349205665971239
2.9000000000000057,0.0892010841797261,0.4633460525323506,0.0196856899761477
2.9099999999999966,0.1081994923223713,0.3795020410562383,0.0030820959718234
2.9200000000000017,0.1186264754100333,0.2869113023535841,-0.010525695884672
2.930000000000007,0.1038036800424708,0.1931171383339532,-0.0204443746282223
2.9399999999999977,0.0801041762287436,0.1166342114317271,-0.0223908579445005
2.950000000000003,0.0377837882412412,0.0387253195968521,-0.0217111376232969
2.960000000000008,0.0011448348259838,-0.0371138876845735,-0.0329885525851829
2.969999999999999,-0.0169417663142348,-0.1058434039824815,-0.0480641529378641
2.980000000000004,-0.0163480537170233,-0.174587716095645,-0.0475787337126513
2.990000000000009,-0.0081890615924888,-0.2459054367923084,-0.0567269249093889
3.0,0.0056845569915616,-0.3034390289517628,-0.0487067265610239
3.010000000000005,0.0398928159494859,-0.3515611254959461,-0.0430414292549465
3.019999999999996,0.0658335139494477,-0.4004470696785603,-0.0398083307799808
3.030000000000001,0.0944221557552391,-0.4527482663451522,-0.0527889860559784
3.0400000000000063,0.1283566830080252,-0.4986164539210437,-0.0638542874946021
3.049999999999997,0.1665181564548301,-0.5553010136924337,-0.0537548461014715
3.0600000000000023,0.1950596089253455,-0.5919006145330719,-0.0522237259424057
3.0700000000000074,0.2389857915652826,-0.6340590290044612,-0.0575546649841874
3.0799999999999983,0.2652817241498714,-0.6625598164779606,-0.0606255297670779
3.0900000000000034,0.2702603403480642,-0.703930714315723,-0.0623463495014566
3.1000000000000085,0.2612636406754659,-0.7388638991442447,-0.0608954387451687
3.1099999999999994,0.2357815826775728,-0.7833069381018652,-0.0625412211781239
3.1200000000000045,0.2040593563963983,-0.8282914629923476,-0.0603768662310866
3.1299999999999955,0.179509210912368,-0.8735836868531675,-0.0645975210476377
3.140000000000001,0.1606261485787231,-0.9220222382970958,-0.0685520929801197
3.1500000000000057,0.1661080523912827,-0.9624294050504392,-0.0646970490315977
3.1599999999999966,0.190496277860959,-1.0214262377856145,-0.0647524803612688
3.1700000000000017,0.1904194522158181,-1.0811252678858303,-0.0599095008322604
3.180000000000007,0.1956424881371958,-1.1390281555521165,-0.0512467663658076
3.1899999999999977,0.1744880883698593,-1.1903494530129868,-0.0358907899302507
3.200000000000003,0.1441614932070185,-1.2475687252759318,-0.024798643387406
3.210000000000008,0.104856733140312,-1.29835003266751,-0.0157778351724748
3.219999999999999,0.0818001900552103,-1.3496534446795758,-0.0242565717979018
3.230000000000004,0.0842831893464937,-1.399470338636464,-0.0420736427411261
3.240000000000009,0.0951796321901136,-1.442466077696014,-0.0594513875653038
3.25,0.0989901765303789,-1.4802777757068033,-0.0623900172344554
3.260000000000005,0.0925433591903013,-1.5273346159261096,-0.0579443590202971
3.269999999999996,0.0638520766723842,-1.579279039059487,-0.0521260467586353
3.280000000000001,0.0198481445751625,-1.6301492103307091,-0.0327408260128494
3.2900000000000063,-0.0279471095602123,-1.6715664884554902,-0.0295273706326957
3.299999999999997,-0.061472831817281,-1.7318677862818883,-0.0327160510033917
3.3100000000000023,-0.0628810683625647,-1.7704357199531155,-0.0607003885686038
3.3200000000000074,-0.0488595946517365,-1.812261537502436,-0.0785938317078198
3.3299999999999983,-0.0225901787892409,-1.8582956921698572,-0.0862894541433132
3.3400000000000034,0.0051026806101933,-1.8918213328797653,-0.0852668431480112
3.3500000000000085,0.03866087266208,-1.9242554345204133,-0.0776058783299636
3.3599999999999994,0.066174928482057,-1.9495634777278612,-0.0679443537962101
3.3700000000000045,0.0727559829823853,-1.9761220821986571,-0.0697839493159133
3.3799999999999955,0.0680385780950329,-1.9951983490898844,-0.0780120280528486
3.390000000000001,0.0539582494521651,-2.024887846579031,-0.0883574028231102
3.4000000000000057,0.0214460647388488,-2.0559875355425703,-0.1080973577122059
3.4099999999999966,-0.0127784738349109,-2.076510409392329,-0.1294416590446878
3.4200000000000017,-0.0394808832836585,-2.1050397376059946,-0.1447836985343752
3.430000000000007,-0.0697389235666349,-2.123337399805078,-0.15729102622821
3.4399999999999977,-0.0833024751252767,-2.1388876582087826,-0.1651451766180995
3.450000000000003,-0.0805363244644671,-2.1463056886477982,-0.1694503282412511
3.460000000000008,-0.0651191910551711,-2.1523404098451024,-0.162667439449159
3.469999999999999,-0.0567014745069653,-2.155625650841502,-0.170295658849996
3.480000000000004,-0.0598343916708649,-2.175135763124917,-0.1735821486886104
3.490000000000009,-0.062044451771798,-2.189346107432595,-0.1705823199226305
3.5,-0.0655302025833134,-2.1900179591400084,-0.1804096490638994
3.510000000000005,-0.0727812512907159,-2.187551993562659,-0.1819245102780607
3.519999999999996,-0.0613311531986433,-2.163165735862598,-0.182663657357189
3.530000000000001,-0.0355364882527749,-2.1502187224423746,-0.1798130978222783
3.5400000000000063,-0.0023762165018801,-2.142176569669461,-0.1651920972565863
3.549999999999997,0.0330640182790052,-2.1157999009631387,-0.1428390908526179
3.5600000000000023,0.0561198919884289,-2.0834827295937792,-0.1414404908899666
3.5700000000000074,0.066476642992768,-2.0515165129443784,-0.1546850653053815
3.5799999999999983,0.0624304056178202,-2.021145074858349,-0.1720342781101964
3.5900000000000034,0.0612244012586885,-1.9872233351576576,-0.1827441949704117
3.6000000000000085,0.067020260795808,-1.95412842386013,-0.1794758900858697
3.61,0.0965956044440616,-1.9276866075995769,-0.1710759159217865
3.620000000000005,0.1383387314986309,-1.9090638391385053,-0.1511158537442501
3.629999999999996,0.1958671433145936,-1.8823717011664365,-0.1310422330878518
3.640000000000001,0.2630669855896023,-1.8434106589053585,-0.1155921623860362
3.6500000000000057,0.2979031048135521,-1.8157924326242352,-0.0890150186749712
3.6599999999999966,0.3320588218427961,-1.784712563097422,-0.061994914935648
3.6700000000000017,0.3425070950335513,-1.7530688819418023,-0.0490229015990406
3.680000000000007,0.321699694512436,-1.7277194966858305,-0.0390809014637399
3.6899999999999977,0.3223921139138752,-1.7117041760846956,-0.039311028647199
3.700000000000003,0.3206722855846164,-1.7041277896409808,-0.0373045087791713
3.710000000000008,0.326700956137091,-1.6936758068162971,-0.0259679930604621
3.719999999999999,0.3463703244009623,-1.6730849947569362,-0.0224865468284855
3.730000000000004,0.3488858249882736,-1.665294260634147,-0.0064720130000581
3.740000000000009,0.3522551010654551,-1.6391312978072674,0.0132229679900887
3.75,0.3284407516693648,-1.634263482685557,0.0305476365022644
3.760000000000005,0.3024441911824458,-1.6446409578880443,0.051111006749389
3.769999999999996,0.2806677941764956,-1.65641336533481,0.0564626511315981
3.780000000000001,0.240256456335509,-1.6718831068379951,0.0600870389567227
3.7900000000000063,0.2082307559428127,-1.683933712175976,0.0545353926540623
3.799999999999997,0.1833895462904624,-1.696651330299192,0.0350375213139253
3.8100000000000014,0.1484410224958121,-1.7112467817873849,0.0196812760447949
3.820000000000008,0.1164850420575175,-1.7287225875827017,0.0050803467873909
3.8299999999999983,0.0928797298437031,-1.7498217445027042,-0.0094727435426577
3.8400000000000034,0.0747897349758437,-1.773977023136281,-0.0287367511902333
3.850000000000009,0.0513449488986587,-1.7758925687802125,-0.0440835392957574
3.86,0.0377755410052616,-1.783770771537909,-0.0545562083991022
3.870000000000005,0.0205380347871259,-1.7975374328832927,-0.0691178397737098
3.879999999999996,0.0116473468560695,-1.8038009431245297,-0.0859999755332087
3.890000000000001,0.0032621567056635,-1.8125396429970653,-0.1070692660972941
3.9000000000000057,-0.0127342993137283,-1.8112310753183305,-0.1284668725390246
3.9099999999999966,-0.0105422714941486,-1.8136427730178728,-0.1445700027650373
3.9200000000000017,-0.0095429473926812,-1.819761804411564,-0.1567309985947174
3.930000000000007,-0.0052705962574398,-1.8244603136595596,-0.1584437217770041
3.9399999999999977,0.0093138927387559,-1.831907259571476,-0.1562760888153645
3.950000000000003,0.0163853610164639,-1.839501572905696,-0.1468650967884303
3.960000000000008,0.0330571495408596,-1.8452882119372516,-0.1553813069078198
3.969999999999999,0.0555969336794896,-1.8492441409329723,-0.1716287155183268
3.980000000000004,0.0631319596944042,-1.8574250582087035,-0.1910062221712025
3.990000000000009,0.0778679109501631,-1.8625928662476383,-0.2110008757795771
4.0,0.0829582512046274,-1.8783542859243456,-0.2283177271719405
4.010000000000005,0.0755671020949061,-1.866795102822162,-0.2352469449424705
4.019999999999996,0.0487488552021202,-1.866859898862755,-0.235998632429486
4.030000000000001,0.0074034695677079,-1.865717248372924,-0.2338624947697695
4.040000000000006,-0.0333591019604033,-1.8561335221249569,-0.2209288642521229
4.049999999999997,-0.0685875745202547,-1.862544326650928,-0.1936250837646095
4.060000000000002,-0.0832745052859293,-1.852792508569512,-0.1812269944613104
4.070000000000007,-0.0875454422873273,-1.832380637981764,-0.1729151359449991
4.079999999999998,-0.0795803253944697,-1.80931566854158,-0.1730079751926247
4.090000000000003,-0.0584795078184005,-1.7879148123962747,-0.1667693815412533
4.1000000000000085,-0.0616448405876184,-1.7815247147513371,-0.1600613972183607
4.109999999999999,-0.0633603740660695,-1.782190153471185,-0.1476106236723211
4.1200000000000045,-0.0788675224989247,-1.786514578996432,-0.13460879682228
4.129999999999996,-0.0892397665366288,-1.7760604273949872,-0.1307918100023459
4.140000000000001,-0.0868547864026166,-1.7713741690266769,-0.1228157255146705
4.150000000000006,-0.0879874064242536,-1.7588686467581949,-0.117581269817294
4.159999999999997,-0.0788612619133306,-1.7445680170935516,-0.11669674148707
4.170000000000002,-0.0620954314259361,-1.7513369668029313,-0.1240150764805747
4.180000000000007,-0.0383475825538816,-1.7592323080163352,-0.1309439440333633
4.189999999999998,-0.0078874781541815,-1.772607232114981,-0.130290064510984
4.200000000000003,0.0053987817581898,-1.7822679833252164,-0.1317614820823497
4.210000000000008,0.0299635555749551,-1.7972619156485117,-0.131852685064523
4.219999999999999,0.0620960511526717,-1.806077132012985,-0.1311600298341168
4.230000000000004,0.09388908050708,-1.8128558801302288,-0.1303360183905701
4.240000000000009,0.1246055273022076,-1.8095898417177585,-0.1174143828694887
4.25,0.1483125934013481,-1.7937230278267886,-0.1087006557506455
4.260000000000005,0.1746504628162856,-1.778386839615526,-0.1057064247055261
4.269999999999996,0.1941379654861445,-1.7661504087576088,-0.1050690995212609
4.280000000000001,0.2137897387714413,-1.762608593689184,-0.0975955396755383
4.290000000000006,0.2170781452227313,-1.7623985481450313,-0.0789281437900415
4.299999999999997,0.2217015972598676,-1.7564595307532944,-0.0651180746346767
4.310000000000002,0.2059027943457494,-1.738927971961726,-0.0423708676240276
4.320000000000007,0.2118524783508084,-1.7177857593221184,-0.0254127620221759
4.329999999999998,0.218038941864468,-1.69068294160638,-0.0280480312101861
4.340000000000003,0.2301050273178548,-1.6624121278451822,-0.0228898346017846
4.3500000000000085,0.244302778543767,-1.6252782206111551,-0.0253224809653544
4.359999999999999,0.2566515087964091,-1.595498188366717,-0.0191664078940139
4.3700000000000045,0.2489876170400292,-1.5667505737912997,0.0037586455260309
4.379999999999996,0.2207270400015832,-1.5389600947165558,0.0237273423434316
4.390000000000001,0.1955013865691412,-1.50259683696847,0.0466949941485728
4.400000000000006,0.1539404343257511,-1.4701218965763527,0.0698607842224766
4.409999999999997,0.1282544485618754,-1.4303610464864651,0.0877933215351454
4.420000000000002,0.1041522402210171,-1.3884968508465052,0.0998268004034702
4.430000000000007,0.0940263060870293,-1.3458455088597772,0.1157626811440222
4.439999999999998,0.0936666652454176,-1.2995557157404098,0.1144559031765287
4.450000000000003,0.082556782751079,-1.259441187584284,0.1208770316012435
4.460000000000008,0.0692474669383826,-1.2148440228491388,0.1264858607194381
4.469999999999999,0.0687470455277894,-1.1731364491435263,0.125439194099444
4.480000000000004,0.0635086927494083,-1.125293726273771,0.1428922290844451
4.490000000000009,0.0442089499853901,-1.0808295405343389,0.1494084759131445
4.5,0.0279889602950432,-1.0247633600677135,0.1528664381462159
4.510000000000005,-0.0122217910435077,-0.9744430004484932,0.1624056742529189
4.519999999999996,-0.0397293481510296,-0.9358174349540976,0.1600403202119198
4.530000000000001,-0.0681885919191174,-0.8733598783770213,0.1403767278432718
4.540000000000006,-0.0851497300824339,-0.816488874288089,0.1175014837312014
4.549999999999997,-0.0964181100823312,-0.7601423498628012,0.094770248542911
4.560000000000002,-0.1246262523276795,-0.7158518943226025,0.0891283481427186
4.570000000000007,-0.1400443638279156,-0.6775503929106456,0.0799906154305168
4.579999999999998,-0.1577853676897675,-0.6385568627005732,0.0734754879945168
4.590000000000003,-0.1729668521862274,-0.5920009524363934,0.067080237946826
4.6000000000000085,-0.1800018896715319,-0.5559331499905654,0.0598743094266068
4.609999999999999,-0.1898753672073086,-0.5118332487837711,0.05887980122224
4.6200000000000045,-0.187125172860036,-0.465789539229144,0.0464578779986478
4.629999999999996,-0.1896474259575135,-0.4104536155969048,0.0387438570144993
4.640000000000001,-0.1891929690823906,-0.3628458800013601,0.0331820688070545
4.650000000000006,-0.1912292313315657,-0.3184575625209916,0.0345681590987051
4.659999999999997,-0.1899781570593289,-0.2637159522608107,0.0275518692122259
4.670000000000002,-0.1887401241973574,-0.2152550984134774,0.0164402224448252
4.680000000000007,-0.1878045806854509,-0.1591889388230369,0.0103286259574324
4.689999999999998,-0.1869881205741657,-0.1001458354176128,0.0047327847384258
4.700000000000003,-0.1823447582739758,-0.0633053286007621,0.0042213844447688
4.710000000000008,-0.1703856848346691,-0.0168067419415674,0.005546730355401
4.719999999999999,-0.1491916934223082,0.0318813544144894,0.0071889588319344
4.730000000000004,-0.1255043223146022,0.0873343289681918,0.0090293263202105
4.740000000000009,-0.1100738621562288,0.1345626793453079,0.0115140924916576
4.75,-0.0943550316409764,0.1798070496364041,0.0046115551040145
4.760000000000005,-0.0772291345794582,0.234641469572274,0.00234812911012
4.769999999999996,-0.0500261956714607,0.2918439801201754,0.008086273474866
4.780000000000001,-0.0162860216968532,0.3463887962641069,0.0065854231554525
4.790000000000006,0.0040742909877055,0.3988835373586235,0.0026795560068373
4.799999999999997,0.0329907796657212,0.4477601081085385,0.0091499165615985
4.810000000000002,0.0419968511606766,0.5017147758885927,0.0210886228294382
4.820000000000007,0.05043231401478,0.5672018379422139,0.0155017554716949
4.829999999999998,0.0562017602756198,0.6310420960567663,0.0115507457023017
4.840000000000003,0.0549602463944334,0.6930038999250693,0.0004332504737609
4.8500000000000085,0.0618461818159696,0.7435090482765342,0.0020836463018445
4.859999999999999,0.0653868930173066,0.7971927058448309,-0.0053076895321553
4.8700000000000045,0.0647695000651708,0.839544170797817,-0.0039259210143133
4.879999999999996,0.0803073582721528,0.895218576255271,-0.0011742392865272
4.890000000000001,0.0915764426060767,0.9596128554414808,-0.0029065872772667
4.900000000000006,0.0900248050842695,1.0144340115507955,-0.0030367433946376
4.909999999999997,0.0915476516372503,1.079865677631177,-0.0115104464284662
4.920000000000002,0.0851917582841294,1.1328746997662444,-0.0273144272749493
4.930000000000007,0.0686589366229886,1.1944252347478737,-0.0402018967425995
4.939999999999998,0.0480188269946127,1.236998108228298,-0.0588444679530089
4.950000000000003,0.0383755576004112,1.2834792042933971,-0.0791925475696161
4.960000000000008,0.0296903802387747,1.323827714911496,-0.100629929730126
4.969999999999999,0.0374153942394472,1.3656719255019671,-0.1078441348825468
4.980000000000004,0.0440691649602106,1.4188127498906309,-0.1218295140200061
4.990000000000009,0.0390405195624841,1.4623501216290296,-0.1296939425096854
5.0,0.0383437611815428,1.512378674574376,-0.1249794189223739
5.010000000000005,0.0149372938121401,1.556601716265155,-0.1287658880734939
5.019999999999996,-0.0028018484265625,1.5943825981642707,-0.1242756019396099
5.030000000000001,-0.0136651049645019,1.630269071517468,-0.1195083300950826
5.040000000000006,-0.0017971898717377,1.6509293267958347,-0.112828431565981
5.049999999999997,0.012950915117719,1.685675422784983,-0.1130440721683339
5.060000000000002,0.0332944748017373,1.7118217144461314,-0.1102991581513288
5.070000000000007,0.0590575415968107,1.7333138505187262,-0.0994710413816242
5.079999999999998,0.0621039768918812,1.7486773638507584,-0.0894981636927542
5.090000000000003,0.0598566918450258,1.7702549392191822,-0.0713710885702995
5.1000000000000085,0.0555012678131464,1.798857264329295,-0.051893080557049
5.109999999999999,0.06562699501408,1.8145325741819995,-0.0291258961206566
5.1200000000000045,0.0540309565862165,1.8392684160127803,-0.0119630304692994
5.129999999999996,0.0476376538111593,1.851963381885778,-0.0050580913909179
5.140000000000001,0.0388753035597847,1.8564700913936656,-0.0050777055359867
5.150000000000006,0.0039906296305476,1.8505909663223263,-0.0134028051947746
5.159999999999997,-0.0319341332353992,1.8415363404965677,-0.0290466636640531
5.170000000000002,-0.0745296897071818,1.834558666950787,-0.0336089743056054
5.180000000000007,-0.1012344503487234,1.8283806295194835,-0.0327642769772662
5.189999999999998,-0.1234909822141711,1.8190842592854508,-0.0265039264215488
5.200000000000003,-0.1475913788455603,1.8080771537164175,-0.0187923613169098
5.210000000000008,-0.1660468729911094,1.7988400747636757,-0.0109132912309472
5.219999999999999,-0.1945505616712228,1.7821613871169604,0.0065450725906546
5.230000000000004,-0.2295949580523967,1.7741201496331949,0.0102685795625386
5.240000000000009,-0.2701130254025258,1.7541922923194098,0.011035548634531
5.25,-0.3089696097560784,1.736613561189203,0.0178192859493681
5.260000000000005,-0.3173751032284151,1.7288388022699412,0.0283800082312407
5.269999999999996,-0.3203980909608822,1.7080877582169718,0.0353030236937083
5.280000000000001,-0.2950903818913913,1.6916314097519565,0.037309697799841
5.290000000000006,-0.2572745466536495,1.6805245033918703,0.0475449672273236
5.299999999999997,-0.2271998887916208,1.6670806209819866,0.0621962568343369
5.310000000000002,-0.1807966284349628,1.6546855666424936,0.06753930292446
5.320000000000007,-0.1489199228156456,1.640259383177784,0.0720543633535438
5.329999999999998,-0.1336946465313762,1.6295985782341718,0.0710247565660017
5.340000000000003,-0.0993136405944016,1.6283530050847732,0.0671560388052967
5.3500000000000085,-0.074943249071909,1.633330829594324,0.0515951430742772
5.359999999999999,-0.0633830571610593,1.6345707986231552,0.0543886581542402
5.3700000000000045,-0.0595033207923084,1.6463615681204855,0.063833526468959
5.379999999999996,-0.0619145936894511,1.6595073989800797,0.0711840276561283
5.390000000000001,-0.0626639605730761,1.6789355728733015,0.0953690602009373
5.400000000000006,-0.0627239543344145,1.6847561812262346,0.111967467029918
5.409999999999997,-0.0556097996022004,1.6919085704177277,0.1477632159326311
5.420000000000002,-0.0462498405590493,1.7111069928023426,0.1698048526548909
5.430000000000007,-0.0349953440504519,1.7255945435474949,0.1778616154890273
5.439999999999998,-0.0381376158832579,1.7447584428114218,0.184352764519646
5.450000000000003,-0.0344246314709899,1.7597912855554514,0.192421018954729
5.460000000000008,-0.0441208176409504,1.7696860345224936,0.1959744513688668
5.469999999999999,-0.0553276653624873,1.7683782818836118,0.2029475157639831
5.480000000000004,-0.0677736402902629,1.774949356419374,0.2195911857013793
5.490000000000009,-0.0729108211834493,1.7806963834971812,0.2257799754695849
5.5,-0.0821621183583188,1.786315103777849,0.2393944003013816
5.510000000000005,-0.0863666998106514,1.7903029509606088,0.253299577851384
5.519999999999996,-0.085518547325503,1.796910443028072,0.2722082874859217
5.530000000000001,-0.0875175691078381,1.8096423330397904,0.2820936370843666
5.540000000000006,-0.0877454013233474,1.823433280992724,0.2853543849647794
5.549999999999997,-0.0805147667185177,1.831257771304504,0.2957310700380382
5.560000000000002,-0.0808790755183964,1.8311882385186968,0.2956347889418113
5.570000000000007,-0.0757897285361179,1.824059274498712,0.2956781370525689
5.579999999999998,-0.0754490123066948,1.811193889351269,0.3038274699685639
5.590000000000003,-0.0851183427857886,1.7931310365898263,0.3121905997730969
5.6000000000000085,-0.0838994808020376,1.7789336241352007,0.3252462422464913
5.609999999999999,-0.0934277111146087,1.7740204085182318,0.3422930253280898
5.6200000000000045,-0.111537921309715,1.7705745596754072,0.3503861709770749
5.629999999999996,-0.1128871065652259,1.7684128151085443,0.3491310159876831
5.640000000000001,-0.1038692838228483,1.762598489905776,0.3489964094456984
5.650000000000006,-0.0923813260321159,1.7545916706234912,0.354217728960744
5.659999999999997,-0.0840249167610385,1.7376469266019108,0.3541984360803831
5.670000000000002,-0.0931172636849337,1.7233672512795886,0.3556145114236905
5.680000000000007,-0.1055074963451662,1.7119054972063124,0.3681946917707785
5.689999999999998,-0.1135930719373506,1.705616342138695,0.375941275255752
5.700000000000003,-0.1094494348760816,1.7038437540442797,0.3861200213113555
5.710000000000008,-0.1148238040032127,1.7061694039770632,0.4038278020899719
5.719999999999999,-0.1020990499388768,1.7054465503113416,0.3993961549933855
5.730000000000004,-0.084730124935918,1.714224104919091,0.4020719884794019
5.740000000000009,-0.0719443919210871,1.7055696784178138,0.4061725173873157
5.75,-0.0730729636617841,1.706663023767066,0.3933561007892384
5.760000000000005,-0.1007865733920844,1.7155926278343625,0.3866629314828904
5.769999999999996,-0.1246396640222583,1.6982580682916066,0.3760230589434907
5.780000000000001,-0.1570790235599618,1.688050298266821,0.3734646146116365
5.790000000000006,-0.2031382016614333,1.6830648159365589,0.3644057134163521
5.799999999999997,-0.2272432941453567,1.6698675944263328,0.3521927419453385
5.810000000000002,-0.2547173206029486,1.6681640801972777,0.343338979303266
5.820000000000007,-0.2827813329110174,1.666404543740996,0.33111601617167
5.829999999999998,-0.299099848440851,1.671508285095993,0.3213300313433554
5.840000000000003,-0.3205047813912841,1.6648008972753452,0.3220418292008692
5.8500000000000085,-0.3412823708238714,1.658940941110868,0.3271627152325617
5.859999999999999,-0.3440772500317895,1.650000446002382,0.3341143711179087
5.8700000000000045,-0.3384012804204581,1.641584236417024,0.3254098872141081
5.879999999999996,-0.3017442093210449,1.636126269385773,0.3333310378310129
5.890000000000001,-0.275050118186544,1.630297957105849,0.331791654508112
5.900000000000006,-0.2433080593380448,1.6302472074635712,0.3286548746055977
5.909999999999997,-0.2096728870573013,1.6116018166042412,0.3212540550962513
5.920000000000002,-0.1907732611120855,1.5847199573156685,0.3087071694580185
5.930000000000007,-0.189420853948371,1.551950572908709,0.3014132436343795
5.939999999999998,-0.1844818274598594,1.5279218098767595,0.2983397386750874
5.950000000000003,-0.1928015174778346,1.517110194662416,0.2846912273202122
5.960000000000008,-0.1872711122927175,1.5196762993553314,0.274763631632132
5.969999999999999,-0.1674266238261424,1.515711665623418,0.2725892433911528
5.980000000000004,-0.1632690042946601,1.504383248183853,0.2614090461698197
5.990000000000009,-0.1600785480568641,1.488997730034603,0.241000166404752
6.0,-0.1706079981983156,1.483257965655788,0.220857673724714
6.010000000000005,-0.2045777078491826,1.4755573298823823,0.1994358506891
6.019999999999996,-0.2354431325066197,1.4586861708826897,0.1870951043598766
6.030000000000001,-0.254955139195671,1.451506218732772,0.1866357919263408
6.040000000000006,-0.2808608644771062,1.446163319775489,0.183842846452049
6.049999999999997,-0.2741199528361854,1.446769974744819,0.1729003454608017
6.060000000000002,-0.2434853387217063,1.442280230226796,0.1723565501795884
6.070000000000007,-0.2113703444017626,1.4311585164398,0.1466569728453015
6.079999999999998,-0.1726265784028748,1.438209822294558,0.1275582737249633
6.090000000000003,-0.1454641257881741,1.4528148348879986,0.1206139853220577
6.1000000000000085,-0.1363531352778991,1.4730218863051658,0.1210984224682818
6.109999999999999,-0.1494582651978846,1.5014711012516655,0.1205751727969407
6.1200000000000045,-0.1909195446332251,1.5208212324185093,0.1187771334548483
6.129999999999996,-0.2431475577359209,1.5241260511411086,0.1219805508246305
6.140000000000001,-0.2956664047502644,1.5039115593385706,0.1189991417602482
6.150000000000006,-0.3215432668897061,1.4938147193299989,0.1313242285962095
6.159999999999997,-0.345504335815384,1.4882487316226614,0.1652650540939003
6.170000000000002,-0.3267597488223749,1.4721387824090209,0.1896454579269476
6.180000000000007,-0.288630999463414,1.4722775548704004,0.2120550953422142
6.189999999999998,-0.2323282082187118,1.4717843533393702,0.2268320137840997
6.200000000000003,-0.1671799761917289,1.4747601436851911,0.2424655756436677
6.210000000000008,-0.106059228821392,1.471577799470824,0.249060544983439
6.219999999999999,-0.0549748714323219,1.4672815904015146,0.2375710335744687
6.230000000000004,-0.0187279884608359,1.4691143313938906,0.2296793441489876
6.240000000000009,0.0142653010794066,1.4629976160013771,0.231068900713658
6.25,0.0195452659350892,1.462076925134778,0.2347779622659644
6.260000000000005,0.0149123011808623,1.4571214715958472,0.2435601455178871
6.269999999999996,-0.0034986368171401,1.4588211261466268,0.2611773371704332
6.280000000000001,-0.0121533657411073,1.4492254092095007,0.2786463396708776
6.290000000000006,-0.021634987337454,1.413378386567858,0.2891432655699094
6.299999999999997,-0.0328924368762606,1.3650517561525068,0.2981595850828207
6.310000000000002,-0.0432047070090314,1.2959626197818213,0.2914862901837177
6.320000000000007,-0.0399674898938913,1.2695727980374685,0.3007623563988182
6.329999999999998,-0.0201983968230369,1.2452089058277664,0.3072730077048693
6.340000000000003,0.0121774196977414,1.2233897562019242,0.3236471127217583
6.3500000000000085,0.0597372441051396,1.199238407516258,0.3395660179068789
6.359999999999999,0.0885516413034838,1.1404042248089237,0.3539480138487825
6.3700000000000045,0.0933135689993533,1.0893116866200336,0.3605266706782631
6.379999999999996,0.0887882268346442,1.0423627982383843,0.3625404422782181
6.390000000000001,0.0715564060408551,1.0021648268314252,0.3646641969145737
6.400000000000006,0.0616275016489971,0.9842157310849567,0.3572881260183911
6.409999999999997,0.0457726998299665,0.9635599380580864,0.3303113762215079
6.420000000000002,0.0352323795964425,0.9365370008650582,0.2994097411078033
6.430000000000007,0.0098049864387019,0.8863139774995535,0.2629003281015863
6.439999999999998,-0.0203931788164006,0.8436639573346854,0.2416620969344688
6.450000000000003,-0.0335631398227399,0.7970259310557604,0.235488987842726
6.460000000000008,-0.0382155505280207,0.7460927194983528,0.2323444781082204
6.469999999999999,-0.0484473890962874,0.6974247533502403,0.2323404102594813
6.480000000000004,-0.0217566298513034,0.6582951407456178,0.2218951993438141
6.490000000000009,0.0007693364064201,0.6126287105212277,0.2038288648227277
6.5,0.0284454339632032,0.5775641302284624,0.1819147881663959
6.510000000000005,0.042724169421596,0.5346135816615255,0.1533356757734117
6.519999999999996,0.0368404885791667,0.4880094284509743,0.1328609813879387
6.530000000000001,0.0169339601310019,0.4397233650872786,0.1346700775736278
6.540000000000006,-0.0024836896936826,0.3905888731941783,0.1195553040112367
6.549999999999997,-0.0156984020712056,0.32769678022595,0.1100231467907386
6.560000000000002,-0.0119808887144528,0.2484322403873099,0.0946148579774785
6.570000000000007,-0.008299292926948,0.161225603595909,0.0758201588035063
6.579999999999998,0.0221688155790184,0.0543248099355462,0.0653455626692771
6.590000000000003,0.0506161262503812,-0.0544731015554413,0.0554298585943151
6.6000000000000085,0.0773486332285314,-0.1745425127874738,0.0457604304065129
6.609999999999999,0.094286318041649,-0.2940143333502413,0.0532917984281191
6.6200000000000045,0.1166508147860377,-0.4156371031598371,0.047886185498689
6.629999999999996,0.1420643186202771,-0.5315966337651278,0.0387481277287717
6.640000000000001,0.1761239197535678,-0.6458676683739013,0.0460271746628145
6.650000000000006,0.1959900500397377,-0.7637245971299594,0.0340771102108283
6.659999999999997,0.2105550997240132,-0.8751778069368982,0.0222386138528485
6.670000000000002,0.2219447011008226,-1.0131530354891098,0.003467845859652
6.680000000000007,0.2205025421565609,-1.1540470079203304,-0.006976465986178
6.689999999999998,0.2016930351578657,-1.2774387140186498,-0.0273932748263965
6.700000000000003,0.1832501159053729,-1.398399932406295,-0.0497267363248902
6.710000000000008,0.15649696938204,-1.5017668134466522,-0.0764730849181258
6.719999999999999,0.1529223608350196,-1.605900818750636,-0.1061114562601844
6.730000000000004,0.1675272917958005,-1.7072607316567892,-0.1321933188316536
6.740000000000009,0.179542910507485,-1.817784066199559,-0.1486941123498083
6.75,0.179918136054983,-1.915131698294922,-0.1700366814910195
6.760000000000005,0.151542633211366,-2.0087587822467903,-0.2049653679580355
6.769999999999996,0.1030315907669513,-2.1098970470962604,-0.2336458100246295
6.780000000000001,0.0395264811054133,-2.2014940286356484,-0.2591427159118414
6.790000000000006,-0.0244984746969569,-2.291386169212082,-0.2862590664651028
6.799999999999997,-0.0657596850240498,-2.371002115517116,-0.3085234489020987
6.810000000000002,-0.0869504446068109,-2.457350260133551,-0.3214013604461046
6.820000000000007,-0.0855567238975294,-2.5373146166797187,-0.3389098058377121
6.829999999999998,-0.0482839814729346,-2.606011703352749,-0.3577252956694169
6.840000000000003,-0.0114150434858231,-2.675441112710349,-0.3939548888368864
6.8500000000000085,0.0221811847123577,-2.73200814730924,-0.4117856259378976
6.859999999999999,0.0381130170313899,-2.779109219430845,-0.4300090159189575
6.8700000000000045,0.0437395582688492,-2.807817073791505,-0.4384792793093355
6.879999999999996,0.0444302991033313,-2.8307265352804114,-0.4543289606795768
6.890000000000001,0.0399830371382924,-2.8378094062427976,-0.4695173356275571
6.900000000000006,0.0280813965941931,-2.842449342996976,-0.4785142575192054
6.909999999999997,0.0230827956475975,-2.856357421518483,-0.4961513470338982
6.920000000000002,0.0381023196547637,-2.854283512896648,-0.5027764646265455
6.930000000000007,0.0574769306163011,-2.863753558948593,-0.4847403447228817
6.939999999999998,0.0785561686020611,-2.879411380137258,-0.4577279184754483
6.950000000000003,0.1159805262137714,-2.8721730209111698,-0.4399336249593866
6.960000000000008,0.1580088936956597,-2.86178191747776,-0.4223654630701907
6.969999999999999,0.1833576562207176,-2.831729378649803,-0.4219194228820583
6.980000000000004,0.2092290210561972,-2.7992886695810286,-0.4331668762439782
6.990000000000009,0.2576228376411775,-2.749992011088373,-0.4343125160991721
7.0,0.3029773882987044,-2.70256747169797,-0.4288008179206635
7.010000000000005,0.341767313834367,-2.667665266929042,-0.4099622925101021
7.019999999999996,0.3909430961570181,-2.63291412377436,-0.3781394256248291
7.030000000000001,0.4184497292897678,-2.6172723909320563,-0.333546253110046
7.040000000000006,0.4252482037686904,-2.601094038340646,-0.2944892555404245
7.049999999999997,0.4200368321913588,-2.5912249118687694,-0.2634274939931172
7.060000000000002,0.4066055403568835,-2.550933563699593,-0.2293787153210626
7.070000000000007,0.3984148791409531,-2.49738255524392,-0.2007221817433389
7.079999999999998,0.4085149474167083,-2.4595075409049687,-0.1841713873747044
7.090000000000003,0.4329094196471629,-2.39911832308758,-0.1706266574954137
7.1000000000000085,0.4482084718860894,-2.358305287730161,-0.1454615554855031
7.109999999999999,0.4542493973363311,-2.322740817248998,-0.1160141969188857
7.1200000000000045,0.428113238941067,-2.2975331367311798,-0.0736962118113525
7.129999999999996,0.4009974205444783,-2.285905865390466,-0.0441298897655959
7.140000000000001,0.3854300718018562,-2.265186103831624,-0.0227808076298403
7.150000000000006,0.3927608036582809,-2.2204329985666056,-0.0118164408754301
7.159999999999997,0.414902950975037,-2.173054303499468,-0.0121982932795175
7.170000000000002,0.4474758314323014,-2.125135011500082,-0.0046705623360038
7.180000000000007,0.4527743332659909,-2.0883875002063697,0.0032030648518647
7.189999999999998,0.4274175891251433,-2.072959094419558,0.0150352154166967
7.200000000000003,0.3923605403852926,-2.081944050609127,0.0163714174455786
7.210000000000008,0.3503222602288475,-2.0763533584617115,0.0085299469345911
7.219999999999999,0.3006621129389347,-2.0635833974000697,0.0063512004876239
7.230000000000004,0.2364781960326018,-2.051652217689038,0.0051025719078249
7.240000000000009,0.1830838675053203,-2.0456968855201936,0.0033738146070182
7.25,0.1223110353410761,-2.036668051572901,0.0046566726818326
7.260000000000005,0.0522064802938082,-2.0378987690905466,0.0034472015887728
7.269999999999996,-0.0016363129895179,-2.0384894944041707,-0.000513619118832
7.280000000000001,-0.0442927465406242,-2.0372615287131346,-0.0109892182258582
7.290000000000006,-0.0654445115141119,-2.034273087956797,-0.0300773593854894
7.299999999999997,-0.0650770978453026,-2.030897409461004,-0.051445425139788
7.310000000000002,-0.038762187202768,-2.0198084027945624,-0.0780574301695074
7.320000000000007,0.0170529258268898,-2.013923130573132,-0.1008516273222161
7.329999999999998,0.0715478615713392,-2.0071172282720964,-0.1222720401545005
7.340000000000003,0.1205728292613713,-1.997688780917632,-0.1310472634080359
7.350000000000008,0.1593969491549531,-2.007988638782144,-0.1288298386763994
7.359999999999999,0.1709592135943211,-2.027302142361985,-0.1434082978444742
7.370000000000003,0.1705607443199248,-2.0325139665529828,-0.1525580167615075
7.3799999999999955,0.1621631954968996,-2.051928003823776,-0.1621292537818723
7.390000000000001,0.1275023588839305,-2.072466386738236,-0.1800411898700996
7.400000000000006,0.1000624322062802,-2.084278360188017,-0.1855993877220648
7.409999999999997,0.0848741959262832,-2.099496826497303,-0.206458180962938
7.420000000000002,0.0698634151559248,-2.0945981158846334,-0.2075849377471675
7.430000000000007,0.0566375553248784,-2.096533239905676,-0.2066311720111714
7.439999999999998,0.0401950246893073,-2.0937856168194537,-0.1977758565226691
7.450000000000003,0.031244286517726,-2.0990797139713013,-0.1919039274976186
7.460000000000008,0.0163998056205446,-2.1030091874730075,-0.2035911743428725
7.469999999999999,-0.0059424639444462,-2.1161393830089263,-0.2197065286304261
7.480000000000004,-0.0201527101608428,-2.127900186391985,-0.2308525412734956
7.490000000000009,-0.0415206610299427,-2.141220136477964,-0.231939038874581
7.5,-0.0594466287981542,-2.135953690709681,-0.2234347630609013
7.510000000000005,-0.0851449652528721,-2.1431508872692286,-0.2109053811196621
7.519999999999996,-0.0951220606136337,-2.1439060530917367,-0.20358327335027
7.530000000000001,-0.1094288721415237,-2.1392118880220368,-0.1925116712904102
7.540000000000006,-0.1059591524488941,-2.12503741718224,-0.1868461476485688
7.549999999999997,-0.104846287118312,-2.103364823150362,-0.180940783784299
7.560000000000002,-0.090515700957546,-2.08019181003995,-0.1827088632733084
7.570000000000007,-0.0994945770499312,-2.061429783379116,-0.1794868445927977
7.579999999999998,-0.1161740087674347,-2.0435291680211893,-0.1735154821199201
7.590000000000003,-0.1319745368910851,-2.0248536705935805,-0.1563176970967671
7.600000000000008,-0.162688258138506,-2.007017696922889,-0.1406391781043603
7.609999999999999,-0.1986400640979587,-2.0044729406517425,-0.1221662388172514
7.620000000000003,-0.2364384619428097,-2.004894108468409,-0.1101646302949525
7.6299999999999955,-0.2695426538815374,-1.990264432600636,-0.1054789604058858
7.640000000000001,-0.2986148350137035,-1.979430524856464,-0.1020534276803215
7.650000000000006,-0.3155079169311818,-1.9648242338230648,-0.0999178916030468
7.659999999999997,-0.317964199801533,-1.9484658527517504,-0.0904831140270295
7.670000000000002,-0.3073225391187778,-1.9158775061010729,-0.0901474943822631
7.680000000000007,-0.2913977810762869,-1.9146768831040848,-0.093853602026766
7.689999999999998,-0.2868133121922265,-1.906395049902608,-0.0964962682255878
7.700000000000003,-0.2838446510750149,-1.9007683826647248,-0.0928879099831973
7.710000000000008,-0.294546279626033,-1.888782769305338,-0.0951012205871
7.719999999999999,-0.2929773464672419,-1.8630250086594853,-0.0907852445247739
7.730000000000004,-0.2911570206285659,-1.822967598646745,-0.105400363376891
7.740000000000009,-0.2941907859128687,-1.789134219297291,-0.1088695967809554
7.75,-0.292688804529014,-1.7469876813558765,-0.1064066159810615
7.760000000000005,-0.297048163934635,-1.712898277586175,-0.0995935658448358
7.769999999999996,-0.313712882156439,-1.6791117329374368,-0.0837735639569271
7.780000000000001,-0.3238768032594841,-1.6332641545656483,-0.0570000522500583
7.790000000000006,-0.3341357699867361,-1.5900610540092113,-0.0439188896361402
7.799999999999997,-0.3424383053000421,-1.5157162759498313,-0.034836478648043
7.810000000000002,-0.3439180286464777,-1.4459985054198643,-0.0347058096162905
7.820000000000007,-0.3444365319434901,-1.36464076673982,-0.0362898469479555
7.829999999999998,-0.3326857787164544,-1.2831454801369993,-0.0345156451757002
7.840000000000003,-0.3175333711287768,-1.2012982470157614,-0.0236700593762038
7.850000000000008,-0.3152999896890349,-1.1097468036753897,-0.0092436750468102
7.859999999999999,-0.3122709640292022,-1.008094303549706,-0.0038992379464093
7.870000000000003,-0.3194771225060638,-0.8970192890397778,0.0083510229173452
7.8799999999999955,-0.3191898987794098,-0.8071503836011326,0.0041932365187797
7.890000000000001,-0.3352984993651329,-0.7234370010922213,-0.0124009728737962
7.900000000000006,-0.343789950513868,-0.6432217357628923,-0.0172282508109367
7.909999999999997,-0.3487424258432048,-0.5728350336685727,-0.0249688571510122
7.920000000000002,-0.3507187138043488,-0.501603917904329,-0.0189471276375116
7.930000000000007,-0.3349754324457055,-0.430169948047189,-0.0180276574666409
7.939999999999998,-0.3145185675999583,-0.3448471168157312,-0.0137034987934016
7.950000000000003,-0.2791420910020749,-0.2613769642396712,-0.0113003063177962
7.960000000000008,-0.2572159374772046,-0.1893511018226854,-0.0158539016593683
7.969999999999999,-0.2283117432620632,-0.1099910937007467,-0.0264056791559334
7.980000000000004,-0.2127361315777502,-0.0406301535923369,-0.0289983014702031
7.990000000000009,-0.1965226644471225,0.0293599784270637,-0.0331533889703035
8.0,-0.1802026046915942,0.1083947068562745,-0.0286092155189158
8.010000000000005,-0.157177944757851,0.1907659483284126,-0.0434299487262136
8.019999999999996,-0.1430495410840342,0.2537175959303317,-0.0508321063503364
8.030000000000001,-0.1302999390008543,0.3242276352743416,-0.0486122632870852
8.040000000000006,-0.1193572015549664,0.3817813302082963,-0.0515148878428277
8.049999999999997,-0.0836112752391861,0.4506186989156082,-0.0337952883781775
8.060000000000002,-0.0521721426110094,0.516279321495377,-0.0190836639192526
8.070000000000007,-0.0115756140173277,0.5782357698614942,0.0069793029926939
8.079999999999998,0.041289509182586,0.6385399654855897,0.0205405821146441
8.090000000000003,0.0928750350927392,0.6982414482521487,0.0218769568942396
8.100000000000009,0.1398063343689847,0.7608075313382812,0.0310798343462666
8.11,0.1699373074391336,0.8252948082266081,0.0224565457373857
8.120000000000005,0.2079609339567658,0.8756438215824841,0.0272149332739551
8.129999999999995,0.2338569672129624,0.9330033923731668,0.0251736661606182
8.14,0.2527183926191561,0.9900529506125796,0.0276436841664477
8.150000000000006,0.2774513313299056,1.0527215053218792,0.0343113754820766
8.159999999999997,0.2929505444169906,1.110016078929923,0.0455227233583458
8.170000000000002,0.2955267585338202,1.1554807368559703,0.0520074616482657
8.180000000000007,0.2961703994981864,1.1956734530980897,0.0518889128843388
8.189999999999998,0.2943154551197048,1.2368245537121658,0.0460045614337
8.200000000000003,0.3050728983674025,1.290972569434889,0.031928474186033
8.210000000000008,0.3326599660012521,1.320608123727882,0.0221895343560249
8.219999999999999,0.3480828023564225,1.3640906791510603,-0.0004114440889871
8.230000000000004,0.3594941857507633,1.4012992735513905,-0.0264868076665288
8.240000000000009,0.3386971859718144,1.4376895192738368,-0.0431817443030089
8.25,0.2943109623881366,1.474359333137777,-0.0698674565837588
8.260000000000005,0.2356756081242801,1.508931879032001,-0.0901350777006975
8.269999999999996,0.1705442565558937,1.5422500693619263,-0.1173381713801668
8.280000000000001,0.1308015479789797,1.574119981066834,-0.1285612696821084
8.290000000000006,0.0935581709604475,1.602985372619284,-0.1327293682814018
8.299999999999997,0.0686490673498958,1.624981366235146,-0.1399390657219836
8.310000000000002,0.0523801865001414,1.652029154516523,-0.1389318389917332
8.320000000000007,0.0368850663631303,1.6860950861113275,-0.1467827487953854
8.329999999999998,0.0126167794767332,1.7052474994408573,-0.1620703806748445
8.340000000000003,-0.0082310561368075,1.7472952260804415,-0.1691141154166073
8.350000000000009,-0.0332229030013283,1.7874368553980635,-0.1687285244560069
8.36,-0.0425919798521658,1.821269028096523,-0.1693422175975821
8.370000000000005,-0.0475170077471547,1.8541135027377065,-0.1516390924247407
8.379999999999995,-0.0568955441166314,1.8866237228410927,-0.1341971893819064
8.39,-0.0796701422234831,1.9150126009081223,-0.1219297327137771
8.400000000000006,-0.1008338647038745,1.932800076388491,-0.1160160528343363
8.409999999999997,-0.1183619650752162,1.943128974746936,-0.1177488701429898
8.420000000000002,-0.1481009567919095,1.95039906110814,-0.1165812179623502
8.430000000000007,-0.1765010940220822,1.9557759553043956,-0.1062654938500428
8.439999999999998,-0.2011169758722953,1.9498225064166843,-0.104853120506312
8.450000000000003,-0.2169171731871519,1.9684561234964577,-0.1018597755313371
8.460000000000008,-0.216898958725418,1.9875444453589703,-0.0968525826635798
8.469999999999999,-0.2192129645972757,2.0050427283804475,-0.0976925677842963
8.480000000000004,-0.2385641803637757,2.028319554931042,-0.0951120283587037
8.490000000000009,-0.2647322064093305,2.027835147445112,-0.0788927769498116
8.5,-0.2686557714414436,2.024589175611119,-0.0601296897825149
8.510000000000005,-0.2739570431464929,2.0234644537750106,-0.0275382125813815
8.519999999999996,-0.2708310214344868,2.0247076702335667,-0.0103377669210511
8.530000000000001,-0.269533667173949,2.020958045921117,0.0095941889354207
8.540000000000006,-0.2686730211738385,2.019799881941716,0.0189873403277747
8.549999999999997,-0.2649013982372096,2.0184156719673934,0.026224935715096
8.560000000000002,-0.2644000439110674,2.0152977384975497,0.0345941126722479
8.570000000000007,-0.2452901196955917,2.0068623537349315,0.0485593844209115
8.579999999999998,-0.2116061003955179,2.0067368259302167,0.0883611540065347
8.590000000000003,-0.1511842330393409,2.002840816449585,0.1410390524853404
8.600000000000009,-0.0841973568053374,1.9967149310023944,0.1905109616938271
8.61,-0.0101969392429486,1.9998647223442096,0.2262939197384069
8.620000000000005,0.026191447329709,1.9982593450471164,0.2481233903275659
8.629999999999995,0.0604151067147553,1.9820909990776043,0.2587916153873013
8.64,0.0605251048509022,1.9591953621671392,0.2756043669111849
8.650000000000006,0.0434501352046368,1.9396604090667584,0.2748393444480185
8.659999999999997,0.0437001677197029,1.9230947781181755,0.2725784517954949
8.670000000000002,0.0600406482359837,1.9150195965041916,0.2654501794987289
8.680000000000007,0.070150695296456,1.9046417869198329,0.2549133269530484
8.689999999999998,0.0645073245050603,1.9068443396287789,0.2516953923885476
8.700000000000003,0.0455342525122198,1.8954266059767728,0.2510667054334058
8.710000000000008,0.0219727663636452,1.88704334765155,0.2314131051238109
8.719999999999999,-0.0167945237370285,1.8714253053573104,0.2278346743835111
8.730000000000004,-0.061655791434577,1.8588236397688824,0.2313439463867915
8.740000000000009,-0.0776734706818035,1.840154124941988,0.243980307232236
8.75,-0.0989108650273741,1.835129515633049,0.2464637299297849
8.760000000000005,-0.1132401920964993,1.8428086124337164,0.2559453791873201
8.769999999999996,-0.1125282480080896,1.852330579601725,0.2741374355789423
8.780000000000001,-0.1355926949631296,1.862060855011924,0.3020821774066675
8.790000000000006,-0.1741030515127625,1.864592511487326,0.3222235902037103
8.799999999999997,-0.2318388310030299,1.8609145564659892,0.3288463611351385
8.810000000000002,-0.2953561598403025,1.8678803753881104,0.3362578867378603
8.820000000000007,-0.377491283396161,1.8631128049437895,0.3501594419307213
8.829999999999998,-0.4407509810188021,1.8454139714908333,0.3766678171480659
8.840000000000003,-0.5060602838602111,1.8285910452622949,0.4007792701021849
8.850000000000009,-0.5488124341144841,1.785119830749533,0.4319815459033556
8.86,-0.5533407827495758,1.7689667193870977,0.4613602056940002
8.870000000000005,-0.5343037856238848,1.7506993420538983,0.4720919047909581
8.879999999999995,-0.4927026068496206,1.741262389486273,0.4777109261993549
8.89,-0.4773884511680955,1.7398544366357371,0.4769640778177185
8.900000000000006,-0.4578985357834091,1.7206369760169018,0.4821356477279158
8.909999999999997,-0.4465033716723654,1.7066626913752954,0.4846842557921748
8.920000000000002,-0.4217142645920845,1.68768223268466,0.4949121333965547
8.930000000000007,-0.384661557087747,1.6671603857253148,0.5042634987351645
8.939999999999998,-0.3321678852109741,1.6436703114554878,0.4860556295940829
8.950000000000003,-0.2689159904823294,1.6416158678468074,0.4681654402985224
8.960000000000008,-0.2101192046812371,1.6449044526839232,0.4454185558329953
8.969999999999999,-0.1700905358285399,1.6385189010675407,0.4227826675050846
8.980000000000004,-0.1357788525239091,1.6340510547854086,0.4042752301575927
8.990000000000009,-0.1290154025832501,1.6176421997626198,0.3947046754830002
9.0,-0.1180253641988971,1.6007420621484878,0.3870827040975906
9.010000000000003,-0.1028901670467745,1.5999946589135534,0.3630000105478195
9.019999999999996,-0.0690625617721104,1.6074177394705202,0.3479454262948573
9.03,-0.0343434925797826,1.6060803604096403,0.3206424633929902
9.040000000000006,-0.0115807685644459,1.6139600318533285,0.290754051894714
9.049999999999995,0.0111204542344368,1.6138393582698372,0.2703821376655367
9.060000000000002,0.0277994794562407,1.6251008808632033,0.2500220710408436
9.070000000000007,0.0462058683792799,1.620755348897164,0.228947760892261
9.079999999999998,0.0730190985241818,1.6230551476946498,0.2268016497780531
9.090000000000003,0.0871631553296167,1.6237749650315882,0.2271174056321007
9.100000000000009,0.1190411435562476,1.5885245637409322,0.2275545426504494
9.11,0.2594569304263829,1.5503514234391451,0.2289296476159824
9.120000000000005,0.4276603803675706,1.5277181089673633,0.2214983061744784
9.129999999999995,0.5503239093055711,1.5390282675346836,0.2136033201274884
9.14,0.5930416591922534,1.5741348034006792,0.2164883544307331
9.150000000000006,0.5865473093897648,1.5899627805127623,0.2114140287291999
9.159999999999997,0.5687935040989156,1.5957128419013886,0.2010887873913319
9.170000000000002,0.516237862601854,1.6081457430941617,0.189752648243012
9.180000000000009,0.43871138715281,1.5876475110132695,0.1752828807564893
9.189999999999998,0.3548977817545155,1.5611310206317306,0.1380270178350262
9.200000000000005,0.2662655726069998,1.54180405245172,0.106662314202615
9.210000000000008,0.1787005332548565,1.5191456018304836,0.0705188578272567
9.22,0.0985352336366451,1.5180572735037947,0.0332742140042285
9.230000000000004,0.0184928690038097,1.5316227448035813,0.002060150507749
9.240000000000007,-0.0443846146546231,1.5515022024367224,-0.024119413497996
9.25,-0.0933759982611977,1.5773288851706588,-0.036272483163094
9.260000000000003,-0.1232255395590311,1.587962383440347,-0.0655084684733229
9.269999999999996,-0.1415887748051999,1.6032009884256462,-0.0838514087021985
9.28,-0.1443706291761434,1.592450196528132,-0.0911289140374631
9.290000000000006,-0.1527026105258319,1.5854815939329483,-0.0907594960452892
9.299999999999995,-0.1489767974433701,1.575666521811505,-0.0939627319893161
9.310000000000002,-0.1451890754321717,1.573309690999688,-0.1026033623241107
9.320000000000007,-0.1463857971196766,1.5860839679770196,-0.1228603678146502
9.329999999999998,-0.130157509803538,1.5780504372588795,-0.1475019570420068
9.340000000000003,-0.1156302474854459,1.559420848312148,-0.167417772199475
9.350000000000009,-0.1012461240162354,1.536667541558273,-0.167467280429758
9.36,-0.0933414682088251,1.5015678175691185,-0.1678905971199385
9.370000000000005,-0.0752017742208831,1.4715975027960784,-0.1573153532693279
9.379999999999995,-0.0609133622170283,1.4556543137232336,-0.1430124586125133
9.39,-0.0469540065591274,1.4317172296091396,-0.1326004139601465
9.400000000000006,-0.0387061245261583,1.4102155107734915,-0.1191128571496215
9.409999999999997,-0.0243281311692617,1.39331026738799,-0.1088500144012174
9.420000000000002,-0.0075994528408972,1.3560666405890165,-0.0868837098455276
9.430000000000009,-0.0007025003929746,1.3164277283147376,-0.0628915856236516
9.439999999999998,0.0166154300262527,1.2883317035361634,-0.0497199988127353
9.450000000000005,0.0151904006225347,1.269034702246644,-0.0306020269386645
9.460000000000008,0.0148250438404157,1.251483338853859,-0.0228138851657868
9.47,-0.001320662226051,1.2251702016243555,-0.0217312059774176
9.480000000000004,-0.0154628196568426,1.205510936502144,-0.0300244157378837
9.490000000000007,-0.0369356295405105,1.1988748235700148,-0.0328768192730302
9.5,-0.072822781792575,1.187710835956941,-0.0335131962362662
9.510000000000003,-0.1083782442201592,1.1645343183967225,-0.0356796294868482
9.519999999999996,-0.1151022095117353,1.1550315151408534,-0.0189467445718538
9.53,-0.0980796448073819,1.1563163163172987,0.0031567730511513
9.540000000000006,-0.0631031251479522,1.17548045257361,0.0286474396369955
9.549999999999995,-0.0158179082349511,1.1946458423827515,0.0466684487255124
9.560000000000002,0.0242611894908022,1.2085784082435334,0.0608170038167198
9.570000000000007,0.0356639257612843,1.2253323585007487,0.0722043950720238
9.579999999999998,0.0263643753255841,1.2301909241653726,0.0879718345337837
9.590000000000003,-0.0004625047741677,1.2234060287168445,0.09818887186412
9.600000000000009,-0.0132384243307609,1.2137140243134004,0.0993914243013151
9.61,-0.0105498902599976,1.1793728592070096,0.0980908774449286
9.620000000000005,0.0112156630364921,1.1446127821903738,0.0996785836656168
9.629999999999995,0.0172053065205315,1.1051614841198092,0.1021444052021568
9.64,0.0171200062295574,1.0638138866650333,0.1072029596922094
9.650000000000006,-0.0009646352122956,1.0172889386230672,0.1201894705790423
9.659999999999997,-0.0438412376063905,0.9740294276897502,0.1278728624749902
9.670000000000002,-0.088226909538407,0.9105950587367052,0.1356548616195464
9.680000000000009,-0.1247090608166053,0.8356929278385377,0.1726868153395628
9.689999999999998,-0.132010153559793,0.7530723412360467,0.1925291177348187
9.700000000000005,-0.1365307189661583,0.6643097904688591,0.21802626334274
9.710000000000008,-0.120365486374594,0.5836588550069122,0.2368208740213442
9.72,-0.1078910114512758,0.4960697756577157,0.2340307121415529
9.730000000000004,-0.0740890349906146,0.408599514107317,0.2256885653871425
9.740000000000007,-0.0054312248867577,0.3199896862969988,0.192043588634578
9.75,0.0548625382697316,0.223961465175378,0.1403292459841465
9.760000000000003,0.1106378171183476,0.1349974474985418,0.1030970277556348
9.769999999999996,0.1444468788584785,0.0493518191283908,0.0847213866832244
9.78,0.1529390843821687,-0.0438659269477213,0.0811072508150617
9.790000000000006,0.1540407968356786,-0.1278061776748823,0.0743641798778911
9.799999999999995,0.1447141988479941,-0.22024424557153,0.0734914631218276
9.810000000000002,0.1452911438081685,-0.3208196499127705,0.0905370900858942
9.820000000000007,0.1458571665513233,-0.4314998595986045,0.0916334867157044
9.829999999999998,0.1604406190501395,-0.5343039433778166,0.0925690458637069
9.840000000000003,0.1712091979314398,-0.6457235556528764,0.0865747341583897
9.850000000000009,0.1910541256764771,-0.7450878513214487,0.0749540539631162
9.86,0.2159504867642764,-0.8215924807340219,0.0688590757730131
9.870000000000005,0.2365827165432897,-0.9061534317244238,0.0651741892013558
9.879999999999995,0.2677550622733533,-0.999715529153106,0.0534607106875207
9.89,0.2917443559125444,-1.093174948957438,0.0458937309441218
9.900000000000006,0.3069129688809825,-1.1645035187891726,0.0476151540884247
9.909999999999997,0.3222885285844493,-1.2331387323179914,0.0462876708739675
9.920000000000002,0.3423305761874373,-1.3052108031974432,0.0439907046737808
9.930000000000009,0.3549943679114933,-1.3715898906286257,0.0464142373606281
9.939999999999998,0.3640183061127268,-1.4450581949939434,0.0485646591753022
9.950000000000005,0.3839477297828108,-1.5140968911987,0.0697244426647326
9.960000000000008,0.400151306510419,-1.5824539052753963,0.0905297766440299
9.97,0.396193301459507,-1.654855207062875,0.1032027940841397
9.980000000000004,0.3804058175264737,-1.7311477570003948,0.1104972229434718
9.990000000000007,0.3609363841522893,-1.7922120275482367,0.1075351657604558
10.0,0.342360688104196,-1.8756744942869372,0.0950166351177074
10.010000000000003,0.3485230712021293,-1.939968191168966,0.0779178310578521
10.019999999999996,0.352573378858138,-1.990784059468479,0.0567855892277134
10.03,0.3431270777993367,-2.0538425638587388,0.0397684699009342
10.040000000000006,0.325772303520898,-2.1135865756321075,0.040244269295851
10.049999999999995,0.3104181859830608,-2.1836972266530164,0.0521925110231139
10.060000000000002,0.2718683616700801,-2.2415239569330923,0.0756519046648744
10.070000000000007,0.2189292635411701,-2.2763581770147727,0.0846010207219054
10.079999999999998,0.1554326831770412,-2.3020283719669346,0.079283443442709
10.090000000000003,0.0985309095974261,-2.3172556014853787,0.0545724946437155
10.100000000000009,0.0516538735580225,-2.3372809559149146,0.0261576930941653
10.11,0.0075228083129441,-2.374459735835378,0.0093302436008919
10.120000000000005,-0.0096141725587229,-2.405711367683913,-0.011639397402734
10.129999999999995,-0.0285947060950051,-2.4451352818878638,-0.0203454426315438
10.14,-0.0344292038776197,-2.473773820499801,-0.0183067069568709
10.150000000000006,-0.0360298190931471,-2.5078984013765484,-0.0199955821092371
10.159999999999997,-0.0393975874438186,-2.536551777484064,-0.0307135666803474
10.170000000000002,-0.0340839845463786,-2.5405285029250173,-0.0613969135749562
10.180000000000009,-0.0352846355688747,-2.556443111135831,-0.0936768741858842
10.189999999999998,-0.0355538672323134,-2.556833744184465,-0.1243866961838546
10.200000000000005,-0.0467120003044322,-2.554800533464592,-0.1298489264968709
10.210000000000008,-0.0550582300624599,-2.565401762778116,-0.1430165017499561
10.22,-0.0826151491370311,-2.557579532913456,-0.152695077167446
10.230000000000004,-0.1103005582006478,-2.547693672060527,-0.1626520993102546
10.240000000000007,-0.1215785138310055,-2.54423554958141,-0.161845798839288
10.25,-0.1382405124832039,-2.540040851189889,-0.1650313034882725
10.260000000000003,-0.1423477874198925,-2.5094664110682943,-0.1754324312272109
10.269999999999996,-0.1361447357609907,-2.4666787327346147,-0.1993803890715608
10.28,-0.1134128833563442,-2.4149640518923348,-0.2144957666432383
10.290000000000006,-0.0736074894369635,-2.3828775986644355,-0.2317070701839352
10.299999999999995,-0.0402352708102317,-2.3495955039333105,-0.2311386012966327
10.310000000000002,-0.0021079937096669,-2.2991845790489447,-0.2232244031273345
10.320000000000007,0.0372481788263076,-2.2591635548962987,-0.2062103385076893
10.329999999999998,0.068822553795392,-2.216598297389167,-0.1707202993624456
10.340000000000003,0.0899802970343304,-2.1773543615370645,-0.1381534936598632
10.350000000000009,0.1019266946570018,-2.1231445924618755,-0.116503485657413
10.36,0.1185091554118484,-2.0729626795292173,-0.1060696185229969
10.370000000000005,0.121686213176684,-2.025440077663332,-0.112915567894704
10.379999999999995,0.1424788837566586,-1.9858326058615403,-0.1054959451057847
10.39,0.1444128354233777,-1.9536989947803156,-0.1009966090918759
10.400000000000006,0.1454465492420175,-1.9218692353702145,-0.0916669442666164
10.409999999999997,0.1459228984892195,-1.8906322478534456,-0.0592288407254196
10.420000000000002,0.1445270716213275,-1.8672654519655496,-0.017868233188411
10.430000000000009,0.1417157063906646,-1.841196448852678,0.0188891383931041
10.439999999999998,0.1192847651403175,-1.819431099707656,0.0450501058297865
10.450000000000005,0.095182359901866,-1.7755363619567064,0.0577070528268855
10.460000000000008,0.057499341753528,-1.748174482896159,0.0665603238824511
10.47,0.0307404323517193,-1.7399510359432495,0.0647274623256062
10.480000000000004,0.0222142648105619,-1.732105327124837,0.0486015277155855
10.490000000000007,0.0406662576206722,-1.7223075247366464,0.0360761464600026
10.5,0.0623789364134745,-1.72579358742812,0.0398429952635465
10.510000000000003,0.0927711029005499,-1.7349674418773895,0.0622713263903557
10.519999999999996,0.1382070452697626,-1.732354462290192,0.0831093229713497
10.53,0.1668105507636015,-1.734474762621976,0.1006839824587452
10.540000000000006,0.1974735778795606,-1.7264552723564095,0.1059262218597879
10.549999999999995,0.2167121596109601,-1.7343851667281875,0.1047163917282532
10.560000000000002,0.2462479973104868,-1.7480803035443846,0.0966572258024397
10.570000000000007,0.2691183777282582,-1.7572193737733783,0.071645963604856
10.579999999999998,0.2777756230500641,-1.768673711244924,0.0523157555473752
10.590000000000003,0.2908206656495606,-1.7780124499107453,0.0361239512863382
10.600000000000009,0.2982169721555294,-1.8010224179480163,0.0287002420172958
10.61,0.3035624752470387,-1.8226568899928883,0.0348499488407242
10.620000000000005,0.2978469907057535,-1.843790417581627,0.0216473292238086
10.629999999999995,0.3087520630833847,-1.852458083663351,0.0079726739311489
10.64,0.3100910175803844,-1.845079139938716,0.0041051256320538
10.650000000000006,0.3144647705504552,-1.8268704860408524,0.0023369205464001
10.659999999999997,0.3204631538554679,-1.8147742783478649,-0.0144433546514778
10.670000000000002,0.3251956562728924,-1.8121662318451124,-0.029588236997413
10.680000000000009,0.3122263135853731,-1.8044671140445077,-0.0488277349223384
10.689999999999998,0.2775421876710976,-1.813002831577825,-0.0506367614919841
10.700000000000005,0.2341360226579303,-1.8159042954888367,-0.0496674839049859
10.710000000000008,0.1915204977160016,-1.8306768793634896,-0.0374513485613029
10.72,0.1539031523231934,-1.8315090964613536,-0.0184535312100943
10.730000000000004,0.1216205701987443,-1.8278415132838768,-0.0010234834888015
10.740000000000007,0.1060277385669444,-1.825382982947021,0.0124050548879166
10.75,0.091486687801153,-1.8184357451691169,0.0112213780898703
10.760000000000003,0.0972468853855431,-1.804903879226175,0.00291948825952
10.769999999999996,0.1038961619171645,-1.8048674979077504,-0.020315577972287
10.78,0.1145865032162383,-1.8126592048248744,-0.0402331305471821
10.790000000000006,0.1057471788609153,-1.8261178358593773,-0.0635472780658096
10.799999999999995,0.1063050526531925,-1.8487941499342464,-0.0777085814340391
10.810000000000002,0.1024405363151021,-1.8631257955778853,-0.0774702611233322
10.819999999999991,0.1019623997888199,-1.870188111005988,-0.078053938556841
10.830000000000013,0.1240166591885316,-1.8544840927501796,-0.0778304621792373
10.840000000000003,0.1455314160890142,-1.8324433594358016,-0.076716315337587
10.849999999999994,0.1820448004250105,-1.8128223674537904,-0.0719429496354961
10.860000000000014,0.1973135937630075,-1.8054888375882487,-0.082550190952577
10.870000000000005,0.2171167311477318,-1.7988003150722016,-0.0907877740086071
10.879999999999995,0.2194046671811402,-1.8078746720474428,-0.087190355697332
10.890000000000017,0.2317473739392612,-1.8180777717428476,-0.0932933019307479
10.900000000000006,0.2485394278716622,-1.818837849475944,-0.0920647757349791
10.909999999999997,0.2381338882487847,-1.807643199870308,-0.083619847496935
10.920000000000016,0.208175673888955,-1.7956530437938885,-0.0741200700082953
10.930000000000009,0.1905493813046884,-1.7819849197199549,-0.065744429862092
10.939999999999998,0.1546120313146233,-1.7602925020461029,-0.0560121278629826
10.949999999999989,0.1133779918921919,-1.7372946078110625,-0.046407869253936
10.960000000000008,0.0760459407289811,-1.7206624882376615,-0.0337674257557468
10.97,0.0220659778224869,-1.70329024476644,-0.0189662135359956
10.97999999999999,-0.0368479740112352,-1.684011916534759,-0.0138676818307894
10.990000000000007,-0.0869206876964518,-1.6592539142208635,-0.0134672603225387
11.0,-0.1085534287772873,-1.6428428061368847,-0.0135719913695171
11.009999999999993,-0.127217908760317,-1.6436814648604865,-0.0093275443544567
11.02000000000001,-0.1386938399759798,-1.6380786687035822,-0.0149425023357423
11.03,-0.137989925914207,-1.632779875165035,-0.007079959406728
11.039999999999992,-0.1385812049848895,-1.6101845492841262,-0.0038332232781573
11.050000000000011,-0.1457268157062198,-1.5685847235848691,-0.0020498117756411
11.060000000000002,-0.1724932111533859,-1.5366010852565073,0.0133907908521764
11.069999999999991,-0.2148910121359811,-1.49698265884534,0.0231991398725524
11.080000000000013,-0.2467036061155137,-1.468480004767019,0.042320906717319
11.090000000000003,-0.2686750883840071,-1.4375582939232383,0.0563200472005555
11.099999999999994,-0.2825147728809501,-1.406257324677385,0.0680780212844547
11.110000000000014,-0.2714704387954831,-1.3684309567705752,0.0727812176313399
11.120000000000005,-0.2520825152321058,-1.326040980511874,0.076894183165043
11.129999999999995,-0.2385032063163265,-1.279369495201108,0.0702980708194987
11.140000000000017,-0.2422418667481765,-1.2408839638001448,0.0749150867740413
11.150000000000006,-0.2622002796582058,-1.2169226234542272,0.0792584111478828
11.159999999999997,-0.2830377320543175,-1.193643791830476,0.083652342982584
11.170000000000016,-0.2893570268320085,-1.1788404932587877,0.0942512324880858
11.180000000000009,-0.2872369421643198,-1.160321317358351,0.0937346853395618
11.189999999999998,-0.2730228247776147,-1.1476676567618842,0.0951690215844448
11.199999999999989,-0.2548494240859517,-1.120942045783569,0.0926883982668596
11.210000000000008,-0.2217916613482972,-1.0852998860994818,0.0959502398295737
11.22,-0.1829226094214627,-1.0475797908608742,0.0910406460126076
11.22999999999999,-0.1404670426542724,-0.993210559299921,0.0934231437098738
11.240000000000007,-0.1140603702650367,-0.9438273034542995,0.0912451677648948
11.25,-0.0891343396595255,-0.9057172505043416,0.1026712869113341
11.259999999999993,-0.0856011739725271,-0.8756693048970758,0.1168470146575219
11.27000000000001,-0.0991143768004625,-0.8411473132924931,0.12323039412582
11.28,-0.1228303074184694,-0.8123050449709398,0.1261214298429442
11.289999999999992,-0.1461368238177462,-0.769576506690816,0.1170264733741777
11.300000000000011,-0.1582935887549373,-0.7118496231072072,0.1013303297015872
11.310000000000002,-0.1648629525107812,-0.6625920006567148,0.074734119952591
11.319999999999991,-0.1463524406977011,-0.6263594671069134,0.0660481126294991
11.330000000000013,-0.1225404001129246,-0.5829176113728145,0.0605728667623594
11.340000000000003,-0.1100696060892965,-0.5403897775125254,0.0426483679431713
11.349999999999994,-0.1163726366854058,-0.4909332214482123,0.0214499855233194
11.360000000000014,-0.1248212870770027,-0.4384614337792017,-0.0003306318447487
11.370000000000005,-0.1467427370914584,-0.3852736232459881,-0.0130135765460404
11.379999999999995,-0.1665292919946207,-0.3295871959991244,-0.0289709973405753
11.390000000000017,-0.1820311448913465,-0.2547450279454478,-0.0455578762147339
11.400000000000006,-0.2003063283444341,-0.1899933298668142,-0.0610171101769591
11.409999999999997,-0.2151352818375104,-0.1107743030355098,-0.0837687919025889
11.420000000000016,-0.2316661795974793,-0.042620790999166,-0.1020368861107745
11.430000000000009,-0.2725153461500507,0.0134439506384861,-0.107024190100485
11.439999999999998,-0.2997086059077314,0.0723020825274313,-0.1140434025558488
11.449999999999989,-0.3184792184647093,0.131527593010078,-0.1124919713906931
11.460000000000008,-0.3174234566969509,0.1951256224067305,-0.1057107875096535
11.47,-0.3299525881690648,0.2628902781180051,-0.0974701222395338
11.47999999999999,-0.3266863281835228,0.3270947860275445,-0.0787542988679298
11.490000000000007,-0.3168715019459719,0.3874971739342119,-0.0710393406426854
11.5,-0.3059542818009244,0.4419394157552044,-0.0584912102239293
11.509999999999993,-0.2833298518748249,0.4739781838799984,-0.0509944489634431
11.52000000000001,-0.2584860625023302,0.5189652461516334,-0.0445189339327388
11.53,-0.221385944312015,0.5672555460792094,-0.0434673291570964
11.539999999999992,-0.1718222004977545,0.6104058857593401,-0.0349649853939219
11.550000000000011,-0.1135869923805377,0.657198001404402,-0.0292307700111055
11.560000000000002,-0.0579168751234225,0.7002653284493366,-0.0161149348169824
11.569999999999991,-0.0014715572216497,0.7499928336472219,-0.0040354232965569
11.580000000000013,0.0178757131673677,0.7898739502346979,-0.0015113681472011
11.590000000000003,0.036539719635799,0.8331221142448813,1.364088542305648e-06
11.599999999999994,0.046322499406338,0.88226422985754,-0.0005719258157841
11.610000000000014,0.0562323321763676,0.93117303630577,0.0005195318012483
11.620000000000005,0.0623401450239059,0.9837485630042972,0.005686545949254
11.629999999999995,0.0743311062133211,1.0439378976082008,0.0086639935353262
11.640000000000017,0.0935887329481705,1.105214304744211,0.0188518814319604
11.650000000000006,0.0898946208597413,1.1670109450584003,0.0226917917521809
11.659999999999997,0.1047994377050155,1.2229695642102154,0.0277849437834014
11.670000000000016,0.1159804911590137,1.278651042666231,0.036523449716408
11.680000000000009,0.1169858664511563,1.3245327679038978,0.033311135124375
11.689999999999998,0.1178294859593435,1.3891777796148017,0.0241629533038613
11.699999999999989,0.1113615798972059,1.4634844993394014,0.020413757086055
11.710000000000008,0.100199907958888,1.5188748147967022,0.0154324001700147
11.72,0.0922927334655299,1.574665973204573,0.0107533802752028
11.72999999999999,0.0702931937472483,1.6170633671434944,0.00086892433487
11.740000000000007,0.0635425989992881,1.6628755723010842,-0.0040713828543572
11.75,0.0470541066067329,1.697728775011394,-0.0065052187428685
11.759999999999993,0.0394557005989859,1.7402185387837472,-0.0276940461330266
11.77000000000001,0.0296620607481966,1.7822144856117157,-0.0474075743340366
11.78,0.0190872470524117,1.8213319707091007,-0.0715030547603541
11.789999999999992,-0.0012117318282522,1.8739812807538847,-0.0683963803029289
11.800000000000011,-0.0210446394815377,1.91337352941372,-0.0656617461795819
11.810000000000002,-0.0369728817613116,1.9646488211933997,-0.0476838295619398
11.819999999999991,-0.0540739483808872,2.0088717572658905,-0.034764126507546
11.830000000000013,-0.0777563002974986,2.037695540793393,-0.0257659240814438
11.840000000000003,-0.10569990743967,2.060198869066173,-0.0292783659901597
11.849999999999994,-0.1304762357509936,2.072145387377505,-0.0370502928384718
11.860000000000014,-0.1641401107296793,2.0772780310916628,-0.0523666286614515
11.870000000000005,-0.2014744692731474,2.076617631521197,-0.068514493067987
11.879999999999995,-0.228208816585129,2.081410797233864,-0.0702052394670349
11.890000000000017,-0.2572243028716999,2.0909563507820743,-0.0660930366129297
11.900000000000006,-0.2881837564973439,2.107069813407287,-0.0489963725209862
11.909999999999997,-0.2928621589139991,2.1333537980326693,-0.0427037513553816
11.920000000000016,-0.2958892797115429,2.159665091107345,-0.0342827937569478
11.930000000000009,-0.2914510585107606,2.1871258428962053,-0.0240905631347691
11.939999999999998,-0.3081947539538954,2.228594048809907,-0.0038845696146385
11.949999999999989,-0.3240437801388366,2.25289755958738,0.0101561397283994
11.960000000000008,-0.3506101846505758,2.278457712836639,0.0241564926157795
11.97,-0.3705514429403005,2.304848770932809,0.0359493959492602
11.97999999999999,-0.3687641372842299,2.326071112597479,0.0682806437088768
11.990000000000007,-0.3515331567336781,2.347881852158628,0.1006676565651428
12.0,-0.3190533112188321,2.377641689374275,0.1425397272607903
12.009999999999993,-0.3013611355379688,2.409328243149389,0.183208129970482
12.02000000000001,-0.2733915592359143,2.4312791108574863,0.2152465095870199
12.03,-0.267409653982038,2.457318314237227,0.2420041156677183
12.039999999999992,-0.2612282050502265,2.4882401412610067,0.2518483176735591
12.050000000000011,-0.2577319359420484,2.5123784190467164,0.2606256564118382
12.060000000000002,-0.2461227980708416,2.5304143532186614,0.2696091965126257
12.069999999999991,-0.2400275515376339,2.559854097211626,0.2763717804844116
12.080000000000013,-0.2286522961862742,2.579332808068885,0.3034543416277784
12.090000000000003,-0.2128420036738597,2.584874166612217,0.3183902699641789
12.099999999999994,-0.2144966261937053,2.589115997656013,0.3389721156898158
12.110000000000014,-0.2143279412325906,2.5866143099871626,0.366186460806603
12.120000000000005,-0.2124906931357073,2.5661517336976685,0.3892470321559307
12.129999999999995,-0.2138384974890754,2.547466388670685,0.4141757473691884
12.140000000000017,-0.1936147395300484,2.5326438482264337,0.4317249618553213
12.150000000000006,-0.1618741480550281,2.51743368469506,0.4393085609361892
12.159999999999997,-0.1314107551966158,2.514355867114968,0.449866424125575
12.170000000000016,-0.1203329154326084,2.49234697686057,0.4529751885890761
12.180000000000009,-0.1424425595803691,2.459257084490716,0.4681805246284322
12.189999999999998,-0.1801814369639129,2.4081173745093043,0.4966980589216311
12.199999999999989,-0.2195599243902682,2.33789162189717,0.5264490873971113
12.210000000000008,-0.2421008038554223,2.2790576739240844,0.5558690781880129
12.22,-0.233207087941977,2.222694022486888,0.5723720586447717
12.22999999999999,-0.2001711556990494,2.174195516363596,0.5673126501753566
12.240000000000007,-0.1393325193741106,2.121935003021396,0.5497802550594375
12.25,-0.0940470905797981,2.064152190839489,0.515570743708893
12.259999999999993,-0.0368463243009249,2.008744369617875,0.4852773661786569
12.27000000000001,0.0017495538565232,1.9692648321334372,0.47398681103272
12.28,0.0363200771477877,1.9385025217322085,0.4735734434408353
12.289999999999992,0.0714250791461094,1.9270780575923732,0.4749244918169153
12.300000000000011,0.0912284497396704,1.89772612894533,0.4754914847706088
12.310000000000002,0.0863035381337258,1.8663040805336968,0.4716369660737496
12.319999999999991,0.0700695000492609,1.819637107538904,0.4543054601685993
12.330000000000013,0.0593494760425101,1.784228834290379,0.428782926930683
12.340000000000003,0.0275475515780776,1.7472657572243284,0.4021488795414322
12.349999999999994,0.015920200050196,1.7154862089906249,0.3800207470631552
12.360000000000014,0.0161676351101332,1.7140287610921916,0.3688747353019687
12.370000000000005,0.0151118296105892,1.7278706905955237,0.354612231245541
12.379999999999995,0.028954313508439,1.733447490186209,0.3466522008136679
12.390000000000017,0.0341030272243804,1.739909432584023,0.3333486042386592
12.400000000000006,0.0238044318393026,1.7412357478073766,0.3132773982180011
12.409999999999997,0.0001534549853195,1.7401523765595688,0.2793950216872089
12.420000000000016,-0.0088501447407597,1.7377082247358009,0.2509028731063223
12.430000000000009,-0.0190778046882884,1.7432355738771037,0.2307866660971962
12.439999999999998,-0.0312360733539606,1.7590433276290232,0.1957243705728683
12.449999999999989,-0.0474056262347476,1.7848806965554485,0.1673627693463017
12.460000000000008,-0.0689266904080587,1.790004066059896,0.1263458304891295
12.47,-0.0883071501875985,1.787855057758017,0.1189026476717486
12.47999999999999,-0.1102254182620824,1.7834888624049614,0.1122051098196307
12.490000000000007,-0.1144006128723381,1.7854477740925505,0.10486815073585
12.5,-0.1409967296973099,1.7918788146622922,0.0986002603772767
12.509999999999993,-0.1613986866840116,1.784513271348656,0.0934421869938337
12.52000000000001,-0.1707755045068019,1.7769321812941317,0.0846550220588399
12.53,-0.184440724710827,1.7632344382414735,0.0680993188361122
12.539999999999992,-0.1875473824877559,1.747648988188468,0.0516498278980718
12.550000000000011,-0.2029243760170001,1.7296357091465389,0.0328115699125376
12.560000000000002,-0.2137587399589725,1.7095902624811417,0.0268906528949845
12.569999999999991,-0.2271426196269095,1.6858555832482138,0.0241675593789265
12.580000000000013,-0.2190743674474342,1.6652573093191634,0.0180561353127802
12.590000000000003,-0.2047525953567844,1.6512711986958284,0.012004118383671
12.599999999999994,-0.1848879803953595,1.6333525235048585,0.0122239279851415
12.610000000000014,-0.1451796372405464,1.5925153800519936,0.0161017682697295
12.620000000000005,-0.1127728795284101,1.552562841526019,0.0198260876093646
12.629999999999995,-0.0733308305881213,1.5124093703580703,0.014820549828766
12.640000000000017,-0.0380120764682181,1.4848839229717028,0.0012666568099017
12.650000000000006,-0.0137313554278237,1.4481821842194815,-0.0281733348597654
12.659999999999997,-0.0180182856905688,1.4084667946833431,-0.0609391314144826
12.670000000000016,0.0117027386054425,1.3422657197243506,-0.0978407243737127
12.680000000000009,0.129971441054741,1.272033930888381,-0.136556414936598
12.689999999999998,0.2253692799239229,1.244143248808796,-0.1675119314294025
12.699999999999989,0.2699157701454447,1.2408721994464482,-0.1714668424967527
12.710000000000008,0.2817382809616943,1.2763817633720351,-0.1708733711796909
12.72,0.2702388468273696,1.307289698533585,-0.1570026466576724
12.72999999999999,0.2427029171990155,1.3479824090985448,-0.1468682729212997
12.740000000000007,0.1959880001744831,1.3597843439610129,-0.1351514266110647
12.75,0.1570113963734823,1.3554476137824514,-0.1235853901978756
12.759999999999993,0.1168540273283057,1.3448733010619367,-0.1225532742833965
12.77000000000001,0.0662640412750571,1.3430416482552343,-0.1078217405495476
12.78,0.0243253694138213,1.33927394965392,-0.0902593915723211
12.789999999999992,-0.0218911079519399,1.35596410020489,-0.08807517234928
12.800000000000011,-0.0299994201131988,1.3497590310277536,-0.1106303518796035
12.810000000000002,0.0044093345758388,1.3251764514709343,-0.1118814880294851
12.819999999999991,0.0328180794000042,1.315153582726708,-0.1191420272354737
12.830000000000013,0.0704938749461751,1.2885575687422213,-0.1067367352836179
12.840000000000003,0.0879356273567351,1.257845327786823,-0.0855875755600492
12.849999999999994,0.0998896366622704,1.2349618566566094,-0.0641250878663204
12.860000000000014,0.1027589379171987,1.224730417390984,-0.0315737937236965
12.870000000000005,0.0874904160617406,1.2064443765366402,0.0037530470575343
12.879999999999995,0.0603206879934069,1.1913990217324797,0.0216687097189451
12.890000000000017,0.0426413859810773,1.1699327245223374,0.0225187629678089
12.900000000000006,0.0389009312064769,1.123816956787889,0.0101383081406683
12.909999999999997,0.0519636376549651,1.0613086380399857,-0.0021016048384228
12.920000000000016,0.0616035422493314,0.9992145574360052,-0.008263927990466
12.930000000000009,0.0184264654054755,0.9568635320052272,-0.0133262260059438
12.939999999999998,-0.0278117969707494,0.9061081943266086,-0.0044289992726372
12.949999999999989,-0.0906010486401547,0.8397351316030167,-0.0043906819543748
12.960000000000008,-0.1571734194979656,0.7737530156978703,0.0103218507944764
12.97,-0.1987391856404795,0.7113047805376777,0.0259454778362837
12.97999999999999,-0.2126968808970558,0.6410478728200317,0.0356335459449633
12.990000000000007,-0.1995601767015908,0.565673500846391,0.0461928672286616
13.0,-0.1749426105382621,0.4894386568103686,0.0430572769884902
13.009999999999993,-0.1660595471202969,0.4055683446834526,0.0398891318093768
13.02000000000001,-0.1575613381103285,0.3240269146739773,0.0436251531471519
13.03,-0.1465884643937032,0.2446881914246445,0.0435814950892552
13.039999999999992,-0.1511475535727017,0.1555287104259954,0.039847133309946
13.050000000000011,-0.1408846581663549,0.0563778437217203,0.0347294303920074
13.060000000000002,-0.1186868760548546,-0.0359131569652692,0.0234804176350505
13.069999999999991,-0.0729804849789035,-0.1269588178808304,0.0213500403896331
13.080000000000013,-0.0129765379891681,-0.1918792469068977,0.0279252710056355
13.090000000000003,0.0445209110277418,-0.2663360151430157,0.0388081776687389
13.099999999999994,0.0942940867344543,-0.35427755603978,0.0488402751216042
13.110000000000014,0.1275922352232773,-0.4349797050202325,0.0517238988032438
13.120000000000005,0.1475165601101319,-0.5269366759073003,0.0416560374767542
13.129999999999995,0.1679478493771826,-0.6144538865091176,0.0215816135262052
13.140000000000017,0.1692381007803416,-0.7168035330776231,0.0105249515926454
13.150000000000006,0.1834537722002394,-0.8050473443524062,-0.0061001656322349
13.159999999999997,0.1740765311776515,-0.8842646729487917,-0.0139903155954701
13.170000000000016,0.1668138190092353,-0.9616659475464931,-0.0276109803878831
13.180000000000009,0.1658722676674312,-1.054085672266074,-0.0314430282880221
13.189999999999998,0.165574772328856,-1.1232832602721985,-0.0319230725325999
13.199999999999989,0.1845807247431366,-1.185325253391761,-0.0311837613303333
13.210000000000008,0.1987513698869872,-1.2563922827545522,-0.0310127262952853
13.22,0.2179948986423735,-1.3320795162399783,-0.0245123532158929
13.22999999999999,0.2395512084556066,-1.4021371602616357,-0.0102795077073494
13.240000000000007,0.2512877986953913,-1.4759514662109314,0.0065536032570656
13.25,0.2580351326878475,-1.5405038114130416,0.0183042602291648
13.259999999999993,0.2730590503532417,-1.600416099948894,0.0321598388555533
13.27000000000001,0.2826718118768989,-1.6686679730707992,0.0482933817993791
13.28,0.2841911512656882,-1.7223109411742243,0.0571528413767874
13.289999999999992,0.2770277303991059,-1.7879222712052936,0.0691340372079734
13.300000000000011,0.2969158108196188,-1.834227544476424,0.0636816410347493
13.310000000000002,0.297301642056434,-1.8871069128017557,0.0565606873741276
13.319999999999991,0.2992874085944769,-1.9476804438344533,0.047311079643758
13.330000000000013,0.2957909170901979,-1.9967514121647292,0.0502700544477095
13.340000000000003,0.2729915427213686,-2.055123351334325,0.057211027012187
13.349999999999994,0.2460078813418338,-2.1031682945964274,0.0576536100147579
13.360000000000014,0.2018645760967362,-2.1296904304135458,0.0557821563223223
13.370000000000005,0.1643620100034986,-2.1627838138017546,0.0437470124728311
13.379999999999995,0.131279917009239,-2.2029453588674994,0.0233035569118205
13.390000000000017,0.1141137900741358,-2.232157594434487,0.0056538803995946
13.400000000000006,0.1363599943381077,-2.271870213696477,-0.0169415870839517
13.409999999999997,0.1919743727922611,-2.297746311838464,-0.0453734090727604
13.420000000000016,0.2598335282275313,-2.327745412223204,-0.0648252004218695
13.430000000000009,0.316205813124299,-2.350740194509528,-0.0708600043658033
13.439999999999998,0.3573120348387571,-2.3722269306193184,-0.0749077457577907
13.449999999999989,0.3761959490172216,-2.390128909149709,-0.0869657185638281
13.460000000000008,0.3687321049589833,-2.4125733002979866,-0.1009509143100422
13.47,0.3358750820848744,-2.4472502416529345,-0.0954458110850829
13.47999999999999,0.2718456470256166,-2.482076549411458,-0.0959490755947704
13.490000000000007,0.2123262194192258,-2.512140905483081,-0.081248686096012
13.5,0.1475713748186419,-2.534165783313824,-0.0641778833084197
13.509999999999993,0.1076474344531298,-2.5373527616028637,-0.0668245219758462
13.52000000000001,0.129441335323926,-2.530790662821901,-0.0791681981780006
13.53,0.1739650693735407,-2.508750929352784,-0.1067454116249215
13.539999999999992,0.2313691761990065,-2.483079136021965,-0.142819004866573
13.550000000000011,0.2778102559631695,-2.466103410307844,-0.1698447700544883
13.560000000000002,0.2979222467363866,-2.4429049042901534,-0.189325094125441
13.569999999999991,0.292936357084759,-2.43018966081216,-0.1950016835326972
13.580000000000013,0.2612035702336195,-2.419859428293755,-0.1966967724832421
13.590000000000003,0.2279952688749529,-2.42912714498207,-0.1865066578038243
13.599999999999994,0.197280342707973,-2.438752383188864,-0.1875900229476733
13.610000000000014,0.1767901411102133,-2.4438187567949385,-0.1851099816680753
13.620000000000005,0.1484021109073392,-2.4369639914747645,-0.1797324484456426
13.629999999999995,0.1177325551760297,-2.4122841678716105,-0.1730389581831568
13.640000000000017,0.0823098121393802,-2.391001385090198,-0.156694121760712
13.650000000000006,0.0431500574613834,-2.3722122377311554,-0.1419705587924718
13.659999999999997,-0.0063316177388532,-2.359924729501009,-0.1279900991418811
13.670000000000016,-0.0527329162818801,-2.351266146734506,-0.1097294989692725
13.680000000000009,-0.0740897207673249,-2.34014113531466,-0.0959443604356087
13.689999999999998,-0.0568845673794254,-2.335663492431717,-0.0927561030556671
13.699999999999989,-0.0210671153998099,-2.319247390080313,-0.0722271807485595
13.710000000000008,0.0250876329549267,-2.3060186986243782,-0.060700077781005
13.72,0.0709627321290479,-2.2782423918275843,-0.0494515640195585
13.72999999999999,0.1236366900537329,-2.247024324550629,-0.0485137726618446
13.740000000000007,0.1495444344062871,-2.223410377433688,-0.0554103224611025
13.75,0.1528995727732218,-2.213270262613764,-0.048724594979157
13.759999999999993,0.1372733792513196,-2.2112359928056837,-0.0467676508423678
13.77000000000001,0.1181104691516714,-2.201488979679182,-0.0522735791466798
13.78,0.1171382938563826,-2.196869796132527,-0.0630273372176958
13.789999999999992,0.1167406820618601,-2.1930941861616,-0.0570678553835426
13.800000000000011,0.1303124742650179,-2.1828398777468307,-0.0589617002418098
13.810000000000002,0.1617489883350827,-2.160704372611559,-0.0725254094362205
13.819999999999991,0.1956336534994706,-2.14443319326784,-0.0847765776586595
13.830000000000013,0.2042770584385905,-2.1264276410771603,-0.1012340150567347
13.840000000000003,0.2044061621550284,-2.1192043054979663,-0.1183398111502236
13.849999999999994,0.1936364440065718,-2.1201392829110337,-0.127647139275005
13.860000000000014,0.1906906696105692,-2.126155668303933,-0.1264132389175525
13.870000000000005,0.2031769722519762,-2.1269538964718038,-0.133691730191327
13.879999999999995,0.2358909190275734,-2.1182451210254123,-0.1533272126538105
13.890000000000017,0.2585474287416981,-2.110886691395973,-0.162643134437308
13.900000000000006,0.2663088037066745,-2.0895499032907403,-0.1640909110052324
13.909999999999997,0.2526148715746471,-2.073852605449984,-0.159150824667807
13.920000000000016,0.2283389088730254,-2.0374527745715363,-0.1484700092771763
13.930000000000009,0.1893061563167751,-2.0236319063794457,-0.1362623684923858
13.939999999999998,0.1644156860898836,-2.0169214337492933,-0.121946253886192
13.949999999999989,0.1652013252851447,-1.9973315794266813,-0.1037866240333275
13.960000000000008,0.1738017987527769,-1.983791987165454,-0.1020392662551393
13.97,0.1920958561281872,-1.9471115229469005,-0.1038406470594455
13.97999999999999,0.2101252913805945,-1.9184103975564617,-0.1103311327319061
13.990000000000007,0.2235027076464453,-1.878182924145064,-0.1255850169285199
14.0,0.2092209376959714,-1.8324386312358285,-0.1304769374785601
14.009999999999993,0.1773366366100109,-1.7927380874315322,-0.1296678820576915
14.02000000000001,0.1546517961784574,-1.769099531590249,-0.1278553969652686
14.03,0.1297578320127085,-1.7745712598824932,-0.1176648009414854
14.039999999999992,0.1277723568275225,-1.7759659614059764,-0.1172997617331438
14.050000000000011,0.1406395734608562,-1.7761363086160062,-0.122620560041961
14.060000000000002,0.1447583619572399,-1.7760368418773358,-0.1229003494107506
14.069999999999991,0.12957173469791,-1.7595960422548906,-0.1241942026133732
14.080000000000013,0.0944333859146115,-1.740790926123768,-0.1242327503886379
14.090000000000003,0.0570737203835948,-1.7233961766740304,-0.1188554087429391
14.099999999999994,0.0147077907484167,-1.714938538493593,-0.1178169924113792
14.110000000000014,-0.0113344851160994,-1.7123538314167095,-0.1222035818566644
14.120000000000005,-0.0289832560209336,-1.709872659761472,-0.1244867393258735
14.129999999999995,-0.0432093772322853,-1.7016223877942749,-0.1244244980845876
14.140000000000017,-0.0382775636411459,-1.6949532405658585,-0.1152774492561584
14.150000000000006,-0.0363492123542487,-1.6847627234136675,-0.1020464279651757
14.159999999999997,-0.0345723727183256,-1.6601511269771896,-0.0809565151450179
14.170000000000016,-0.0192639911285725,-1.629094738594587,-0.0606017979448948
14.180000000000009,-0.0093074579841597,-1.6156551766975522,-0.0465297665254261
14.189999999999998,-0.0071897474725924,-1.6084217111013224,-0.027781029978732
14.199999999999989,0.0093526947899922,-1.5989518343536713,-0.0094978152332523
14.210000000000008,0.0137108364534139,-1.601740119332912,0.0045927561626574
14.22,0.0170943539867024,-1.5835297116216354,0.0208538623349673
14.22999999999999,0.0254398477656175,-1.561908165080422,0.0252149967860972
14.240000000000007,0.0363100274794294,-1.532621197587688,0.0447834212656197
14.25,0.0308125186565729,-1.5063345810966025,0.0491131458360607
14.259999999999993,0.0233533701515611,-1.4752114920431154,0.0504235498069693
14.27000000000001,0.0261298462681136,-1.4585285200822005,0.0521614399734413
14.28,0.0347551195185297,-1.4563382304794537,0.0606456788670396
14.289999999999992,0.0402379521393786,-1.441386173743033,0.0729286392822085
14.300000000000011,0.0252393743036796,-1.4333935570667131,0.0723867409899969
14.310000000000002,0.0157436069958056,-1.4249011416770805,0.0787544563081842
14.319999999999991,0.0026618446235887,-1.4042735829736437,0.0840437842984038
14.330000000000013,-0.0107238183156466,-1.3931632013025506,0.0936004416230783
14.340000000000003,-0.0019612958540029,-1.378502077430267,0.096866365388697
14.349999999999994,0.0134645388851443,-1.3570876114649826,0.0985667964015486
14.360000000000014,0.0390720273913265,-1.33359104320432,0.1050912934605425
14.370000000000005,0.0769296874209756,-1.3156155731402868,0.1166756546225175
14.379999999999995,0.1101092080760605,-1.291723497717559,0.1217235233510448
14.390000000000017,0.1418808570245216,-1.261405719190993,0.123098968496432
14.400000000000006,0.1447270795414276,-1.246212795003792,0.1131118517646575
14.409999999999997,0.143244524601442,-1.230183376307178,0.1046861885322532
14.420000000000016,0.1249415896448092,-1.213681061773564,0.1044111946151177
14.430000000000009,0.1197305588161307,-1.21448833898594,0.096858759113993
14.439999999999998,0.1173005381387891,-1.200578739917513,0.0917295784470946
14.449999999999989,0.1151538072504724,-1.183403350356289,0.0787421754032508
14.460000000000008,0.1126265445903426,-1.1478299785206851,0.0726302019873024
14.47,0.1107890245908375,-1.1020740968727776,0.070760493370815
14.47999999999999,0.0927132616169126,-1.0599624347207215,0.0688696805631592
14.490000000000007,0.1021310561097437,-1.002009719625606,0.0691909693590353
14.5,0.1213710597603683,-0.9779383929735848,0.0702937926566731
14.509999999999993,0.149624651195795,-0.9483386657285724,0.0714638310147051
14.52000000000001,0.1811687282002039,-0.8971677426101565,0.0677221169622814
14.53,0.2218877048348137,-0.8370982568772537,0.066329590439701
14.539999999999992,0.2679847826363436,-0.764489486421611,0.0480075190230947
14.550000000000011,0.2900159832771206,-0.7032073772732492,0.0401616413446903
14.560000000000002,0.2790333015728216,-0.6411571661384408,0.0418888544119985
14.569999999999991,0.259875256253221,-0.5838171888763976,0.0427418392140005
14.580000000000013,0.2196290709460922,-0.5317677035615044,0.0477399223683986
14.590000000000003,0.1665425523584504,-0.4893684648936122,0.052808871681508
14.599999999999994,0.1219760796546643,-0.4365711493340049,0.0529539080320052
14.610000000000014,0.0831212211788852,-0.3711803259364661,0.0396088593935514
14.620000000000005,0.0658612100377231,-0.3056588200579854,0.0370029551685761
14.629999999999995,0.0559188005851548,-0.2430768192841574,0.0242133962856417
14.640000000000017,0.0448910573064711,-0.1782789898691463,0.010317198336205
14.650000000000006,0.038437962950707,-0.1259323677765575,0.0101853530417404
14.659999999999997,0.0235764762360066,-0.067851523590374,0.0087315253063886
14.670000000000016,-0.0037818650204398,-0.005874414208435,0.0155253314206978
14.680000000000009,-0.0267990329292762,0.051921537011197,0.0308610528973475
14.689999999999998,-0.0362093084976889,0.1009416459975695,0.0319207544839596
14.699999999999989,-0.0344449664275512,0.1547496799178681,0.0335317812118672
14.710000000000008,-0.0321020682988775,0.2084653001556395,0.0246868507837521
14.72,-0.0374800791039723,0.2575301685129152,0.0104407353556514
14.72999999999999,-0.0432047328042678,0.3104924988389942,0.0065258600967509
14.740000000000007,-0.0698836015130597,0.3587378019851815,0.0174190520745495
14.75,-0.0950138252580348,0.42493378046328,0.0113893551182468
14.759999999999993,-0.1039430965041407,0.4920730956326065,-0.0035979394441995
14.77000000000001,-0.1129378510086365,0.5719305039636999,-0.0183291039110574
14.78,-0.1125494087994663,0.6422898197517137,-0.0275518879604123
14.789999999999992,-0.1137655433833644,0.71756269817076,-0.0278608446903666
14.800000000000011,-0.1254477386762477,0.8024516816318216,-0.032508998825842
14.810000000000002,-0.1335673490865292,0.8671077611396855,-0.0248000011756478
14.819999999999991,-0.145882725175056,0.9469479603130436,-0.0154555760020547
14.830000000000013,-0.1529087691217568,1.0248137763181338,-0.0052040092958762
14.840000000000003,-0.1668142308417371,1.1062103606062188,0.0061867472755963
14.849999999999994,-0.1851773680280719,1.1932118442550887,0.0054046562257305
14.860000000000014,-0.2119813470141296,1.2720322558299102,0.0103656348568503
14.870000000000005,-0.2380294771597548,1.3424448529669932,0.0187306110989664
14.879999999999995,-0.2625823141905675,1.393015910229553,0.0174599411733787
14.890000000000017,-0.2668346593896429,1.4462644171568904,0.0183654405233884
14.900000000000006,-0.2686781543177846,1.4963886962853044,0.0133103447387084
14.909999999999997,-0.254101071282582,1.540635188376792,0.0097860939727197
14.920000000000016,-0.2132473488745453,1.5791212396474277,0.0037311134284047
14.930000000000009,-0.1803142945555096,1.621539757447474,0.0074876223401098
14.939999999999998,-0.1430869674523759,1.662020147351831,0.0080043737860192
14.949999999999989,-0.1142805855725497,1.700837149001089,0.0045612167732171
14.960000000000008,-0.0925561526388618,1.7462993800187194,-0.0048655957926606
14.97,-0.0744911796294447,1.789816534921746,-0.0245438619394703
14.97999999999999,-0.0410851513744775,1.83104229329999,-0.0380015208432101
14.990000000000007,-0.0359342980837964,1.8659894298822053,-0.046503947754781
15.0,-0.0364788606069512,1.894472815037768,-0.0530223389111141
15.009999999999993,-0.0221259377221624,1.910370757441646,-0.0467286528886147
15.02000000000001,-0.013673099664349,1.9187213617313843,-0.0404225562595607
15.03,-0.0012516007058835,1.9325985789708755,-0.0382167070226759
15.039999999999992,0.0277813943805627,1.9401916773775771,-0.0401200991206816
15.050000000000011,0.0734804946208797,1.9505765408815745,-0.0436971564726257
15.060000000000002,0.1095715515482483,1.9579491135766725,-0.0485281711301539
15.069999999999991,0.129842715955056,1.9614709948892397,-0.0523458229027848
15.080000000000013,0.1331929067317609,1.981845746105373,-0.0426552140853506
15.090000000000003,0.140170879235842,1.998334752409486,-0.023330483259225
15.099999999999994,0.1459225977124124,2.01838102208137,0.0119496260000506
15.110000000000014,0.1555884536872689,2.032625205496952,0.0388203808049369
15.120000000000005,0.1771251127215596,2.0556707575826136,0.0779563963740364
15.129999999999995,0.2099016359647809,2.0676606862957128,0.0931402357147206
15.140000000000017,0.2418117049670378,2.0719601589647016,0.0922870503682685
15.150000000000006,0.2692323422333935,2.08087701893524,0.0830938810603601
15.159999999999997,0.2693899933527708,2.095655343942992,0.0541206885526101
15.170000000000016,0.2525827702192234,2.117318176692783,0.0326020668679677
15.180000000000009,0.234603756336154,2.143532099931752,0.0237382701465336
15.189999999999998,0.2014945687562289,2.1738704135345843,0.0275745389011483
15.199999999999989,0.1701417008703844,2.1892653938447992,0.0414767112810152
15.210000000000008,0.1400666940488772,2.205495604977233,0.0614064922332672
15.22,0.1229566050924206,2.2082257679252857,0.0769935700326103
15.22999999999999,0.1127589318116326,2.207880780036444,0.0925302105402234
15.240000000000007,0.1095148780073516,2.2099267651747327,0.100828615338688
15.25,0.0979216862174261,2.210691830498948,0.1111814798627369
15.259999999999993,0.0907492394975348,2.223982925953087,0.1123736238386066
15.27000000000001,0.0836239360503618,2.2374335669178125,0.1218704317920459
15.28,0.0519726205877444,2.2513602339222603,0.1363710683483001
15.289999999999992,0.0342504435531917,2.272779404760835,0.1601307971328468
15.300000000000011,0.0106138737431379,2.2934941318108164,0.1659787701752098
15.310000000000002,-0.0075343348200249,2.3189437849507395,0.1752559166893504
15.319999999999991,-0.0271543804941882,2.3324942493880547,0.1818437669725795
15.330000000000013,-0.036397896155786,2.346006591316169,0.1903553686334758
15.340000000000003,-0.0374673848598516,2.3575398649202466,0.1973458822269751
15.349999999999994,-0.0407750181217351,2.374976997694338,0.2211981100773606
15.360000000000014,-0.0346150519125111,2.3803812969427893,0.2414390549352112
15.370000000000005,-0.01794121810125,2.398183999991325,0.2553021348696903
15.379999999999995,-0.0097237198006412,2.4180428562934604,0.2704196249103697
15.390000000000017,-0.0093870737834396,2.42371495438876,0.2871698236227042
15.400000000000006,-0.0145418198285089,2.4154389619344925,0.2979392399949148
15.409999999999997,-0.0332052138596187,2.408231303518085,0.2925268829538722
15.420000000000016,-0.0362769439812761,2.398177316911139,0.297915494822453
15.430000000000009,-0.0342514417681177,2.38637677406513,0.3116243658040264
15.439999999999998,-0.0333320284238958,2.374205394763952,0.3243243297570474
15.449999999999989,-0.0194949502457557,2.3573618667511176,0.3317210369585471
15.460000000000008,-0.0008428851716172,2.3438412990953963,0.3396057246835082
15.47,0.0203219663354165,2.318443145742548,0.33623850382096
15.47999999999999,0.0332717933507887,2.2968781157541094,0.3480270918411006
15.490000000000007,0.0383212226060193,2.259005488086339,0.3626501867240677
15.5,0.0414071711640898,2.232127484534732,0.3744120198991267
15.509999999999993,0.0359037682858966,2.193804537586965,0.4059314048755623
15.52000000000001,0.0274856993908617,2.1597091560060844,0.4251354540120092
15.53,0.0353242078410492,2.1238723140217823,0.4392421762942718
15.539999999999992,0.0558595611118997,2.093576237515208,0.4214746005403911
15.550000000000011,0.0685298212914985,2.0505327469910104,0.3993316071545041
15.560000000000002,0.0684541218747491,2.0143142929121933,0.3717497161252114
15.569999999999991,0.0526985030911096,1.9757586714223008,0.3520936452266185
15.580000000000013,0.0258493967578073,1.9257204044117824,0.341125172362222
15.590000000000003,0.0127418166898108,1.9024367043921608,0.3292418974697368
15.599999999999994,0.0046295920050303,1.8858366544786624,0.325225555201159
15.610000000000014,0.0148129562769618,1.861520397393693,0.3010605171070735
15.620000000000005,0.0175776142084875,1.8393667678612768,0.2677212065732795
15.629999999999995,0.0149041228678679,1.8191208002397712,0.2458075216752257
15.640000000000017,0.0164296623483537,1.7916723534396146,0.2283015613103481
15.650000000000006,0.0066638265245158,1.769096036674464,0.2072659073443785
15.659999999999997,-0.012538002386263,1.7437245523330276,0.1926690064606153
15.670000000000016,-0.0281878355164288,1.7286653340998783,0.1954007769512325
15.680000000000009,-0.0319388875505461,1.7084634822618792,0.19118749137156
15.689999999999998,-0.0382571135306352,1.709643653708539,0.1761475521918874
15.699999999999989,-0.0307878590827724,1.7147712248754046,0.160190926703651
15.710000000000008,-0.0350696579820616,1.7224033338463307,0.1244717199250229
15.72,-0.0351166925622903,1.723840832235932,0.1013063262810589
15.72999999999999,-0.0428899370262538,1.719458587102656,0.0714420066857308
15.740000000000007,-0.0432570846444847,1.7232506820390636,0.0457202853410998
15.75,-0.0347568267357375,1.727042717334664,0.0216888563231822
15.759999999999993,-0.0318409042605276,1.7495721338329937,-0.0079610851165789
15.77000000000001,-0.0362685795481148,1.7649316790978222,-0.0269776834714671
15.78,-0.047909794214709,1.769083077716246,-0.0429167571164605
15.789999999999992,-0.0865489402689833,1.75704570676452,-0.0510956306711116
15.800000000000011,-0.1355753445720574,1.7363493650344868,-0.0638368615714329
15.810000000000002,-0.1878477093049283,1.707485847413461,-0.0658236527466471
15.819999999999991,-0.2490975099460096,1.6826401196734189,-0.077223834945639
15.830000000000013,-0.2912388075301667,1.6510310490222029,-0.0819078047320691
15.840000000000003,-0.3031234303853538,1.6216588927705025,-0.0978575079990369
15.849999999999994,-0.2919878756096024,1.596612252359348,-0.1130661796731129
15.860000000000014,-0.265743796261839,1.5761273162202611,-0.1408699080639227
15.870000000000005,-0.2420898233227801,1.5525530093314706,-0.1722310836047708
15.879999999999995,-0.2436460437230694,1.526563228213866,-0.1975734530141792
15.890000000000017,-0.2436510763240556,1.518407487177475,-0.2300807868581415
15.900000000000006,-0.2573276566050721,1.5004946857741528,-0.2436655416273637
15.909999999999997,-0.2723570587437672,1.483656945330716,-0.2488101549306665
15.920000000000016,-0.2762246285890384,1.498305399639048,-0.2456256961384128
15.930000000000009,-0.2720443674097819,1.5155624233378209,-0.2382990267580728
15.939999999999998,-0.2337396465099836,1.527476750673112,-0.2372317174163938
15.949999999999989,-0.113989921466791,1.5189395406068833,-0.2493605129082306
