time,Gyr_X,Gyr_Y,Gyr_Z
0.0,-0.0169848121623413,-0.0002887846686139,-0.0137641876926237
0.009999999999998,-0.0145349057284048,-0.0090835376344946,-0.011744327210497
0.019999999999996,-0.0116966833348718,-0.0052871438684576,-0.0076881509066134
0.0300000000000011,-0.0163152490261052,0.0006442489224377,-0.0077029889170144
0.0399999999999991,-0.0190626819380364,-0.0049581166162253,-0.0048976542795247
0.0499999999999971,-0.0189347699254296,-0.003365185470344,-0.0081613162724067
0.0600000000000022,-0.0185388915473829,-0.0039892094726033,-0.0058126065023583
0.0700000000000002,-0.0181196956882282,-0.0027012429274771,-0.0080183320195616
0.0799999999999983,-0.0186269442312386,-0.0035128784948562,-0.0111852867299668
0.0899999999999963,-0.0195766244213288,-0.000816565494647,-0.0190750876598915
0.1000000000000014,-0.0197453429567114,-0.0039999606446102,-0.0222756889769556
0.1099999999999994,-0.0156138433791973,-0.0069934259629512,-0.0227782498391388
0.1199999999999974,-0.0203648328688104,-0.0035495121067305,-0.0225350138463711
0.1300000000000025,-0.0185400471543797,0.0048901582520594,-0.0213337622934734
0.1400000000000005,-0.0200346567915531,0.0044194163222993,-0.0188385446798983
0.1499999999999985,-0.0194118410347214,-0.0042691653398322,-0.0146165647715177
0.1599999999999966,-0.0183255663366644,-0.0057283783129151,-0.0080613751774036
0.1700000000000017,-0.0154063481972527,-0.0036638827604619,-0.0048979848447857
0.1799999999999997,-0.0199916937941711,-0.0051249849055014,-0.0039214141467923
0.1899999999999977,-0.0200194755387157,0.0010193090434929,-0.007857338433709
0.2000000000000028,-0.0179817058538032,-0.0046966695424993,-0.0105283689480038
0.2100000000000008,-0.0145448169082889,6.174086397072068e-05,-0.0172827139201266
0.2199999999999988,-0.0132660651228426,0.0027923608114297,-0.0210639419234915
0.2299999999999968,-0.0194654598204845,-0.0056783715166494,-0.0174244531408794
0.240000000000002,-0.0185303299757174,-0.0042138957890229,-0.0090535735403635
0.25,-0.021105666891482,-0.004034754297726,-0.010398046638857
0.259999999999998,-0.0236850872216828,-0.0077822237126099,-0.0109582093813135
0.269999999999996,-0.0191885170631115,-0.0031152058101376,-0.0152271626486059
0.2800000000000011,-0.020102115359615,-0.0026574830980043,-0.0144905588025637
0.2899999999999991,-0.0174863043852578,0.0036074302344364,-0.0171078294056026
0.2999999999999971,-0.0180824224354602,0.003959511957776,-0.0149224293139429
0.3100000000000023,-0.0191068575661467,-0.0034282213408455,-0.0183419674900809
0.3200000000000003,-0.0184906210181437,-0.0056252718544795,-0.011914980045356
0.3299999999999983,-0.0175126520055551,-0.0003147743029289,-0.0105520287492918
0.3399999999999963,-0.0169532110190299,-0.0077526460756598,-0.0099674085028303
0.3500000000000014,-0.019893667607243,-0.0039027552839919,-0.0094455720699374
0.3599999999999994,-0.0209359975041985,-0.0066209253702642,-0.0054723765781885
0.3699999999999974,-0.0279671041244224,-0.0058551937970948,-0.0078362971584502
0.3800000000000025,-0.0228855162113952,0.000119024120484,-0.0122845642299978
0.3900000000000005,-0.0252171770144794,-0.0029261556462091,-0.0270008671155206
0.3999999999999986,-0.0211122646844686,-0.0033210707011023,-0.032369253157605
0.4099999999999966,-0.0309995187622453,-0.0084790878065775,-0.0329142256646425
0.4200000000000017,-0.0435135295501027,-0.0051823210150674,-0.0253445199717374
0.4299999999999997,-0.0345145188433163,-0.0015178780893934,-0.0144219140950158
0.4399999999999977,-0.0155935059569998,-0.0026555231396001,-0.0043437966930727
0.4500000000000028,-0.0074881222391866,-0.0024824513300695,0.0065785053338202
0.4600000000000008,-0.0072252038265008,-0.0031160819113385,0.01047776193088
0.4699999999999988,-0.0209534294571955,-0.0106880518207516,0.0161551417468461
0.4799999999999969,-0.0191289325805571,0.0024045893094317,0.0145884609258165
0.490000000000002,-0.0334696075394591,0.0085818326525416,0.0149579746157031
0.5,-0.0209969803671111,0.0037741670213929,0.0062598831976635
0.509999999999998,-0.017210457203498,0.0090271626819038,0.0008363428456595
0.519999999999996,-0.0174256424956387,-0.003124206335376,-0.0035716860283389
0.5300000000000011,-0.016775417848828,-0.0006868006917588,-0.007660732748217
0.5399999999999991,-0.0266909014755774,0.0015163949418381,-0.0083800526162392
0.5499999999999972,-0.0428876234671717,-0.0069525363470684,-0.0051377146368026
0.5600000000000023,-0.047022348389717,-0.0013925464851929,-0.0090483453166165
0.5700000000000003,-0.0430359650873875,-0.0020786031686889,-0.0103877861202576
0.5799999999999983,-0.0339500294967884,0.0040997806401066,-0.0092133890761348
0.5899999999999963,-0.0277345233229826,0.0078862676164406,0.0021470290084814
0.6000000000000014,-0.0189016274844379,0.0021785779402764,0.0233796550029856
0.6099999999999994,-0.0162744648403397,-0.0026388929034587,0.0328425412515804
0.6199999999999974,-0.0168677465801501,-0.0116608177042461,0.0379185587969292
0.6300000000000026,-0.0183263071867363,-0.0132390275384576,0.0468568545497855
0.6400000000000006,-0.0190773955653845,-0.0031302734317166,0.0572207245505981
0.6499999999999986,-0.0292340105735596,-0.0018827770970412,0.0605712974302179
0.6599999999999966,-0.037226643155601,0.0089447510695454,0.0735025260340808
0.6700000000000017,-0.0404747970144251,0.0039065875464361,0.0777867455192883
0.6799999999999997,-0.0420879440874879,-0.0080870284716482,0.0915214891780484
0.6899999999999977,-0.0349551258074074,-0.017672463762402,0.0926180486720748
0.7000000000000028,-0.023826748036331,-0.0421894389753263,0.0879261645031755
0.7100000000000009,-0.0228943539803226,-0.0627966951959506,0.0944023825221869
0.7199999999999989,-0.0241735724477634,-0.0881316014616062,0.103273487968447
0.7299999999999969,-0.0203039245463598,-0.1245450125192053,0.1030828000821697
0.740000000000002,-0.0098372313712388,-0.1688328606388894,0.09506923215666
0.75,0.0055479850912925,-0.2019381574222457,0.0831313080824591
0.759999999999998,0.0120273317564313,-0.2440078142410613,0.0685375337442494
0.769999999999996,0.0370242827004292,-0.2686257002431401,0.0628625735147694
0.7800000000000011,0.0518894423681318,-0.2968647173529607,0.0622966895044326
0.7899999999999991,0.062927338100239,-0.3300747772915541,0.0570811304307295
0.7999999999999972,0.0882400557597687,-0.3639354598915545,0.0653042267288704
0.8100000000000023,0.1146657068849214,-0.4021245892868525,0.0663528302549447
0.8200000000000003,0.1440269127129802,-0.4340173593467777,0.0550869990818825
0.8299999999999983,0.1907612510786263,-0.4566525096026688,0.0520616359928415
0.8399999999999963,0.2515280566758645,-0.4490004783929781,0.0383915377194547
0.8500000000000014,0.2952979628405896,-0.4298400383597841,0.0242523900066168
0.8599999999999994,0.3008472030974698,-0.4193840136047407,0.0091880379483629
0.8699999999999974,0.283592254271167,-0.3783891489511736,0.0012134923812914
0.8800000000000026,0.2705044561597771,-0.3487182016125594,0.0048536396263611
0.8900000000000006,0.2813512910033465,-0.2977454085013276,0.0068771330136072
0.8999999999999986,0.3053656428089941,-0.2260420101168124,0.0178337338079596
0.9099999999999966,0.3299644247387778,-0.1536163774585966,0.0305485514571593
0.9200000000000016,0.3426826902631958,-0.053074342408872,0.043955782803965
0.9299999999999996,0.3567033704006907,0.0472568129789092,0.0604313810376965
0.9399999999999976,0.351826571671603,0.1481960540088298,0.0775862643803826
0.9500000000000028,0.342869961263357,0.2416454451250905,0.094098992703374
0.9600000000000009,0.3094499012206785,0.3246482311153996,0.105522232303357
0.9699999999999988,0.2638338292380419,0.3922342572427671,0.1182819561457359
0.9799999999999968,0.2121141579137422,0.4375954689607024,0.1443859388754282
0.990000000000002,0.1760385425361926,0.4785265282781394,0.1608715116664384
1.0,0.1362541643436534,0.511337714727093,0.1847092723311673
1.009999999999998,0.1015859346795221,0.5445347631251111,0.1971752096774642
1.019999999999996,0.0782856206841464,0.5682065982356534,0.1955365100578271
1.0300000000000011,0.0553440162208385,0.59457837478221,0.1895065334173157
1.0399999999999991,0.0484264695272446,0.6201580211997161,0.1676355222526397
1.0499999999999972,0.029124366608847,0.6211713467628747,0.1549444906851557
1.0600000000000025,0.0083132562669654,0.6182364283404513,0.1409003609253843
1.0700000000000005,-0.0001326621427178,0.596921252396934,0.1171602250322786
1.0799999999999983,-0.009396939327504,0.577533595408379,0.0917883038465942
1.0899999999999963,-0.0223819605514656,0.5526693576688004,0.0625608504786315
1.1000000000000014,-0.0406579472860095,0.5214714160576688,0.0412585823616665
1.1099999999999994,-0.0818445984000482,0.4710211449015306,0.0291978744436735
1.1199999999999974,-0.1219776168456776,0.4295293295807937,0.0139373706813048
1.1300000000000026,-0.1597074813608216,0.3862602901791399,0.0090377007032548
1.1400000000000006,-0.1905218717414827,0.3404462561955169,0.0068285054817784
1.1499999999999986,-0.2137667365881508,0.3029224589736989,-0.0025081807166783
1.1599999999999966,-0.2035274317051752,0.2704315983740365,-0.0082484202726558
1.1700000000000017,-0.1781869940882319,0.2451306709359417,-0.0166505273832966
1.1799999999999995,-0.1207435399756421,0.2340018461482234,-0.0262459213137568
1.1899999999999975,-0.0587818688718838,0.225530143097379,-0.0323057923188174
1.2000000000000028,-0.0134829363001713,0.2214842797578452,-0.0456188956036153
1.2100000000000009,0.0312131560914402,0.2306945223607876,-0.0616184743554609
1.2199999999999989,0.053805618356648,0.2324284432709101,-0.087924057555135
1.2299999999999969,0.0777262466275762,0.2425413036864439,-0.11492491660434
1.240000000000002,0.1182062030836299,0.2325333941368304,-0.1308849955094729
1.25,0.1330443017334063,0.2337488117283015,-0.144621673229149
1.259999999999998,0.1612272341519955,0.2249474938371801,-0.1563972843691047
1.269999999999996,0.1752058421230301,0.221486990094795,-0.1769433422584714
1.2800000000000011,0.1907204979842066,0.2149464850845596,-0.1876292687625663
1.2899999999999991,0.1863347389301198,0.1948545910829371,-0.1998742442705047
1.2999999999999972,0.178166253654066,0.1878733243525029,-0.213772472663358
1.3100000000000025,0.163109204746524,0.1750072327119689,-0.2191393342432182
1.3200000000000005,0.1382774025612503,0.1506935165333378,-0.2230092165575572
1.3299999999999983,0.1350412359454841,0.1402047211024639,-0.2264091010946557
1.3399999999999963,0.1282247843120408,0.1125438298134405,-0.2176494527977354
1.3500000000000014,0.1447472134074319,0.0957850249031706,-0.2194711731117796
1.3599999999999994,0.1654332818255215,0.080879500490747,-0.2235496109447322
1.3699999999999974,0.1798973840451311,0.0520355874224207,-0.2374955186402577
1.3800000000000026,0.1895325399225647,0.0326252179409354,-0.2475392387679711
1.3900000000000006,0.1887459786557383,0.0114737109420097,-0.2513603045962239
1.3999999999999986,0.1845529528421807,-0.0084573559265407,-0.2666968153183552
1.4099999999999966,0.1693752656155846,-0.0340808735157269,-0.2694047622877892
1.4200000000000017,0.1649355915980547,-0.049496402883251,-0.276549871908998
1.4299999999999995,0.168370248988449,-0.0609005617890951,-0.2734241511845803
1.4399999999999975,0.1610521693241787,-0.0680238768425566,-0.2856106704717865
1.4500000000000028,0.1701492088331669,-0.0688886806890753,-0.296222860628804
1.4600000000000009,0.1591128568570722,-0.0720314882353913,-0.3107414673487908
1.4699999999999989,0.1420146099480368,-0.072247503892358,-0.3273900157048002
1.4799999999999969,0.1315668807590053,-0.0648071213839337,-0.3327964558397797
1.490000000000002,0.1312504824967784,-0.0626853812711452,-0.3341692868178461
1.5,0.1151280314620043,-0.0497300278328359,-0.3256294368195134
1.509999999999998,0.1098986047485971,-0.0501939468644826,-0.3311947014343674
1.519999999999996,0.1076647894891884,-0.0429212819581152,-0.3279017555015782
1.5300000000000011,0.0897871118160705,-0.0510971336874071,-0.3221991644726372
1.5399999999999991,0.0807053182662569,-0.0537465305017998,-0.3085126917525441
1.5499999999999972,0.0791871436786381,-0.0632612134031635,-0.2898573795720521
1.5600000000000025,0.0735421734761792,-0.0623448364388665,-0.2666656949393488
1.5700000000000005,0.0525186310839333,-0.062368735436297,-0.246654362688547
1.5799999999999983,0.0215499242102831,-0.0698639277773537,-0.2171773424373788
1.5899999999999963,-0.0247598736615775,-0.0781075771583146,-0.1912914916523304
1.6000000000000014,-0.0697355593567368,-0.0824779602394705,-0.1654714676558827
1.6099999999999994,-0.1059077849805883,-0.0948280481599654,-0.1385182838415861
1.6199999999999974,-0.1413864910653726,-0.1085356882087908,-0.117770039890482
1.6300000000000026,-0.1543099295460404,-0.1239799174038902,-0.0956634348667228
1.6400000000000006,-0.1527596949675729,-0.1196141550601202,-0.0754892178235499
1.6499999999999986,-0.1489341746298141,-0.1341891879944433,-0.0502966791507182
1.6599999999999966,-0.1261462719272939,-0.14408012979845,-0.0267567587548497
1.6700000000000017,-0.1253398824407312,-0.1606616891388952,-0.0046524363887908
1.6799999999999995,-0.117833159949892,-0.1798423650967795,0.0164524118512929
1.6899999999999975,-0.122506945541421,-0.1913518198026426,0.0554884276447341
1.7000000000000028,-0.1239099858902282,-0.2122316945621311,0.0852264753032917
1.7100000000000009,-0.1234766707522875,-0.2207935352277749,0.1154273602620765
1.7199999999999989,-0.1219399688184416,-0.2182940127152379,0.1477550484675037
1.7299999999999969,-0.1062381843182054,-0.21596430308254,0.1798319616076142
1.740000000000002,-0.0830639473380557,-0.2022434898589504,0.2074465779391847
1.75,-0.0565176626588939,-0.1763987621755083,0.2405056985885682
1.759999999999998,-0.0411426759253494,-0.1381429468767615,0.2756453350154911
1.769999999999996,-0.0455502210367586,-0.1032808003912517,0.3163296270468677
1.7800000000000011,-0.0574285885581422,-0.0596628319868749,0.3639504072674794
1.7899999999999991,-0.0758036598122324,-0.0255443146014504,0.4024071856682149
1.7999999999999972,-0.1037576292569007,0.015594757804265,0.4540410148057002
1.8100000000000025,-0.1176582696205437,0.0438511325878953,0.5015680030717449
1.8200000000000005,-0.134410544921608,0.0721611728022483,0.5377207482543483
1.8299999999999983,-0.1332734213731327,0.1007522675590189,0.5748140692183895
1.8399999999999963,-0.1130300564999072,0.1382408665329624,0.6062701800650917
1.8500000000000012,-0.088792018169653,0.1653795662051352,0.6234147115385785
1.8599999999999997,-0.0766234657234705,0.1877481287588799,0.6405238228395979
1.8699999999999972,-0.0780501104200949,0.1958360373559903,0.6541878009441328
1.8800000000000023,-0.0995752661561632,0.1924720475698382,0.6646632041045618
1.8900000000000008,-0.1313551299673302,0.1807625328350054,0.6560695311059762
1.8999999999999984,-0.148145169672534,0.1702481065777917,0.6425240342464019
1.9099999999999968,-0.1541785240873654,0.1541800794861817,0.6282339215071586
1.9200000000000017,-0.1336252004581473,0.1274739723737618,0.6085775025287357
1.93,-0.1161550908892471,0.1075015240957752,0.5854802559029149
1.9399999999999975,-0.0798396880150739,0.0965990401065699,0.5558671088757869
1.9500000000000028,-0.0479610569497508,0.0786234991483977,0.5346794284636757
1.9600000000000009,-0.0003023916098638,0.044746950673351,0.5113595974694184
1.9699999999999989,0.0317272865593142,0.0209885306107412,0.4872786348000579
1.9799999999999969,0.0690926379306476,-0.0115156874107483,0.4746914241081378
1.990000000000002,0.0963751457241181,-0.0349583730387182,0.4613848808599319
2.0,0.116722432552442,-0.0665773941795239,0.4587756267916383
2.009999999999998,0.1209799008884045,-0.0896063553306248,0.446729048905906
2.019999999999996,0.130241107841333,-0.1148460697275265,0.4458755446087309
2.030000000000001,0.1339330282963955,-0.1429544573775828,0.4484700189626386
2.039999999999999,0.1388375913557548,-0.1643431745534174,0.4428008027539706
2.049999999999997,0.1281144104539894,-0.2009301371988536,0.4509792753038864
2.0600000000000023,0.1178286026240575,-0.2200386315006467,0.436538747955232
2.0700000000000003,0.1159339218941231,-0.2288983147607024,0.425910524628799
2.0799999999999983,0.115484921993362,-0.240512703968712,0.4134014541474747
2.0899999999999963,0.1116242709422953,-0.2470173075299842,0.387755343491966
2.1000000000000014,0.1115360730335886,-0.253802041274195,0.3732624203911913
2.1099999999999994,0.1103008312184065,-0.2517120972401227,0.352329836552423
2.119999999999997,0.1123850187221769,-0.2556552967444558,0.3308803435377072
2.1300000000000026,0.1110840160783618,-0.258806045847721,0.3168647274165673
2.140000000000001,0.1061036341895296,-0.2693113340920654,0.3082801437453853
2.1499999999999986,0.1061820774865223,-0.2727483031656839,0.3000281869693866
2.1599999999999966,0.106276226525317,-0.2780364126885397,0.2983797613469718
2.1700000000000017,0.1095991514396312,-0.2844321457359149,0.3036441105477107
2.18,0.1209152199209962,-0.2827366120032809,0.3082759428578657
2.1899999999999977,0.1328847089489167,-0.2718719806515883,0.3171795501556317
2.200000000000003,0.134772687725168,-0.2712159050974472,0.3246866570868802
2.210000000000001,0.1202010292249471,-0.2571932043629772,0.3388592148442992
2.219999999999999,0.1012573988012253,-0.2334982032405659,0.3432913780082445
2.229999999999997,0.0876718427826127,-0.207225316699971,0.3504913901098412
2.240000000000002,0.0867069109648938,-0.1868716619777986,0.3577677694927237
2.25,0.0841694996989072,-0.1581906957087595,0.3528666042692856
2.259999999999998,0.0901227800615145,-0.1273642553155294,0.3602040554814457
2.269999999999996,0.1170475609315693,-0.088146956889118,0.3699093537168233
2.280000000000001,0.1298237184136283,-0.0563816791581509,0.3765196195244324
2.289999999999999,0.1383326601472592,-0.0287544677612303,0.3944398265880097
2.299999999999997,0.144268546891289,-0.002949862283483,0.4006960418963943
2.3100000000000023,0.1273977688475462,0.0207607669843511,0.4053300969136941
2.3200000000000003,0.1095594344705394,0.0559653489083582,0.4114118374948491
2.3299999999999983,0.1087051893691426,0.0855452653326825,0.418073564487345
2.3399999999999963,0.0912235882338295,0.1152237356119353,0.4137831382038699
2.3500000000000014,0.0934146467781267,0.1412262314787952,0.4181345428335388
2.3599999999999994,0.0952865051984568,0.1640055637479932,0.4154236776392379
2.369999999999997,0.0956593436867457,0.192344295639422,0.4180726272822541
2.3800000000000026,0.0915250995502303,0.221688362879792,0.434210066373374
2.390000000000001,0.0824739940623358,0.2494343757912318,0.433032371984646
2.3999999999999986,0.072245780296471,0.2772349873737489,0.43865542780716
2.4099999999999966,0.0557789022244607,0.3053519940262302,0.4368592113296082
2.4200000000000017,0.0288932645436848,0.3356565189416697,0.4256288419330898
2.43,-0.006694276481421,0.3596467256713828,0.4331789205990254
2.4399999999999977,-0.0234844742810568,0.371824630307781,0.4316101407546227
2.450000000000003,-0.0313679348982161,0.3861697235501825,0.4427317598781897
2.460000000000001,-0.0423092551722315,0.4139287063919905,0.4603424316366059
2.469999999999999,-0.0540167313128408,0.4319624257150719,0.4670626806504514
2.479999999999997,-0.0535509958795172,0.4704740395023475,0.4779770139344288
2.490000000000002,-0.0512360472687124,0.5008312149603814,0.4972722313054779
2.5,-0.0338652129154751,0.5151632209474039,0.5135948356737305
2.509999999999998,-0.0134050383862267,0.5289891807199781,0.532533867828272
2.519999999999996,-0.0108045700919471,0.5211771379584561,0.5642414494958008
2.530000000000001,-0.01084646774207,0.5330287037850729,0.5722571207626332
2.539999999999999,-0.0243218201627831,0.5241001055731729,0.5844655635552832
2.549999999999997,-0.0511819627686191,0.5170645052397842,0.5945726937747783
2.5600000000000023,-0.0996977991580095,0.5198234108835521,0.6038710811773655
2.5700000000000003,-0.1390178199261691,0.5153590566424995,0.6105487278677625
2.5799999999999983,-0.1834807071878062,0.4965166207276484,0.6194818184742377
2.5899999999999963,-0.204195897385663,0.491899461819496,0.6226344502349026
2.6000000000000014,-0.2020389127580357,0.4757740957287505,0.6169594490510574
2.6099999999999994,-0.1829868984789457,0.4493188299956254,0.5996256546872794
2.619999999999997,-0.1535431473040316,0.4257139351241489,0.5864849344334504
2.6300000000000026,-0.1136616206812528,0.3907668855557146,0.5695053842360506
2.640000000000001,-0.0778194551471084,0.3553271669642117,0.5518214355909823
2.6499999999999986,-0.0335971113068462,0.33031095460925,0.5379428789578136
2.6599999999999966,0.0125637454620982,0.3039466253447006,0.51734975350826
2.6700000000000017,0.063261231362089,0.2917586730887526,0.4973386489135668
2.68,0.0907316164325436,0.2686149659491408,0.4802009561028715
2.6899999999999977,0.1206570433655094,0.262137140008798,0.4669972619140441
2.700000000000003,0.1213189379894223,0.2505660568771212,0.4666281808080467
2.710000000000001,0.1183415403597627,0.2365125560430793,0.476997559146905
2.719999999999999,0.1027012032478034,0.2313522406780035,0.4884537515374735
2.729999999999997,0.0838643149169677,0.2238716260456761,0.5046316645122542
2.740000000000002,0.0435068507440335,0.2178078125525336,0.5259141972300785
2.75,0.018032641579312,0.2094825569689019,0.5470884122727523
2.759999999999998,-0.0235927119252632,0.2049929273647081,0.5515391789968759
2.769999999999996,-0.0769914793887892,0.1843021282256444,0.5665183968606987
2.780000000000001,-0.1100462761659975,0.1776375022513897,0.5735097386933932
2.789999999999999,-0.1214259300157048,0.1566683721433514,0.5771520407929923
2.799999999999997,-0.1152136313042621,0.1382035608699569,0.581769336304576
2.8100000000000023,-0.1135086627937348,0.1266871966382066,0.5790709727941552
2.8200000000000003,-0.1097602930908717,0.1110431723603986,0.5628538548797638
2.8299999999999983,-0.1080556954585706,0.0949323339973635,0.558804518824285
2.8399999999999963,-0.1029691164871412,0.0724394691904865,0.5483710886506903
2.8500000000000014,-0.1051378157053524,0.0483701836161682,0.5542552573968419
2.8599999999999994,-0.1190547174637985,0.0090073988428115,0.5705856759304856
2.869999999999997,-0.1411569746727732,-0.0136558690752428,0.5872894207580709
2.8800000000000026,-0.1536023758254072,-0.0457351062768096,0.5978925945631826
2.890000000000001,-0.1730022461449532,-0.0560174962806666,0.5952573830308465
2.8999999999999986,-0.1906753227323749,-0.0836034290546295,0.5863930650879109
2.9099999999999966,-0.2070546556386962,-0.0892600735262728,0.5764936885954415
2.9200000000000017,-0.2118919760022841,-0.0935592048540947,0.562608781191012
2.93,-0.1974979993963237,-0.107504156493893,0.5567488087956483
2.9399999999999977,-0.1864182115195079,-0.1223038888317449,0.5583746411793523
2.950000000000003,-0.1662397256545613,-0.1393434752093437,0.5639063006469519
2.960000000000001,-0.143537932841037,-0.1575087952216518,0.5807200630767864
2.969999999999999,-0.1131917881381657,-0.1748214464226151,0.598409702529833
2.979999999999997,-0.0787885761942831,-0.1858522389812091,0.6040972154179112
2.990000000000002,-0.0531112118183734,-0.1863512106679878,0.606887736448444
3.0,-0.0369833791505018,-0.1718175191871468,0.6012204240274878
3.009999999999998,-0.0254018289252258,-0.1598847251969,0.5825870225632725
3.019999999999996,-0.0144506905340876,-0.1514236830848261,0.582301587760306
3.030000000000001,-0.0141628784127802,-0.1337690378276747,0.5746702883118987
3.039999999999999,-0.0246119639139966,-0.1351049822061596,0.5880451367820062
3.049999999999997,-0.045708195537423,-0.1209826599872287,0.597766521966977
3.0600000000000023,-0.0657622199201924,-0.0978010488160873,0.6029737735674253
3.0700000000000003,-0.0850765283222327,-0.0885287605346895,0.6077129571718723
3.0799999999999983,-0.0673063166615813,-0.0701008237051662,0.6086526878795488
3.0899999999999963,-0.0517514854311132,-0.0474977580337618,0.6049925473632948
3.1000000000000014,-0.0294979593892081,-0.0160815706903603,0.5913938025085671
3.1099999999999994,0.01039420888837,0.0190824014781481,0.5853309893204997
3.119999999999997,0.0458810138162631,0.0473092790536064,0.5746644254978619
3.1300000000000026,0.0885501440140116,0.0878131953054575,0.5671858800824061
3.140000000000001,0.1241421731531411,0.1286625853356623,0.5493351006933417
3.1499999999999986,0.1529663554890821,0.1793959812680229,0.5323416883783089
3.1599999999999966,0.1819252621799051,0.231229787389362,0.5122251404290479
3.1700000000000017,0.1845692928224697,0.2536110682724119,0.5050710053912112
3.18,0.1619678022959057,0.2831455901489039,0.4982455052574213
3.1899999999999977,0.1277640018641901,0.2845195645685973,0.5089577741557942
3.200000000000003,0.0806640350679601,0.2751565058705954,0.5218686004073662
3.210000000000001,0.0432204876662841,0.252226994465542,0.543826211913378
3.219999999999999,0.017162346854461,0.2241562462475997,0.553492540597558
3.229999999999997,-0.0067350748560654,0.2065172116291544,0.5545104297735697
3.240000000000002,-0.0250906914031594,0.1880804294003863,0.5660360824868605
3.25,-0.0333835212256979,0.1776716658049738,0.5589509851678626
3.259999999999998,-0.0263214830716574,0.1628617811189431,0.5530210938959694
3.269999999999996,-0.0027437114907345,0.148630100298252,0.5422328670565443
3.280000000000001,0.0168464505779377,0.1381611123117006,0.5234501620273434
3.289999999999999,0.0377275351087157,0.1133105145440328,0.524411001608162
3.299999999999997,0.0462603960257081,0.0859309078949192,0.5264149455175035
3.3100000000000023,0.0600122962578268,0.0622141851246271,0.5448914096038299
3.3200000000000003,0.0592361801699918,0.0481471952971532,0.557168712329322
3.3299999999999983,0.0324607357827598,0.01768922373214,0.5902954543585339
3.3399999999999963,0.0111550864906359,-0.0074088361027122,0.6148644033343205
3.3500000000000014,-0.0030953199454178,-0.0317147510951177,0.6316438684978813
3.3599999999999994,-0.0016679876782652,-0.0521129269547116,0.6533153950034986
3.369999999999997,0.0040734744693884,-0.0571376608450734,0.6610060951673751
3.3800000000000026,0.0037485896702587,-0.0683620108303933,0.6745929700982419
3.390000000000001,0.0068506873196826,-0.065920481416211,0.6780415767294504
3.3999999999999986,0.0016491188629744,-0.0577769195161205,0.6769157888490485
3.4099999999999966,0.009392206444008,-0.0532092295238083,0.6765045117957015
3.4200000000000017,0.0302544002377714,-0.0336510285231093,0.684081200809191
3.43,0.0298339255374354,-0.0277632074589376,0.6895648640694674
3.4399999999999977,0.0349875322229592,-0.0120184532249942,0.6921491179046592
3.450000000000003,0.0394512670241714,-0.0019521554888255,0.6903036914188843
3.460000000000001,0.0198769050936965,-0.0012051393155712,0.7010767070587411
3.469999999999999,-0.001802639527677,0.0249596961492076,0.7053722167794676
3.479999999999997,-0.0282265315712624,0.0317818116756639,0.715714403151656
3.490000000000002,-0.0512659524951722,0.0448234348708031,0.7333927745282339
3.5,-0.0611449155322305,0.0535345876190463,0.7471077367578766
3.509999999999998,-0.0651846652964092,0.0686237630628072,0.7532197696177773
3.519999999999996,-0.0699430656599132,0.0910834636074095,0.7570671462980503
3.530000000000001,-0.0586453535973798,0.1085055312958493,0.745791783110348
3.539999999999999,-0.0562452219282173,0.1121739958715611,0.7403393559470327
3.549999999999997,-0.074563946768567,0.124532207814342,0.7295384310175838
3.5600000000000023,-0.0889059396906046,0.1216647682004135,0.7257842777834168
3.5700000000000003,-0.0908027338178018,0.1245588952891772,0.7162400291074564
3.5799999999999983,-0.1006847032721197,0.129126650580259,0.7070907669153683
3.5899999999999963,-0.0825023294118534,0.1292771691835299,0.6971264781351922
3.6000000000000014,-0.0804100504402466,0.1217901671067168,0.6793902408246759
3.61,-0.067588572168157,0.1257704114639972,0.6632860782913885
3.619999999999997,-0.0822682514113555,0.1088091894751954,0.6456541257217783
3.6300000000000026,-0.0980652985511424,0.1030996424439384,0.6342574173998854
3.640000000000001,-0.1213023613608121,0.0988801876705929,0.6265062571829053
3.649999999999999,-0.1511496130455772,0.0832778136033179,0.6368415924768518
3.6599999999999966,-0.1541930596734627,0.0811505754444134,0.6335847343842492
3.6700000000000017,-0.1394492457204514,0.0791775727324662,0.6271930474632138
3.68,-0.1263536049074678,0.0717503653342373,0.6114755141336737
3.6899999999999977,-0.1126467987710503,0.0568290415516292,0.6084520362319374
3.700000000000003,-0.111733399539507,0.0511502167591217,0.6008412359098226
3.710000000000001,-0.1254566179961129,0.0386825611158489,0.602755347116723
3.719999999999999,-0.1498208909039162,0.0286187309640792,0.6190044552936801
3.729999999999997,-0.1763139033369676,0.0161100682221186,0.6374642098082537
3.740000000000002,-0.1915769207162897,0.0022118760927299,0.6563209881004405
3.75,-0.2178432053180717,0.0020569028165515,0.6700457579909378
3.759999999999998,-0.2432372433739409,-0.0016659689130821,0.6825578080589269
3.769999999999996,-0.2500304531315455,-0.0124808234341702,0.686484463969133
3.780000000000001,-0.2637908393203997,-0.0220313698469921,0.6997156695821356
3.789999999999999,-0.2587636431698049,-0.0380023348766773,0.7106080302371862
3.799999999999997,-0.2566884204181186,-0.0438547550042494,0.7358886737282058
3.8100000000000014,-0.2482116745552357,-0.0550771893224863,0.7617196489731632
3.82,-0.2389715058020761,-0.0503808925271447,0.7862726836387405
3.8299999999999983,-0.2376562438191239,-0.0460393889359076,0.8116008042914133
3.839999999999996,-0.2285112129885033,-0.0426218235662583,0.8407362857046915
3.8500000000000014,-0.2154186269769769,-0.033687271573846,0.8640665292138499
3.86,-0.1946677850080574,-0.0328688433826794,0.8952473877028975
3.869999999999997,-0.1719530924330921,-0.0202334551694708,0.9221029954978122
3.8800000000000026,-0.1498744613186252,-0.0170822846973159,0.9563051982101678
3.890000000000001,-0.125458026880358,-0.0119908469963874,0.9883528606574494
3.899999999999999,-0.1074286503015684,-0.0098005463529149,1.0125748629288993
3.9099999999999966,-0.095818001398179,-0.0147280511141059,1.0393254042978566
3.9200000000000017,-0.0912152790495802,-0.0135780958062312,1.067836180357154
3.93,-0.107531195261723,-0.0168932878071246,1.1035167519261166
3.9399999999999977,-0.1225910680856191,-0.0166088820269662,1.134323111421189
3.950000000000003,-0.1271363030850389,-0.0014893087644669,1.1632640512140373
3.960000000000001,-0.1189917845012886,0.0181081456264335,1.1907038972196522
3.969999999999999,-0.1006414306170092,0.0317531299588119,1.205934661096051
3.979999999999997,-0.0681196764302405,0.0516634765315899,1.2269153573691125
3.990000000000002,-0.0253064834526111,0.0778055389117341,1.246611670308338
4.0,-0.0010799032701228,0.1084505546712609,1.2744015626308391
4.009999999999998,0.0221398914621071,0.1458987795214228,1.3035152746889846
4.019999999999996,0.02991702965167,0.1739994093489667,1.3391496001023817
4.030000000000001,0.0141259232981384,0.2134980792578709,1.37092547916892
4.039999999999999,0.0060759974417207,0.2450092215933502,1.4026070263256063
4.049999999999997,0.0071721186999529,0.266373044732105,1.4354853796586493
4.060000000000002,0.0146759245068123,0.2860009423863782,1.4554848135711125
4.07,0.0280387462163594,0.2989155685721861,1.4816839606618657
4.079999999999998,0.0360217713528025,0.3231495474713285,1.497891117132258
4.089999999999996,0.039923104510679,0.3512395039439874,1.4967117400466394
4.100000000000001,0.0559564618615467,0.3845365352632536,1.4878562021984365
4.109999999999999,0.0533094038638779,0.406945022917556,1.4617022222963258
4.119999999999997,0.030868549781305,0.4218301638403982,1.4194230144653583
4.130000000000003,0.0017705521995725,0.4240717297553227,1.3665154761543097
4.140000000000001,-0.049037356480905,0.3934176427181803,1.331549169996553
4.149999999999999,-0.1128064311088609,0.3485236100689919,1.2987563129593869
4.159999999999997,-0.1729662037608631,0.2921864659820896,1.264774551672202
4.170000000000002,-0.2233507803312336,0.2363015958345641,1.227329483750746
4.18,-0.2504176928463535,0.188509323308894,1.2013110347895763
4.189999999999998,-0.2512079282401175,0.1607726938961605,1.157892987922605
4.200000000000003,-0.2102490735394653,0.1378590435289878,1.1142664728052234
4.210000000000001,-0.1644560587372646,0.1196382608583608,1.0685990860912744
4.219999999999999,-0.1142213186794871,0.1113866921689818,1.0062560265641625
4.229999999999997,-0.0671400699741113,0.086441082570601,0.9390495552628144
4.240000000000002,-0.0402906486300369,0.0547595184538379,0.87523339646396
4.25,-0.0418712134758338,0.0200121847120022,0.8077910719511319
4.259999999999998,-0.085952978636607,-0.0286231321564797,0.7582223749680401
4.269999999999996,-0.1531328887856863,-0.08245293064631,0.7021377083607186
4.280000000000001,-0.2115785634956639,-0.1463053604762884,0.6486444270773314
4.289999999999999,-0.2547713450436721,-0.1934423971679413,0.6059558100217675
4.299999999999997,-0.2867171577191137,-0.2367284757164175,0.5655534584140236
4.310000000000002,-0.3143707386939357,-0.2573001435721089,0.5339213822711079
4.32,-0.3282461669578628,-0.2603769738548079,0.5081000297590852
4.329999999999998,-0.3397000429345831,-0.2630883394267654,0.4884753680308449
4.339999999999996,-0.3273754742898855,-0.2572750179428937,0.4721239576156962
4.350000000000001,-0.2868903085018798,-0.2409504570969244,0.4611260678765869
4.359999999999999,-0.2399204829166468,-0.1971949341696711,0.4545263962606575
4.369999999999997,-0.2106847583322035,-0.1528926254206533,0.4548298825507756
4.380000000000003,-0.2079484217078532,-0.1026593886239673,0.4492100373300749
4.390000000000001,-0.2216025134916732,-0.0643108470885758,0.4489383713490371
4.399999999999999,-0.233198524563513,-0.038850795676506,0.4403540285197028
4.409999999999997,-0.259830317575541,-0.0219399226360451,0.4137877395274697
4.420000000000002,-0.2752695369272752,-0.0134927335734432,0.3872712036884748
4.43,-0.2761916114085315,-0.026428183717192,0.3502062252242483
4.439999999999998,-0.2816098707659858,-0.0367263529484159,0.3148239494802913
4.450000000000003,-0.2820233293541939,-0.0515861232859383,0.2965746400544354
4.460000000000001,-0.2587794789041709,-0.0403282915822035,0.2691381845395919
4.469999999999999,-0.2255433968622291,-0.0222427304183956,0.2390499264617775
4.479999999999997,-0.1909526061871835,-3.918840753949928e-05,0.21652510455605
4.490000000000002,-0.1691723657689128,0.0249368546852458,0.1971852429783649
4.5,-0.1699831262237228,0.0460832173099983,0.1769797235773659
4.509999999999998,-0.1576820227470387,0.0677094358217887,0.1773620778148487
4.519999999999996,-0.1509036089503592,0.0982675186509048,0.1758991072021149
4.530000000000001,-0.1493589975785005,0.1305549363559701,0.1741360690897122
4.539999999999999,-0.1399323749058631,0.1468187085776088,0.1745188341550934
4.549999999999997,-0.1404160852770718,0.1599214365020291,0.1721868252642463
4.560000000000002,-0.1412732018965193,0.172850336694456,0.155687700463509
4.57,-0.1561278373959879,0.1808645577811903,0.1346855584518123
4.579999999999998,-0.1881406523990307,0.1658818457048703,0.1242089328628879
4.589999999999996,-0.2176245399092983,0.1607885891250155,0.122033384255045
4.600000000000001,-0.229483226370743,0.1635024357011159,0.1251841674570379
4.609999999999999,-0.2028251042032026,0.1690572439047922,0.1242629861869077
4.619999999999997,-0.1530911153546041,0.1846746380698626,0.121851532066743
4.630000000000003,-0.1136822605155939,0.1869260383356414,0.114794867202163
4.640000000000001,-0.0833090470828153,0.1768787632037776,0.1128565221753048
4.649999999999999,-0.0884929685991261,0.1550689713929726,0.1094899141321507
4.659999999999997,-0.1136480452244194,0.1303477580568174,0.1210903713519451
4.670000000000002,-0.118566974388617,0.1153545289185138,0.133377825757983
4.68,-0.1118697330894605,0.0976701421806506,0.1360072195074537
4.689999999999998,-0.0944145763676488,0.0819784161903106,0.1351544390838311
4.700000000000003,-0.0704058484527665,0.0793817395110999,0.1307286678497256
4.710000000000001,-0.0412757087343585,0.0787317110297017,0.1191829984733847
4.719999999999999,-0.0069519143571229,0.064018111903515,0.1116776380398709
4.729999999999997,0.0087531134861595,0.0524263978484824,0.0997544595279709
4.740000000000002,0.0012275711200439,0.0303192380163428,0.0925938226672197
4.75,-0.0349724792432532,0.0098677057246757,0.0936452471064606
4.759999999999998,-0.0498187874803308,-0.0069069314607055,0.10220222514185
4.769999999999996,-0.0455282192969017,-0.0292327425238391,0.1094123533828133
4.780000000000001,-0.0303980900137276,-0.0454392469582722,0.1188547664287965
4.789999999999999,-0.0136532155121523,-0.0704680121276405,0.1255452021454916
4.799999999999997,-0.0011652801449968,-0.0897849933887407,0.1279033682172216
4.810000000000002,0.0065370841000691,-0.1086940641530351,0.127678845346966
4.82,-0.0155978050137838,-0.1426427645750698,0.1232682704594958
4.829999999999998,-0.0336118744088347,-0.1587209152376957,0.131589597766665
4.839999999999996,-0.0241456356436316,-0.169644528711079,0.1291192590408275
4.850000000000001,0.0070220430822911,-0.16492769323406,0.1229833841182151
4.859999999999999,0.0488182645909298,-0.1677553072843539,0.1142835664584496
4.869999999999997,0.0990366517820929,-0.1531682104262969,0.1089055701658334
4.880000000000003,0.1397609078809574,-0.1420736263259793,0.1001189649213323
4.890000000000001,0.1593222365235048,-0.1364727008013656,0.0928380218726214
4.899999999999999,0.1506550011068148,-0.142665364364082,0.0933541807486211
4.909999999999997,0.1316527095276968,-0.1444100224515421,0.0937433098531194
4.920000000000002,0.124998273335771,-0.1494957664476217,0.1052192178386111
4.93,0.1314250129337258,-0.1343789141148206,0.1175501122460507
4.939999999999998,0.1382569398783081,-0.117956162076683,0.1267325555784994
4.950000000000003,0.1390272169215477,-0.1057040895578395,0.136551554692183
4.960000000000001,0.1530907896683277,-0.0830123089938215,0.1500872417740217
4.969999999999999,0.1467784537124959,-0.0669276084838809,0.1680593680839961
4.979999999999997,0.1172919001999014,-0.0682067833854048,0.1861202421264989
4.990000000000002,0.0788474107630279,-0.0623495320618266,0.2108133585443202
5.0,0.0483514739527113,-0.064761946841392,0.2390708057836144
5.009999999999998,0.0410132558640187,-0.0641654050806856,0.2554873798931287
5.019999999999996,0.060547007597729,-0.0568692745798241,0.2628486006941101
5.030000000000001,0.1001761222868899,-0.0402218335617131,0.2676445890523456
5.039999999999999,0.150773998452891,-0.0229536031772555,0.2758103126354442
5.049999999999997,0.2038185126868275,-0.0058287203921179,0.289742856631774
5.060000000000002,0.2556677849929148,0.0104451098321447,0.3075568709113296
5.07,0.3077858052802213,0.0355272869493143,0.3261198545548457
5.079999999999998,0.3484283996144328,0.0614393095367707,0.3525232430318332
5.089999999999996,0.3958371125306831,0.0773824650218606,0.3688910502129984
5.100000000000001,0.4234249751717325,0.093428395960446,0.3833017610287796
5.109999999999999,0.4540624215489233,0.1046937602831852,0.3846308510744279
5.119999999999997,0.4840134893744131,0.1160572709343396,0.3958511171006544
5.130000000000003,0.4738721314691264,0.1297933822023632,0.4005636808152799
5.140000000000001,0.4478806296910118,0.1238158006473866,0.4168324204444343
5.149999999999999,0.3917702674958196,0.1224514745745425,0.437431623872463
5.159999999999997,0.3355106982140773,0.1175035662271297,0.4619292229809535
5.170000000000002,0.2652031279024357,0.1005468041057085,0.4923173235858247
5.18,0.2109692908691918,0.0751658955354926,0.5110325901626213
5.189999999999998,0.1684188009832195,0.0542530779575982,0.524009243239426
5.200000000000003,0.1450502286252767,0.0242545773295418,0.5271476788179604
5.210000000000001,0.1445403961487974,0.0091120063724648,0.5243904408983894
5.219999999999999,0.1590680275478391,-0.0156225554802113,0.5148673040213372
5.229999999999997,0.1739089527604344,-0.0480667828618533,0.5110028261308877
5.240000000000002,0.1850346815892931,-0.0702512542590431,0.5019301744459276
5.25,0.1736924627264186,-0.106023154454704,0.4871510419701732
5.259999999999998,0.1641550441578529,-0.1426570522347118,0.4841658846026385
5.269999999999996,0.1491272542029198,-0.1635083179566409,0.4709984551322949
5.280000000000001,0.1365878186702186,-0.1857955601031111,0.4735258952263212
5.289999999999999,0.1123715799831306,-0.2094822146618716,0.4763309219474742
5.299999999999997,0.0795836406259892,-0.2368015296808642,0.4767843401588257
5.310000000000002,0.0378707989293031,-0.2460730229644247,0.4766253966587813
5.32,-0.0222367196798365,-0.2626942368859987,0.4864247948143063
5.329999999999998,-0.0825321809985278,-0.2671510211073227,0.500259016943684
5.339999999999996,-0.1542152371105044,-0.2789372715767697,0.5209494728518181
5.350000000000001,-0.2081174081985952,-0.2769860915186579,0.5412012819557364
5.359999999999999,-0.2548532816929724,-0.284610062288533,0.5531425466784864
5.369999999999997,-0.2908111408296868,-0.2861924147197777,0.5648493593114475
5.380000000000003,-0.3123788461355479,-0.282117745683609,0.5714298075695073
5.390000000000001,-0.3191856734811703,-0.2832510537594573,0.5691766827313555
5.399999999999999,-0.322959236119594,-0.2667221239986666,0.5706077256564174
5.409999999999997,-0.3233444097756488,-0.2604624993460741,0.5671812711604047
5.420000000000002,-0.3051946478342486,-0.2348710912436689,0.5643089931451117
5.43,-0.2749419704624474,-0.2022816815164907,0.5635046821340056
5.439999999999998,-0.257368774477516,-0.180084944486908,0.5609428146137144
5.450000000000003,-0.2268056645989801,-0.1497040245749397,0.5603666158652625
5.460000000000001,-0.2157620495225628,-0.1234849578608444,0.5695875563557601
5.469999999999999,-0.215059041294958,-0.0942668430624343,0.5787243433259888
5.479999999999997,-0.2194311057646625,-0.0670703367404782,0.5858483922974301
5.490000000000002,-0.2297623933531817,-0.027499385683945,0.5962583776735428
5.5,-0.2220690533965128,0.0063813466532374,0.6057192512131865
5.509999999999998,-0.2135206101821148,0.0417400297742966,0.6101021152348701
5.519999999999996,-0.1927647790290167,0.0771261854420838,0.6097080360113329
5.530000000000001,-0.190085267676903,0.1078586439315198,0.6076802252702115
5.539999999999999,-0.2095229230557949,0.1327061735872189,0.6127649159990318
5.549999999999997,-0.2346760754887964,0.1501051612686837,0.6125525830716309
5.560000000000002,-0.2649042418414557,0.1656421525157599,0.6211967035022722
5.57,-0.2877740858935035,0.1913284124833974,0.6282547941807631
5.579999999999998,-0.2818235411730749,0.2160548051650667,0.628302209904513
5.589999999999996,-0.2619709247466721,0.2463223292593449,0.6240216976702779
5.600000000000001,-0.2419885232693952,0.2724534522185379,0.6191336634704021
5.609999999999999,-0.2138039680934492,0.2865409759612883,0.6176957246375857
5.6200000000000045,-0.1982952746614811,0.2952062695799404,0.6221334767420108
5.629999999999996,-0.1803035944132911,0.3026465614457587,0.6249435154673149
5.640000000000001,-0.1713622388364887,0.293062887198701,0.6307760363394636
5.650000000000006,-0.1617340984508594,0.291764980263731,0.6280971359989118
5.659999999999997,-0.1608711218294367,0.2823694209615731,0.6308296002728727
5.670000000000002,-0.1540714403186203,0.2768022590656753,0.6292533618645751
5.679999999999993,-0.1356808794384701,0.2781132093683168,0.619123941201287
5.689999999999998,-0.1107913827259917,0.2693719455058747,0.6119691150643909
5.700000000000003,-0.0810182212178776,0.2621420796495579,0.6005951743226087
5.709999999999994,-0.0471568631784118,0.2430346707815465,0.5966764292906104
5.719999999999999,-0.0250023749058419,0.230602551991214,0.5898765482748937
5.730000000000004,-0.0015128302696074,0.2241943994877403,0.5995186214036426
5.739999999999995,0.0299046609942861,0.2107596832965198,0.6141924106174611
5.75,0.0565738513237903,0.204452902900742,0.6290290564173252
5.760000000000005,0.0798435399750181,0.1903132061231854,0.6461836572563338
5.769999999999996,0.0835926749557229,0.1751619371746928,0.6545934577002
5.780000000000001,0.0771761940986795,0.1485026974787622,0.6669957309975522
5.790000000000006,0.0596674919686227,0.1110965746636664,0.6698761306967831
5.799999999999997,0.0376491325126769,0.0862756208947664,0.6655850056515931
5.810000000000002,0.0302971403654947,0.0673711169920258,0.6516739045070599
5.819999999999993,0.030245287302619,0.0618934257129361,0.6344186748312057
5.829999999999998,0.0163617392830822,0.0509503965666865,0.6257884926463303
5.840000000000003,-0.0041612810527538,0.0289162031960152,0.6116283138553108
5.849999999999994,-0.0398948797989179,0.0098990409114892,0.6147883182463917
5.859999999999999,-0.0867827080182162,-0.0062863399045035,0.611044047135499
5.8700000000000045,-0.1207524303870627,-0.0242123920256734,0.6108835618752243
5.879999999999996,-0.1378481035730686,-0.025560197744758,0.6054063298926242
5.890000000000001,-0.1315946209408738,-0.0156224668121192,0.6073552959699712
5.900000000000006,-0.1419277509432646,0.0002015909566128,0.5874932326532916
5.909999999999997,-0.1600255651918898,0.0131110240327854,0.5751796279189382
5.920000000000002,-0.1762812852056607,0.0096122060529844,0.5618611608161571
5.929999999999993,-0.190865017531997,0.0015667534337585,0.5377123746976593
5.939999999999998,-0.1908611439903936,-0.0030544730575973,0.5217027107979243
5.950000000000003,-0.1919469788434159,-0.0085659133993109,0.5017601032104438
5.959999999999994,-0.1922285844150313,-0.0166676793194041,0.4841382562776984
5.969999999999999,-0.2044270616593841,-0.0264032592521043,0.4694503800422348
5.980000000000004,-0.210686097298926,-0.0322710445984042,0.4620372190671566
5.989999999999995,-0.2364824302831822,-0.0514424475078857,0.4681227076943622
6.0,-0.2738576776029846,-0.0668038650630905,0.4709491133874068
6.010000000000005,-0.3146660828768812,-0.084355535753427,0.478667711570296
6.019999999999996,-0.3242753552839885,-0.1038373096657372,0.4814451097268122
6.030000000000001,-0.3264206974202832,-0.1218995810452788,0.4703429739901745
6.040000000000006,-0.3084734358757804,-0.1299529578382248,0.467930237450243
6.049999999999997,-0.2913371818657019,-0.130922868465679,0.4548349314158177
6.060000000000002,-0.2751795918879165,-0.1302816431188855,0.4484142263022994
6.069999999999993,-0.259801399470873,-0.1240822333629111,0.4453148548086214
6.079999999999998,-0.2512917607940474,-0.1226492693425623,0.4328045205877626
6.090000000000003,-0.2617398835538533,-0.1250245311394736,0.4236982802399965
6.099999999999994,-0.2581656514165965,-0.1348328996346476,0.4063442147801305
6.109999999999999,-0.246495407112348,-0.1517954006314825,0.3913461968213073
6.1200000000000045,-0.2364199350537333,-0.16454241681288,0.3637611702932625
6.129999999999996,-0.2096631975723629,-0.1630160172540435,0.3334983299472823
6.140000000000001,-0.198576385633918,-0.1618374492831475,0.2979453817131015
6.150000000000006,-0.1909334389720798,-0.159075427123041,0.2805100948946109
6.159999999999997,-0.1787497874886109,-0.143152403566443,0.2756424768817428
6.170000000000002,-0.1579687272971938,-0.1394954552454063,0.2559924971688857
6.179999999999993,-0.1194282343469413,-0.1201972038990203,0.2457263388466526
6.189999999999998,-0.0891652805640751,-0.0992541536249698,0.240101590081488
6.200000000000003,-0.0622395528367415,-0.0991876149091999,0.2138727160605382
6.209999999999994,-0.0166673874232092,-0.0902494291694283,0.2024696369897697
6.219999999999999,0.0070529863863499,-0.0918689746800373,0.1650792068621179
6.230000000000004,0.0090636970703478,-0.0989714565829577,0.145767865567903
6.239999999999995,0.0051543057937059,-0.1086380544370124,0.1287264398707381
6.25,-0.012226360754721,-0.122713862771421,0.1139006160188025
6.260000000000005,-0.02139971487375,-0.1260329890798909,0.1033916728161515
6.269999999999996,-0.0201555158995366,-0.1353772454549896,0.0867613008547429
6.280000000000001,-0.0248713575606611,-0.1413611793343021,0.0762215563886929
6.290000000000006,-0.032493612502618,-0.1249329022735402,0.070268385853003
6.299999999999997,-0.055631432311258,-0.1251406455973566,0.0551497421268643
6.310000000000002,-0.0711118429293016,-0.1322975419888397,0.0575960879425651
6.319999999999993,-0.0810595442135364,-0.138651297303208,0.0634672879222625
6.329999999999998,-0.0911690857103328,-0.1481918965604157,0.0603691559882476
6.340000000000003,-0.0978878215955395,-0.1475014069342949,0.0639187630354723
6.349999999999994,-0.0985985235774927,-0.1450105735522442,0.0636285492385011
6.359999999999999,-0.099995667012476,-0.1443532011140252,0.0665564707125454
6.3700000000000045,-0.0845697241896623,-0.1414914333267125,0.0707164830402079
6.379999999999996,-0.076900074304471,-0.1331939299528554,0.0817555895481797
6.390000000000001,-0.0705452600400197,-0.1227358949817214,0.092562419831845
6.400000000000006,-0.0700627446292061,-0.1040674605944382,0.1125545294717782
6.409999999999997,-0.0552481234524358,-0.0872696672232125,0.1472588173596084
6.420000000000002,-0.0454607766632022,-0.0715044894316964,0.1798637213089601
6.429999999999993,-0.0355690815139215,-0.0546096510845299,0.2135272266917997
6.439999999999998,-0.0295151889002362,-0.0398599597814797,0.2411832312189343
6.450000000000003,-0.0227002413577772,-0.0321584825422568,0.2677418084076695
6.459999999999994,0.0084908363272353,-0.019181985928457,0.279781189348707
6.469999999999999,0.0631293211919315,0.0066818996060496,0.2843136711782943
6.480000000000004,0.1199669652177501,0.045148729032876,0.2895988146608545
6.489999999999995,0.1575544440659651,0.088981258511197,0.312948721617196
6.5,0.2064569021345508,0.1272378693224642,0.3398212216584367
6.510000000000005,0.2247217121271326,0.1600538278673045,0.3671020474412548
6.519999999999996,0.2329900466021847,0.1720519668156001,0.4037038835023029
6.530000000000001,0.2283092437698731,0.168454556207722,0.4265185492664926
6.540000000000006,0.2373332778706098,0.1635143686668969,0.4392254751716709
6.549999999999997,0.2441033265677535,0.1427631393696642,0.449384713422932
6.560000000000002,0.2403169170140509,0.1335528644132156,0.4472088796213637
6.569999999999993,0.2152799252672557,0.135302115779086,0.4464667271013989
6.579999999999998,0.1852399722806409,0.1563786858762056,0.4424620763302354
6.590000000000003,0.1555521774926067,0.1639226714834036,0.4485227838825286
6.599999999999994,0.1262732073355338,0.1903859947358076,0.4531679284246478
6.609999999999999,0.0981250024764678,0.2205172059492881,0.4555117412598706
6.6200000000000045,0.0773634384726964,0.2405498806613048,0.4557091532701964
6.629999999999996,0.0644651840410379,0.246804776590968,0.4485200665757597
6.640000000000001,0.0777373665488073,0.2437854687130656,0.4493722177143773
6.650000000000006,0.0941156549641908,0.2487252152596182,0.4321122937006862
6.659999999999997,0.1245572159787837,0.2599008869260146,0.4165449282959856
6.670000000000002,0.1486133963837541,0.2722626125961683,0.4098128264512594
6.679999999999993,0.1634450198114737,0.311320051330043,0.3928369888560449
6.689999999999998,0.1588951529040419,0.337914739000185,0.3882700477849222
6.700000000000003,0.1585638384981578,0.3646771027809063,0.3700743578759045
6.709999999999994,0.1493666955985724,0.3918564150628805,0.3610659501447359
6.719999999999999,0.137248835396798,0.4083298686829874,0.3465441343472685
6.730000000000004,0.1085648536145857,0.4164376033133868,0.3263417287449594
6.739999999999995,0.0961209205862797,0.4037640300241807,0.3088146373090074
6.75,0.0586689732427423,0.408851682479144,0.2802395042178225
6.760000000000005,0.010587746511168,0.4032396950506105,0.2671766632566624
6.769999999999996,-0.0386122955845929,0.3911224722899478,0.2465035493565407
6.780000000000001,-0.088263253486236,0.3888076035364001,0.2324650161079406
6.790000000000006,-0.1221603942013913,0.3839480412427246,0.2152476491508874
6.799999999999997,-0.1575448156203099,0.3785162655233448,0.1997891084320008
6.810000000000002,-0.1574893362401757,0.3495472910797993,0.1848846855455166
6.819999999999993,-0.1244357853104665,0.3167801368139007,0.1556449446288371
6.829999999999998,-0.0872349590378929,0.2856816290943803,0.1360434197979762
6.840000000000003,-0.0649590421568088,0.2665660121373048,0.0999277386989334
6.849999999999994,-0.051417886926104,0.2640140573914437,0.0722416114992835
6.859999999999999,-0.0171052150824605,0.2610976861806567,0.0666932555269916
6.8700000000000045,-0.0116703736794614,0.2647715755760725,0.0601292441505161
6.879999999999996,-0.0130277564709015,0.2410921038059834,0.0590126787679225
6.890000000000001,-0.0333459289962234,0.2120939537809018,0.0554768283259227
6.900000000000006,-0.0454967390941831,0.1685004375441142,0.0350935892012654
6.909999999999997,-0.0413215632574771,0.1170817268307993,0.017606947922925
6.920000000000002,-0.0771282880440634,0.0553115700833917,0.0125995673322989
6.929999999999993,-0.1036849222279679,-0.0187386807433017,0.0110629564618944
6.939999999999998,-0.1222784768018416,-0.0624293382112585,-0.0126323642210729
6.950000000000003,-0.161783717797025,-0.0913343973806538,-0.0679201763508223
6.959999999999994,-0.1976689767253891,-0.1194765950384576,-0.1258307362508231
6.969999999999999,-0.2027179227272978,-0.1507228659445565,-0.1576243669781222
6.980000000000004,-0.1821475007965223,-0.157970918038351,-0.1907741995553304
6.989999999999995,-0.1571761296473278,-0.1601018511609984,-0.2226291791317599
7.0,-0.1440688422875095,-0.1564990814603553,-0.2463901103681566
7.010000000000005,-0.1164590640595264,-0.1482540792374879,-0.2640285408085671
7.019999999999996,-0.0675916652743869,-0.1234758799889681,-0.2704566318696744
7.030000000000001,-0.0073853839035505,-0.0822781138937282,-0.2919615232656671
7.040000000000006,0.0686555727311169,-0.0390242312531923,-0.314890176826377
7.049999999999997,0.1262276255378488,0.0072138340689452,-0.3455349792750689
7.060000000000002,0.1736011912843869,0.0519136392804672,-0.3963883139206984
7.069999999999993,0.1949410210230677,0.0780814417553361,-0.4275595604785052
7.079999999999998,0.1888506220178488,0.0893467286338837,-0.4548870557330007
7.090000000000003,0.1806182182671474,0.100351012526062,-0.4888918197071438
7.099999999999994,0.1869808842105186,0.1038074911331631,-0.5264941394036907
7.109999999999999,0.2150307651107597,0.1178657512954816,-0.5692833127360554
7.1200000000000045,0.2358579315587434,0.1286525152976161,-0.6340858477536001
7.129999999999996,0.2638673637742082,0.1346091918648211,-0.7035950023595667
7.140000000000001,0.308008219789359,0.1322509881742949,-0.7721853670292332
7.150000000000006,0.329686708451416,0.1103924800103448,-0.8448563543647418
7.159999999999997,0.3001522621660178,0.0709103966340293,-0.9088525485088406
7.170000000000002,0.2519860266367485,0.024212749955869,-0.9505053686065752
7.179999999999993,0.2395388753789708,-0.0111662377328338,-0.9856825112427148
7.189999999999998,0.2339338397844026,-0.0366601579920696,-1.019230413326984
7.200000000000003,0.2412695667680512,-0.046951966836205,-1.0552116488352694
7.209999999999994,0.2567878890417107,-0.0613861458446533,-1.0916428998079637
7.219999999999999,0.2771399173400137,-0.0615415989609034,-1.1241087324582286
7.230000000000004,0.3028721311830475,-0.065037016881633,-1.1537302538270644
7.239999999999995,0.2920398308634596,-0.0942843421509549,-1.1889421803201072
7.25,0.2692915830641556,-0.1176831565342123,-1.2260311094481713
7.260000000000005,0.256583123492219,-0.1436932401465321,-1.2561947185430082
7.269999999999996,0.2605594285803398,-0.1636559033921777,-1.2922098811471605
7.280000000000001,0.2658516291770314,-0.1933585899307227,-1.3342322966411333
7.290000000000006,0.2360343822559486,-0.2339014914941329,-1.3752040261411844
7.299999999999997,0.1990610537796529,-0.2667453581932475,-1.4069216369098558
7.310000000000002,0.1400141917823833,-0.2960055607160647,-1.4431240360261215
7.319999999999993,0.0978974786448771,-0.3153349977312955,-1.4626528594130976
7.329999999999998,0.0862653754978416,-0.3200753379061018,-1.473368761790245
7.340000000000003,0.0810437858825851,-0.3005152138103409,-1.485035685895887
7.349999999999994,0.0841016544349465,-0.2961780111436973,-1.4894582383630983
7.359999999999999,0.0875331931828457,-0.2878975714481946,-1.4828495662262566
7.370000000000003,0.1140008542076098,-0.2802310773484349,-1.4778106800010489
7.3799999999999955,0.1316826165053023,-0.2905182652121251,-1.4821704342943125
7.390000000000001,0.1521909004331483,-0.322419475641797,-1.480069799225895
7.400000000000006,0.150761979931712,-0.3628345275975626,-1.4813717577205154
7.409999999999997,0.1105607922155261,-0.4069863833969176,-1.4907497225659263
7.420000000000002,0.0654268400310164,-0.4565274232634125,-1.497586962733023
7.429999999999993,0.0333562808852613,-0.4909194703218772,-1.5019461427191778
7.439999999999998,0.0083282474969595,-0.4931916870213818,-1.4972217223254007
7.450000000000003,-0.0372831922765084,-0.4883801826872408,-1.4913136914581095
7.459999999999994,-0.1040807429538594,-0.4803927211406115,-1.4708466283674757
7.469999999999999,-0.18267691658875,-0.4597868188803682,-1.4469559358528024
7.480000000000004,-0.2545047695444804,-0.4302572235000605,-1.411347912354724
7.489999999999995,-0.2803570668511926,-0.3858257291253406,-1.3820655150542525
7.5,-0.2698782697152523,-0.3437141564595148,-1.3587654756001195
7.510000000000005,-0.2441838373201374,-0.3021635226380826,-1.333044472701156
7.519999999999996,-0.184489484754889,-0.2688611385196015,-1.3200242131212996
7.530000000000001,-0.1182726185338038,-0.2244084358336058,-1.295938533281314
7.540000000000006,-0.0573480880717537,-0.1882208343097202,-1.2759782103739052
7.549999999999997,-0.0127606379800605,-0.1553559359367489,-1.240958333488732
7.560000000000002,-0.0006163606938046,-0.1176543766374563,-1.2104883606703645
7.569999999999993,0.0209480871126647,-0.0874722578973875,-1.1857551312047003
7.579999999999998,0.0067951162641878,-0.0602613741862076,-1.1487626255349146
7.590000000000003,-0.0260829467571326,-0.0473052194104249,-1.1042962206977869
7.599999999999994,-0.067952551776731,-0.0455941268100617,-1.0549287286789946
7.609999999999999,-0.0976542710547339,-0.0434230039983469,-0.9919890284352992
7.620000000000003,-0.1180002633316755,-0.037888419972835,-0.9477207821690588
7.6299999999999955,-0.0929869259686145,-0.0326291447440541,-0.8898233917819843
7.640000000000001,-0.040973947519738,-0.0125746127015323,-0.8510101504128161
7.650000000000006,0.0203254280452678,0.0021511139946524,-0.8172479044706203
7.659999999999997,0.0736538828461426,0.0295888706039604,-0.7995653527061135
7.670000000000002,0.1051532634267012,0.0396706520625103,-0.7914365505166404
7.679999999999993,0.1004368928506082,0.0504508715222613,-0.7813152411782686
7.689999999999998,0.0843071005527218,0.0534254800488183,-0.7737056656166618
7.700000000000003,0.0542575549974378,0.0439007750560509,-0.7659766800973992
7.709999999999994,0.0094098874302578,0.0419730995110368,-0.7615219602167802
7.719999999999999,-0.0375865269617145,0.02947154937102,-0.7519512250002978
7.730000000000004,-0.0922236412259936,0.0224840114191814,-0.7291868369226838
7.739999999999995,-0.1514037565239917,-0.0027652475135712,-0.712036382100681
7.75,-0.1870261323117447,-0.0209371812900007,-0.6983056777031095
7.760000000000005,-0.1970169585501341,-0.0399869738996931,-0.6936947845932507
7.769999999999996,-0.1867083394134654,-0.0709697902537567,-0.689185218072358
7.780000000000001,-0.1682279024444644,-0.0925072992980036,-0.6949282368696288
7.790000000000006,-0.1147490749267474,-0.115738586489763,-0.7050147395638882
7.799999999999997,-0.0759430208603799,-0.1213909943076694,-0.7247999969448651
7.810000000000002,-0.0368274060134089,-0.1286901060730524,-0.7409984658099359
7.819999999999993,-0.0152847351897836,-0.1363168763690132,-0.7690497505902146
7.829999999999998,-0.0149368786710464,-0.1365422223869034,-0.7846871673915143
7.840000000000003,-0.0175491308034761,-0.1370239207660297,-0.8008966923381321
7.849999999999994,-0.0279803303016802,-0.1425887498526752,-0.8203163377109308
7.859999999999999,-0.0144660287230199,-0.1547956248110722,-0.8243144475562281
7.870000000000003,-0.0058408230753656,-0.1543565612751264,-0.8356110908133142
7.8799999999999955,0.0068074251096868,-0.1622702151038935,-0.8463249799929662
7.890000000000001,0.0210256112326428,-0.15254019260873,-0.8591642137165649
7.900000000000006,0.0081515446230419,-0.0895426642634751,-0.8482216473181283
7.909999999999997,-0.0061835400810046,-0.0397026708116783,-0.8421109797403121
7.920000000000002,-0.0221676461545988,0.0201678847924767,-0.8335856019569681
7.929999999999993,-0.0417812082904122,0.0688389050342774,-0.810365370318548
7.939999999999998,-0.0712810342466967,0.1228219278198298,-0.7877895773626897
7.950000000000003,-0.1039273067488113,0.1581341255033807,-0.7628774899960686
7.959999999999994,-0.1301065007286896,0.1769057463904343,-0.7372263973519452
7.969999999999999,-0.1536245881674738,0.1904978988690378,-0.7204824971018311
7.980000000000004,-0.1542345888807664,0.1840505057931559,-0.7194917386310784
7.989999999999995,-0.1344299465513131,0.1881439909558712,-0.7170560646212663
8.0,-0.1096514053623151,0.1731084600008522,-0.7205307327210468
8.010000000000005,-0.0988440689752057,0.1674638106636966,-0.7381172489196925
8.019999999999996,-0.0899220318001764,0.163494753808386,-0.750660885556418
8.030000000000001,-0.0766248122557249,0.173415644101808,-0.7630320822356444
8.040000000000006,-0.0699374510640199,0.1768368341094632,-0.7491069922217582
8.049999999999997,-0.0619051511439706,0.150229329077951,-0.7323007905473914
8.060000000000002,-0.0475969990453663,0.0982169229717101,-0.708049121835661
8.069999999999993,-0.013061316798544,0.0271631575919071,-0.6775871433121021
8.079999999999998,0.0425050187965936,-0.0466304460264394,-0.6560406485531929
8.090000000000003,0.0936924810152247,-0.1245105834408452,-0.6424609277622239
8.099999999999994,0.1128810622296252,-0.1897752820084453,-0.623905825117571
8.11,0.0958006826444586,-0.2265282366438567,-0.6142058442095212
8.120000000000005,0.0543356426184304,-0.249102185840079,-0.5993739600309441
8.129999999999995,-0.0051824806605852,-0.2663256819156898,-0.5798232351412254
8.14,-0.0422032513658943,-0.2960089979186781,-0.5679022212514329
8.150000000000006,-0.0461486112902365,-0.3581224846560438,-0.5612815822398474
8.159999999999997,-0.0243421387059526,-0.4239207198112704,-0.5616368476256008
8.170000000000002,-0.0078576226893085,-0.4666936245004198,-0.5385250081505515
8.179999999999993,0.009765021601476,-0.4737272893773916,-0.5247961802059592
8.189999999999998,0.0164173708657936,-0.461675883324222,-0.5234146733647179
8.200000000000003,0.0219412739135321,-0.4096758474363456,-0.5258864226603324
8.209999999999994,0.0628232484911984,-0.3542746845313929,-0.5275073479995317
8.219999999999999,0.0895796068906178,-0.3017012138435528,-0.522146090785153
8.230000000000004,0.1240513637210915,-0.2386627648287812,-0.5074614506899799
8.239999999999995,0.1609303274231194,-0.1772563308977197,-0.4927839543198232
8.25,0.185892671328973,-0.125888986451772,-0.4799524247618846
8.260000000000005,0.1980552282581061,-0.0745225024418115,-0.4664534242033796
8.269999999999996,0.2030549043210054,-0.0412229200414962,-0.4532885044091352
8.280000000000001,0.1885307972332507,-0.0162925621323669,-0.4413418348940267
8.290000000000006,0.1807588865688954,-0.0017190088390321,-0.4258417415872293
8.299999999999997,0.1680335892621056,0.011621939646796,-0.4067124295291212
8.310000000000002,0.1522140036742001,0.0273438078308867,-0.3932793025769259
8.319999999999993,0.1393057262779879,0.0453576199362569,-0.3821795911449597
8.329999999999998,0.1158496563099528,0.0571264482162927,-0.3778444935954563
8.340000000000003,0.1112835635296642,0.0751652637898783,-0.3778315192352792
8.349999999999994,0.1196659727061174,0.0904347150367126,-0.3773572717572732
8.36,0.1275995680096264,0.1038477498951572,-0.3788923784946714
8.370000000000005,0.1251398209256409,0.1192459042294531,-0.3871058024793096
8.379999999999995,0.094102262108898,0.1416698720663854,-0.4048875241538506
8.39,0.0779926821854286,0.1644732136699428,-0.421257992412218
8.400000000000006,0.0523592941051722,0.1716778797825847,-0.4307901964718047
8.409999999999997,0.031992619621642,0.1793351978126712,-0.4373130653905296
8.420000000000002,-0.0215327246563783,0.1854034508009306,-0.4406321587412327
8.429999999999993,-0.134041297631125,0.172519238998498,-0.4409289796806504
8.439999999999998,-0.2750722748504785,0.1601807945998327,-0.4221151237682751
8.450000000000003,-0.4133061721584617,0.1414880820385747,-0.3908095929226732
8.459999999999994,-0.5351549779664291,0.1328383844093294,-0.3558287341614983
8.469999999999999,-0.6660332426327847,0.0997805918381754,-0.3023238532512393
8.480000000000004,-0.7930481540969997,0.0893883553233451,-0.2498564031900179
8.489999999999995,-0.8731138596557656,0.0852726865985455,-0.200534834998775
8.5,-0.9036646370233724,0.0869891353019881,-0.1613522703211534
8.510000000000005,-0.8712211214548397,0.0914656013833703,-0.1288194787618694
8.519999999999996,-0.7790349365132936,0.09904775948914,-0.1056375736673208
8.530000000000001,-0.6245939261317576,0.1039366840805456,-0.0692099031710326
8.540000000000006,-0.4442761317203178,0.1167982947187477,-0.0504758853780515
8.549999999999997,-0.233501233673994,0.1164982300406353,-0.037062966082887
8.560000000000002,-0.0266210676318653,0.1320563384966605,-0.0414706601494237
8.569999999999993,0.1774265340310054,0.156753346281227,-0.0535883646409433
8.579999999999998,0.3758529177267491,0.171476986177651,-0.0745299860205505
8.590000000000003,0.5513909269777391,0.2004307933902054,-0.0945358858965208
8.599999999999994,0.6860773635167244,0.2305213848304273,-0.1144713981683147
8.61,0.7825088457201128,0.2504342902847185,-0.1402164904555106
8.620000000000005,0.8205106141462312,0.2677521893915091,-0.1775580742175789
8.629999999999995,0.8191815178044458,0.279224024756676,-0.2083128526690812
8.64,0.7776905978558062,0.2778969180253531,-0.2453081544624077
8.650000000000006,0.7152701267743382,0.2505464085462448,-0.2703385510626062
8.659999999999997,0.645157978836581,0.2263605370533805,-0.2809710657546308
8.670000000000002,0.5410562402221933,0.1927700535797406,-0.2788478325292323
8.679999999999993,0.4266364552983809,0.1516852152701303,-0.2777974984378081
8.689999999999998,0.2886644812888041,0.0913117917894511,-0.2631241816658237
8.700000000000003,0.1396733003544007,0.03185726344001,-0.2197691100651682
8.709999999999994,-0.0260131432448269,-0.0358738634116323,-0.1981961023896475
8.719999999999999,-0.2008612271294565,-0.0921929713163976,-0.1612578638004511
8.730000000000004,-0.3476233109856049,-0.1456666486610109,-0.1342283326061513
8.739999999999995,-0.4493320359823205,-0.185451563983171,-0.0965804042066639
8.75,-0.4943375075965751,-0.2144654186709462,-0.042697629273552
8.760000000000005,-0.5280650001620458,-0.2395184728235416,0.0210886193986932
8.769999999999996,-0.5604182987460045,-0.2464450043168439,0.0718347198265791
8.780000000000001,-0.6047192298245075,-0.2299005930617365,0.0957663819247599
8.790000000000006,-0.6374750212478476,-0.2069096608264236,0.106076592174039
8.799999999999997,-0.6231754879017178,-0.1784949122585788,0.1126821541467041
8.810000000000002,-0.5594855308719222,-0.1526359392698393,0.1173018853315093
8.819999999999993,-0.438718309971374,-0.1241819040594008,0.1165655077189664
8.829999999999998,-0.2931564413097624,-0.0972474251848344,0.1121113461919209
8.840000000000003,-0.1485951427944455,-0.0781480053489912,0.0848541586084454
8.849999999999994,-0.0272267675916441,-0.0590484362222833,0.0650534637726914
8.86,0.0468190642555845,-0.0421140683355924,0.0400246114708855
8.870000000000005,0.0844906118421374,-0.0278605921254924,-0.0005733103026417
8.879999999999995,0.1122178356537738,0.0025500668337546,-0.0373779558309855
8.89,0.1282732759581004,0.0385967852654477,-0.058286057142415
8.900000000000006,0.1464103520338354,0.0567662804497068,-0.0689979068831561
8.909999999999997,0.1513887151779034,0.076737892035152,-0.0888782697747925
8.920000000000002,0.1463925492947285,0.0809196073916275,-0.0960984987609671
8.929999999999993,0.1264828379044526,0.0766019805212525,-0.0981682200011763
8.939999999999998,0.0748756818164124,0.0804505809197485,-0.1107519772018544
8.950000000000003,0.0187709762176972,0.0758993483641351,-0.1114799673428461
8.959999999999994,-0.0520833903193813,0.0878431127032864,-0.1004689007250077
8.969999999999999,-0.125079056507637,0.0932967329973305,-0.0795181158190713
8.980000000000004,-0.1889929805792737,0.1026059489132573,-0.0570894915332765
8.989999999999995,-0.2422735575054308,0.1053789932251231,-0.0375418820357685
9.0,-0.2879098079593396,0.1090546124254382,-0.0175346574443754
9.010000000000003,-0.2965027299878173,0.0909716117584956,0.0136104462022746
9.019999999999996,-0.2713281369293581,0.0632600878191004,0.0345526393309818
9.03,-0.2318797056156606,0.0374406698068052,0.0490695962317376
9.040000000000006,-0.1710022768990107,0.0154955145076625,0.0593190952721617
9.049999999999995,-0.1306342893273364,-0.0037871193942937,0.0628311024202226
9.060000000000002,-0.1011078420372718,-0.0153439687818377,0.0631552957268423
9.069999999999991,-0.0949642186168672,-0.0037486314453485,0.0503794213266889
9.079999999999998,-0.1083800089362137,0.007792717274821,0.0391660732806724
9.090000000000003,-0.1176138623744572,0.028341076873966,0.0222004486982777
9.099999999999994,-0.1222591810220545,0.0480100269347626,0.0062004777279553
9.11,-0.0989409479910156,0.0633835507282,0.0131026079913278
9.120000000000005,-0.0766069140914121,0.0611827780313864,0.0221029669744395
9.129999999999995,-0.0625673968592692,0.0586564944692128,0.0358510093942428
9.14,-0.0661714892084926,0.0621865594052822,0.0401275904450347
9.150000000000006,-0.1046458544581756,0.0678354333130807,0.0491667044623681
9.159999999999997,-0.14747485520196,0.0802835957683267,0.0548237005867769
9.170000000000002,-0.1855453442568852,0.0786827933112226,0.0506284869780386
9.179999999999993,-0.1866810273574612,0.0757426308740399,0.0510017730642754
9.189999999999998,-0.151167072175278,0.0594703902092599,0.0615035041563873
9.200000000000005,-0.1081185153563122,0.0533956447673288,0.0741786129999167
9.209999999999994,-0.0868677268197954,0.0478447785544134,0.0842704901888649
9.22,-0.113544176104679,0.0505343272110568,0.0885180368848361
9.230000000000004,-0.1668711095987823,0.0636181628509864,0.0876370515507369
9.239999999999997,-0.2132531807440842,0.0611308309287749,0.0841693384649297
9.25,-0.2344489462431605,0.0655243750736711,0.0741024185527219
9.260000000000003,-0.2254514787488672,0.0620846516297442,0.0689409946293363
9.269999999999996,-0.1734390247217405,0.0430219202232126,0.0815839738514198
9.28,-0.1119690290319563,0.0257999665785175,0.0970428448042671
9.290000000000006,-0.0715981442742302,0.0026188010348538,0.1039314106434402
9.299999999999995,-0.0492680442887143,-0.0098955522369804,0.1071743159332281
9.310000000000002,-0.0545026554286874,-0.0215780685537066,0.1128748548169772
9.319999999999991,-0.0608086171858694,-0.0201043585748011,0.1184742385637135
9.329999999999998,-0.0699657124383206,-0.0216038484299935,0.1220263712763915
9.340000000000003,-0.0632098043995461,-0.0318089489598887,0.1353268343455828
9.349999999999994,-0.0309612883099473,-0.0484027230284077,0.1467389492960581
9.36,-0.0100962120202191,-0.0889553981324746,0.1590895367474787
9.370000000000005,0.0084102846788775,-0.131047673418844,0.1626006435450933
9.379999999999995,-0.0168712141480244,-0.1672044337847952,0.161067822874857
9.39,-0.0629741755340933,-0.1794490040257143,0.1633905339966059
9.400000000000006,-0.1171152185366146,-0.1845481754650045,0.1512289718443566
9.409999999999997,-0.1652165049780524,-0.1910662201660935,0.148421795717696
9.420000000000002,-0.1923052895584998,-0.1862464141310531,0.1522471240684281
9.429999999999993,-0.1881434851337555,-0.2008927753705816,0.1448990792004044
9.439999999999998,-0.1677399773602141,-0.2171083733179943,0.1560696788188731
9.450000000000005,-0.1383365548268129,-0.2407963009010461,0.1654243914167558
9.459999999999994,-0.1110125700021954,-0.2824622849573494,0.1674780836364969
9.47,-0.1155671207270841,-0.2975658740418731,0.1589235554830529
9.480000000000004,-0.1235824799328039,-0.3128078506945078,0.1582370576853435
9.489999999999997,-0.1255261629124938,-0.3277081143625403,0.1559493312566028
9.5,-0.1282073636382149,-0.3260258249828342,0.1571997726106788
9.510000000000003,-0.0977559512988452,-0.3096369829359502,0.1630073059752637
9.519999999999996,-0.068252358128834,-0.2545924578241658,0.1659051390228943
9.53,-0.0182364830621495,-0.1623213115369904,0.1670315182384818
9.540000000000006,0.0297059336422429,-0.0786223241172039,0.1761234256007939
9.549999999999995,0.0664362699938338,-0.0209859560745341,0.1889380107598481
9.560000000000002,0.0990345988109831,0.0113915853501208,0.1765037928709706
9.569999999999991,0.1186089146011342,0.024140576163286,0.170774576606827
9.579999999999998,0.1378089010876227,0.0055034755402389,0.1659743557661264
9.590000000000003,0.1222006154787278,0.0020819023262364,0.1673260137566699
9.599999999999994,0.1109241865897423,-0.0175172917727726,0.1690899761694876
9.61,0.0964001071548888,-0.021611761977087,0.1807755210632708
9.620000000000005,0.05675144950874,-0.0201384114169762,0.1799115877134701
9.629999999999995,0.0230640480811385,-0.0094888968295959,0.1900772126116359
9.64,0.0030378969122609,0.0191527059143854,0.2093579660615229
9.650000000000006,-0.024833815086255,0.0424836535955273,0.2207709511079749
9.659999999999997,-0.0555412458274531,0.0587574955030228,0.2483907788254636
9.670000000000002,-0.0755495373963734,0.0751619982339539,0.2624661676694511
9.679999999999993,-0.1043254012619055,0.1404853509882465,0.2634593722991933
9.689999999999998,-0.1311606700174016,0.2076029219678635,0.2510629977959042
9.700000000000005,-0.1445920175449475,0.2645354967969633,0.2242339336811539
9.709999999999994,-0.1697290991484994,0.3118702888600247,0.1837121744675921
9.72,-0.1975790741427018,0.3260431263442427,0.1468696772582327
9.730000000000004,-0.2121397211653287,0.3442345663912621,0.1084461268335055
9.739999999999997,-0.2121478355876785,0.3450758743451,0.0774300737867756
9.75,-0.2091205753026986,0.3573382395806099,0.0518106895116917
9.760000000000003,-0.2071121866652177,0.3561327167875731,0.0304513298317245
9.769999999999996,-0.2166862061550859,0.3385821614670578,-0.0126887371612624
9.78,-0.2284455410335771,0.292011729017032,-0.0433712809336053
9.790000000000006,-0.2398295698338146,0.2358295792335491,-0.0767271318414691
9.799999999999995,-0.2235220833903752,0.1587691998531667,-0.1029420533989342
9.810000000000002,-0.1982889813602159,0.0914893892600165,-0.1261190839926524
9.819999999999991,-0.1763046102319781,0.0267737353911151,-0.1370352482104745
9.829999999999998,-0.1535693854637189,-0.0470458222101978,-0.1525476970540444
9.840000000000003,-0.1225125536154346,-0.0692393498598685,-0.1743170697778312
9.849999999999994,-0.100970490777143,-0.0550587486209086,-0.1982589916635074
9.86,-0.0581712484837862,-0.0356598948759371,-0.2115993598290999
9.870000000000005,-0.0138476189185253,-0.0219310050942921,-0.2116558412658156
9.879999999999995,0.0354462821899466,-0.0379021801197782,-0.206236349369616
9.89,0.1037698002949406,-0.0521846678609263,-0.1959975271763208
9.900000000000006,0.1563348876646518,-0.0663224020502094,-0.1846111796142295
9.909999999999997,0.2010173002830057,-0.0899424005139841,-0.17512669687569
9.920000000000002,0.230215240299382,-0.1080145670174961,-0.1636441239824493
9.929999999999993,0.2361571787213512,-0.1058666205633601,-0.1622038049212616
9.939999999999998,0.2195597150442196,-0.079872379288037,-0.1669408947279249
9.950000000000005,0.1923355538652164,-0.0462712345454204,-0.1819178785240801
9.959999999999994,0.1769922972386022,-0.0325838643119371,-0.1916719193615315
9.97,0.1544449193515883,-0.0372994645829471,-0.1839568916001797
9.980000000000004,0.1547302240871297,-0.0591339513607861,-0.166276818633591
9.989999999999997,0.1434839563333547,-0.082162361109457,-0.1394237091237193
10.0,0.1232748048639865,-0.1088149911690812,-0.1154490825418108
10.010000000000003,0.0981426020594345,-0.1407081598818851,-0.0838995137606873
10.019999999999996,0.0558535505728911,-0.1499914036773323,-0.0530635235305052
10.03,0.0145404940877312,-0.1497442344885174,-0.0309430856410282
10.040000000000006,-0.0168527867846014,-0.1484058657933413,-0.00551721567432
10.049999999999995,-0.0205957151688835,-0.1399630602566452,0.0219320056989566
10.060000000000002,-0.0032367075886051,-0.1304584034329076,0.0333812445753288
10.069999999999991,0.0233079185958493,-0.1335776379271193,0.0385095834588061
10.079999999999998,0.048938797970708,-0.1331625120117682,0.0455314803843362
10.090000000000003,0.0448094978544505,-0.1191872570130924,0.0395671029229912
10.099999999999994,0.0520252931463051,-0.097618664583788,0.0380196075598972
10.11,0.0492157504545041,-0.0686690679249499,0.0249378063582843
10.120000000000005,0.0346721073938067,-0.0203028783602789,0.0091834730859788
10.129999999999995,0.0345121368722441,0.0200580563233431,-0.0050597909496203
10.14,0.0534361749766135,0.0539872611056515,-0.0067626338129105
10.150000000000006,0.0660878575608655,0.0706089185442247,-0.004411527857736
10.159999999999997,0.0753486694252848,0.0738052321158161,0.0091090006179335
10.170000000000002,0.0818936646793774,0.0763764307111178,0.0173033539178939
10.179999999999993,0.061626296095705,0.0623351920621371,0.0187326045241943
10.189999999999998,0.0379076823019097,0.0611850189315153,0.0141056589329897
10.200000000000005,0.018088887027605,0.0682262228118598,0.0061483864515463
10.209999999999994,-0.0135462585106819,0.0798088217456078,-0.0035489518816805
10.22,-0.042724528562092,0.1005245695337757,-0.0109581111960874
10.230000000000004,-0.0573584393659799,0.113901531743138,-0.0252693093201264
10.239999999999997,-0.0588115788179733,0.1221466878396851,-0.0293529078044533
10.25,-0.0391731934497573,0.1158247168673938,-0.0456312675112523
10.260000000000003,-0.0224034622735939,0.1040134277739409,-0.0637113692386963
10.269999999999996,-0.0011837221352844,0.0909090863061169,-0.0705140428525681
10.28,0.0144046978194792,0.0862554201092698,-0.0766967218234326
10.290000000000006,0.0269029830726818,0.0726957727340898,-0.0767944516543862
10.299999999999995,0.0182713661120173,0.0575777769353282,-0.0711324070635665
10.310000000000002,0.0060349980573094,0.0413059398379673,-0.0752064083655623
10.319999999999991,-0.0008616306700494,0.0346700487115441,-0.0830759126022616
10.329999999999998,-0.0215233106722392,0.0201234963253521,-0.0884006702481134
10.340000000000003,-0.0221400325981506,0.0134955700789478,-0.092502450384732
10.349999999999994,-0.0317918702449415,0.0002430186221708,-0.0968254873060566
10.36,-0.0337841354309683,-0.018698783720434,-0.0940485298004558
10.370000000000005,-0.0331583666609689,-0.0259334175297471,-0.0957580819054942
10.379999999999995,-0.0310664662759808,-0.0440940248103155,-0.0810071735045726
10.39,-0.0496393631667526,-0.0763124611018518,-0.0644789088218165
10.400000000000006,-0.069532714225132,-0.0998751199023691,-0.0475685638299447
10.409999999999997,-0.1074573285277477,-0.1211718816386146,-0.0367823777634304
10.420000000000002,-0.1656427206696259,-0.1077990144984546,-0.0185783838216579
10.429999999999993,-0.2145456586319695,-0.0825475457066951,0.005425563700431
10.439999999999998,-0.2620484239796007,-0.0618376749908864,0.0231329594193357
10.450000000000005,-0.2718993938147393,-0.0658914951138741,0.0344719984529401
10.459999999999994,-0.2640503384039961,-0.0488686891375668,0.029992311867569
10.47,-0.2460209642968442,-0.0178019799223475,0.0224981549552295
10.480000000000004,-0.2292902744068217,0.0463563716983554,0.0152781471326039
10.489999999999997,-0.2092812905381612,0.0820954142283538,0.0142638430607935
10.5,-0.1846677990831587,0.0736661787668743,0.026656948862929
10.510000000000003,-0.1330465535026263,0.0354728324841775,0.0331461066548882
10.519999999999996,-0.1005152068441912,-0.0142986931058636,0.0408940670611623
10.53,-0.0754535740126869,-0.0665472616820549,0.0432546937815923
10.540000000000006,-0.0573669484660269,-0.1341004430596324,0.0529452664650701
10.549999999999995,-0.0379134077840631,-0.1791681304709664,0.0649554655204083
10.560000000000002,-0.0189437834539616,-0.2009513600650164,0.0522766271843506
10.569999999999991,-0.0213705548080313,-0.1974337658753724,0.0449295336987008
10.579999999999998,-0.0177615592975091,-0.1795547581292604,0.0425673637712385
10.590000000000003,-0.0189298298852998,-0.1565593296019596,0.0608020163741388
10.599999999999994,-0.0193074450818209,-0.123857649437838,0.0719865763684869
10.61,-0.0149490996212628,-0.0908368363628281,0.0847693822732532
10.620000000000005,-0.0020144778477974,-0.0661422142188469,0.0950301565348365
10.629999999999995,0.0149360541305301,-0.0491441442238356,0.0905537079876343
10.64,0.0227436687547376,-0.049786565082243,0.0936359171864483
10.650000000000006,0.0421647920497656,-0.0603416109836024,0.0974248104530725
10.659999999999997,0.0584828823791256,-0.0643778315962996,0.0835004331135625
10.670000000000002,0.0819788824583637,-0.0706123581524632,0.0727884178632061
10.679999999999993,0.0839479650021987,-0.0722032730349922,0.0560031572372806
10.689999999999998,0.0801891136063322,-0.0782393972354842,0.0429704290544232
10.700000000000005,0.0735383426068394,-0.0758714100911338,0.0491216621732575
10.709999999999994,0.061036006478401,-0.0696194861765607,0.0561407878295919
10.72,0.0472309740771865,-0.073093946479862,0.0497730240334443
10.730000000000004,0.0320269600178819,-0.0694074714044961,0.0497965120809479
10.739999999999997,0.0366467043164142,-0.0739883075968588,0.0380714126390379
10.75,0.0316490920637459,-0.0920582400813817,0.0367002572764167
10.760000000000003,0.0517959643282024,-0.1052585942350652,0.0371115813029279
10.769999999999996,0.0762280735063971,-0.1278731421703207,0.0435450825067302
10.78,0.0986423048186562,-0.1303353979214569,0.0506773344287064
10.790000000000006,0.1390554648056545,-0.1247413926863833,0.0651553165863996
10.799999999999995,0.1672603737329908,-0.111124777654804,0.0760272714791284
10.810000000000002,0.2115763256011223,-0.0878870261809847,0.0843548302427146
10.819999999999991,0.2449845196847788,-0.0657903707608901,0.0902709384398812
10.829999999999998,0.2691770863032162,-0.0499806477826241,0.0915969062703477
10.840000000000003,0.2883312212402985,-0.0303395563563704,0.1083399179873429
10.849999999999994,0.2928609870063356,-0.0335858720379396,0.1338418715976694
10.86,0.2927155709904893,-0.0442656764197396,0.1625267566431109
10.870000000000005,0.2761240690395485,-0.0488450531811726,0.1958468769685218
10.879999999999995,0.249650137018462,-0.0404159303824519,0.2153909155578098
10.89,0.2203187597955345,-0.0340592966220062,0.2330616013307234
10.900000000000006,0.1975948838918745,-0.0161150269543581,0.2396970981269481
10.909999999999997,0.1703395541002866,0.0086066091720747,0.2414228707957831
10.920000000000002,0.140215429659249,0.0273385187150756,0.2371829588854488
10.929999999999993,0.1105918108986142,0.0635063927727919,0.2224782412374794
10.939999999999998,0.0773420535077012,0.0837986589128311,0.219389073416289
10.950000000000005,0.0441140124685946,0.0923718241555909,0.2247186365473593
10.959999999999994,0.0163641991520431,0.0849623923156497,0.2364118563812588
10.97,-0.0076810314336302,0.0593546295110682,0.2371809442937684
10.980000000000004,-0.0254488130487572,0.0171237685641809,0.2376529261636498
10.989999999999997,-0.0595973045071309,-0.0090556160764451,0.2371404421991431
11.0,-0.0913014344985133,-0.0294425962243032,0.2120362254169482
11.010000000000003,-0.1314449037224768,-0.0281549326474704,0.1981877004586388
11.019999999999996,-0.1632509906967846,-0.0151289671649729,0.1798552001901168
11.03,-0.170495418610034,-0.0070080710078655,0.1817635401683219
11.040000000000006,-0.1689714988717889,-0.0106589870967735,0.1866835637573557
11.049999999999995,-0.1646505532556042,-0.0197793195673412,0.1870428572880489
11.060000000000002,-0.1387297376858177,-0.036829499678124,0.1748724953880964
11.069999999999991,-0.1041058329658198,-0.0630128221462562,0.1714576638301306
11.079999999999998,-0.0719754381370341,-0.1068209621063708,0.1564091178517307
11.090000000000003,-0.0441301868494081,-0.1223672700531162,0.1347957370285686
11.099999999999994,-0.0264714784830763,-0.1346389846766315,0.1097393475395091
11.11,-0.0045823971076771,-0.1338588433315544,0.0742997933802484
11.120000000000005,0.0285340042217688,-0.1217116216457573,0.0599563140754811
11.129999999999995,0.0619931683052193,-0.1208592708259171,0.0344363736342966
11.14,0.09826704836142,-0.1202392696992102,0.0288187718797221
11.150000000000006,0.1330412982112453,-0.1257532775567524,0.0326786545081882
11.159999999999997,0.1592945113380009,-0.1394900774961414,0.0476249417001433
11.170000000000002,0.1721346348984835,-0.1522199739478918,0.0572640157381275
11.179999999999993,0.1745146709508363,-0.1615614195585697,0.0487835820532197
11.189999999999998,0.1722516182821286,-0.1826102706993971,0.0444564339893314
11.200000000000005,0.1734183927262996,-0.1942926832162807,0.0384790880190089
11.209999999999994,0.1731128979175742,-0.2084569560972631,0.0388668145244051
11.22,0.1780724967322976,-0.2454505772216935,0.0495052030220149
11.230000000000004,0.1794363129116148,-0.2517349932238575,0.0695837670708474
11.239999999999997,0.1556491473789687,-0.1851976160020181,0.0975391348297981
11.25,0.1080220197755857,-0.101276514282703,0.1143059657517338
11.260000000000003,0.0724178179899909,-0.056938457376595,0.1051088428602884
11.269999999999996,0.0437260805109361,-0.0454445933052595,0.0795289737625696
11.28,0.0245414586821581,-0.0540133525099166,0.0663018819240737
11.290000000000006,0.018036159044336,-0.0672105799454119,0.062662983304688
11.299999999999995,0.0107456121436086,-0.056637026363292,0.0706390588963608
11.310000000000002,0.0070925671656654,-0.0413621283009591,0.0742672011059087
11.319999999999991,0.0123487570309618,-0.0402656537203406,0.0888800218466862
11.329999999999998,0.0016923814353878,-0.0464369654831627,0.1009684925046648
11.340000000000003,-0.0038309709945114,-0.0469556921741805,0.0951006759450048
11.349999999999994,-0.0191069962834327,-0.0567967679882544,0.1048223728119783
11.36,-0.0199715426571729,-0.050261827877551,0.1222959333050724
11.370000000000005,-0.0237579425877667,-0.048320559269637,0.1324826991023796
11.379999999999995,-0.0148509309537237,-0.043142829403644,0.146144397757674
11.39,-0.0172812163475438,0.0134585191811432,0.1388359122039495
11.400000000000006,-0.0319167415671601,0.0541212850766862,0.1246995268664452
11.409999999999997,-0.0169089329508684,0.0647919171251096,0.1162455381837214
11.420000000000002,-0.0162779398829102,0.0629130029847991,0.1051803526090959
11.429999999999993,-0.0092640766922981,0.0549724339715034,0.0978805707909437
11.439999999999998,0.0005860698744127,0.0481024909172895,0.0856463659593518
11.450000000000005,0.0196545565710833,0.043594424028501,0.0873736049055237
11.459999999999994,0.0351153045060135,0.0317739060139626,0.0873291188193176
11.47,0.0542294104068601,0.0067245833415963,0.0956174547560405
11.480000000000004,0.0789228228023482,-0.0175930924789076,0.105229482588196
11.489999999999997,0.1020810045655655,-0.044094634474142,0.1175079522417198
11.5,0.1323352036800106,-0.0555756774422146,0.1218626588497753
11.510000000000003,0.1429673192320702,-0.0465826973367167,0.1080371932315241
11.519999999999996,0.1698529326343003,-0.0341071400080972,0.0986345534654386
11.53,0.1954932467772813,-0.0107155540458451,0.0748309923287357
11.540000000000006,0.2249317432466802,0.0048511116438382,0.0413557765116585
11.549999999999995,0.2510285589407872,0.0120506992496264,0.0272895431090222
11.560000000000002,0.2660322891452168,0.0002415898751035,0.033407567052626
11.569999999999991,0.2645954607611495,-0.0069675791316792,0.0427543171582355
11.579999999999998,0.2527045986245496,-0.0250893361828014,0.0740606517747853
11.590000000000003,0.2171068856032368,-0.0409004644462056,0.0999161998232697
11.599999999999994,0.1712534976570963,-0.0483047373059703,0.1157505433755633
11.61,0.1350462155468323,-0.0468611410437575,0.1214813162844885
11.620000000000005,0.0953479113380821,-0.0305005914005225,0.1018820413157636
11.629999999999995,0.0576709194959491,-0.0229425951148723,0.0922357062909011
11.64,0.0314210361284218,-0.0098193598812497,0.0902738951520513
11.650000000000006,0.0021215245748289,-0.0197745471320257,0.0896923838997169
11.659999999999997,-0.0137542212655112,-0.0116740835064908,0.0998668413701943
11.670000000000002,-0.0370093501562632,0.0067960333780356,0.123250389453035
11.679999999999993,-0.0674457440254617,0.0203678276082414,0.1422787801493064
11.689999999999998,-0.0864557916688505,0.0298306467331184,0.1687533916808489
11.700000000000005,-0.1074726492054406,0.0391566263167316,0.1863849455603659
11.709999999999994,-0.1183181486362355,0.0454977378486062,0.1946353542558234
11.72,-0.1379828156409091,0.0548179735250149,0.192752465970508
11.730000000000004,-0.1587114222761555,0.053205279308482,0.1880651660403289
11.739999999999997,-0.1994552239882348,0.0595052221449249,0.1831490447000882
11.75,-0.2312596949748784,0.0718509410327157,0.1627879172895471
11.760000000000003,-0.2657968210656882,0.0698142191783282,0.1386633937409521
11.769999999999996,-0.2987188876077211,0.0647658538417381,0.1250914490300164
11.78,-0.3153302427364798,0.0572363092103124,0.1238937410564653
11.790000000000006,-0.3187787871040582,0.0622270126035581,0.1330764288516328
11.799999999999995,-0.3229634269889315,0.0635025406875192,0.1226081890706503
11.810000000000002,-0.3241163765786805,0.078042278132228,0.0975173500147991
11.819999999999991,-0.3228521726719981,0.091661818303594,0.0652286041575501
11.829999999999998,-0.3278859046711734,0.1075449178542052,0.0195016057071543
11.840000000000003,-0.3401961550996276,0.1148836590899223,-0.0139994798874038
11.849999999999994,-0.347932385820889,0.1153282106308384,-0.0296193023212846
11.86,-0.3611525304695448,0.116929773514438,-0.058528805946549
11.870000000000005,-0.3768279285334256,0.1217490170556673,-0.0733447250053103
11.879999999999995,-0.3766632683271808,0.1343856518709774,-0.1040065590148674
11.89,-0.3805888686497367,0.1377200003987553,-0.1366037486547121
11.900000000000006,-0.3781634261856297,0.1440512338222453,-0.1587126536198183
11.909999999999997,-0.3501967561342191,0.1506166568198693,-0.1698809042229143
11.920000000000002,-0.3142616319015603,0.1340183452676167,-0.1672807537920026
11.929999999999993,-0.2668735064017868,0.0695301522725508,-0.1380257168103604
11.939999999999998,-0.2147874711071896,0.0336923955485507,-0.0977593651354438
11.950000000000005,-0.1401424767227499,0.0124396001254191,-0.0328306231937303
11.959999999999994,-0.0627617296437435,-0.0133341764758174,0.0274514322276298
11.97,0.0117476851842821,-0.0422339581979029,0.0634932186696883
11.980000000000004,0.0801432782106098,-0.0551539015114509,0.0851942202375916
11.989999999999997,0.1468436499839424,-0.0434634816550946,0.0947336350420309
12.0,0.2029534703080662,-0.0140194721657452,0.0999272937980823
12.010000000000003,0.2422583154722891,0.0040087906790468,0.1063338306414006
12.019999999999996,0.2707266075625227,0.028008626044932,0.0997180216797347
12.03,0.2895928406574786,0.0308639498001944,0.1009610970683582
12.040000000000006,0.2924926918674937,0.0248938548061717,0.1119305639015603
12.049999999999995,0.2800897514484227,0.0212085760957501,0.1196433202237095
12.060000000000002,0.2532262996027088,0.0377681242641439,0.1248540722347429
12.069999999999991,0.216745180578074,0.054508174162103,0.1213088317370762
12.079999999999998,0.1667054549472246,0.0656364527545996,0.1158648930921654
12.090000000000003,0.1188746778051461,0.0731648045608331,0.1128607067452256
12.099999999999994,0.0697493499484976,0.0731349059391622,0.1074559224118977
12.11,0.0070184268680051,0.0785522386237184,0.1072163107657275
12.120000000000005,-0.0417215431509717,0.0750701602873555,0.1099388301008314
12.129999999999995,-0.0858303247941391,0.0611413057428861,0.1152617587432779
12.14,-0.1164881677046715,0.0673796585924712,0.11039327261405
12.150000000000006,-0.1316929973982504,0.0566530067497421,0.1055804295289951
12.159999999999997,-0.1374783456989508,0.0499754942560831,0.1023789871803667
12.170000000000002,-0.1254528211893209,0.0370583027495932,0.0971194562858835
12.179999999999993,-0.1089348946190279,0.0366953724624349,0.0935170994483766
12.189999999999998,-0.0809149704812647,0.0302665317097862,0.0786023038934353
12.200000000000005,-0.0519269013659963,0.0266506872792968,0.0668336658578335
12.209999999999994,-0.0230583439811183,0.0312330778786153,0.0566547820969216
12.22,-0.0179378492373854,0.0329251708988237,0.04413383219306
12.230000000000004,0.008261300107628,0.0301040616569958,0.0423868202876838
12.239999999999997,0.0143079130622073,0.027440001494451,0.030423065265053
12.25,0.0270594804709021,0.025243315328056,0.0162673209524917
12.260000000000003,0.0136198717954903,0.0224586454204488,0.0015030621083993
12.269999999999996,0.0136577848484689,0.0222034837146698,-0.0054457670608626
12.28,0.0061595612352767,0.0253663049421941,0.0045505866037218
12.290000000000006,-0.0088242617966105,0.0286963649584086,0.0071128814738096
12.299999999999995,-0.0346549143923893,0.0154544845630757,0.0159489399716295
12.310000000000002,-0.0486118949291802,0.0120604784429165,0.0198165492266099
12.319999999999991,-0.0627023715523637,0.0110209292862022,0.0167847069822193
12.329999999999998,-0.0782752473889776,0.0068160389741589,0.0126073166394684
12.340000000000003,-0.0882513576967848,0.0058166247593795,0.0109279296476028
12.349999999999994,-0.1076471549119548,0.0036026961145304,-0.0016771767463748
12.36,-0.1240347646173482,-0.0064182682832673,-0.0055363172876913
12.370000000000005,-0.1359993649583488,0.0010026288936462,-0.0126058309671874
12.379999999999995,-0.1509769455222157,0.0027816009285972,-0.018170593159963
12.39,-0.1624608418031978,-0.0081301611467504,-0.0201644856892415
12.400000000000006,-0.1708430667056328,-0.0152974481875412,-0.0216682903172458
12.409999999999997,-0.1624719021327431,-0.0154035605797844,-0.0160020091584102
12.420000000000002,-0.153919277913264,-0.021623364291296,-0.0215095262227792
12.429999999999993,-0.1371298405216781,-0.0213384454056299,-0.019834299850822
12.439999999999998,-0.1161842569838976,-0.0216578294441213,-0.0189149322938519
12.450000000000005,-0.0778409381312271,-0.0264457458360201,-0.0243401008189751
12.459999999999994,-0.034232418152794,-0.0291287312106737,-0.0391178796311503
12.47,0.0031127230975835,-0.0252624583045694,-0.0461313973835039
12.480000000000004,0.0329626254124624,-0.030789682296458,-0.0639538943672985
12.489999999999997,0.0505235182420979,-0.0268403620872158,-0.0814695897679053
12.5,0.0586710715056889,-0.032196535226973,-0.0990735739435167
12.510000000000003,0.0560403481305143,-0.0398317548050121,-0.1190782557399771
12.519999999999996,0.0558165579870723,-0.0463241660293418,-0.1350676573901519
12.53,0.0413988221637421,-0.0535760372616415,-0.1463415441917008
12.540000000000006,0.0379956866434724,-0.0636942570454844,-0.1668067373170741
12.549999999999995,0.0311284725195677,-0.0654807351451817,-0.1843740940846642
12.560000000000002,0.0261836353495311,-0.0669484764253948,-0.2113426300266934
12.569999999999991,0.0158790095599568,-0.0711455938166363,-0.2244054540036311
12.579999999999998,0.0096852911245353,-0.0754084777992334,-0.257174210812444
12.590000000000003,0.000878580720665,-0.0775340825649446,-0.2735335598732525
12.599999999999994,0.0006587739204893,-0.085629357157489,-0.2952030261055386
12.61,0.0015915244070167,-0.0875355161637882,-0.317166844407766
12.620000000000005,0.0019246927515203,-0.0975017435976443,-0.3338907267652982
12.629999999999995,-0.0015984380670339,-0.1143474756195527,-0.347952556130463
12.64,0.0002845980936568,-0.1244735068042618,-0.3558850045844801
12.650000000000006,-0.0093543981610691,-0.1308176510694451,-0.3725214078348566
12.659999999999997,-0.0137033483877379,-0.1322246282500921,-0.3916416083479665
12.670000000000002,-0.0146028530490598,-0.1259328715423783,-0.411037886283462
12.679999999999993,-0.0201766293207685,-0.1157745780327012,-0.4211694055833611
12.689999999999998,-0.0174084303704093,-0.113232372360924,-0.4452506306205497
12.700000000000005,-0.0267527564536962,-0.1101118933112616,-0.4714423461288735
12.709999999999994,-0.0266556781448652,-0.1208460954670554,-0.4993372123283491
12.72,-0.0068883296282701,-0.1169180062826545,-0.5229852755658599
12.730000000000004,0.0066269374097423,-0.1354616917318622,-0.5409073242359457
12.739999999999997,0.0184947049536208,-0.1447054584042166,-0.5690586800194521
12.75,0.0136357213025059,-0.1412782153043107,-0.5905119204633364
12.760000000000003,0.0039621080489998,-0.1447048408731191,-0.6214410769546769
12.769999999999996,-0.0045032612714384,-0.1475736609173918,-0.6541406392687024
12.78,-0.0056728794945843,-0.1429352241298305,-0.6860183126925089
12.790000000000006,-0.0114649629763781,-0.1532201309664619,-0.7297785202285807
12.799999999999995,-0.0064948286919519,-0.150996084136474,-0.762886146756503
12.810000000000002,-0.0054577728688085,-0.1468330585370974,-0.8030668039779614
12.819999999999991,-0.0028339607672547,-0.1512745169969069,-0.8433387654461129
12.829999999999998,-0.0066189168608299,-0.1616462217442278,-0.8948435251276347
12.840000000000003,-0.007857603231672,-0.1817084808011919,-0.9381011192276268
12.849999999999994,-0.0041705843334971,-0.204559831504277,-0.9799482582561398
12.86,-0.0040417216775832,-0.2272882228003432,-1.0378368177896355
12.870000000000005,-0.0062444010398196,-0.2504332578128443,-1.0959464380756747
12.879999999999995,0.0045950813222562,-0.284952506358412,-1.1563277885674557
12.89,0.007484954795186,-0.3181151241350764,-1.2165636881467652
12.900000000000006,0.0053804663828861,-0.3531239856241221,-1.2841756652278884
12.909999999999997,0.0049989105920344,-0.3775739954424854,-1.3594580037754975
12.920000000000002,0.0060492781802766,-0.4011016692280637,-1.4245081869087095
12.929999999999993,0.0025075809238917,-0.4259509890756012,-1.4992686297323643
12.939999999999998,-0.0087687757799865,-0.4457209571416999,-1.571771063575297
12.950000000000005,-0.0200124724989949,-0.4708804489669954,-1.637056043404249
12.959999999999994,-0.0257366451755556,-0.4859824936588378,-1.7029334003178165
12.97,-0.0499832930316769,-0.501308010195348,-1.7756203260828902
12.980000000000004,-0.070375498830587,-0.5168526298199085,-1.8408535027076856
12.989999999999997,-0.0898959230998234,-0.5285652265287848,-1.899906638468776
13.0,-0.1090319394413295,-0.5399612620022125,-1.962586676530289
13.010000000000003,-0.1258400343440971,-0.5619212546159137,-2.016123946303569
13.019999999999996,-0.1383321319052063,-0.5657278839241986,-2.071130176156412
13.03,-0.1453992847888114,-0.5879235990680288,-2.119690895084201
13.040000000000006,-0.1559873600206041,-0.6069618491913655,-2.155766047773902
13.049999999999995,-0.1635093840726372,-0.6155004664333171,-2.194838217632197
13.060000000000002,-0.1818620941455122,-0.626818726657128,-2.2300787563730893
13.069999999999991,-0.195214039558616,-0.6406114781507963,-2.2639528674266005
13.079999999999998,-0.2017127375653296,-0.6525493901828193,-2.2947936116480494
13.090000000000003,-0.2137520678934175,-0.6629585883346669,-2.323564139310659
13.099999999999994,-0.2180197632041873,-0.6645800034574377,-2.351578256000319
13.11,-0.2235323850314911,-0.6507933499385378,-2.376878766369832
13.120000000000005,-0.233141060648887,-0.6465635172178024,-2.390991427500801
13.129999999999995,-0.2242141626431562,-0.6332964902914305,-2.3991382553935194
13.14,-0.222567882513635,-0.6189016107813076,-2.399225469871546
13.150000000000006,-0.2191541568804856,-0.6003697374520577,-2.408923690362934
13.159999999999997,-0.2157467656971364,-0.5832900952214228,-2.418179448873647
13.170000000000002,-0.2041529739344788,-0.5582569028130306,-2.4259901751562065
13.179999999999993,-0.1788163505743866,-0.5385140202257523,-2.438664186858633
13.189999999999998,-0.1453384598494393,-0.4994250767575754,-2.4485435466908005
13.200000000000005,-0.1030910371965622,-0.4603656164573236,-2.442804297063769
13.209999999999994,-0.0502538154242412,-0.4194984366859808,-2.4475104676850603
13.22,0.0006257074261473,-0.3757872372719267,-2.4401008458487827
13.230000000000004,0.0387522694724357,-0.3437054665523318,-2.427831411236035
13.239999999999997,0.0798607375468875,-0.316422224324648,-2.4172670990960032
13.25,0.0956291633125591,-0.3000202635544591,-2.403174515629274
13.260000000000003,0.1015914945993491,-0.2762907537921483,-2.39232521574852
13.269999999999996,0.0960931654656281,-0.2576177686698738,-2.378299296773017
13.28,0.0741153748833421,-0.2473185802002061,-2.3441197841145174
13.290000000000006,0.0592285814178287,-0.2282854135209422,-2.311596903333932
13.299999999999995,0.0230396122151762,-0.2130542360920893,-2.2787220891585123
13.310000000000002,0.0036772568027157,-0.1892929059289451,-2.243788239092477
13.319999999999991,-0.018131688787325,-0.1774989792586307,-2.208887537661996
13.329999999999998,-0.054052070436431,-0.164262942937606,-2.191358034380499
13.340000000000003,-0.0814000281094823,-0.1441665002641791,-2.1640373320806536
13.349999999999994,-0.122901812528854,-0.1307412053734141,-2.1426384072006206
13.36,-0.1523675775386805,-0.1218308054070017,-2.121934486878999
13.370000000000005,-0.1811258715652376,-0.1087418910781571,-2.0970952888561185
13.379999999999995,-0.2001365365271006,-0.1049197475686969,-2.0811563786673912
13.39,-0.2148492468692157,-0.1044390174082297,-2.064445779034312
13.400000000000006,-0.2355138418711311,-0.0931835831805094,-2.0507083817860274
13.409999999999997,-0.2491337840334079,-0.0744837226058622,-2.036331056571989
13.420000000000002,-0.2640975159532202,-0.0692600098615598,-2.019766094377246
13.429999999999993,-0.2842716402752284,-0.0603623455021709,-2.008187309675564
13.439999999999998,-0.2992575292707644,-0.0568799788512307,-2.0014741406046523
13.450000000000005,-0.3059100142660256,-0.0506378048863406,-1.9964816650253292
13.459999999999994,-0.3052087373837855,-0.0364427746107022,-1.9999525407699128
13.47,-0.2834435931787601,-0.0236717314128331,-1.989739792070265
13.480000000000004,-0.2461208482765411,0.0021120933903778,-1.972677693378708
13.489999999999997,-0.2115145690196432,0.0268803298597114,-1.9634376480325584
13.5,-0.1757109965884117,0.0451806477239542,-1.9411612787507369
13.510000000000003,-0.1436540091671591,0.0581127930057589,-1.9144024316201744
13.519999999999996,-0.1165768574092711,0.0555951210420563,-1.8835778563411565
13.53,-0.0924613761760472,0.0515673921865179,-1.866149140794851
13.540000000000006,-0.0568917615429742,0.0536346817537292,-1.8380647989345915
13.549999999999995,-0.0128784571583589,0.0619691186227038,-1.8071560186147964
13.560000000000002,0.0233069153606164,0.0625819443715535,-1.7768063943264094
13.569999999999991,0.0570008929346518,0.0653812462279393,-1.74044528233218
13.579999999999998,0.0903677984171682,0.0747270661362714,-1.7016526051890453
13.590000000000003,0.1183711647260746,0.0657210954443609,-1.6523215049060969
13.599999999999994,0.1295262402322878,0.0610670368076705,-1.5858939515654538
13.61,0.1389917056318184,0.0621185580141592,-1.520253337277609
13.620000000000005,0.1221184938785371,0.06171032654723,-1.4672957582465913
13.629999999999995,0.1082117019594469,0.0748646568895763,-1.4135388234924384
13.64,0.0893686183718059,0.0783367612606906,-1.3496998221514038
13.650000000000006,0.0669523352689989,0.0742273391300322,-1.26852327145024
13.659999999999997,0.045111643938711,0.0787579857079394,-1.1666528069993232
13.670000000000002,0.0128195933484046,0.0617902946816054,-1.069155173382338
13.679999999999993,-0.0132656878746752,0.0565000097563095,-0.952149245476656
13.689999999999998,-0.0453506160616187,0.0403173950886151,-0.8228481382520848
13.700000000000005,-0.0829749715119217,0.0361943509999634,-0.695234642118771
13.709999999999994,-0.1387084363562582,0.034291658752484,-0.5742843962404497
13.72,-0.1885593133896838,0.0158807162552906,-0.4471086727983854
13.730000000000004,-0.2284545434254661,0.0103575401487102,-0.3142057803579041
13.739999999999997,-0.26183927319322,0.0027838641369505,-0.1837504482412796
13.75,-0.2794021460904418,-0.007482580373001,-0.0621988221219938
13.760000000000003,-0.2841036748673772,-0.0157803047537968,0.0682230703173071
13.769999999999996,-0.2629721206426191,-0.0199252513829658,0.2036014967686723
13.78,-0.23803555891738,-0.0265196035056529,0.3265973141759703
13.790000000000006,-0.2171764712479328,-0.0344936653320838,0.4500488256363115
13.799999999999995,-0.2147172782496631,-0.0305408662051783,0.5719775101464035
13.810000000000002,-0.2233860280245345,-0.0149427588789814,0.6834672845757185
13.819999999999991,-0.2470650046681309,-0.011991827296042,0.7934595019270171
13.829999999999998,-0.2611559096271871,-0.0123819241531444,0.891664150216832
13.840000000000003,-0.2654585914893264,-0.0006847542183163,0.9777466224582714
13.849999999999994,-0.2618005765319669,0.0138633414638584,1.0566493751369062
13.86,-0.2568963358067988,0.0308113522056738,1.1421682188475473
13.870000000000005,-0.2441853177963554,0.0527509398158404,1.2180395557008028
13.879999999999995,-0.2324165801712367,0.0695547751657927,1.2938015338392124
13.89,-0.2237796872945591,0.0884200721715332,1.370043399851777
13.900000000000006,-0.2023511227153873,0.1066606656670201,1.4534887160153918
13.909999999999997,-0.1955861776344684,0.1262494822770977,1.54047233907179
13.920000000000002,-0.194771036220539,0.1333615977229481,1.6157210920053728
13.929999999999993,-0.1945821264290107,0.1366496878034262,1.6959183565287204
13.939999999999998,-0.1887271552986696,0.1373781068549526,1.789850748153448
13.950000000000005,-0.1881605191692121,0.1368552248240533,1.8799583777431896
13.959999999999994,-0.1910321467251434,0.1478281449842589,1.95591213154148
13.97,-0.1904350167150499,0.1517881468787769,2.0377973347376885
13.980000000000004,-0.1953512954866174,0.1693626341491303,2.1080527009423062
13.989999999999997,-0.1897087937547028,0.1785944278316183,2.1814440946699607
14.0,-0.1993927015253467,0.1994127294844998,2.234850352490908
14.010000000000003,-0.1996503401473499,0.2094829027653832,2.2855042417327867
14.019999999999996,-0.1858602329873487,0.2243710771288228,2.3471703386670435
14.03,-0.1799256486811289,0.2385552089716356,2.4151219457773503
14.040000000000006,-0.166718314888813,0.2523625460899299,2.4679716792143696
14.049999999999995,-0.1530705566819649,0.2814720733778415,2.524534065936343
14.060000000000002,-0.1476218372915967,0.2982811310823438,2.5693991018264515
14.069999999999991,-0.1457359888966556,0.3212986225272098,2.6124776854222924
14.079999999999998,-0.149285703321749,0.3318197448894742,2.65845550996558
14.090000000000003,-0.152108328109659,0.3458527002718746,2.6900131160810354
14.099999999999994,-0.1516201147366365,0.3663140365136329,2.7246969199456985
14.11,-0.159660540416451,0.3747722779028677,2.770831972795696
14.120000000000005,-0.1697473558268807,0.3883704886082725,2.814792524299344
14.129999999999995,-0.1720395428357938,0.4002373224752423,2.861317679382916
14.14,-0.1904051413946855,0.4177725774762513,2.9067568263691164
14.150000000000006,-0.202702192119769,0.4431722763834816,2.941388122913337
14.159999999999997,-0.2179355930271012,0.4506232830392545,2.9668196781581817
14.170000000000002,-0.2246947968517277,0.461182273154341,2.9921541338159425
14.179999999999993,-0.2209086341993296,0.4703823288729155,3.019607800910728
14.189999999999998,-0.2230438829260504,0.4617708221758037,3.048973026145185
14.200000000000005,-0.2049177227115862,0.4695193053307717,3.067540047201666
14.209999999999994,-0.1923771947594556,0.4789559303020697,3.082883398924652
14.22,-0.1945046026134503,0.482366971914034,3.0997706036921624
14.230000000000004,-0.2040863574571204,0.4997642403874507,3.1246867033739685
14.239999999999997,-0.2204154244611614,0.5068292410130281,3.155405520694736
14.25,-0.2595666083785602,0.5165044789307355,3.1711309449176666
14.260000000000003,-0.3243472790680353,0.5271226745931968,3.1863198065746894
14.269999999999996,-0.3909156940515256,0.5318014155118579,3.194903186572509
14.28,-0.4704087987069479,0.5219150633401216,3.2090014050558544
14.290000000000006,-0.5356659894326528,0.5181316562558312,3.222695235681046
14.299999999999995,-0.5679343191252166,0.518216484155759,3.227905892826045
14.310000000000002,-0.5798519559218621,0.5069496557913319,3.242416041577165
14.319999999999991,-0.5689243489326857,0.4969917919436512,3.2493046399328325
14.329999999999998,-0.549444370199508,0.4991536385784435,3.262701918344563
14.340000000000003,-0.5359679693659969,0.489273130321064,3.248877364717472
14.349999999999994,-0.5297816560649989,0.4889593484674911,3.2494803701553976
14.36,-0.533975597911328,0.4943513851669928,3.2444481043636517
14.370000000000005,-0.5439747959683816,0.4983610547690707,3.2480434723642757
14.379999999999995,-0.5316761245311352,0.4965824538159774,3.2491947631715714
14.39,-0.5219080209671142,0.4955326758037618,3.258675530163916
14.400000000000006,-0.4889947503171438,0.486821162487088,3.2728749347951207
14.409999999999997,-0.4583433827977068,0.477231826139404,3.279527615512469
14.420000000000002,-0.42764689008386,0.4822837185628543,3.296388792353835
14.429999999999993,-0.4015689727768103,0.4813324170289314,3.299044636033156
14.439999999999998,-0.3666318452779511,0.4762257301296262,3.3011177538837586
14.450000000000005,-0.3178951297777836,0.4752242705274752,3.2936125805855205
14.459999999999994,-0.2666462741558754,0.472557355002407,3.292650040195692
14.47,-0.2071718745290977,0.4801077276988389,3.2912234323344896
14.480000000000004,-0.1607129433201404,0.4820278096032135,3.281342538052753
14.489999999999997,-0.1260765908730824,0.492906273944555,3.272027598515664
14.5,-0.1055679355691688,0.5079119105400373,3.2709256785059084
14.510000000000003,-0.1044986699994783,0.5298902432853031,3.273781713731391
14.519999999999996,-0.1084356906947326,0.5504822882999271,3.2648512144058524
14.53,-0.1156114014687189,0.5538767824116201,3.265857499020393
14.540000000000006,-0.113602936142989,0.5524602055250242,3.2629978257594225
14.549999999999995,-0.1187295749639227,0.5601466708628725,3.2641515918877944
14.560000000000002,-0.1185660821505981,0.5607627889051048,3.2556889290921327
14.569999999999991,-0.1151428862621625,0.5688522988004836,3.259865874849165
14.579999999999998,-0.1347076945551208,0.5706220043992037,3.2551488147128635
14.590000000000003,-0.1349605211751726,0.5601412847413584,3.259616752130679
14.599999999999994,-0.1323214458679281,0.5417545389732766,3.2724848032514933
14.61,-0.1437313616617757,0.5299626986433101,3.279147787926777
14.620000000000005,-0.1466793267605684,0.5246832177983355,3.288800306558928
14.629999999999995,-0.1657878055581136,0.5066598332744876,3.293278186986456
14.64,-0.1779292180256564,0.508302958555501,3.295079547174235
14.650000000000006,-0.1901312398910585,0.5022371824753691,3.289920113504941
14.659999999999997,-0.1927218905911656,0.4898021908426631,3.2774521465600954
14.670000000000002,-0.1924736587246094,0.480869200445804,3.2698642231551696
14.679999999999993,-0.1926137232606601,0.464453355437251,3.2742377277080976
14.689999999999998,-0.1932661562027756,0.4454769790976956,3.26386097519764
14.700000000000005,-0.1923097445466888,0.419857373440878,3.250195819934881
14.709999999999994,-0.1983421921865334,0.4113231885929507,3.2379664801390478
14.72,-0.2127483448958936,0.4023669832102679,3.205747483968908
14.730000000000004,-0.2220929775590932,0.3849555270394987,3.193240147077224
14.739999999999997,-0.2475793614571184,0.3626718836369732,3.187062595564542
14.75,-0.2741481249309426,0.3451942683049365,3.182556832389923
14.760000000000003,-0.2886623811107682,0.3117414478934762,3.18728735888134
14.769999999999996,-0.3036360543085534,0.2861604368712931,3.1787655588447508
14.78,-0.300852702043391,0.2649885243713471,3.170274851733385
14.790000000000006,-0.3045076633030557,0.239708310021436,3.149993765800992
14.799999999999995,-0.3004652373718657,0.2116599190568213,3.1267777297146595
14.810000000000002,-0.3028815739591761,0.1863330421511356,3.1033754128501463
14.819999999999991,-0.3041002496688382,0.1579326495242726,3.095786284680943
14.829999999999998,-0.3026920031511319,0.1225980805357161,3.0890884674037924
14.840000000000003,-0.3009623923483472,0.0817852283202626,3.080256472102073
14.849999999999994,-0.2956134412000646,0.0673502175381962,3.054065259655679
14.86,-0.2937213679694413,0.0471297430976411,3.009926140311425
14.870000000000005,-0.3016073788310679,0.0460595517128913,2.966237142209323
14.879999999999995,-0.3114823002965179,0.0233253535631161,2.914901350416173
14.89,-0.314997298132683,0.0019535099310831,2.8727951621894503
14.900000000000006,-0.3248559549302269,-0.0112506305913776,2.81635060143803
14.909999999999997,-0.3392750872826232,-0.0268110075569769,2.755137372446768
14.920000000000002,-0.3536156848907059,-0.0366191302735656,2.686489730797916
14.929999999999993,-0.3781956372721867,-0.0454010829893858,2.5987535792082843
14.939999999999998,-0.396075874950251,-0.0566847559088738,2.4927823269740887
14.950000000000005,-0.3980055759733052,-0.0708571955882956,2.373355160217955
14.959999999999994,-0.3991107542504885,-0.1012631190241974,2.2356706229008165
14.97,-0.3840250008427013,-0.1286692821734433,2.086628156394877
14.980000000000004,-0.3785612816220519,-0.1424223495436867,1.9312438284380036
14.989999999999997,-0.3747424665243077,-0.1579257273798225,1.7326309920532543
15.0,-0.3674796029765571,-0.158392520118216,1.503192970727657
15.010000000000003,-0.3664610126501302,-0.1488021707284396,1.2622921721451483
15.019999999999996,-0.366315778792591,-0.1501661418995788,1.000660972246781
15.03,-0.3687863816223601,-0.157454283916499,0.7507710444535087
15.040000000000006,-0.3745897614024436,-0.169302855311785,0.496375036645144
15.049999999999995,-0.3802030363641678,-0.1814728560483635,0.2596044949602784
15.060000000000002,-0.3816248942515268,-0.1878732897638511,0.0342564532777522
15.069999999999991,-0.393687845561707,-0.2017832828651815,-0.1846605882897407
15.079999999999998,-0.3968832468122218,-0.2178261172301511,-0.4063804068667042
15.090000000000003,-0.3985371941120438,-0.2341918096457695,-0.6281985026573733
15.099999999999994,-0.4077491857855224,-0.2545861313556494,-0.8400688222983491
15.11,-0.4042021717452063,-0.2675994612239598,-1.0537698416779364
15.120000000000005,-0.4050030299634587,-0.2896253514326891,-1.2531826871287224
15.129999999999995,-0.4185533694771202,-0.2953919447876529,-1.4404478710963469
15.14,-0.4107137624934761,-0.3145761569692791,-1.597627029641101
15.150000000000006,-0.4065734691028131,-0.3266370947432164,-1.7436271060917472
15.159999999999997,-0.4119388603617728,-0.3296729277172119,-1.8667646306728227
15.170000000000002,-0.4095240347871026,-0.3288511576302755,-1.9896734176360795
15.179999999999993,-0.4140308437605695,-0.3415728851853313,-2.0989423407885157
15.189999999999998,-0.4243945192640928,-0.3477186218038781,-2.215761522709954
15.200000000000005,-0.4378318993989498,-0.3645330194977759,-2.31517784443001
15.209999999999994,-0.4470868688256513,-0.3664402744823476,-2.4009492567438304
15.22,-0.4619672459156366,-0.3618312121381293,-2.471259768082971
15.230000000000004,-0.4631221947354176,-0.3484674002759036,-2.5273106789601907
15.239999999999997,-0.4399573210390847,-0.3399488828023637,-2.578444468742159
15.25,-0.4155434928190085,-0.3235047553615262,-2.627872886303976
15.260000000000003,-0.3907246756610354,-0.3298543844414917,-2.6772682718684337
15.269999999999996,-0.3668473107758687,-0.3355192136788727,-2.73638777090604
15.28,-0.3511725929107208,-0.3388123546323812,-2.788727191112357
15.290000000000006,-0.3389131066456977,-0.3466764322933623,-2.844307166218313
15.299999999999995,-0.3338401356539639,-0.3563442350712247,-2.887866903757427
15.310000000000002,-0.3266255772633557,-0.3482640769199282,-2.9249343752885912
15.319999999999991,-0.3172510450136048,-0.3417994879194518,-2.9676512010476443
15.329999999999998,-0.2962345446748559,-0.3401972282107196,-3.0152466930350625
15.340000000000003,-0.2624786324661082,-0.3394160331772953,-3.047078081147513
15.349999999999994,-0.2171199984132246,-0.3430266049258398,-3.082641693882643
15.36,-0.1764878014396133,-0.3447700708113545,-3.1281186797083382
15.370000000000005,-0.1396204800638893,-0.3485045957180797,-3.1704771043870945
15.379999999999995,-0.1048879028716004,-0.3535287109810915,-3.2071090101447486
15.39,-0.0614832921502637,-0.342767355181267,-3.242708856737337
15.400000000000006,-0.0323590097458776,-0.347401985146253,-3.27738172078949
15.409999999999997,-0.0117491083435055,-0.3513838682304432,-3.318705143439793
15.420000000000002,0.0053253240610822,-0.3606176666833537,-3.3668361600536163
15.429999999999993,0.0185300672953096,-0.3757432794350544,-3.4160702490707764
15.439999999999998,0.0233454113166067,-0.3759799043339701,-3.460913453272858
15.450000000000005,0.0284496874441935,-0.3876355138495646,-3.4913499882377943
15.459999999999994,0.0299557605103634,-0.3960898725328834,-3.524873415808884
15.47,0.0563647776072778,-0.4086565915185429,-3.5563756978212333
15.480000000000004,0.0812337030561372,-0.421653259568967,-3.5855133568188604
15.489999999999997,0.1016043126768979,-0.4152487383637535,-3.627303302091965
15.5,0.1113289297981898,-0.4068439636917315,-3.6830375042876775
15.510000000000003,0.1089193259126312,-0.4090384016214437,-3.726986266723445
15.519999999999996,0.0983297173767887,-0.4049034228787606,-3.755220312467349
15.53,0.0871447876565562,-0.405394064166982,-3.765831593625048
15.540000000000006,0.0745048879252621,-0.4132524410957614,-3.765530561219198
15.549999999999995,0.0752478462438559,-0.4148315176505072,-3.765690381459356
15.560000000000002,0.0738262424593602,-0.4182267761282701,-3.770599445325018
15.569999999999991,0.0789355292985421,-0.4134606004471883,-3.778301115971707
15.579999999999998,0.0791703151348487,-0.4095571418836169,-3.7736067710966914
15.590000000000003,0.0775775950044067,-0.429967817748164,-3.7590287737661954
15.599999999999994,0.0765440480766269,-0.4410746310653384,-3.7453056061765104
15.61,0.0909422334055882,-0.4481370930991638,-3.734360632108022
15.620000000000005,0.0800815136184697,-0.454981431470745,-3.719389945370701
15.629999999999995,0.0735848405242636,-0.4481780556428232,-3.690066655419968
15.64,0.0526259646907463,-0.4322525203766971,-3.6578269635068335
15.650000000000006,0.0301828115021105,-0.4371914702455128,-3.630822689917985
15.659999999999997,0.0051143492299168,-0.4322257948646241,-3.593386871897095
15.670000000000002,-0.0180817776647829,-0.4280207269723609,-3.569576583839662
15.679999999999993,-0.0325468165553193,-0.4136786019504035,-3.5529850976952355
15.689999999999998,-0.0429425838262195,-0.3991221911927785,-3.524754687458654
15.700000000000005,-0.0478404721563145,-0.3881793842375795,-3.4970583351085014
15.709999999999994,-0.0480935463589678,-0.3731446851032155,-3.4612093086840106
15.72,-0.0327454573928722,-0.3685253812414203,-3.420226032398179
15.730000000000004,-0.0192940651325925,-0.3575798589324688,-3.371627278923745
15.739999999999997,-0.0046636440207273,-0.3696956309658806,-3.332096788166221
15.75,0.0138486593578626,-0.373556921777924,-3.2754973029220444
15.760000000000003,0.0320720978726783,-0.3705285795488203,-3.233946655783073
15.769999999999996,0.0577417445160578,-0.3677945066792703,-3.2041430279810226
15.78,0.075927849636876,-0.3699507300248428,-3.1668739400354133
15.790000000000006,0.0914426530685848,-0.3656387102052225,-3.130343378000957
15.799999999999995,0.0921349409618473,-0.3485518183488088,-3.099173963549718
15.810000000000002,0.088342327912306,-0.3574621355773971,-3.0504279068116795
15.819999999999991,0.0809144694937083,-0.3664922655882645,-2.9986150302747543
15.829999999999998,0.0573352298590593,-0.3620116724525826,-2.9495875808755563
15.840000000000003,0.0404031945501655,-0.3575715372495011,-2.897762273377375
15.849999999999994,0.0244196018566802,-0.3486768787113976,-2.848893376603938
15.86,0.0017996860420067,-0.3342428596944196,-2.802623298851224
15.870000000000005,-0.0158063552674625,-0.3294115199037435,-2.7692818395725824
15.879999999999995,-0.0272229733754657,-0.3052598855586517,-2.7334247290702094
15.89,-0.0310860947527061,-0.2832945052561009,-2.699572496273553
15.900000000000006,-0.0213446293587694,-0.2581503150805858,-2.6626347931045067
15.909999999999997,-0.017315829684266,-0.2297054629261925,-2.619802585196975
15.920000000000002,-0.0125286377715409,-0.2107674672953364,-2.576588119685238
15.929999999999993,-0.0123012613112769,-0.1909813293491965,-2.527979080883193
15.939999999999998,-0.0345507530296231,-0.1787164878913711,-2.482539279902751
15.950000000000005,-0.0524887755108868,-0.175318902270992,-2.4306379631020056
15.959999999999994,-0.0853528946158992,-0.1764017824719015,-2.3830806572697805
15.97,-0.1085215704212049,-0.1878129288213194,-2.3377282365797565
15.980000000000004,-0.1212965774777117,-0.1851720951558549,-2.300632286025811
15.989999999999997,-0.1310665582288832,-0.1828585029619829,-2.269935181850824
16.0,-0.1296934868226842,-0.1833975098667469,-2.2479835377083166
