time,Gyr_X,Gyr_Y,Gyr_Z
0.0,0.0016837626550583,0.0177825526990753,0.003862498918302
0.009999999999998,-0.0018961618539688,0.006068671200881,0.0006737882540478
0.019999999999996,0.0054195961202275,0.010922714886837,0.0002737210921607
0.029999999999994,-0.0055075805995615,0.0042355345815235,-0.0027899262572767
0.0399999999999991,-0.0097358011486201,0.0040583997230871,0.0162746199862791
0.0499999999999971,-0.0075695339292816,0.0032829078416255,0.0069136762166615
0.0599999999999951,0.002061159284326,0.0085264811462072,0.0091709593291363
0.0699999999999931,-0.0132346297922129,0.0170369048686946,0.0113058264918976
0.0799999999999983,0.0022076198682869,0.0112412760036029,0.0101328886747611
0.0899999999999963,0.0061860184298538,0.0196024664740779,0.0040123011422759
0.0999999999999943,-0.0092117938338769,0.0208570733582587,0.011187501696934
0.1099999999999994,-0.0151483265182803,0.0107416479878231,0.0005478144204772
0.1199999999999974,0.0008312210506774,0.0062679478329367,0.006866080808176
0.1299999999999954,-0.0027872995917598,0.0141013718968337,-0.0059102149072444
0.1399999999999934,-0.0111666081308579,0.013170543496317,-0.0132344105530362
0.1499999999999985,0.0144870734622092,0.0088822738514639,0.0158301127822705
0.1599999999999966,-0.0061318005658013,0.0150956175923259,0.015128442132731
0.1699999999999946,-0.0033605361204523,0.0277659833127649,0.01044159795132
0.1799999999999997,-0.009630051895011,0.0091403726042052,0.0189218261512163
0.1899999999999977,0.0054704755205128,0.0104343131406207,0.014682205578977
0.1999999999999957,-0.0043961734294637,0.0274518304199297,0.0173035272822288
0.2099999999999937,-0.0041565221310156,0.0094774715891379,0.0066528067121956
0.2199999999999988,-0.0193332340346531,0.0153219487314439,0.0123428367984729
0.2299999999999968,-0.0067534527472344,0.011999431929058,0.0047243968702019
0.2399999999999948,-0.0014799727060291,0.0162412403919511,-1.4734147321291842e-05
0.25,-0.0066924589530966,0.0067279064376846,0.0080681022998242
0.259999999999998,-0.0253714618095811,-0.0089353488122381,0.0003155524176883
0.269999999999996,0.000513654252024,0.0118671957587261,0.006996144484045
0.279999999999994,-0.006117713545334,0.0171725065899393,0.0002081323275894
0.2899999999999991,-0.0066656294046877,0.0118577550465948,0.0202134998588844
0.2999999999999971,0.0078243281864948,0.0138307529431231,0.0072421104969936
0.3099999999999951,-0.0062474537375819,0.0083420281000606,0.0025459024177616
0.3199999999999932,0.0006511525792014,0.0155848348827498,0.0038099460973909
0.3299999999999983,-0.0133345770356112,0.0117701840799994,0.0079057901804684
0.3399999999999963,-0.0047240915934417,0.006896547506959,0.0047514990310931
0.3499999999999943,0.0025406163436692,0.0204932714187783,0.0166064236958964
0.3599999999999994,-0.0031770021050714,-1.4151585273018086e-05,0.0152528469020897
0.3699999999999974,-0.0077998097399425,0.0100078514467595,0.0061668403935348
0.3799999999999954,-0.010285629448941,0.0103128922599503,0.0081270066390133
0.3899999999999934,-0.0025261229454522,0.0204744354476971,0.0105900564731741
0.3999999999999986,-0.0086800356305998,0.013799068047632,0.0142272764226639
0.4099999999999966,-0.0077217905428362,0.0049080959979545,0.0098915854311558
0.4199999999999946,-0.0012638374211521,0.0189491927853753,-0.0097487652645284
0.4299999999999997,-0.018271392351644,0.009228082423869,0.0030108223989883
0.4399999999999977,-0.006720521113784,0.0275518434201523,-0.002746057903095
0.4499999999999957,-0.0127799287350806,0.0118643091693431,-0.0092904827866062
0.4599999999999937,-0.0296078881142092,0.0117826364866197,-0.0070399958663742
0.4699999999999988,-0.0144570861169804,0.0257543315114697,-0.0251721280878977
0.4799999999999969,-0.0135636509663943,0.0048318308834575,-0.0142977015140474
0.4899999999999949,-0.0101050363733498,0.0154720653777197,-0.0146065668137992
0.5,-0.0089625759592849,0.0116225065372499,-0.0162076376802386
0.509999999999998,-0.0128976094142047,0.0155124794220594,-0.0040602790485808
0.519999999999996,-0.0138599323968023,0.0133593422360936,0.0120360350498414
0.529999999999994,0.0037164252864215,0.0191131897884105,0.007199063081687
0.5399999999999991,-0.0103366783217557,0.0297552480434953,0.0102663333907233
0.5499999999999972,-0.0097393049060122,0.0104973634284991,0.0240404849182311
0.5599999999999952,-0.0168075194422603,0.0193604449171951,0.0290002120741548
0.5699999999999932,-0.0008949454085758,0.0261984238358084,0.0203601529377879
0.5799999999999983,-0.0019119204017863,0.027246256747668,0.034371034349798
0.5899999999999963,-0.0116678789403198,0.0123641339625811,0.034486599878546
0.5999999999999943,-0.0017402460304852,0.0168620112137081,0.0248530761985697
0.6099999999999994,-0.0090637417835966,0.0236690337920863,0.0351481813422678
0.6199999999999974,0.001667688542355,0.0160143292534477,0.042623087766528
0.6299999999999955,-0.0167860191736868,0.0243885887534225,0.030565495187347
0.6399999999999935,-0.0275806494896261,0.0202177815750995,0.0498964226963885
0.6499999999999986,-0.0224494510217274,0.010562095226295,0.0604195883198671
0.6599999999999966,-0.0171427263928329,0.032545069202423,0.0570031709503519
0.6700000000000017,-0.0114474428917087,0.0228376295440485,0.0884956689595733
0.6799999999999926,-0.0078792365732611,0.0163232302948625,0.0907220734426589
0.6899999999999977,-0.0145654227119648,0.0029127078356423,0.123747968456684
0.7000000000000028,-0.0333536487959593,-0.0053375633866108,0.1422065566556218
0.7099999999999937,-0.0206468727639308,0.0055241335282821,0.1678085182463722
0.7199999999999989,-0.028856529746402,0.0199773003119912,0.1853706007980341
0.7299999999999898,-0.0300730589139838,0.030641413392739,0.1942673484412213
0.7399999999999949,-0.0499054765153917,0.0208331638921994,0.1741168646748742
0.75,-0.0811365362097432,0.0172770427921324,0.1822899010731677
0.7599999999999909,-0.087327238446584,0.0198755125162168,0.1937188974659318
0.769999999999996,-0.1231500524817381,0.0136210588846543,0.2011453110322158
0.7800000000000011,-0.1493840838452509,0.0050340524926186,0.1924367664103348
0.789999999999992,-0.1832787464151274,0.016820112122891,0.1867060247451148
0.7999999999999972,-0.216627459312508,0.0152880349982974,0.1787416357077259
0.8100000000000023,-0.2117581480954294,0.0202077479344384,0.1870353379363205
0.8199999999999932,-0.234679636850607,0.0292280017621085,0.1937766187421411
0.8299999999999983,-0.2345461242794083,0.0219589075473195,0.2270708235442472
0.8400000000000034,-0.2549391205478925,0.0120104990664455,0.2511470252695991
0.8499999999999943,-0.2740502262622832,0.0062513319682785,0.2706489714431617
0.8599999999999994,-0.2766838664711995,0.0024659363830054,0.2899418144567439
0.8699999999999903,-0.2876609584890581,0.0044576326279306,0.2973604714283789
0.8799999999999955,-0.2645588930635669,-0.0017530128830165,0.3126266007727692
0.8900000000000006,-0.2534083962885893,0.0115353082468469,0.3237055144125834
0.8999999999999915,-0.2241917812462738,0.0330932053038897,0.3368067184511917
0.9099999999999966,-0.1551973861575591,0.0275178745799734,0.3398809261358793
0.9200000000000016,-0.1205020611607041,0.0404157441156219,0.3412195323444843
0.9299999999999926,-0.0419723001359231,0.0470422716276862,0.3550754181101047
0.9399999999999976,0.028892184721588,0.0548807054419476,0.3647563504787826
0.9500000000000028,0.0895863203708936,0.0822597582880721,0.3815195920789083
0.9599999999999936,0.1733836593299867,0.0919003752126662,0.411153995256407
0.9699999999999988,0.2408302294166564,0.1246337659001771,0.4492230171227473
0.9799999999999898,0.3106338180869331,0.1514129906618115,0.4558405942667805
0.9899999999999948,0.357312416846065,0.1667747537551915,0.4695360810139224
1.0,0.3595687417298391,0.1689852328174848,0.4942538872908179
1.009999999999991,0.3267064160325966,0.1616142897881603,0.5060171048079832
1.019999999999996,0.297273375917285,0.1426988694192308,0.5141005048523304
1.0300000000000011,0.2841933964438448,0.1303619226422711,0.5160677128801904
1.039999999999992,0.3022593867731457,0.1184765400150419,0.5414578748290328
1.0499999999999972,0.3219807032609557,0.120323808532437,0.544051837549692
1.0600000000000025,0.3480004480707284,0.1256037288490131,0.5544100900222347
1.0699999999999932,0.3650821227643131,0.1086090254322147,0.5667638106003345
1.0799999999999983,0.3261068924010769,0.0892762034136568,0.5909098866468775
1.0900000000000034,0.2986633692614079,0.0862077490235204,0.6167189973877516
1.0999999999999943,0.243435675469159,0.0804426490803559,0.6489350837184319
1.1099999999999994,0.2160965499703729,0.0723675278944635,0.6861671652361412
1.1199999999999903,0.1765843375291649,0.0630321487660871,0.7271637235053117
1.1299999999999957,0.1673046281182364,0.0447691255075494,0.7607622803405918
1.1400000000000006,0.1702578771415262,0.0336773687743464,0.7944034685113021
1.1499999999999917,0.1493805238613439,0.0345565828553244,0.838560222700618
1.1599999999999966,0.147708240004927,0.0302541768135946,0.8677936434425061
1.1700000000000017,0.1358084466242667,0.0192131186506259,0.9181303248370246
1.1799999999999926,0.1444480033686271,0.0374013160162989,0.9498751247684736
1.1899999999999975,0.1551793997578158,0.0350133893233479,0.9788326592599532
1.2000000000000028,0.1895415633736518,0.0463456918951753,1.000616221489296
1.2099999999999935,0.203944163039583,0.0595418388752391,1.0287432571917468
1.2199999999999989,0.2362165142428833,0.078776761730679,1.0601421212030897
1.2299999999999898,0.2403104026995442,0.0762305911418204,1.0814096288504005
1.2399999999999949,0.2123236170647807,0.0961741719448182,1.104251128218266
1.25,0.1826443730896683,0.1132760491026122,1.1293654860952058
1.259999999999991,0.1549598505079042,0.1307459751988561,1.12740239736643
1.269999999999996,0.1529472418805048,0.1719549710063849,1.1356648868195425
1.2800000000000011,0.1190532444677682,0.1956919854129775,1.129189363630496
1.289999999999992,0.1025179029406938,0.2252997653029421,1.108634517877657
1.2999999999999972,0.105156634601124,0.2614776696548417,1.0849745980218797
1.3100000000000025,0.0691540685150011,0.2804048258169796,1.0664800638317962
1.3199999999999932,0.0432423294674857,0.2959714697575806,1.0658817406944712
1.3299999999999983,0.0172727427463433,0.3076916029629034,1.0280110500925328
1.3400000000000034,-0.0164339964805623,0.3286697167718762,1.018545010960865
1.3499999999999943,-0.0657655275594173,0.3556735150501337,0.9896866109371724
1.3599999999999994,-0.0868809923269168,0.3734264092583196,0.9773859739914236
1.3699999999999903,-0.1141376176578461,0.3786454192924308,0.9528756659518984
1.3799999999999957,-0.1339104055983159,0.3931072138098908,0.9220358868965248
1.3900000000000006,-0.145597216513366,0.4138235866606716,0.9088796055406656
1.3999999999999917,-0.1599964881006868,0.4008075412262054,0.8940095040497597
1.4099999999999966,-0.1788920434985285,0.4083660662961989,0.8817285565491039
1.4200000000000017,-0.1996076372397698,0.3997912816860118,0.88107764425003
1.4299999999999926,-0.2248509287801658,0.3977105837641018,0.872267364493456
1.4399999999999975,-0.2497331952394096,0.4021523900557902,0.8612044938753612
1.4500000000000028,-0.2406248788294473,0.4010229572095299,0.8599372875826883
1.4599999999999935,-0.2422083414379446,0.3900033414203022,0.8471562209788328
1.4699999999999989,-0.2348749204688164,0.3940146444277167,0.8351310328078001
1.4799999999999898,-0.2186905676519257,0.3856692375090352,0.8259592763859603
1.4899999999999949,-0.2015249370148475,0.3715563693404851,0.8066583509372891
1.5,-0.1629594234136026,0.3657892314379202,0.7868848196666359
1.509999999999991,-0.1629252834245576,0.343056592402671,0.7842921082399371
1.519999999999996,-0.1721631713673005,0.3344739262494547,0.7659171316543096
1.5300000000000011,-0.165819844631649,0.3282494087110433,0.7463232454569635
1.539999999999992,-0.1679806139556006,0.3092347369878558,0.7351777852040148
1.5499999999999972,-0.1445527922922899,0.2901296792402669,0.7064788872419054
1.5600000000000025,-0.1174731094454293,0.2633362998812232,0.6970674022733382
1.5699999999999932,-0.1073355075454227,0.2538046404276393,0.6648116904899267
1.5799999999999983,-0.1191965618562634,0.2163816076982866,0.6496439415767477
1.5900000000000034,-0.1294321892973347,0.1930579405371154,0.6254372247521102
1.5999999999999943,-0.1579280454458531,0.167564540882137,0.5856757203589079
1.6099999999999994,-0.1812646216701722,0.1251988879360776,0.5650740811271433
1.6199999999999903,-0.2106524188440977,0.1013168059236088,0.516453114291431
1.6299999999999957,-0.2436320352988149,0.0762760694286382,0.494998084475424
1.6400000000000006,-0.2485459970735975,0.0654354984864697,0.4514602900890982
1.6499999999999917,-0.2494837506623858,0.0431377137020331,0.4333560408756898
1.6599999999999966,-0.2359901134570824,0.0038460407127242,0.3985510085344356
1.6700000000000017,-0.2045934435099091,-0.0210176509799799,0.3679357786190798
1.6799999999999926,-0.1924554477209504,-0.0481043819755674,0.3418673569847723
1.6899999999999975,-0.1599639391549556,-0.0799579061848265,0.3157293484376964
1.7000000000000028,-0.1339529671617853,-0.09649704299625,0.2903015664050024
1.7099999999999935,-0.130515704849564,-0.1164513989765734,0.2617655746863597
1.7199999999999989,-0.113006772137747,-0.1328373635896101,0.2565940889354108
1.7299999999999898,-0.1082621927581336,-0.1546780459107364,0.2158377016983188
1.7399999999999949,-0.0951025708920901,-0.1770685057892638,0.1929932338005077
1.75,-0.0967833494471844,-0.1963822684540618,0.1806334328700087
1.759999999999991,-0.0801490203905818,-0.2125844309019974,0.147963724038186
1.769999999999996,-0.0688047999311567,-0.2190504198435223,0.101119736339234
1.7800000000000011,-0.069982731189242,-0.2161799569155643,0.0605114510122814
1.789999999999992,-0.0817486122842352,-0.2348992271180865,0.0306422595464438
1.7999999999999972,-0.1067806938741847,-0.2606193609662477,-0.0106309393137768
1.8100000000000025,-0.1272179216838955,-0.2595840117191708,-0.0572087906806437
1.8199999999999927,-0.1400638145658206,-0.2790884932829776,-0.085359863230411
1.8299999999999983,-0.1659072301174229,-0.2842030964833155,-0.1257044299017996
1.8400000000000036,-0.1529668345009718,-0.2776640789726697,-0.1647083160714301
1.8499999999999943,-0.1253189489292668,-0.2686385089262317,-0.1790179106699713
1.8599999999999997,-0.0957205108960714,-0.2741078490717993,-0.1924513931199893
1.8699999999999903,-0.0763211796651147,-0.2598488930570195,-0.2006272749861327
1.8799999999999957,-0.0229169154673357,-0.2635058551566787,-0.1964504709579646
1.8900000000000008,0.0226989689781748,-0.2455699756108537,-0.197898523397556
1.8999999999999917,0.0694091692326841,-0.2511200183422818,-0.2058932372997641
1.9099999999999968,0.0829272627301065,-0.2349322130221761,-0.2107776035780807
1.9200000000000017,0.0908545856967684,-0.237261441818208,-0.2148001412267808
1.9299999999999928,0.1111432939574001,-0.2433787071613312,-0.2127598191544179
1.9399999999999975,0.1404196494307421,-0.2120029311627954,-0.2106273891232267
1.9500000000000028,0.1462795430726996,-0.1998495119284266,-0.2184876262475723
1.9599999999999935,0.1335734754067296,-0.1913564758477809,-0.2211091752999832
1.9699999999999989,0.1302329115331146,-0.2007066791809711,-0.2219789305944813
1.9799999999999895,0.0911909486247825,-0.1890254079122667,-0.220684711892528
1.9899999999999949,0.0413487361846387,-0.2104463835209897,-0.212543345738442
2.0,0.0081262025423091,-0.2205491706739833,-0.2163396227211527
2.009999999999991,-0.0235326095081383,-0.209691529574217,-0.2085477259408671
2.019999999999996,-0.0522321319941337,-0.2130170744011685,-0.2016502991882347
2.030000000000001,-0.0440204337918026,-0.1897654241902821,-0.2137729313276088
2.039999999999992,-0.0370631222114434,-0.1758216639958268,-0.2105599754182858
2.049999999999997,-0.0158274364383776,-0.1791899871774461,-0.2122674224643504
2.0600000000000023,-0.0040033670755205,-0.1758133367033544,-0.2213175274197822
2.069999999999993,-0.0052391811835843,-0.1687047792291247,-0.2159334591670751
2.0799999999999983,0.0172619006691658,-0.1637005669288814,-0.2196958500927708
2.0900000000000034,0.0503146073385128,-0.1502203873364901,-0.2040671597641235
2.0999999999999943,0.077428340434668,-0.1479863028585366,-0.2148670582242919
2.1099999999999994,0.1169077443003324,-0.1231016616528659,-0.2205040662885378
2.1199999999999903,0.1536372718003514,-0.11144383899101,-0.2260468832094216
2.1299999999999955,0.188708400786588,-0.0950423129946171,-0.229876776505576
2.140000000000001,0.2034062224230191,-0.0802114437366648,-0.2511775988102489
2.1499999999999915,0.2181440465481565,-0.0914223735346451,-0.2424417084525545
2.1599999999999966,0.1945270209945058,-0.0820712614513347,-0.2538030102796627
2.1700000000000017,0.1722929288986591,-0.0898221608832262,-0.251878787914938
2.1799999999999926,0.133322136852235,-0.0823800801178172,-0.2560506755755508
2.1899999999999977,0.1106105645160074,-0.0917354706784172,-0.2690542201437886
2.200000000000003,0.1015792658199728,-0.1067778619794395,-0.2663578597539975
2.2099999999999937,0.0825998901084356,-0.0952358446246008,-0.2855377796375138
2.219999999999999,0.0793641113334467,-0.0783753788830316,-0.2786426015029185
2.2299999999999898,0.0737540835257734,-0.0778797967688313,-0.2828550039890407
2.239999999999995,0.0706941813908027,-0.0897621903510629,-0.2909368650850161
2.25,0.0686028304363969,-0.0873569661542693,-0.2818923380976821
2.259999999999991,0.0756919471661767,-0.0810751673712504,-0.280450227140283
2.269999999999996,0.0872355406541347,-0.0829149244475873,-0.2802221691176399
2.280000000000001,0.0752971938354524,-0.0706261284077452,-0.2646101920475804
2.289999999999992,0.0690827902488504,-0.0724628984602187,-0.2535969255247126
2.299999999999997,0.0793048469654566,-0.056658078311357,-0.247041384880945
2.3100000000000023,0.0748860949021296,-0.0455310540154461,-0.2342630925309262
2.319999999999993,0.0693790892683884,-0.0289655869085246,-0.2470674097095611
2.3299999999999983,0.0686448542129049,-0.0274475293813938,-0.2377853209385831
2.3400000000000034,0.0725591780519442,-0.0063602798014331,-0.2295291637092103
2.3499999999999943,0.0617775327377221,0.0071986076883434,-0.2060062371017884
2.3599999999999994,0.0720077701640319,0.014588366289604,-0.1942861570082407
2.3699999999999903,0.069921914205671,0.0263140328976675,-0.1637432083223508
2.3799999999999955,0.0695926589611196,0.0407408791250323,-0.152023485011441
2.390000000000001,0.0735267006762082,0.0583822786459742,-0.1214486003021778
2.3999999999999915,0.0863153938703561,0.0601538543060093,-0.0860235624880461
2.4099999999999966,0.0912353184747812,0.0818480439419631,-0.0757055798177229
2.4200000000000017,0.0821571449391654,0.0932347520369051,-0.0481483135756522
2.4299999999999926,0.0586683586249304,0.0903343529475839,-0.0428281633008434
2.4399999999999977,0.0303232106694157,0.1105281800076262,-0.0213507849361103
2.450000000000003,0.0221566464985944,0.1032252119241269,0.013071917744336
2.4599999999999937,0.0339175120124679,0.1091167420957507,0.0351118653900938
2.469999999999999,0.0356678054890776,0.1145013803466144,0.0430677420102241
2.4799999999999898,0.0128327927052004,0.116229325659928,0.0758745553241834
2.489999999999995,-0.0228399694527818,0.1065270079287598,0.0991630548993624
2.5,-0.0488927041405668,0.0989132700827432,0.1178476447923073
2.509999999999991,-0.0599321894275227,0.0951495414487207,0.151544087396635
2.519999999999996,-0.0715163066245611,0.0920773693923571,0.1489028902429402
2.530000000000001,-0.0602578474237117,0.1055132575225202,0.1727163352682744
2.539999999999992,-0.0845426894940514,0.0870582094217412,0.1852071942243175
2.549999999999997,-0.1028405283761099,0.0906249001789547,0.1854470099997458
2.5600000000000023,-0.1575262633377541,0.0973219849654613,0.1927516983317799
2.569999999999993,-0.1809594655293372,0.0739128699188704,0.2089862604700506
2.5799999999999983,-0.2260446998483065,0.07811302634416,0.2064921820825368
2.5900000000000034,-0.2605568236181635,0.0874167420374321,0.2059410884290826
2.5999999999999943,-0.2503482704639811,0.0677007052127895,0.2207734126873877
2.6099999999999994,-0.2390658917681215,0.0892149083528369,0.2039923160254386
2.6199999999999903,-0.2152022959397259,0.0989844755402698,0.2168711009641024
2.6299999999999955,-0.1473586014068496,0.1173265992345007,0.2420416709374305
2.640000000000001,-0.0740473643951079,0.1410644244965056,0.2351189667100789
2.6499999999999915,-0.0022009519371211,0.1438836843405179,0.2620901504375534
2.6599999999999966,0.0729312395207259,0.1451939622787472,0.2904479124584073
2.6700000000000017,0.1251459370788343,0.1807959804474401,0.2813783404276048
2.6799999999999926,0.1910543323977958,0.1872036418394534,0.3053347861324104
2.6899999999999977,0.2058621803330911,0.2020592607815837,0.3363192986710561
2.700000000000003,0.2247594229035516,0.2185947316802591,0.3402344969049285
2.7099999999999937,0.2107495743015349,0.2186507967325801,0.3618474415499941
2.719999999999999,0.2046565662932028,0.2376558030424786,0.3649711715808126
2.7299999999999898,0.1784936451604394,0.217749134822876,0.3868622431590379
2.739999999999995,0.1387110257734243,0.2253611202549654,0.3865925882299256
2.75,0.0791589142985189,0.2243341630142262,0.3876235786816521
2.759999999999991,0.0302469400733274,0.2042667508152646,0.4138429719020151
2.769999999999996,-0.0345591602846628,0.2083831326596695,0.4070811677674613
2.780000000000001,-0.0616976269763546,0.1944051255801258,0.4056131276338182
2.789999999999992,-0.1072349107383841,0.1942459499692887,0.410381577326937
2.799999999999997,-0.1343499525409279,0.2071442112943739,0.4077947608546841
2.8100000000000023,-0.14089428903797,0.2009928734623299,0.4036617143863878
2.819999999999993,-0.1454620820886401,0.1897376315278119,0.3937461791372431
2.8299999999999983,-0.1336208491305693,0.1862068285383668,0.3922166677535383
2.8400000000000034,-0.1266266075609913,0.1871603448750776,0.384686520075597
2.8499999999999943,-0.1051334969036436,0.1715024853241014,0.3832893541656426
2.8599999999999994,-0.1150730947377596,0.1603941895979445,0.3951538057287275
2.8699999999999903,-0.1283156026233258,0.1575458030693226,0.3923128472971491
2.8799999999999955,-0.1105015221886264,0.156898280518135,0.3879931020894356
2.890000000000001,-0.1072116002235104,0.15762414867983,0.400987702003613
2.8999999999999915,-0.0997208098255083,0.141320647335419,0.384398301982143
2.9099999999999966,-0.0746266568879839,0.1368346856251279,0.3637402431921474
2.9200000000000017,-0.0798705146585077,0.1222785845833025,0.3675454538551321
2.9299999999999926,-0.0807102986584506,0.1480422433963121,0.3567138739890169
2.9399999999999977,-0.0675523982657024,0.1223376446404972,0.3736599751415824
2.950000000000003,-0.0654720904768077,0.1160685869260874,0.3654382484754767
2.9599999999999937,-0.0532032812696566,0.1102149587980788,0.3674413366084933
2.969999999999999,-0.0263192260368746,0.0997913223542756,0.3704047500062466
2.9799999999999898,-0.0074531434720627,0.1156073659110672,0.3857419895084908
2.989999999999995,0.0152767218730793,0.1034595333569943,0.3806181336917599
3.0,0.0281355626159956,0.1191450898001209,0.3714321076736833
3.009999999999991,0.0324495950261192,0.1251174163762447,0.3583088526939253
3.019999999999996,0.0442004088401759,0.1260985813668396,0.3573250889855051
3.030000000000001,0.0281321560953325,0.1164806661296804,0.3600713313529496
3.039999999999992,0.0497714715871807,0.1173969695009747,0.3397562269587738
3.049999999999997,0.0507665293969064,0.1095777770569753,0.3342544095147999
3.0600000000000023,0.0473102057194508,0.0983242144777259,0.3275877736818405
3.069999999999993,0.0402344371109501,0.0957082365427547,0.3343129661328941
3.0799999999999983,0.0561798534046277,0.094914364479648,0.3241330983139054
3.0900000000000034,0.0582090738367766,0.0975003860220224,0.3182647407115951
3.0999999999999943,0.0690169179998263,0.0983627274558072,0.2923520312698503
3.1099999999999994,0.076347148112612,0.1027099555887555,0.2898488579894436
3.1199999999999903,0.0834040053343752,0.0949252300732616,0.2781948111254134
3.1299999999999955,0.0769493766209728,0.1026113612511107,0.25094480981609
3.140000000000001,0.076790793030212,0.0835183623790274,0.2500488698807218
3.1499999999999915,0.0663404012408747,0.0904851706482366,0.2492536230029609
3.1599999999999966,0.0566258402370913,0.077345872407095,0.2370185970425767
3.1700000000000017,0.057720750649701,0.0645251295453885,0.2387822291234918
3.1799999999999926,0.063989162940203,0.061700937149532,0.2220454956987271
3.1899999999999977,0.0580061706936311,0.0688790462776411,0.2140636028780514
3.200000000000003,0.0656022779991972,0.0738024971338262,0.2256061826179602
3.2099999999999937,0.0776378418928235,0.0733564426981788,0.199791565632639
3.219999999999999,0.0660403025584222,0.0840007055194363,0.1938327764025268
3.2299999999999898,0.0476828859827907,0.0767931507594037,0.1840536030643152
3.239999999999995,0.0345303307781645,0.0853982632945564,0.169419870030736
3.25,0.0390073132038054,0.0794641670115182,0.1672918069840289
3.259999999999991,0.0453246663532939,0.08266965546922,0.158838491320302
3.269999999999996,0.0495880129551723,0.0917886255867206,0.1644552711889296
3.280000000000001,0.0595037600551545,0.0799985543347534,0.1588330032658894
3.289999999999992,0.0318900662330906,0.0892864891015623,0.1592104808731954
3.299999999999997,0.039927346695623,0.0893271508594384,0.1590664879964757
3.3100000000000023,0.0174185181852415,0.099831042537043,0.1733234156315561
3.319999999999993,0.0297702704732843,0.0935578206323118,0.1857358301046578
3.3299999999999983,0.0358908999415018,0.0991748037571841,0.1819336296774454
3.3400000000000034,0.0411948310193535,0.1212122196234739,0.1839732532804545
3.3499999999999943,0.0686870628065154,0.1219239561913102,0.1709944926503154
3.3599999999999994,0.0538417708150904,0.1107661236602185,0.1734202865823725
3.3699999999999903,0.0526059902877742,0.1124495310853358,0.1781227447002596
3.3799999999999955,0.0503919083186434,0.14012284559928,0.1610205647757762
3.390000000000001,0.0235009808196659,0.1279044314613208,0.1588265639688801
3.3999999999999915,0.0293789351758707,0.143469095597937,0.1488181776251694
3.4099999999999966,0.0153317178026436,0.1486577513801518,0.1588357050979198
3.4200000000000017,0.0141284007180523,0.1608064340053143,0.1612438318323343
3.4299999999999926,0.0309135251623207,0.1694876771183289,0.1710858022103761
3.4399999999999977,0.0214257658095694,0.2059016619302801,0.1416250845406533
3.450000000000003,0.0469484119635063,0.1910581904304854,0.1515992408026703
3.4599999999999937,0.0649546235638954,0.20792221611991,0.1429965477049889
3.469999999999999,0.0202777813287801,0.2090158608673325,0.1430535365071922
3.4799999999999898,0.0013572924296321,0.1887860638619195,0.1433770645400353
3.489999999999995,-0.0296709670727961,0.2079052221577421,0.1542001483476473
3.5,-0.0395601457090815,0.2001102216810017,0.1593971996682819
3.509999999999991,-0.0706000785256943,0.2007375794454547,0.1600269532805995
3.519999999999996,-0.0658615662950747,0.2062091355295268,0.1497040538981312
3.530000000000001,-0.0794236323950728,0.210080121604849,0.1470661406968278
3.539999999999992,-0.0947103751216887,0.2062130566896533,0.1330060737577057
3.549999999999997,-0.0719937919903635,0.2012532546522255,0.1199573901045193
3.5600000000000023,-0.0560678324959051,0.2012319140691952,0.1069920406574266
3.569999999999993,-0.0371014101521257,0.1891150345156575,0.098796239607075
3.5799999999999983,-0.0437320705144044,0.1754569333263491,0.1288658232100918
3.5900000000000034,-0.0241434436296273,0.1666574587328135,0.1236958011652907
3.5999999999999943,-0.0347313011726398,0.1496196437789384,0.1357577657741354
3.61,-0.0224385596641058,0.1311702692074447,0.1345529122356161
3.6199999999999903,-0.0186972917777449,0.1185688642484328,0.144425889128887
3.629999999999996,-0.0065450411777811,0.109620704075048,0.1417623542831355
3.640000000000001,0.0154459608448815,0.0822969024219559,0.12744658186129
3.649999999999992,0.0292319293675009,0.0855195352892792,0.1258798167534927
3.6599999999999966,0.0336752682714805,0.0519895975752637,0.1026227442662184
3.6700000000000017,0.0119597873337985,0.0352187310073539,0.1121085623492555
3.6799999999999926,-0.0113746516503901,0.002420269078963,0.1100287586310679
3.6899999999999977,-0.0353188328579953,-0.039424417562893,0.0985259770687182
3.700000000000003,-0.0440509567834052,-0.0600586944245919,0.1200810611744899
3.7099999999999937,-0.0386682401810731,-0.0878400452618809,0.1022540348351285
3.719999999999999,-0.0073561713392597,-0.08769728735853,0.1049179661409221
3.7299999999999898,0.0198023273187034,-0.1083875201616196,0.1124698462017923
3.739999999999995,0.0449869198140407,-0.1169751305851218,0.1090083960613905
3.75,0.0751019615157937,-0.1290310679115724,0.0996861828592417
3.759999999999991,0.0752691516489173,-0.148039423290197,0.105333054132983
3.769999999999996,0.0504886683723189,-0.1637830411800325,0.0998834550832724
3.780000000000001,0.0275048107761312,-0.1793464374558502,0.1057816571709935
3.789999999999992,0.01168605276251,-0.2003310706705613,0.100161407902484
3.799999999999997,-0.0140010742447254,-0.2071492131369393,0.1009230107825941
3.8100000000000014,-0.0076252347550878,-0.2212688198556667,0.0967427309894272
3.819999999999993,0.0122614418424733,-0.2191410654097802,0.0673327403527961
3.8299999999999983,0.0266402698633738,-0.2161697614735614,0.0575788471454357
3.8400000000000034,0.0513704472103402,-0.2154536120517768,0.0582779487436267
3.8499999999999934,0.0923717412253166,-0.2213512606722113,0.0516695322831071
3.86,0.1338525040418993,-0.2150721554016349,0.0568351979336698
3.8699999999999903,0.1506546457826978,-0.2109207524617941,0.062608395930594
3.879999999999996,0.1717060400801956,-0.2173251943229656,0.0751762567159024
3.890000000000001,0.1911845855741836,-0.2091655694586503,0.0763647333139683
3.899999999999992,0.2123185216985817,-0.2108781767057799,0.083785749227712
3.9099999999999966,0.2051508799566557,-0.1988893294155677,0.0858549597402917
3.9200000000000017,0.175239710155706,-0.1918486265068689,0.0699233706941232
3.9299999999999926,0.173314710776332,-0.1715317352017879,0.0700427635497124
3.9399999999999977,0.1547611441565305,-0.1692641598981665,0.0700517116307832
3.950000000000003,0.1323475502197317,-0.1614259460742723,0.0773731666455819
3.9599999999999937,0.1131054559621229,-0.1710347394366409,0.0739234840550142
3.969999999999999,0.0651401961307661,-0.1670273992254548,0.0690434487297532
3.9799999999999898,0.0537655085808585,-0.1573306506013097,0.0690033615035704
3.989999999999995,0.052535125522581,-0.1515702857241438,0.0725979385446044
4.0,0.0739185582005935,-0.1190618802981526,0.0713895201060119
4.009999999999991,0.0877612038120172,-0.1064668504666965,0.0705012387979115
4.019999999999996,0.0721039209143235,-0.0982732024851189,0.068631490620061
4.030000000000001,0.0751823103812091,-0.0667692741970153,0.0695457195895709
4.039999999999992,0.0966549119170125,-0.0618474304981052,0.0770740236216698
4.049999999999997,0.12773372982852,-0.0292801560447794,0.1017101503424475
4.060000000000002,0.1375026566043673,-0.0200409713054147,0.1137405950703246
4.069999999999993,0.1718540834177212,0.0168481033568614,0.0996152255376785
4.079999999999998,0.18965847997039,0.0381300561790589,0.0947332573527482
4.090000000000003,0.192742271165207,0.0828920675656567,0.1011545589665661
4.099999999999994,0.1893642904799288,0.0891677147082274,0.0867021417497844
4.109999999999999,0.1629843237672777,0.1105493823243103,0.0713268325691753
4.11999999999999,0.1236674603701368,0.1208601706698859,0.0747519620186478
4.129999999999996,0.1294030137917343,0.1296024685945783,0.0662321283596462
4.140000000000001,0.1234720810151963,0.161375713546854,0.0623270057332953
4.149999999999992,0.1048998028491466,0.1572918922466902,0.0451827688483234
4.159999999999997,0.098411591913488,0.1784351178880972,0.059006204591558
4.170000000000002,0.1046177155687777,0.1852211356878336,0.0662853958178523
4.179999999999993,0.1360786160243595,0.186278135453467,0.07549403110077
4.189999999999998,0.1666810752844646,0.1969249848540121,0.0745798071768463
4.200000000000003,0.1899332942265612,0.1992909181406517,0.0706437781037646
4.209999999999994,0.1826039233943946,0.2119073130346526,0.0814664293027735
4.219999999999999,0.1595025438397432,0.1799808584734625,0.0797677266833557
4.22999999999999,0.135016652414781,0.1660262744394451,0.0889919120019501
4.239999999999995,0.1110950555527426,0.1632234011249008,0.1048622543165648
4.25,0.0957333174460858,0.1549349269117258,0.1176045490468039
4.259999999999991,0.0896202389665669,0.1448423176729296,0.108598125564841
4.269999999999996,0.0535005190223805,0.1445915499897367,0.1092135796997491
4.280000000000001,0.0399834701818835,0.1202657756417725,0.1064364880359107
4.289999999999992,0.0216182664623923,0.0925744752184591,0.0761578764942509
4.299999999999997,0.0303059366888352,0.0800254882193254,0.0526647449739432
4.310000000000002,0.0338315943641313,0.0649540795160371,0.0480089832720388
4.319999999999993,0.0466408589353902,0.0478387945948799,0.033964164494766
4.329999999999998,0.0722812352957963,0.0314326591020843,0.0391480415618035
4.340000000000003,0.1000871466635083,0.0314284813090876,0.0184704328812364
4.349999999999994,0.1268924338564027,0.0099844889278714,0.0106633218039625
4.359999999999999,0.1904751529754487,-0.0082614235494903,-0.0220052598070433
4.36999999999999,0.1898849379009727,-0.0349157046677093,-0.0381782302616466
4.379999999999996,0.1899940705695425,-0.0447307720277049,-0.0336537714349614
4.390000000000001,0.2027600237184561,-0.0660546358918173,-0.0672337787866009
4.399999999999992,0.2104649380628053,-0.0794210317553035,-0.0815525825634023
4.409999999999997,0.1872486058629242,-0.0904447624225538,-0.0969741905079245
4.420000000000002,0.1649759153406318,-0.0969530199221789,-0.1042907436257975
4.429999999999993,0.12949707163443,-0.1098656107567997,-0.1458833369699144
4.439999999999998,0.1038705133216455,-0.1007162922335457,-0.1516645938965248
4.450000000000003,0.0827775299442256,-0.0911614332764276,-0.1773949301736974
4.459999999999994,0.0709258471816183,-0.090527405328799,-0.1886583674940222
4.469999999999999,0.0590468842445166,-0.087989574352778,-0.2002194409788393
4.47999999999999,0.0500784494493508,-0.0672363742063157,-0.2080468384550884
4.489999999999995,0.0367590546788164,-0.0553335133933065,-0.2099085400830607
4.5,0.0503949934726088,-0.0334082693475741,-0.2239397977587957
4.509999999999991,0.0748880940660344,-0.0207267350979254,-0.2271090981675481
4.519999999999996,0.1177652142196891,-0.0139769087736168,-0.2172863560675126
4.530000000000001,0.1395132463920479,0.002741744254789,-0.2400793432561931
4.539999999999992,0.1593256765557196,0.0139980933037277,-0.2166027133017928
4.549999999999997,0.1734131607963368,0.0141085555946593,-0.2113366817879746
4.560000000000002,0.1490599135366647,0.0089604790576222,-0.1819023410344707
4.569999999999993,0.1378772531180063,0.0157897977995522,-0.1591329798344234
4.579999999999998,0.1067512744617725,0.013370015539542,-0.1408196198392415
4.590000000000003,0.0884697743774728,0.0001221437526742,-0.1165311043225558
4.599999999999994,0.052389319727094,-0.0169801445358619,-0.112805925941572
4.609999999999999,0.0368434000299734,-0.0156373555655647,-0.0968614811687055
4.61999999999999,-0.0064257409412598,-0.029245786326878,-0.0883586537986885
4.629999999999996,-0.0609840900355462,-0.0281000149923013,-0.0697474361492903
4.640000000000001,-0.0829126421242008,-0.0692922060435156,-0.0593205893664883
4.649999999999992,-0.0928634359739984,-0.0887740066579604,-0.0482681323441605
4.659999999999997,-0.0939183216685617,-0.0675379606010707,-0.0379628175494066
4.670000000000002,-0.0859362240954707,-0.0808958053308683,-0.036037198594151
4.679999999999993,-0.0725550315031951,-0.0986259891477441,-0.0396906652758093
4.689999999999998,-0.0786421839800771,-0.1025057661799238,-0.0395783866636648
4.700000000000003,-0.0838364018449533,-0.109139709720055,-0.0545328844637514
4.709999999999994,-0.1011781095124493,-0.1303509324776614,-0.0588059147792403
4.719999999999999,-0.0774753084809714,-0.1334419168191259,-0.0589865890796404
4.72999999999999,-0.0531520997296543,-0.1397209914693344,-0.0609151772023933
4.739999999999995,-0.0522208554970937,-0.1560180165608772,-0.0820900626515961
4.75,-0.0635828035991965,-0.1631345468930815,-0.066097792332321
4.759999999999991,-0.0577451981194749,-0.1568838435534285,-0.0723421077963874
4.769999999999996,-0.0577928543458334,-0.1595932936977168,-0.0996118387217298
4.780000000000001,-0.0440273102399183,-0.1611480352665395,-0.0997218850211281
4.789999999999992,-0.0348176087652397,-0.1351806049922294,-0.1033421422540472
4.799999999999997,-0.0407045039417488,-0.1213375073434378,-0.0980812859611276
4.810000000000002,-0.0760008915605375,-0.1162091735627918,-0.0872042077421836
4.819999999999993,-0.0904984866398432,-0.0884593593631958,-0.0395340135977032
4.829999999999998,-0.0934812961059491,-0.0527600609801715,-0.0148916230804189
4.840000000000003,-0.0933046708790558,-0.0354827271479958,0.0203548655700709
4.849999999999994,-0.0875548263989739,-0.020458099457254,0.0483724067514204
4.859999999999999,-0.1227114039335327,0.0034797367489238,0.0892704249824815
4.86999999999999,-0.1350504074296048,0.0262916847333724,0.1190271027551456
4.879999999999996,-0.1323602074928772,0.0329498568090437,0.1440141673389063
4.890000000000001,-0.1363130001362047,0.0524684956369552,0.1823826869795639
4.899999999999992,-0.1385138381248133,0.0745910769991078,0.1970158018037605
4.909999999999997,-0.137209432538173,0.0735125519678236,0.2229589252139607
4.920000000000002,-0.1399489162187717,0.0852006186003921,0.2449416258412201
4.929999999999993,-0.1682320419789662,0.1039438627685342,0.2530551983802144
4.939999999999998,-0.1643213581751638,0.1129218656818061,0.2751979557354129
4.950000000000003,-0.180152897837241,0.1362409769087661,0.3121628591838132
4.959999999999994,-0.1501648174631544,0.1650714124475691,0.332466356587309
4.969999999999999,-0.1450339550434886,0.185033844680406,0.361968543140149
4.97999999999999,-0.1763602529950276,0.1926854500161604,0.3723319159313714
4.989999999999995,-0.1942056720381823,0.1761808305110063,0.3815834427026454
5.0,-0.1930705931301822,0.1803822031241159,0.3865928551037927
5.009999999999991,-0.1889320637866156,0.1588911069534051,0.3886488309912417
5.019999999999996,-0.1738660221774887,0.1094866935257959,0.3938672534952543
5.030000000000001,-0.1210616919777825,0.0526583488299845,0.3885196847491224
5.039999999999992,-0.1321090093854809,-0.0168215409255272,0.3798250721727007
5.049999999999997,-0.1225611022292262,-0.0867483249759071,0.3959190349368016
5.060000000000002,-0.1532928737955711,-0.1241865822276065,0.3995341747324909
5.069999999999993,-0.1777370055768898,-0.152776821270687,0.4175549698553147
5.079999999999998,-0.2101440074597253,-0.1780473165699695,0.4254418031480039
5.090000000000003,-0.1909295991201563,-0.2032203845486836,0.4282178252504515
5.099999999999994,-0.1881459486225992,-0.2352666154551681,0.4012903930217307
5.109999999999999,-0.1821558113622263,-0.2658427390060752,0.4017448940028318
5.11999999999999,-0.2106580088168569,-0.2890207971354191,0.3837773754121963
5.129999999999996,-0.2469127027942047,-0.3096316495867413,0.3661820519871633
5.140000000000001,-0.2936873274387295,-0.327339041771695,0.3773248084531242
5.149999999999992,-0.3435468416004794,-0.3829526189512293,0.3593531458768672
5.159999999999997,-0.3459519408143081,-0.4313709021939014,0.3674886835399206
5.170000000000002,-0.307437027742603,-0.4971576781610464,0.3729003740877022
5.179999999999993,-0.2374038437362054,-0.5415043553692465,0.3634447822172694
5.189999999999998,-0.1741334561409914,-0.5400973365051651,0.3693932110448776
5.200000000000003,-0.1687937532769366,-0.5047389076919001,0.3705667328134183
5.209999999999994,-0.1831213606836376,-0.4746162532507708,0.3656310079532358
5.219999999999999,-0.1636293363607007,-0.4614155789591003,0.3622705964292358
5.22999999999999,-0.1478365251778726,-0.4106120169525683,0.3669278147101217
5.239999999999995,-0.1094449584316618,-0.3458747366544533,0.3588901855970838
5.25,-0.0436844057331606,-0.2674343390619454,0.3659018819459115
5.259999999999991,-0.0097946097118461,-0.2128046963712066,0.4081692130718301
5.269999999999996,0.0433015178978225,-0.1657562308589084,0.4566988343427691
5.280000000000001,0.0627894526819911,-0.134392435997448,0.4991141064753602
5.289999999999992,0.0455585395974459,-0.1120168542660226,0.5358148509890807
5.299999999999997,0.0204501829437037,-0.0961893336828446,0.5788215645526018
5.310000000000002,-0.0263268876362611,-0.0688016119127041,0.592678032658973
5.319999999999993,-0.0798264492968528,-0.0513545886560333,0.6147649728561996
5.329999999999998,-0.1084069956050868,-0.0110454113730354,0.6210795966666202
5.340000000000003,-0.1352068055561788,-0.0067037589204562,0.6236270090297392
5.349999999999994,-0.1649733967707915,0.0206552605425946,0.6192512953072318
5.359999999999999,-0.1866812812579011,0.0327477398576058,0.6115740490233399
5.36999999999999,-0.235593853039371,0.0160898658275502,0.6178618221441874
5.379999999999996,-0.2416609633456707,0.0038699636299696,0.6139508004356578
5.390000000000001,-0.2300257680502848,0.0014771137953561,0.6230797396058624
5.399999999999992,-0.2240283802989852,-0.0065921566631855,0.6140367845615264
5.409999999999997,-0.1982828778695314,-0.0001327562000713,0.5945521397417398
5.420000000000002,-0.1880209251641707,-0.0006589645862239,0.5663036067534192
5.429999999999993,-0.1594599346973186,0.0233603660160185,0.5535389793521858
5.439999999999998,-0.1773009219445644,0.037228718760187,0.534523376277573
5.450000000000003,-0.2046014836310136,0.0291446223612243,0.4990364497544681
5.459999999999994,-0.1935937641909029,0.0489673873124016,0.4853235778432733
5.469999999999999,-0.1544031075182399,0.0311022408649653,0.4827196601446321
5.47999999999999,-0.0920620489460582,0.0266742734373645,0.4609276724132667
5.489999999999995,-0.0475021741799818,0.0220447209154543,0.4642422892225397
5.5,0.0223279773589842,0.0149044273774573,0.4539496949059656
5.509999999999991,0.0483998409157742,0.0311425775786317,0.4510663112138813
5.519999999999996,0.079166301136458,0.0410057705353524,0.4288087066475651
5.530000000000001,0.0690123261976576,0.0624666130507708,0.4208406129139813
5.539999999999992,0.0859488280720049,0.0860859028875578,0.4199135630541566
5.549999999999997,0.0873144125407273,0.1102855465949098,0.4109153208509722
5.560000000000002,0.0910143272406889,0.143256203722174,0.4030998312492699
5.569999999999993,0.0867281247636288,0.1624272148066614,0.4082740385906288
5.579999999999998,0.0498566665201799,0.1830366095806311,0.3955026730242956
5.590000000000003,-0.0201618878994554,0.210647052091494,0.3912725003707419
5.599999999999994,-0.0799215056053345,0.2362732757778433,0.385605958160664
5.609999999999999,-0.1589776777659279,0.2483389651870719,0.3885890670012299
5.61999999999999,-0.2127941870889842,0.2513245697874494,0.3725339263459029
5.629999999999996,-0.2690977239720213,0.2653710937718925,0.3718815979164919
5.640000000000001,-0.311906746177698,0.2491573715180393,0.3698113070930257
5.649999999999992,-0.3773529393722016,0.2476856117437427,0.3762811715458051
5.659999999999997,-0.5103141329600697,0.2465914253880816,0.3730496860254553
5.670000000000002,-0.7216107317509958,0.2092405380280212,0.3946267807032856
5.679999999999993,-0.9220508869080718,0.1914244082392258,0.436877923144691
5.689999999999998,-1.052275945238548,0.1641849532261325,0.4605936699028153
5.700000000000003,-1.1325264180940826,0.1370728080251533,0.5003054527326696
5.709999999999994,-1.1461958917865194,0.1321397669852196,0.5231184142968914
5.719999999999999,-1.1046148707400614,0.126816016916286,0.5557371759597619
5.72999999999999,-1.015574649724868,0.1198842742237796,0.5662967313073197
5.739999999999995,-0.86049792903908,0.0998641323889363,0.568187915810584
5.75,-0.6653359659022311,0.0884347573165472,0.5780574171002316
5.759999999999991,-0.4581179304334659,0.0716516479823966,0.5477675860529361
5.769999999999996,-0.2053756220343769,0.0485907474335651,0.5448194074895724
5.780000000000001,0.0406011706647557,0.0471577625411492,0.477185267175597
5.789999999999992,0.2926616788056626,0.0277863293719068,0.4495581132932982
5.799999999999997,0.48216871017243,0.0067737778465566,0.3770308155772993
5.810000000000002,0.6408497680122742,-0.0144597787879672,0.3007038927626726
5.819999999999993,0.7627598256422323,-0.0099964690296516,0.2391803586403928
5.829999999999998,0.8149042663268127,-0.0148412364485416,0.1628190914821936
5.840000000000003,0.8543517463284641,-0.0265613207546957,0.1062570676282291
5.849999999999994,0.8346280159866121,-0.0382747533181913,0.0367309677320135
5.859999999999999,0.794791004370576,-0.0557076546464833,0.0062171810627705
5.86999999999999,0.7453189869732112,-0.0689098469775903,-0.0205762986095424
5.879999999999996,0.6483271652966357,-0.0823920481674199,-0.0297299080863463
5.890000000000001,0.5415509166353358,-0.1085130265879294,-0.0118741711490492
5.899999999999992,0.4211815981801233,-0.1127101252320861,-0.0105221493589896
5.909999999999997,0.291180487265673,-0.146519072928403,0.0289469346388432
5.920000000000002,0.1491243553532585,-0.1465392367336496,0.0442415803369614
5.929999999999993,0.0069288494774498,-0.1579345527079036,0.0732518085689778
5.939999999999998,-0.1085851108389745,-0.1604602880574974,0.084672576259083
5.950000000000003,-0.184955162681599,-0.1837852611858294,0.1118206438893713
5.959999999999994,-0.2451397683130567,-0.1963721659170925,0.1516513296474133
5.969999999999999,-0.2709696095045647,-0.229141831759611,0.1883738051752433
5.97999999999999,-0.2875965271444974,-0.2518062867744069,0.2127112929015567
5.989999999999995,-0.2894290547321369,-0.2638664968733991,0.2469315874514583
6.0,-0.2645644570136077,-0.2843845986735273,0.2741890720830279
6.009999999999991,-0.2419590914058775,-0.3105018253191381,0.2882730162792951
6.019999999999996,-0.2118160447326577,-0.3169144973128016,0.3089600856711394
6.030000000000001,-0.1606136748379399,-0.3258875296637835,0.3090269515016673
6.039999999999992,-0.1027978194383759,-0.3025213848170143,0.3026425600909278
6.049999999999997,-0.0698996984028124,-0.2980418576610777,0.2837579745947872
6.060000000000002,-0.0246803052240347,-0.2571138992614835,0.2806214406389937
6.069999999999993,-0.0098296200729125,-0.2173953853022253,0.2754148432803464
6.079999999999998,0.0213492471805035,-0.1720093009985271,0.2551631915511638
6.090000000000003,0.038173399251424,-0.1281768158488807,0.2415163651917293
6.099999999999994,0.0533396308535857,-0.0921900969444702,0.2280347048098899
6.109999999999999,0.0720429414751442,-0.0658121525846824,0.218428383467255
6.11999999999999,0.0674550860125698,-0.064365893031437,0.227690303042735
6.129999999999996,0.0620054874867499,-0.055515027493436,0.2398025776976957
6.140000000000001,0.0639280222760573,-0.0800467749571856,0.232693557275899
6.149999999999992,0.05218279111254,-0.066009464924563,0.2434637444630908
6.159999999999997,-0.0056373865954636,-0.0846352408566229,0.2558019112760771
6.170000000000002,-0.0343070178178296,-0.1077405769733307,0.2866349563653287
6.179999999999993,-0.0504958885133615,-0.1132700715831522,0.2975523840108751
6.189999999999998,-0.0587585083090571,-0.1163135277762738,0.3205004886531682
6.200000000000003,-0.0656227384581173,-0.1166008889288592,0.3584810220647318
6.209999999999994,-0.082677371850175,-0.1230694184023294,0.3772894358486398
6.219999999999999,-0.0933815819322515,-0.1121193882291101,0.4310548311205006
6.22999999999999,-0.1211409934807407,-0.1211529076864779,0.4500008928796166
6.239999999999995,-0.1636520447105215,-0.1129846972070721,0.4968821624766638
6.25,-0.2126107348354997,-0.1022944373420251,0.5034235531698665
6.259999999999991,-0.2335888600436253,-0.0871306000001118,0.5396950994851494
6.269999999999996,-0.257742269844323,-0.0903072908453817,0.5512837709422969
6.280000000000001,-0.2305784108038862,-0.0887370101152687,0.583960074301454
6.289999999999992,-0.2139101711586102,-0.1161706646516619,0.5959311137346457
6.299999999999997,-0.2063164414887076,-0.1057889062647773,0.6316729429337641
6.310000000000002,-0.2064118565988342,-0.111079697854348,0.6292421707731645
6.319999999999993,-0.2016302157179776,-0.0677093437227985,0.6229827910580624
6.329999999999998,-0.1878569217555718,-0.0455327931154334,0.6172579684848798
6.340000000000003,-0.1845993873767688,-0.0095555785793494,0.5928801348051574
6.349999999999994,-0.1447927849291081,0.0130949456144771,0.5672025044046471
6.359999999999999,-0.1034230161130958,0.0124816076981256,0.5589690526315866
6.36999999999999,-0.0472055704020702,0.0080079281623712,0.5645129182447918
6.379999999999996,-0.0010385955456269,0.0061281052237007,0.5283866514967263
6.390000000000001,0.026006639067645,-0.0058639003192484,0.5267306518771762
6.399999999999992,0.0277100509247325,-0.0315749847208776,0.5054376997469693
6.409999999999997,0.0176537040547218,-0.0286274030428158,0.4948937623827645
6.420000000000002,0.0297501398540899,-0.0589872659173112,0.4915297524024672
6.429999999999993,0.0158202208643818,-0.0668061454414499,0.5108142279321969
6.439999999999998,0.0169891670502435,-0.0994036774773876,0.5200567892859222
6.450000000000003,0.0210642012151287,-0.1179622891740837,0.535525693829143
6.459999999999994,-0.0107715490617065,-0.127940179492012,0.5441126335824428
6.469999999999999,-0.0237300521507724,-0.1000820835213223,0.5718736535138774
6.47999999999999,-0.0800379722718495,-0.0683554689118117,0.5893469033396335
6.489999999999995,-0.1201045285341541,-0.0242474379501924,0.5944270768767281
6.5,-0.1091514470381864,0.0207940713330618,0.6034369663065495
6.509999999999991,-0.0779404561138966,0.046926088421382,0.6072446614608308
6.519999999999996,-0.0210728994744394,0.076468521272209,0.6166635233295863
6.530000000000001,0.0390483236610742,0.0992506343401024,0.6000850030528315
6.539999999999992,0.0976984449738239,0.1113411021639441,0.6032007557824689
6.549999999999997,0.1487587645608015,0.1482057552002186,0.6063070087751736
6.560000000000002,0.1959983195370711,0.1401027065420878,0.593543394236081
6.569999999999993,0.2119338293578368,0.1226141503339081,0.6007058133295496
6.579999999999998,0.2231719311672663,0.1271662215674663,0.6092351153211812
6.590000000000003,0.2179772560536906,0.1341984886974344,0.6096768386204684
6.599999999999994,0.2264412301325315,0.1133316085838912,0.6323272127351961
6.609999999999999,0.2252762703063574,0.111285433311305,0.6663517913360322
6.61999999999999,0.2539491036518925,0.09618568343765,0.6921989611046244
6.629999999999996,0.2719504923292472,0.0676394479549427,0.7005500890666032
6.640000000000001,0.3053050126664741,0.0391714332663539,0.718455165594337
6.649999999999992,0.337195740181222,0.0033400222665114,0.7461834019070906
6.659999999999997,0.3862969119549927,-0.0219321821220222,0.7781454207983413
6.670000000000002,0.4077307372686314,-0.0454775706814918,0.7908921636816405
6.679999999999993,0.412821926173174,-0.0505586073991883,0.7993186005959461
6.689999999999998,0.4448633166260568,-0.0529751772498313,0.7977356412226277
6.700000000000003,0.4640706179793447,-0.0366261480090745,0.8061004250743216
6.709999999999994,0.4744509710664384,-0.0371850028756306,0.8221133968827237
6.719999999999999,0.5011933561172743,-0.0297696804794838,0.8128882057937863
6.72999999999999,0.5080085980627255,-0.0370890254566223,0.8270665280858644
6.739999999999995,0.4758713567974227,-0.0402978427408252,0.8502383713109037
6.75,0.4688666464115859,-0.0510366589502299,0.8308227120084923
6.759999999999991,0.4596199748288122,-0.0569802842479382,0.811626175093101
6.769999999999996,0.4425689038609868,-0.0494326534431473,0.804399721069051
6.780000000000001,0.4361254671363035,-0.0502180997929143,0.7835928933075574
6.789999999999992,0.4114593848026914,-0.0497234564807851,0.7551146444504719
6.799999999999997,0.385175392510678,-0.0271550451889913,0.7539546994809136
6.810000000000002,0.3566049050152159,-0.0430542367702843,0.749216323610359
6.819999999999993,0.3250741474230801,-0.088019000258304,0.7597317811504686
6.829999999999998,0.2588271994626135,-0.1266334031733353,0.7850574690018302
6.840000000000003,0.1993110688184932,-0.1784856260258318,0.7783541624504104
6.849999999999994,0.1353542322054721,-0.2328085124317084,0.7719703547346838
6.859999999999999,0.0952563158838546,-0.2273374596686748,0.7588957887646459
6.86999999999999,0.068506887864346,-0.2133364875484434,0.73089073376817
6.879999999999996,0.0448211492381931,-0.1877739322438492,0.6770695225816711
6.890000000000001,0.046512324518647,-0.1755595906147305,0.6463403789228392
6.899999999999992,0.0411355424008608,-0.1531137544845682,0.6224164614278284
6.909999999999997,0.0289771858244434,-0.1193559617033906,0.6095277114249292
6.920000000000002,0.0061375419595491,-0.0961719646873716,0.5782608944049757
6.929999999999993,-0.0315667905381065,-0.0591884434055468,0.5401552150960715
6.939999999999998,-0.0826673292133775,-0.0221240978492317,0.5043786306288546
6.950000000000003,-0.1364204376147464,0.0077080799687339,0.4657292469132961
6.959999999999994,-0.1793504479912755,0.0310853765334944,0.4350495029269457
6.969999999999999,-0.2673199605667446,0.0443309569649658,0.4279331297761066
6.97999999999999,-0.3144955886023274,0.0495402595827624,0.4103157958235786
6.989999999999995,-0.3452143957970578,0.0776693142878953,0.4137188813442636
7.0,-0.3683945833517068,0.094284716614483,0.3999775427643089
7.009999999999991,-0.3699341463714558,0.0982349204772243,0.3937394341043413
7.019999999999996,-0.3451277815029445,0.0978227863655548,0.389879387251982
7.030000000000001,-0.3258474579877974,0.094993390786451,0.4050255414360808
7.039999999999992,-0.3189855474237418,0.0928936992004095,0.4293838790504695
7.049999999999997,-0.2818981991404046,0.1022071828050283,0.4261274847322543
7.060000000000002,-0.2679425489254787,0.1122866261327278,0.4555690553942046
7.069999999999993,-0.2577170496561675,0.0868031079641757,0.4649680809845766
7.079999999999998,-0.2400007989260002,0.0657947523228114,0.494360271278912
7.090000000000003,-0.2414467823516574,0.0731240480906898,0.4965731867952336
7.099999999999994,-0.222927812417536,0.0885923570985824,0.5295187166587509
7.109999999999999,-0.1699224198148865,0.0941714379592413,0.5099508712361678
7.11999999999999,-0.1392955253923365,0.1027543227854552,0.5096283785790103
7.129999999999996,-0.0719989518588004,0.0910304986771105,0.492477809547921
7.140000000000001,-0.0110116444128929,0.1032716507905402,0.4755908434745561
7.149999999999992,0.05961523382147,0.122519627478445,0.4666311592920309
7.159999999999997,0.1137181723063415,0.12791694021837,0.4273136186599309
7.170000000000002,0.1690182039285087,0.1244006945254044,0.3906762837891943
7.179999999999993,0.2189189481453964,0.1602972496199058,0.3720583486907206
7.189999999999998,0.2368945973493279,0.1815341735991149,0.3428487049367675
7.200000000000003,0.2679530770894096,0.1801549775496256,0.2834941015849814
7.209999999999994,0.3022250610080477,0.2211227802729904,0.2323291419648343
7.219999999999999,0.3384444866267177,0.2355213204219748,0.1682843068442029
7.22999999999999,0.389234830412252,0.2389577931283419,0.0654866179544573
7.239999999999995,0.4347885968913715,0.2735387181878132,0.0037177769921995
7.25,0.4486072014529037,0.2846511770997919,-0.0588036419755543
7.259999999999991,0.4598171247304858,0.2852845821009707,-0.1393686717881938
7.269999999999996,0.4537758734994289,0.2963534222242839,-0.1633615369308648
7.280000000000001,0.4182279261867294,0.2589907857432643,-0.2042631458794425
7.289999999999992,0.3789791842320738,0.2372215669476601,-0.1857439968009227
7.299999999999997,0.3268321561212424,0.1962824400515042,-0.2189010510845281
7.310000000000002,0.2487402299080298,0.1970738605553032,-0.1899423649092443
7.319999999999993,0.1924370313333747,0.2070664785992758,-0.1654106115936842
7.329999999999998,0.1128889258299916,0.1679799029044907,-0.1528775509618549
7.340000000000003,0.0295498097012806,0.1268821529341069,-0.156798184669699
7.349999999999994,-0.05482240536026,0.127108114581081,-0.1307481874698871
7.359999999999999,-0.1199636350122852,0.0909433917779569,-0.1078493581379547
7.36999999999999,-0.1880223709459007,0.0523660309249409,-0.0940940625514156
7.3799999999999955,-0.2426893517042686,0.0401920866782466,-0.0646411424268487
7.390000000000001,-0.2814725565105074,0.0019725671374655,-0.0525703448121978
7.399999999999991,-0.2860387434139329,-0.0275651065858866,-0.0449187324295734
7.409999999999997,-0.2593826714747947,-0.044464648346312,-0.0337834097434235
7.420000000000002,-0.2360522933360147,-0.0671365370906895,0.007652110047464
7.429999999999993,-0.1896325733638659,-0.0948988767172051,0.0553410766602043
7.439999999999998,-0.1335937501822865,-0.1091531007138781,0.0449369103137404
7.450000000000003,-0.0602697644164286,-0.095206801075889,0.0547752992032676
7.459999999999994,0.0337949696567099,-0.0851733244286065,0.0461748997216436
7.469999999999999,0.1048176461287094,-0.0721385382331175,0.0236808360409068
7.47999999999999,0.1642464048935079,-0.0449956322216101,0.0200461146655041
7.489999999999995,0.205861781099728,-0.0492642756478658,0.0123803334224482
7.5,0.2252940757087216,-0.0204489590992912,0.0202124148371018
7.509999999999991,0.248385598529703,0.0010511447949811,-0.0019726103223394
7.519999999999996,0.2566840109913188,0.0211315786211784,-0.0112409543534179
7.530000000000001,0.236022157913665,0.0215972276544395,-0.0080297060225901
7.539999999999992,0.2104870654628003,0.0331631487977279,-0.0022676570780104
7.549999999999997,0.1755903427976366,0.0213311500403539,0.0075454888678285
7.560000000000002,0.1492953133636766,0.0338926293178322,0.0050688908779548
7.569999999999993,0.1010314988167655,0.0400240611816469,0.0133369963487904
7.579999999999998,0.0521545137318104,0.0553250460032457,0.0337628674254462
7.590000000000003,0.0145896445702153,0.0717423566491762,0.0368288031886172
7.599999999999994,-0.0170563708371259,0.084582178661524,0.0314586082323345
7.609999999999999,-0.0341414993137729,0.1242912965720662,0.0230105057869855
7.61999999999999,-0.0576706967497116,0.1190658887232529,0.0131296834504698
7.6299999999999955,-0.0587382383830015,0.1518608138843764,0.0081909124983635
7.640000000000001,-0.0758378869012082,0.1640853800509759,0.0308247095522543
7.649999999999991,-0.0787102516707702,0.1795962017117992,0.0339703472619257
7.659999999999997,-0.0867966108097301,0.1830655701555704,0.0396908679118978
7.670000000000002,-0.1127681689638206,0.1829884350268872,0.0500645833254417
7.679999999999993,-0.1245282511849103,0.163779559586061,0.0734746757245118
7.689999999999998,-0.1573353540752252,0.1413362110978254,0.0786431600897042
7.700000000000003,-0.170415481454142,0.1374332057574063,0.0632287438964637
7.709999999999994,-0.1820709002933411,0.1542544586421725,0.0636480699169518
7.719999999999999,-0.1857962867250842,0.1546599711068274,0.0668354230914453
7.72999999999999,-0.1929169272654645,0.1795363976811942,0.0449454675793176
7.739999999999995,-0.1940494889330784,0.2013126874782886,0.0561886113975095
7.75,-0.2005427960855192,0.2057097822532768,0.058980456720087
7.759999999999991,-0.2102364104968449,0.1994746104181889,0.0740575583598099
7.769999999999996,-0.2258567779689089,0.1608339490680035,0.1008336609441078
7.780000000000001,-0.232757070284868,0.1570358572691743,0.1177948164054531
7.789999999999992,-0.2421705713022333,0.1203132041761936,0.1301410704657591
7.799999999999997,-0.2370768424358897,0.1380399485200879,0.118849835196479
7.810000000000002,-0.2473496986391937,0.1332341975431062,0.1034544588999407
7.819999999999993,-0.2930806650180418,0.1212744943666454,0.0805235941995709
7.829999999999998,-0.3445260437934886,0.1224514562585534,0.0706510608825113
7.840000000000003,-0.3916827580652375,0.1087170642432211,0.0442909606431613
7.849999999999994,-0.4287764025998221,0.0941231593066442,0.0164287142273636
7.859999999999999,-0.4325036700432624,0.0963367152082429,0.0110660784638161
7.86999999999999,-0.4325424882584485,0.095568071911401,-0.0224259611505405
7.8799999999999955,-0.4306547160756393,0.1085694744733281,-0.0338263654805157
7.890000000000001,-0.4045596977342717,0.1232550831013396,-0.0685158944763158
7.899999999999991,-0.3494388372449544,0.1714962022534167,-0.08461555550476
7.909999999999997,-0.2739822720124648,0.2137096341020057,-0.0553134609303326
7.920000000000002,-0.1773520368873521,0.2399658268448778,-0.0337014127052433
7.929999999999993,-0.0709420894459781,0.2221277296845675,0.0032568515088042
7.939999999999998,0.020618340574324,0.199525873491995,0.0214798586357093
7.950000000000003,0.1443001532669535,0.1667879152088962,0.0830893432658339
7.959999999999994,0.2393392865364466,0.1179042915821694,0.123623064533481
7.969999999999999,0.3950692186076306,0.1294653103811597,0.1212299885287699
7.97999999999999,0.5340094464747657,0.1293592575545835,0.114308959552323
7.989999999999995,0.6299380430509762,0.1335428318031082,0.1255648958566294
8.0,0.7039412067312001,0.1172385116926578,0.129023564189365
8.009999999999991,0.7916223810072163,0.0958627101634936,0.1175218338655983
8.019999999999996,0.8534555216239791,0.0649611768880226,0.1104739759348062
8.030000000000001,0.8706993765726897,0.0525835593754373,0.0747151136251684
8.039999999999992,0.8724547811824258,0.0380696729099841,0.030150950245406
8.049999999999997,0.8569797400064831,-0.0047733402293094,0.0043893679613141
8.060000000000002,0.8291673959996618,-0.0418810295292346,-0.0214181356003252
8.069999999999993,0.7783747049945555,-0.0710743572860868,-0.0514340937959946
8.079999999999998,0.7268968504907698,-0.128158408718086,-0.04343120284728
8.090000000000003,0.6593283497612428,-0.1737521090049813,-0.0610291169998468
8.099999999999994,0.5930373417954845,-0.2240972098531872,-0.0880428089724495
8.11,0.5309552847851141,-0.232323777264722,-0.1120874377050926
8.11999999999999,0.4717274648012803,-0.2535478547494135,-0.1558974418196122
8.129999999999995,0.4184650830965317,-0.2406366015200869,-0.1757831096066377
8.14,0.3564729108323907,-0.2420224728536198,-0.17796020436687
8.149999999999991,0.2821800703631481,-0.2357849435854831,-0.1961233821666687
8.159999999999997,0.2164887552278078,-0.2089233990948385,-0.2105094660152509
8.170000000000002,0.1420851522071538,-0.192731610905855,-0.2075875937021335
8.179999999999993,0.0830080894216246,-0.1834914609850479,-0.2005875224389735
8.189999999999998,0.0316600210055984,-0.1652010620998087,-0.1822563467746662
8.200000000000003,-0.042708001893768,-0.1529968272834317,-0.1716180496123468
8.209999999999994,-0.0965548512695893,-0.1291721293565289,-0.1534073325392353
8.219999999999999,-0.1647890566580489,-0.0774737226048758,-0.1567907276938223
8.22999999999999,-0.206610028168407,-0.0464249190481309,-0.159988236539313
8.239999999999995,-0.2327070175080511,-0.0067539699021333,-0.1554761133583619
8.25,-0.2478025665946226,-0.0012475751584885,-0.1465128788998845
8.259999999999991,-0.2598218006895958,0.0122884726028441,-0.1367235919537875
8.269999999999996,-0.2497396805187325,0.0396145670193714,-0.1475138830447096
8.280000000000001,-0.2191407149569835,0.0504723968819731,-0.1406269284105842
8.289999999999992,-0.1969359284243997,0.0633448791164603,-0.1161787171487437
8.299999999999997,-0.1548035131719613,0.0940658575125416,-0.1270644416401042
8.310000000000002,-0.1314400569393614,0.1103807172466742,-0.1114002419383994
8.319999999999993,-0.07795752176897,0.1549707821964593,-0.1189015308117501
8.329999999999998,-0.0395903894204557,0.1791660815182982,-0.1032526231614605
8.340000000000003,0.0007510970555405,0.1986863207150511,-0.1142531764585466
8.349999999999994,0.0259656454688709,0.2140390165986784,-0.1090106491360863
8.36,0.0691825582146647,0.2111095567436106,-0.12184239955309
8.36999999999999,0.0867461669786838,0.2079972028483381,-0.1392838037102744
8.379999999999995,0.1086539674892679,0.1852923638582776,-0.1379648274528946
8.39,0.1442290074466088,0.1681537554525944,-0.1774255436734691
8.399999999999991,0.1897082203662717,0.1551225880700002,-0.2012302641681939
8.409999999999997,0.2286850584641936,0.1541922625843317,-0.2459436367311725
8.420000000000002,0.2692175939987065,0.1404863401921414,-0.2840665271571146
8.429999999999993,0.2740783248649081,0.1159953931433687,-0.3114353257361774
8.439999999999998,0.2753549810243472,0.0920824283527969,-0.3230070126984829
8.450000000000003,0.2751088457130068,0.0570577173121698,-0.3191191496210041
8.459999999999994,0.232984626453202,0.0400987766023041,-0.3191804443263727
8.469999999999999,0.2191481502358943,0.0254923239426194,-0.3159533329661323
8.47999999999999,0.1767000397022258,0.0198846684780212,-0.341917858126099
8.489999999999995,0.1389660261072222,0.0178984363997463,-0.3577405080579323
8.5,0.1050330370699584,0.0168473011668861,-0.4034199104025112
8.509999999999991,0.0628355050547644,0.0034307413398263,-0.4276631773442994
8.519999999999996,0.0399059584752385,-0.0161481694901786,-0.4241446573723393
8.530000000000001,-0.0011656782995153,-0.0365350297726484,-0.4181013717768008
8.539999999999992,-0.0744943384563674,-0.076819838694306,-0.4037478036181883
8.549999999999997,-0.1101506522087179,-0.0802272978220466,-0.4028904302703461
8.560000000000002,-0.1271874283945984,-0.0615284478312609,-0.4158173834591063
8.569999999999993,-0.1161433854299447,-0.0044353196916628,-0.4295089245368882
8.579999999999998,-0.0871902397664339,0.0112564392632295,-0.4393620392330735
8.590000000000003,-0.0791597370679837,0.0103307504296179,-0.4263500649614898
8.599999999999994,-0.036104724899777,0.0029452310319791,-0.423890906250073
8.61,0.0042553354251764,-0.0352549809175046,-0.4303692734320229
8.61999999999999,0.0205494395540803,-0.065856401492413,-0.4010753920947043
8.629999999999995,0.0182681528970497,-0.1077331050245122,-0.4055486266458522
8.64,0.0578234965031522,-0.1434335810660689,-0.3798489191723087
8.649999999999991,0.1073719766292723,-0.1576613729393871,-0.4114154656798408
8.659999999999997,0.1580740436989804,-0.1294223673522327,-0.4316940733365095
8.670000000000002,0.2235625096834986,-0.0917447162521264,-0.4698497501780044
8.679999999999993,0.2813999188199645,-0.0695315196099231,-0.4996458099175179
8.689999999999998,0.3406485679812676,-0.0186001772941094,-0.4957456189624711
8.700000000000003,0.3312519744812529,-0.0285512648920263,-0.4859119518903519
8.709999999999994,0.3119256609413454,-0.0409964481232632,-0.4807479663323308
8.719999999999999,0.2356540119997255,-0.1007402026911424,-0.4902376689432264
8.72999999999999,0.1546918319993153,-0.1471929339240213,-0.4876634937506503
8.739999999999995,0.0725242943258883,-0.1959768007170448,-0.5241711351788368
8.75,0.0053180508201336,-0.2344993940402397,-0.5334741376770674
8.759999999999991,-0.0349486273456274,-0.2451209607039581,-0.5496188609724489
8.769999999999996,-0.0718546963099294,-0.2487856432483688,-0.5675074287349828
8.780000000000001,-0.0862643844452699,-0.2386336786329969,-0.5615360473019073
8.789999999999992,-0.0968106658266711,-0.2366693429879058,-0.5542923829650878
8.799999999999997,-0.1117120403968341,-0.231748452174629,-0.5347626802109132
8.810000000000002,-0.1547379982974268,-0.2053627619338347,-0.4834764560206546
8.819999999999993,-0.2264628739838759,-0.2153645966669863,-0.4085663215389012
8.829999999999998,-0.2422640433005976,-0.2466841012180781,-0.3045650785802166
8.840000000000003,-0.2476147638971788,-0.2453749914778537,-0.2405782558954627
8.849999999999994,-0.2903004256310977,-0.2448091146148677,-0.1701538617735882
8.86,-0.2870783799432368,-0.2418500646601833,-0.1017236662979313
8.86999999999999,-0.2993643817063628,-0.2384846308870008,-0.0307058431864907
8.879999999999995,-0.3220405692734009,-0.2278296455675341,0.0371921148057638
8.89,-0.3325627277146287,-0.202674847354056,0.1144104694322865
8.899999999999991,-0.3248114386045382,-0.154719879800763,0.1960769519533663
8.909999999999997,-0.3386342812708836,-0.1382185415295661,0.2634912386144989
8.920000000000002,-0.3345422171086095,-0.1258823611676852,0.2931534773290194
8.929999999999993,-0.3211262998735304,-0.113593547808401,0.3269289290868259
8.939999999999998,-0.2872646495327539,-0.1202737780791666,0.3291204044043613
8.950000000000003,-0.2713076161037817,-0.1132460186457948,0.317089759213268
8.959999999999994,-0.2425838751740684,-0.1451179678586313,0.3104794857786416
8.969999999999999,-0.1892478447901974,-0.1492404675997976,0.2973657860184753
8.97999999999999,-0.1497786295601276,-0.1526037664871806,0.2746454641904384
8.989999999999995,-0.1190437684939898,-0.1612648489018891,0.2440129204214199
9.0,-0.0868244026782337,-0.1656171419021843,0.2316642379585528
9.009999999999993,-0.0480476861376916,-0.1887000095994586,0.2521922735308689
9.019999999999996,-0.0194670837604601,-0.2225560647420228,0.2574781190671904
9.03,0.0254983561392534,-0.2258615306785494,0.2260752934672855
9.039999999999992,0.0634202669020994,-0.2140002794017963,0.1790028038052485
9.049999999999995,0.0944966457911252,-0.1645721055364854,0.1080891895459099
9.060000000000002,0.1328334822852288,-0.1121462368979782,0.0175021689941755
9.069999999999991,0.1548246826678317,-0.0504165594355777,-0.0540093815037713
9.079999999999998,0.1844008724197303,0.0158231625735598,-0.1615300582243206
9.090000000000003,0.1897989200537214,0.0394883082596347,-0.2423102810142324
9.099999999999994,0.1983962159101709,0.0555489022303811,-0.3065402010464328
9.11,0.1922875335410117,0.009919616339187,-0.3693018350376701
9.11999999999999,0.1880176419460585,-0.0573243720436636,-0.4211635666029524
9.129999999999995,0.1884983991480488,-0.1098292450019005,-0.4360256343062753
9.14,0.1805553910782092,-0.1425101189848598,-0.4810600426454469
9.149999999999991,0.1933589093927383,-0.1310805849606846,-0.5030378023464521
9.159999999999997,0.174233101894614,-0.0676573758918743,-0.5325556493256424
9.170000000000002,0.1049220754219862,0.0016515289234626,-0.562658899602647
9.179999999999993,0.1037731639470739,0.0215680872215231,-0.5550989826598753
9.189999999999998,0.0456435857303452,0.0121872561887515,-0.5478348550051079
9.200000000000005,-0.0015211524693765,0.0006679100669232,-0.5172888608216317
9.209999999999994,-0.0705066603831398,-0.0246993648785153,-0.4907060530490674
9.22,-0.1806141449704207,-0.0950020009275858,-0.4394639794809971
9.22999999999999,-0.2553148870198693,-0.1629064090275561,-0.4345563297769812
9.239999999999997,-0.3349834626301011,-0.1526470783250579,-0.3914669123403083
9.25,-0.3745582026660229,-0.1012077912384039,-0.3985089254225999
9.259999999999993,-0.3933146185585683,-0.0439528794724286,-0.410653875159037
9.269999999999996,-0.3536102446528096,-0.0034389450456953,-0.3970449392396251
9.28,-0.2857863940695183,0.0033967441174691,-0.3724620121222963
9.289999999999992,-0.2005527311251655,0.0147548907636202,-0.3220079860549729
9.299999999999995,-0.0844422254921853,0.0121806019450062,-0.3172859107336379
9.310000000000002,0.0187709434532786,0.0285152143203268,-0.2920267253864112
9.319999999999991,0.1067435362336114,0.0292922484361078,-0.2993778916444296
9.329999999999998,0.1762050054869539,0.0247992644053334,-0.2721643137323147
9.340000000000003,0.2688235145987059,0.0318140580410107,-0.2369857523954306
9.349999999999994,0.3401128161408712,0.0473125493777079,-0.2079859409555025
9.36,0.4205848447080236,0.0618519354734984,-0.190250780129795
9.36999999999999,0.4973071227244792,0.1042369482636794,-0.1737490460317066
9.379999999999995,0.5489762357615433,0.110922619893711,-0.1398049873929211
9.39,0.5992406985906182,0.1188212798159945,-0.1213197859980106
9.399999999999991,0.5887154129031573,0.1467093812080931,-0.0923749718176216
9.409999999999997,0.5919156948589044,0.1654381886010596,-0.1215728758592292
9.420000000000002,0.6050550312237749,0.1555781777048533,-0.1865197306482652
9.429999999999993,0.5896224247909745,0.1464711069873019,-0.1973892681956668
9.439999999999998,0.5521137007632805,0.139135434616681,-0.2088501757336689
9.450000000000005,0.4910830053651831,0.1133351891870706,-0.2248071979419243
9.459999999999994,0.4147945570580403,0.0893490374633575,-0.2041054924749952
9.47,0.3203017614128602,0.0490938962089983,-0.1578098495779807
9.47999999999999,0.2255965578057232,0.0136241113356235,-0.1027869444324935
9.489999999999997,0.1009465934557802,-0.0067051080257469,-0.0608352678471017
9.5,-0.0305172825405539,-0.0193194890431611,-0.0526440478137617
9.509999999999993,-0.1491000800658666,-0.0075179268607683,-0.0626037103267901
9.519999999999996,-0.2253862125347462,0.0127304100552662,-0.0787721668212051
9.53,-0.2644702720604261,0.0165023065971415,-0.0652213715211673
9.539999999999992,-0.2917552993969386,0.0317498970740904,-0.0456389669492311
9.549999999999995,-0.2992224188696847,0.0435037060071244,-0.0083791988608113
9.560000000000002,-0.2514036718633991,0.0559301421850817,-0.0160783092525323
9.569999999999991,-0.2001977071065842,0.0911464453894954,-0.0612289342891446
9.579999999999998,-0.1176580245135483,0.1218561022206219,-0.0896995029860179
9.590000000000003,-0.0427215370411456,0.1305598661406101,-0.1250952170127689
9.599999999999994,0.0516164437666539,0.1265826889346014,-0.1546844899892614
9.61,0.0981270766499457,0.112798998525548,-0.1789718699071888
9.61999999999999,0.1496261805278816,0.0965895002535728,-0.1694615851731355
9.629999999999995,0.1652986137528139,0.0767031093509997,-0.1527351990928247
9.64,0.1723369730392237,0.0586190050037568,-0.1308450344393913
9.649999999999991,0.1809733415083358,0.0318064816137348,-0.1155582265724098
9.659999999999997,0.1926346754516433,0.0171709650032869,-0.0974455910879677
9.670000000000002,0.1937419460325281,-0.0001278338708334,-0.0660591336468269
9.679999999999993,0.1557438815868943,-0.0226885496248285,-0.0460943707985996
9.689999999999998,0.1659639948656195,-0.0556631956480564,-0.0323048178418227
9.700000000000005,0.0853976203202833,-0.0835006506690613,-0.0087620891707765
9.709999999999994,0.029377302584179,-0.1003088531036039,-0.0154916847127812
9.72,-0.0465254395149023,-0.0977646768821207,-0.0186042191837737
9.72999999999999,-0.1199647858146352,-0.1128758852785462,0.0067635081153558
9.739999999999997,-0.1027305624949137,-0.1444913484878852,0.0057312994749962
9.75,-0.1015327956504888,-0.1632873027036619,-0.0073169084344369
9.759999999999993,-0.0655422640890985,-0.1428606085438977,-0.0289388600758941
9.769999999999996,-0.0404382794323057,-0.1130484766227607,-0.0544829035169179
9.78,-0.0355193160729632,-0.0958303016248714,-0.0388250556800469
9.789999999999992,-0.0247366460172587,-0.0835562552211119,-0.0432142987633108
9.799999999999995,-0.0393606270931153,-0.0749247941761479,-0.0343673664119599
9.810000000000002,-0.0681066205663204,-0.0905916653482853,-0.0357432959723823
9.819999999999991,-0.1165801434763971,-0.0458694380812976,-0.027711847803172
9.829999999999998,-0.2321133634190165,0.0798445573686202,-0.0571839518506173
9.840000000000003,-0.2758578922738552,0.1449693159413256,-0.0506828268586384
9.849999999999994,-0.2702672204372534,0.1422751240769722,-0.0173755763225368
9.86,-0.2111088931735335,0.1359788785973409,0.0038096008765007
9.86999999999999,-0.1505543974199548,0.1637414535882488,0.0275783686736574
9.879999999999995,-0.104153442982172,0.1660434631902473,0.0577291876170419
9.89,-0.0531188482448985,0.1245696851761634,0.0850572803301547
9.899999999999991,-0.0521621916882824,0.0731488280710167,0.1477248241290742
9.909999999999997,-0.0853764177749128,0.0157210955886813,0.1877252126435387
9.920000000000002,-0.1019473148442702,-0.0464384986396077,0.1943080029063256
9.929999999999993,-0.0974915204764416,-0.0777990795148285,0.1993829997387137
9.939999999999998,-0.1648665623934299,-0.0358253799101777,0.1629752163064507
9.950000000000005,-0.361221729924458,0.0958120517690462,0.1417097603153987
9.959999999999994,-0.5073255507221235,0.1749744616898125,0.1226712506525169
9.97,-0.6135472415333061,0.2057664311932435,0.1236103415302292
9.97999999999999,-0.6880649961459142,0.203670262363604,0.1212262151390032
9.989999999999997,-0.7464537530671855,0.1758294316513431,0.1219181102788241
10.0,-0.7712725957724217,0.1583171911018839,0.1457660549416675
10.009999999999993,-0.8139498471235502,0.1306190458524773,0.1482153920475112
10.019999999999996,-0.8415443787898949,0.1250016347303915,0.1366587062489863
10.03,-0.8027211635264824,0.1062412726461362,0.1156440507221021
10.039999999999992,-0.7056371248902397,0.0880234050759426,0.0925314903100853
10.049999999999995,-0.5990656606254654,0.0652620560003912,0.0746246281761622
10.060000000000002,-0.460197753867052,0.0334491533969302,0.0518164361513064
10.069999999999991,-0.3354824249460659,-0.0168819991490049,0.0553309837258963
10.079999999999998,-0.2667331078949776,-0.0324155309964783,0.0575019498569807
10.090000000000003,-0.2133263367967427,-0.0423667641147957,0.0635687118822024
10.099999999999994,-0.1920600891172761,-0.0502344082176058,0.0533454940316717
10.11,-0.1475292917194599,-0.0491181289815985,0.0473680959541933
10.11999999999999,-0.1404106106821758,-0.060350522672365,0.0475394954608195
10.129999999999995,-0.1439752093071191,-0.0750792976819245,0.0457887496760345
10.14,-0.1799506849585155,-0.085553223318527,0.030033479823143
10.149999999999991,-0.2693437982270849,-0.1016499011036573,0.0080448281697747
10.159999999999997,-0.3630404550970261,-0.0984029465669191,0.0046141672590023
10.170000000000002,-0.4675539157428161,-0.1215111677320935,-0.0151043906930893
10.179999999999993,-0.5786068073214787,-0.1546129017541578,-0.0202286688837922
10.189999999999998,-0.6276867621810084,-0.1134116570241089,0.0122715754981283
10.200000000000005,-0.6853339527676212,-0.1542240704367886,0.0467391378201195
10.209999999999994,-0.7392612154262572,-0.2030347056690596,-0.0396839428973821
10.22,-0.7339169583479623,-0.1990318049166109,-0.0864945211405908
10.22999999999999,-0.672383981620606,-0.2268051994055844,-0.1280252983159613
10.239999999999997,-0.5626407500172301,-0.2732417504651429,-0.1634845717048428
10.25,-0.4682943531342236,-0.2946252280861644,-0.1770042100268177
10.259999999999993,-0.3232353059263065,-0.2949982115520915,-0.170525541475172
10.269999999999996,-0.1616826957217167,-0.2751591882040193,-0.1387769847361459
10.28,-0.0054845305850686,-0.2660029456761272,-0.0863183968165446
10.289999999999992,0.0820643478718707,-0.2711830746368692,-0.0678863800661214
10.299999999999995,0.0953822392238954,-0.2582041520803979,-0.0643291267550508
10.310000000000002,0.0759630109243616,-0.219448030756879,-0.0545361163759897
10.319999999999991,0.0786807826572715,-0.1822030628800888,-0.0388713600514823
10.329999999999998,0.1301792142795799,-0.132681026047319,-0.0192062638834949
10.340000000000003,0.1962328985768394,-0.0675903619344553,0.0272550476634243
10.349999999999994,0.330584310158777,-0.006962323406226,0.0637132560374949
10.36,0.4376087433862927,0.0389807408742242,0.1022251336653902
10.36999999999999,0.4975770175507502,0.0633400169728203,0.1434657374971235
10.379999999999995,0.5334140815696341,0.0828964385276821,0.2031554120871274
10.39,0.5512272870862464,0.1123903690921403,0.2186450315817215
10.399999999999991,0.5429990849978646,0.1608125010794035,0.2451440430748089
10.409999999999997,0.5641486824157698,0.1697101200668756,0.2938901264065896
10.420000000000002,0.5679949553206682,0.1868641879560499,0.3348666126703615
10.429999999999993,0.5751883587231479,0.2044091388003974,0.3773211685523813
10.439999999999998,0.5963870137696241,0.2442220951721751,0.410553494777463
10.450000000000005,0.6057223100216104,0.25838792950099,0.450184213969903
10.459999999999994,0.5532758496578298,0.277186087252252,0.4691834740089153
10.47,0.5088394675673671,0.3101183004076083,0.5001296803216421
10.47999999999999,0.3912070642231889,0.3185015418447079,0.5197761046770556
10.489999999999997,0.2663079403366009,0.3205140419952028,0.5176821983400445
10.5,0.1139877630218544,0.3124796603147582,0.520033174053547
10.509999999999993,-0.0815516282321815,0.2679022271436586,0.4971951854034028
10.519999999999996,-0.252082743718056,0.2676973452089755,0.455667227407486
10.53,-0.4033935222938696,0.2800043489662822,0.3988554994554277
10.539999999999992,-0.5093828593683604,0.3098159953869607,0.3339118686059409
10.549999999999995,-0.6421293043950123,0.3218993898678189,0.2909835105542891
10.560000000000002,-0.7241123107770339,0.316894013822349,0.2631275410663459
10.569999999999991,-0.8148077882843574,0.274281249040507,0.2306457698036582
10.579999999999998,-0.8420111801688343,0.2604587060766757,0.206022821685183
10.590000000000003,-0.8838325958052216,0.2170159405200213,0.2243366981761629
10.599999999999994,-0.8907405651047925,0.1455870165831786,0.2296954780118502
10.61,-0.839577296757698,0.1337929615042174,0.2189548747749674
10.61999999999999,-0.7057655380658708,0.1245721473252196,0.2266579819688292
10.629999999999995,-0.4945005756983432,0.1606198874885794,0.2251454122860799
10.64,-0.2798612262188651,0.1831571535361422,0.2021637550464466
10.649999999999991,-0.1077205306357694,0.1983044276506725,0.1913840793802373
10.659999999999997,0.0301604937125384,0.2105265010610069,0.206958437326469
10.670000000000002,0.1384414109112192,0.2269179189634226,0.1956674272347538
10.679999999999993,0.1856248772918337,0.2189055318085802,0.1846296005270515
10.689999999999998,0.2065179249744401,0.2496005196428983,0.1422591411539006
10.700000000000005,0.1985179471079504,0.273345716979212,0.0803954053725478
10.709999999999994,0.1532179029549457,0.3029283753131645,0.0120422970348255
10.72,0.1527382702422151,0.3162500338614357,-0.0673513591607159
10.72999999999999,0.1334753399715431,0.3337778562609895,-0.1562154551146791
10.739999999999997,0.1109597496123023,0.3355676101889329,-0.2363405367186004
10.75,0.1525895129968872,0.3448206808587504,-0.2947418723349377
10.759999999999993,0.1877368115556803,0.3586954215994892,-0.3797875764018726
10.769999999999996,0.2860122203528469,0.321569794935557,-0.4246031276309175
10.78,0.3638598349821382,0.2801495476534831,-0.456927355458895
10.789999999999992,0.4275852949434187,0.2266490703721029,-0.4962103145725672
10.799999999999995,0.4608016591465185,0.1806806841596636,-0.5103867295020723
10.810000000000002,0.4299265176659809,0.154086214002078,-0.5154494637014051
10.819999999999991,0.4125127243020636,0.1337126610905679,-0.5388626891705198
10.829999999999998,0.345535022807972,0.1001906109924541,-0.553449447493971
10.840000000000003,0.258458604620924,0.0923653791704478,-0.5516803529578471
10.849999999999994,0.1549655778588755,0.0856842737525317,-0.5644873260268385
10.86,0.0795372390500041,0.0544194332323602,-0.5608750924216533
10.86999999999999,-0.0195545381654375,0.0392293833376077,-0.5666960362268388
10.879999999999995,-0.0781589295423667,0.0364108269753339,-0.5605558241716505
10.89,-0.099502004245506,0.0328357602517955,-0.5521459804939982
10.899999999999991,-0.0692248659090111,-0.0104612426124144,-0.5411406493238599
10.909999999999997,-0.009145244931417,-0.0552011656058848,-0.5156754097026772
10.920000000000002,0.0494062943121578,-0.087939631052335,-0.493235684316869
10.929999999999993,0.0803052305303916,-0.120655829559907,-0.4897734988711764
10.939999999999998,0.0734461363561548,-0.1190616340011084,-0.4685797132593772
10.950000000000005,0.0058060606544744,-0.112179921081135,-0.4204691632896676
10.959999999999994,-0.0192050364905723,-0.095728738543322,-0.3804312187844336
10.97,0.0003101454053722,-0.0963381243639853,-0.3692143092670059
10.97999999999999,0.0357149982977642,-0.0997124264223433,-0.3789635537941552
10.989999999999997,0.1106895955958183,-0.0941213754111416,-0.3489544293696267
11.0,0.1579129946967344,-0.1182260062016839,-0.3621523613257263
11.009999999999993,0.1705214093637286,-0.1354716765664999,-0.3687920767117454
11.019999999999996,0.1521122598792035,-0.1458627380435477,-0.3760258525600284
11.03,0.1417970535837972,-0.16842843384407,-0.3913501113229913
11.039999999999992,0.1199297381133586,-0.1745394427067197,-0.3967578512558656
11.049999999999995,0.0907430462462738,-0.1687027015035701,-0.4015836718232765
11.060000000000002,0.0365377683810087,-0.1532411532242573,-0.3890883402140018
11.069999999999991,0.0371269690774674,-0.1239192743010632,-0.3784981315117923
11.079999999999998,0.0589505063658564,-0.102954056650565,-0.3629652301044058
11.090000000000003,0.07162663327029,-0.1081132789979393,-0.3189073396650252
11.099999999999994,0.1091492933319794,-0.1129346342485055,-0.290866658580592
11.11,0.1165513258190953,-0.1094289982991017,-0.2469443153029813
11.11999999999999,0.1180803895084618,-0.1125241667148088,-0.1938390577301918
11.129999999999995,0.0851786902508374,-0.1126832019355946,-0.1690456055277332
11.14,0.0459995892263708,-0.1089941916850405,-0.126095823097777
11.149999999999991,0.0272698816058266,-0.1040145486799006,-0.0875385824128359
11.159999999999997,0.0060923813660264,-0.1055427010926973,-0.0658052718805246
11.170000000000002,0.0123741433292768,-0.10407930119386,-0.0311181978612785
11.179999999999993,0.0280699222380039,-0.1123598018937772,0.0098932001225731
11.189999999999998,0.0306835117506749,-0.1187542047503366,0.0550458491126044
11.200000000000005,0.0482844944087588,-0.1346619148402551,0.0786171104420896
11.209999999999994,-0.0057417819705956,-0.1542006486375474,0.1188549128066251
11.22,-0.0379141250670331,-0.1744649910022689,0.1552742326649371
11.22999999999999,-0.1352482784158714,-0.1734995951613697,0.1851979586332091
11.239999999999997,-0.2852060099915302,-0.1336735026489019,0.209985313962042
11.25,-0.3907655607884346,-0.0957237167982303,0.2396856733813309
11.259999999999993,-0.4386232847821366,-0.0502895051828853,0.2637287742666837
11.269999999999996,-0.4068882680493023,-0.0326601144079163,0.2942072234863472
11.28,-0.3346190128726457,-0.0265737314448243,0.3068332067175682
11.289999999999992,-0.2082169632386103,-0.0335844473170143,0.3289212221426185
11.299999999999995,-0.0510272161924831,-0.0409745402920823,0.3100951979454403
11.310000000000002,0.0382266427497344,-0.0585427083185227,0.3087778674299574
11.319999999999991,0.1109210541173408,-0.0973731985677007,0.2861422390560618
11.329999999999998,0.1576323762431844,-0.0960393856398881,0.2677351790634934
11.340000000000003,0.1379836136461642,-0.0971893448485058,0.2630337483603097
11.349999999999994,0.0816068150614701,-0.092849900026461,0.2437354176324775
11.36,-0.0096069879208132,-0.0739301397344641,0.1826754789196231
11.36999999999999,-0.1049230332329159,-0.0144033709248736,0.1443720465931675
11.379999999999995,-0.1485555789717228,0.0169335896863194,0.1003944488592635
11.39,-0.1574184441681731,0.0424592167602744,0.0724061358165611
11.399999999999991,-0.1412645830702026,0.0722077141037351,0.0841310438996442
11.409999999999997,-0.1137653730931814,0.0948171918594565,0.0898441774652978
11.420000000000002,-0.0743139801328373,0.0915040297441523,0.1098630245422085
11.429999999999993,-0.0148442178773003,0.0789980842589459,0.1034644071201861
11.439999999999998,0.0139852108186003,0.0535920866724138,0.087982964851068
11.450000000000005,-0.0196745829986897,0.0719861981544683,0.0806903050827847
11.459999999999994,-0.1282473085169467,0.1305504960598358,0.0497406443611065
11.47,-0.2479344511686762,0.158366206175152,0.0202683603515371
11.47999999999999,-0.3459131510958578,0.1796763385751217,-0.0003830545504932
11.489999999999997,-0.3192631514151161,0.163281326494011,-0.0234139544433785
11.5,-0.2563394727769199,0.1624061751356506,-0.0550575598927692
11.509999999999993,-0.1808299104458979,0.136135888178303,-0.0930076406722062
11.519999999999996,-0.0884501657147303,0.1092810538236633,-0.1169890555250615
11.53,-0.0064520285709987,0.0902492939722036,-0.1274185404608156
11.539999999999992,0.0315759083460563,0.0613455631432078,-0.1229577522493332
11.549999999999995,0.0299101306905373,0.0551315430729276,-0.1168093473322451
11.560000000000002,0.0218356469853113,0.0571077766211397,-0.1104401698194706
11.569999999999991,-0.0066356582047702,0.0370244490684547,-0.102129203082345
11.579999999999998,-0.0145109154242774,0.0544438025597054,-0.1021066554399305
11.590000000000003,-0.0651731561974199,0.0731367197725752,-0.1122568120085952
11.599999999999994,-0.0865656719904126,0.0749367498657141,-0.0840718526816654
11.61,-0.0690896844514291,0.0765084954811999,-0.0919540876139532
11.61999999999999,-0.047949219675788,0.0835576171303586,-0.1100060189925468
11.629999999999995,0.0298604941678091,0.0731377372682323,-0.1341334972239945
11.64,0.1169421701491391,0.0606667284730881,-0.1623161843458731
11.649999999999991,0.1804930283288048,0.0284368288300867,-0.1845103195694618
11.659999999999997,0.2190402312299546,-0.0057444377792929,-0.2062142957709434
11.670000000000002,0.2402666431862102,-0.0217142802750011,-0.1936367382880727
11.679999999999993,0.1870939300263035,-0.0489763098821095,-0.1801883972579805
11.689999999999998,0.1238860686261065,-0.0748726846758233,-0.1660589444644946
11.700000000000005,0.0325249015950771,-0.0908495020568969,-0.1524411232485753
11.709999999999994,-0.0441017211595963,-0.1179168422201669,-0.1418908785787697
11.72,-0.110972273250489,-0.1605492348739781,-0.1469268383805538
11.72999999999999,-0.1178240508664034,-0.2274243526657313,-0.1641337173542533
11.739999999999997,-0.1295951613893054,-0.2549818450038948,-0.1703605500424453
11.75,-0.1204141706155456,-0.2882232166087068,-0.1948970136988598
11.759999999999993,-0.0702924623907584,-0.3006649813310648,-0.1935674114765783
11.769999999999996,-0.0040339428151758,-0.2982991261704767,-0.1931284861270323
11.78,0.0429959478190728,-0.2863294097553629,-0.178481220919232
11.789999999999992,0.027725185643628,-0.2515665297216251,-0.1775952867977418
11.799999999999995,-0.0569290054073966,-0.1992023210064983,-0.1531008015731875
11.810000000000002,-0.1179786539374797,-0.1274285747278183,-0.1310643425033527
11.819999999999991,-0.1296356413434764,-0.0860949599249953,-0.1423609668399126
11.829999999999998,-0.1156145747640692,-0.0393207595920934,-0.140396828254034
11.840000000000003,-0.0608962197453798,-0.0304302316564062,-0.1536602578537569
11.849999999999994,0.0317719693362568,-0.0163414388024742,-0.1645179836424733
11.86,0.1231585583168433,-0.0140483638830311,-0.1531004467694741
11.86999999999999,0.1880479001578998,-0.0123317499019045,-0.1797125952193749
11.879999999999995,0.2397392168258305,0.0122230218378675,-0.2051553260604954
11.89,0.2860151625260361,0.0258536171629866,-0.2133100310024948
11.899999999999991,0.2684220766675643,0.0330200975187144,-0.2460294225435051
11.909999999999997,0.2693015146863321,0.0222126429450214,-0.2758329883384947
11.920000000000002,0.203304594149265,0.0154667989858008,-0.2879395019214384
11.929999999999993,0.1369227571712731,-0.0111828734059361,-0.3066164313581425
11.939999999999998,0.0868888107314372,-0.0437543555649588,-0.327541237606718
11.950000000000005,0.01146250135648,-0.0782247515272223,-0.3072571180356365
11.959999999999994,-0.0755646997101571,-0.0978880563830558,-0.2979983789085668
11.97,-0.1581313157478985,-0.1073508058676563,-0.2636214288535068
11.97999999999999,-0.2033577637321568,-0.103361366779434,-0.2212084988900328
11.989999999999997,-0.2644215384075395,-0.0920155473100151,-0.192203369002449
12.0,-0.2714587379349073,-0.0671427769748562,-0.1713759927635695
12.009999999999993,-0.2547275779097478,-0.0242745437148463,-0.1313945778038188
12.019999999999996,-0.2212393208759619,0.0085076627305545,-0.1137139074036824
12.03,-0.1543980462559198,0.0427838320425356,-0.1120570545131683
12.039999999999992,-0.0657772977576437,0.0547793935921594,-0.1064267591436165
12.049999999999995,0.0318544689148537,0.0822308148618834,-0.1436497585789683
12.060000000000002,0.1370672949525801,0.0881776360705905,-0.1750826138374284
12.069999999999991,0.1887846606691342,0.1000375501094286,-0.2143497638259559
12.079999999999998,0.2098282911554148,0.1108761608064675,-0.2460374068402522
12.090000000000003,0.2279486521079421,0.1338828274939973,-0.2983493940349878
12.099999999999994,0.252637641892918,0.1437178578785496,-0.3293135161523366
12.11,0.2902455935484771,0.1400250269394762,-0.3782025280130879
12.11999999999999,0.3283453587248779,0.1238221205516356,-0.4048866793194308
12.129999999999995,0.3815240629098836,0.1065401316538426,-0.4282157164621862
12.14,0.3945351618544142,0.0815634602025448,-0.4255866303866905
12.149999999999991,0.3672441797196613,0.0218316503211084,-0.4013943755961936
12.159999999999997,0.2861493104265438,-0.0139216140952941,-0.3804465634090913
12.170000000000002,0.1445112635735577,-0.0695588505287867,-0.3060489854197474
12.179999999999993,-0.041162190385001,-0.0954957778680705,-0.2756835686794919
12.189999999999998,-0.1826927685193038,-0.0992424153188937,-0.2261332506493112
12.200000000000005,-0.2501405776297339,-0.1126122501982294,-0.1525478808684124
12.209999999999994,-0.2553418765001736,-0.1105608936806646,-0.0985996409557147
12.22,-0.2145338078184749,-0.1027925334452563,-0.0400034870328991
12.22999999999999,-0.1418546725636149,-0.0977535673520495,0.0117380408475119
12.239999999999997,-0.0529776533797833,-0.0768602390623671,0.0522642532088545
12.25,0.0214136714804891,-0.055321090223239,0.0987591007279342
12.259999999999993,0.0909407958013359,-0.0362800288454926,0.1287289833030683
12.269999999999996,0.1453882255766097,-0.0217948572611649,0.148088024898692
12.28,0.1559038195966845,-0.0012940155687572,0.1545420528961914
12.289999999999992,0.1506555820290843,0.0137324715301938,0.1364532147222379
12.299999999999995,0.124292142573543,0.0123756473105181,0.1246535706178895
12.310000000000002,0.0952661128090313,0.024670656794216,0.0996974535211271
12.319999999999991,0.0538123481112486,0.0258186105516641,0.0879191839916836
12.329999999999998,-0.0174197075847283,0.0223035740814796,0.0526147760564277
12.340000000000003,-0.0751257949179057,0.0269043926604609,0.0586082667962712
12.349999999999994,-0.0951695788038322,0.0150695800414432,0.0511743784520541
12.36,-0.1242582035738579,-0.0010494187404489,0.0446832100789206
12.36999999999999,-0.1287187747709975,0.0063279028892988,0.0598888112356999
12.379999999999995,-0.1210321820624114,0.0050513719491521,0.0805344846399447
12.39,-0.1308796535613559,0.006399804597998,0.1035857594908603
12.399999999999991,-0.1418581142294388,0.0145389404000987,0.123736302607608
12.409999999999997,-0.1583323856839753,0.0185821458639618,0.1703942228061426
12.420000000000002,-0.1906678462139692,0.0362378733513784,0.2403822716819761
12.429999999999993,-0.2099756053109519,0.0516418117955565,0.2884555816937359
12.439999999999998,-0.2273336574961509,0.0761867631764947,0.3630226857782003
12.450000000000005,-0.2446999431058762,0.1056477702916237,0.4504940334062253
12.459999999999994,-0.2618662710429598,0.1502855747835407,0.5688614683302808
12.47,-0.2670476088747155,0.2051512833915023,0.7115474203046728
12.47999999999999,-0.2587507257610437,0.2535436651179524,0.9034215229278202
12.489999999999997,-0.262576283703306,0.3017561283359346,1.1242579542706452
12.5,-0.2637579618047174,0.3779614640455369,1.3509850378239967
12.509999999999993,-0.2919116732647042,0.4635339435594824,1.634250917358139
12.519999999999996,-0.3650087539596653,0.557933885731719,1.93259759140046
12.53,-0.4788437109868788,0.6616259055779421,2.2919650498193733
12.539999999999992,-0.6081295394683258,0.7622108079784073,2.6783300286347087
12.549999999999995,-0.7920389680587644,0.8484162817571547,3.093375475232676
12.560000000000002,-0.9581704409822952,0.9283265330172836,3.532473186022015
12.569999999999991,-1.1404198961070695,0.9876290501219528,3.958780355406066
12.579999999999998,-1.32738942228961,1.0709861201430522,4.408540588288202
12.590000000000003,-1.4305340107942324,1.1283039240684631,4.8496573817473365
12.599999999999994,-1.620452630390352,1.1459567740989052,5.219252121811584
12.61,-1.774755482137164,1.1704054530994377,5.556143705449696
12.61999999999999,-1.877450470211306,1.15770653123914,5.811277045435568
12.629999999999995,-1.9919871028101197,1.0950852558333497,6.028842795229481
12.64,-2.067192442836675,1.0338155119429002,6.2317175752601175
12.649999999999991,-2.0502177739502634,0.9493673634753356,6.432048512939963
12.659999999999997,-1.9492085147413616,0.8218846956225745,6.580873888530719
12.670000000000002,-1.7599145477063578,0.7154326525753056,6.701790278136649
12.679999999999993,-1.5089126904804562,0.6137072517095837,6.81325407204813
12.689999999999998,-1.2083587808039342,0.4858463131435348,6.916763271573487
12.700000000000005,-0.904969197186102,0.3589945244460168,6.966707958646901
12.709999999999994,-0.618145876802886,0.2505973357506004,7.0206679913646
12.72,-0.3696921232490189,0.139233212590818,7.051411147997321
12.72999999999999,-0.1027524753719708,0.0194544846190915,7.074012854053809
12.739999999999997,0.1305176556586111,-0.1084471512017935,7.104505575163859
12.75,0.3131301367313295,-0.2189536454360597,7.134972045811643
12.759999999999993,0.4811018643455997,-0.323843014522685,7.126666744068682
12.769999999999996,0.6158959595158263,-0.4086956363760276,7.099326706189028
12.78,0.7281035688858027,-0.4591901716184479,7.054018057377783
12.789999999999992,0.8732312504707828,-0.4980620213226456,6.972175771703588
12.799999999999995,1.028647168908361,-0.4802754574454517,6.856485502376176
12.810000000000002,1.1288362390612705,-0.4652118345587067,6.714075109481135
12.819999999999991,1.1649013550093514,-0.5002418740136784,6.523144742451799
12.829999999999998,1.1017116222349184,-0.4997287236158013,6.297578278817984
12.840000000000003,0.9841320228172312,-0.5248705335015387,6.046862605824633
12.849999999999994,0.8644809716924503,-0.5149920414215123,5.790035398556065
12.86,0.7417831365090581,-0.5273242643504746,5.513312711475351
12.86999999999999,0.6262515934530127,-0.5662401293586775,5.149940015722685
12.879999999999995,0.493937389379098,-0.5511637113980596,4.773356946206029
12.89,0.3794066267379243,-0.5670170596244791,4.3553956764521615
12.899999999999991,0.2068000360631991,-0.5574987752753013,3.940182954275688
12.909999999999997,0.0179783584862839,-0.5640952564493634,3.5282162519506186
12.920000000000002,-0.1475897451638308,-0.5647818556796712,3.105998047503216
12.929999999999993,-0.2974921690569714,-0.5641584461347083,2.709910154580416
12.939999999999998,-0.3967359029824247,-0.5479748087598829,2.3314155927692366
12.950000000000005,-0.4303852718217713,-0.503652859670357,1.989178912603464
12.959999999999994,-0.419433271949283,-0.4766254477958198,1.6347445463464094
12.97,-0.4207341374510944,-0.4302872406992373,1.3338107124793617
12.97999999999999,-0.4312016402111417,-0.3710964293574048,1.0269457451188384
12.989999999999997,-0.4443836591289032,-0.3057039323419972,0.7012536256800881
13.0,-0.4634897969074693,-0.2333288681766322,0.4192046803430121
13.009999999999993,-0.4868377249510695,-0.1937629510128741,0.1359888951160775
13.019999999999996,-0.4892162728863551,-0.1897337228651854,-0.1168854481508352
13.03,-0.4953608420796382,-0.1802065194504089,-0.3375529770191918
13.039999999999992,-0.46006627906524,-0.1985812831518123,-0.5526285035986243
13.049999999999995,-0.3961102544443932,-0.1896169498461548,-0.7729958530954768
13.060000000000002,-0.3293434225112997,-0.2177168532970827,-1.0174271062327005
13.069999999999991,-0.2683752384391391,-0.2564469350128254,-1.2642590755808472
13.079999999999998,-0.2548736756137841,-0.2900795518757141,-1.501055186591148
13.090000000000003,-0.2955675098121585,-0.3257113570298633,-1.778129643408883
13.099999999999994,-0.3000100103856674,-0.3768778097908796,-2.050801583937652
13.11,-0.3180398867650706,-0.4400484442731226,-2.367019583318289
13.11999999999999,-0.3118371192133515,-0.4690091127078236,-2.752702918217671
13.129999999999995,-0.2667542638709785,-0.4759043397106729,-3.22485073992128
13.14,-0.2216305068105273,-0.4628261975440024,-3.771293258909574
13.149999999999991,-0.2223904141383992,-0.4500515127631567,-4.34735142422921
13.159999999999997,-0.2208842525585927,-0.4000142891524059,-5.009861579706032
13.170000000000002,-0.2010317842772135,-0.35420433926089,-5.644530715998839
13.179999999999993,-0.2104770002621338,-0.321380834319882,-6.266108854207407
13.189999999999998,-0.2348688490551849,-0.3249997126636878,-6.846483367017818
13.200000000000005,-0.298080474569601,-0.3551085215452541,-7.330610097851327
13.209999999999994,-0.384326349988584,-0.4218292610094423,-7.745578153765146
13.22,-0.4865748174115709,-0.5165402717287552,-8.066985989283802
13.22999999999999,-0.5840308283290002,-0.637730378698849,-8.32239505428977
13.239999999999997,-0.6750616505895252,-0.7035986238381241,-8.55705927547475
13.25,-0.7574393923341626,-0.7323745056196533,-8.801614181656287
13.259999999999993,-0.7814123613062514,-0.7302155500469142,-9.019182234468143
13.269999999999996,-0.7482078168760569,-0.6832714182189409,-9.186686995171115
13.28,-0.6865994419779785,-0.6360305369896819,-9.307712100951008
13.289999999999992,-0.5466550180844622,-0.5850839314742219,-9.33636492237495
13.299999999999995,-0.3548711013367122,-0.5453845886347258,-9.335922296325643
13.310000000000002,-0.1234700790438864,-0.5046377397172594,-9.288603914023764
13.319999999999991,0.1300065427911245,-0.476509616361244,-9.212370257518202
13.329999999999998,0.3781507312056224,-0.4248313308331789,-9.088405213496609
13.340000000000003,0.5331759153952459,-0.3172426246629648,-8.955159756344324
13.349999999999994,0.6826522685892982,-0.195675232307602,-8.764531786096516
13.36,0.8614529125150308,-0.1177163669105559,-8.548240431527269
13.36999999999999,1.0585497311393552,-0.0731351866447647,-8.315167117447457
13.379999999999995,1.2512551888078134,-0.059727258148234,-8.076069969884067
13.39,1.3822238446861514,-0.0047208508631024,-7.826479403105937
13.399999999999991,1.4746770153356823,0.0518738500669573,-7.550972651101309
13.409999999999997,1.533775649380542,0.1019114224349265,-7.32296136018867
13.420000000000002,1.5822884590151822,0.1054029958355866,-7.04801623228391
13.429999999999993,1.642043447660827,0.0546788148178244,-6.719603033493239
13.439999999999998,1.6357472965481512,-0.0428654462392169,-6.328489493889932
13.450000000000005,1.5311266305667364,-0.1752299289890312,-5.87614886072387
13.459999999999994,1.3472295754149817,-0.2543362844068123,-5.36873708069701
13.47,1.1235712789298835,-0.2816403294145469,-4.906289158520257
13.47999999999999,0.9127450666117756,-0.3215605031875501,-4.442941322551397
13.489999999999997,0.7738137261175074,-0.318861513907447,-3.9929694708874695
13.5,0.676258667624342,-0.3459625925006981,-3.608423778898074
13.509999999999993,0.6400543988323931,-0.3286568696830019,-3.2288890972586013
13.519999999999996,0.5928383505075095,-0.2919581466003026,-2.91311852081178
13.53,0.4836473862560688,-0.2611800234246498,-2.640450970326711
13.539999999999992,0.3968447944283618,-0.1891002927368266,-2.350086231671014
13.549999999999995,0.2902748879690236,-0.1481025844272744,-2.079429267562684
13.560000000000002,0.1566449403606734,-0.1127585923086595,-1.8491097021167109
13.569999999999991,0.0939573726001593,-0.0926258243610983,-1.5965822895847783
13.579999999999998,0.0740146795041778,-0.087190816047684,-1.3357058953672765
13.590000000000003,0.0838515898948037,-0.1142023462713781,-1.0879780730996509
13.599999999999994,0.1149116169863219,-0.153386439040767,-0.8630845296890453
13.61,0.1482436370819831,-0.1889860226791413,-0.6290397755221968
13.61999999999999,0.1407190713020383,-0.2266591383203803,-0.3957331943974548
13.629999999999995,0.09788399212088,-0.208312764598985,-0.1435641422882401
13.64,0.0559403942289655,-0.2099997820547078,0.1637352925653719
13.649999999999991,-0.0688137526088324,-0.2176712849369005,0.451173395573227
13.659999999999997,-0.2532252232248757,-0.2371696421119372,0.7889929552389302
13.670000000000002,-0.4727503689787016,-0.2690231345664844,1.1868076506223533
13.679999999999993,-0.6670101285374788,-0.3023055681655432,1.6379539697849017
13.689999999999998,-0.8837680514816254,-0.3681727879922513,2.1657365573185845
13.700000000000005,-1.1005306713779737,-0.4392086257119573,2.753105804734613
13.709999999999994,-1.384319359727156,-0.5551291135443377,3.3880605374452286
13.72,-1.688429560725326,-0.6834434924928791,4.070413108095348
13.72999999999999,-2.0124752812532507,-0.8410189736680606,4.7426216497915
13.739999999999997,-2.305179761168806,-0.9917545998685812,5.442454958838082
13.75,-2.48687332330412,-1.136897998832216,6.1592559061883225
13.759999999999993,-2.5797604093067843,-1.2244729232855172,6.889226718405181
13.769999999999996,-2.5138376001649934,-1.2598014567511973,7.623278909880814
13.78,-2.398773164243752,-1.21302844811358,8.287161580193551
13.789999999999992,-2.299293780119702,-1.1193502362455046,8.862248557927238
13.799999999999995,-2.197056794318654,-1.020670468323987,9.365778809616122
13.810000000000002,-2.101183958719428,-0.9556833255123188,9.795912432562991
13.819999999999991,-2.023908135337187,-0.9736126958454404,10.092491753005184
13.829999999999998,-2.0353915892703487,-1.0509455058351425,10.235672202211177
13.840000000000003,-1.9886648588937428,-1.1295478392962863,10.225276523485784
13.849999999999994,-1.7951022051587135,-1.2244437523249625,10.048671386419873
13.86,-1.328694974186362,-1.2605230587029457,9.65144828512826
13.86999999999999,-0.7038758917930297,-1.1913651615348666,9.107029852990484
13.879999999999995,-0.0942209731371536,-1.0704771371861286,8.492589016079796
13.89,0.4331647119061779,-0.9148417029499132,7.901124655672164
13.899999999999991,0.8496821354730175,-0.7656737228705441,7.411109199328098
13.909999999999997,1.2033530834042887,-0.5493979237153578,7.01977442406896
13.920000000000002,1.5627453702245029,-0.2984156898781833,6.6237476435478175
13.929999999999993,1.9087513138205112,-0.0367819936007788,6.176096914941831
13.939999999999998,2.1664588904284177,0.198382043238802,5.785264529270992
13.950000000000005,2.206472986505772,0.4300915656322716,5.404975269646335
13.959999999999994,2.045079994410405,0.5848707293689752,5.043685082662644
13.97,1.7470764318752254,0.6786621909421255,4.682318639777123
13.97999999999999,1.3847507468506914,0.6594379059575955,4.277546630782768
13.989999999999997,1.04879904436091,0.6044621621601575,3.874947281320597
14.0,0.7451301912429996,0.531292531276202,3.4434385735067297
14.009999999999993,0.4515212268780673,0.3983949808356098,2.968481723259509
14.019999999999996,0.2247395158268903,0.2961439243153327,2.5428932454242754
14.03,0.1066255560226742,0.239004958934529,2.1947439702175453
14.039999999999992,0.037214066858727,0.1757341581662253,1.9684730356572684
14.049999999999995,0.0209675329674179,0.08147258305478,1.8216763889187224
14.060000000000002,-0.0083544445324666,0.0498016831505749,1.731957523735276
14.069999999999991,-0.03393717927613,-0.0042068544200592,1.6604863909415093
14.079999999999998,0.0064135341327926,-0.0440533606673753,1.575222750340516
14.090000000000003,0.0857641827090342,-0.0596095853011055,1.4737632894222317
14.099999999999994,0.1440043499595074,-0.0727395822770084,1.3601086437712986
14.11,0.2020230453440997,-0.0963714380082274,1.2276726335101429
14.11999999999999,0.2358116788562389,-0.1137269442954356,1.136420318960122
14.129999999999995,0.2453027714781872,-0.1349106474113736,1.0545257931169454
14.14,0.2470539788181156,-0.1557090746950917,0.9627299628503746
14.149999999999991,0.2554564589987331,-0.1599422049063824,0.8505284803673486
14.159999999999997,0.2410966532473792,-0.1634069865332689,0.7066491131557373
14.170000000000002,0.2139654526441369,-0.176661766199881,0.5715802867373706
14.179999999999993,0.1950497446326154,-0.2005347542943038,0.4427586024911351
14.189999999999998,0.128302005417073,-0.2158956564327548,0.3016986128713583
14.200000000000005,0.0976512033280421,-0.2431536175064614,0.1208293458927334
14.209999999999994,0.0357955583521675,-0.2899307569782907,-0.0342369574017251
14.22,-0.021960734720395,-0.3577058752093273,-0.2280191374137254
14.22999999999999,-0.0914029175855874,-0.411065237692558,-0.4694463875671062
14.239999999999997,-0.1344372530599858,-0.4814140772958127,-0.7526137494068985
14.25,-0.1909394813408647,-0.5646623354563097,-1.1218167577911755
14.259999999999993,-0.214253252390703,-0.6775960862397767,-1.617569400879468
14.269999999999996,-0.2108662180811348,-0.7882524279754402,-2.248277890979501
14.28,-0.1593608800424859,-0.852869509585905,-3.0354256112738844
14.289999999999992,-0.0379661291840436,-0.8298901092213407,-3.9493487646868544
14.299999999999995,0.1076195987157466,-0.7294452429217528,-4.867842562592015
14.310000000000002,0.2324505048988892,-0.6332430313428197,-5.756506009110948
14.319999999999991,0.294863734123226,-0.5354174336660275,-6.613390939267329
14.329999999999998,0.3656897887495008,-0.4069288060918072,-7.424703832924525
14.340000000000003,0.4413901496362512,-0.3369897243799148,-8.144357387830551
14.349999999999994,0.5186474236153743,-0.2849250102312652,-8.735456203899686
14.36,0.5001256590974207,-0.2682459511087632,-9.108246673966642
14.36999999999999,0.3496655263488544,-0.2629092405595642,-9.34303967387478
14.379999999999995,0.1788368356432904,-0.2808414685331389,-9.441189767325357
14.39,0.0002951040574861,-0.2837092149802456,-9.467998796792696
14.399999999999991,-0.1613480308686763,-0.273638051326238,-9.467542542792543
14.409999999999997,-0.2170835721536824,-0.3259323502815935,-9.413297861490204
14.420000000000002,-0.1052910832784185,-0.4358158236045527,-9.266190154671412
14.429999999999993,0.0529557016933647,-0.6029571007008562,-9.012122716952106
14.439999999999998,0.1683123068349418,-0.8133762032672051,-8.677585766786008
14.450000000000005,0.2610318351061794,-1.0012171908211576,-8.320037049133868
14.459999999999994,0.3758769718975561,-1.1855289507600637,-7.949914012918493
14.47,0.5061697448156295,-1.304920243002165,-7.495455758338034
14.47999999999999,0.5907577481716971,-1.3534228464565483,-6.99942616057525
14.489999999999997,0.5557420951922694,-1.302560910498007,-6.521404565155264
14.5,0.4680814879664033,-1.2060197679184248,-6.09249913085189
14.509999999999993,0.4219599939619962,-1.1316882925967744,-5.716053819091925
14.519999999999996,0.4160766577166669,-1.043342668457783,-5.439802962413023
14.53,0.5071702009804231,-0.9317793326706832,-5.203971329640349
14.539999999999992,0.6922498213514242,-0.761099470534852,-5.009805356390618
14.549999999999995,0.9608652901197884,-0.5455472593672936,-4.844417381657846
14.560000000000002,1.1690864856455478,-0.3092109051965582,-4.69869351761072
14.569999999999991,1.3646954744144282,-0.0749308308568177,-4.524999952440003
14.579999999999998,1.5192031425130936,0.1348408739057623,-4.328259250219237
14.590000000000003,1.5945427915251518,0.311689281029237,-4.130848817287121
14.599999999999994,1.617025864163249,0.4098304758636141,-3.9020899499741377
14.61,1.6292773931584312,0.4611925892608489,-3.641140707932241
14.61999999999999,1.662904582100002,0.4826597495178424,-3.3243812801401327
14.629999999999995,1.6370161161475405,0.4941219856808295,-2.9982105255572358
14.64,1.5807869886034394,0.4935577145717856,-2.6844238294137868
14.649999999999991,1.5138773053431671,0.4773325574041591,-2.37569245663728
14.659999999999997,1.3666152584173517,0.4402554923826178,-2.065048273239527
14.670000000000002,1.161201400092608,0.4051365244642996,-1.771549694606474
14.679999999999993,0.9119997560712976,0.3367733831166059,-1.4711967471955123
14.689999999999998,0.5957581962871992,0.2807070326888058,-1.161930394138287
14.700000000000005,0.2878256050581227,0.1893296177652602,-0.8514523347636792
14.709999999999994,-0.0332147983888854,0.0712690437140963,-0.5373086129920186
14.72,-0.3182912377911203,-0.0228149237979458,-0.2260569158641145
14.72999999999999,-0.5285302613962471,-0.1436504737180998,0.1052202634772668
14.739999999999997,-0.7096656108884779,-0.24389139573223,0.3908346966926828
14.75,-0.8169855608933985,-0.3609744662451413,0.6720666301132776
14.759999999999993,-0.8976431791034477,-0.4620296077362779,0.9250787561930316
14.769999999999996,-0.9582882136465766,-0.5639747940287786,1.179774577863441
14.78,-0.9934573159564092,-0.6561831188252093,1.3997759222044697
14.789999999999992,-1.0525595914582708,-0.7311218951144587,1.6113677576375984
14.799999999999995,-1.1033230157168292,-0.7809956589190703,1.8407419046919165
14.810000000000002,-1.1500703970240709,-0.8410632467699143,2.1139183141848044
14.819999999999991,-1.1507847671215443,-0.8855000019004641,2.417758619573281
14.829999999999998,-1.144049128992882,-0.9116012639585264,2.7201011438273666
14.840000000000003,-1.1133228796871342,-0.9061819247469676,3.0705867304652465
14.849999999999994,-1.073283473527878,-0.9155620676717476,3.439931738053329
14.86,-1.0340151024254811,-0.8966843740836257,3.8625261084089417
14.86999999999999,-0.9415996451885998,-0.8730161443550609,4.293319695241356
14.879999999999995,-0.8294942636661108,-0.8603206977588194,4.77887224323774
14.89,-0.6514274626719176,-0.8330515821008646,5.237994675377676
14.899999999999991,-0.4359595881469332,-0.7411620109525074,5.711564136060215
14.909999999999997,-0.2565919547441733,-0.6046607630749437,6.207183184913018
14.920000000000002,-0.0648746617490941,-0.4354107240984783,6.709639274783107
14.929999999999993,0.0587433225627702,-0.1949746639178217,7.220137532459893
14.939999999999998,0.0995969164925638,0.0823328987493226,7.70108787264969
14.950000000000005,0.0002282652741455,0.3667398955208388,8.112111756031496
14.959999999999994,-0.1864064115991691,0.5983269199974078,8.416978282643234
14.97,-0.4780992971326128,0.7100473236860662,8.685106574312195
14.97999999999999,-0.8223416426540431,0.7249702360267913,8.908942962703525
14.989999999999997,-1.156281065072552,0.6039083097955529,9.0916822335142
15.0,-1.442213547640229,0.3478769856919804,9.212141099115684
15.009999999999993,-1.5797083024202667,0.0420818450401437,9.203092164052665
15.019999999999996,-1.5128745372669383,-0.1546093380668262,8.951244863085579
15.03,-1.2473531707299954,-0.1952831775131948,8.445224297917846
15.039999999999992,-0.7714282387774909,-0.1578204984323614,7.834567983871946
15.049999999999995,-0.2372041350730142,-0.0846253829282962,7.224395925236499
15.060000000000002,0.2172263424993836,0.0383999309401217,6.653983944628189
15.069999999999991,0.5735879848214577,0.2624660900022619,6.114899069460415
15.079999999999998,0.748463740283796,0.4910243223558606,5.612596537426477
15.090000000000003,0.8317155120242471,0.6050307802723668,5.161104776264187
15.099999999999994,0.9305715835782196,0.6467341581893479,4.74374871072387
15.11,1.0353698498474402,0.7763100929464587,4.303979483721044
15.11999999999999,1.08624308636825,0.8073843399661026,3.7694945425296313
15.129999999999995,1.022281629062653,0.8329316409101448,3.1685725231693405
15.14,0.8721312017563522,0.7922780242165613,2.5802793460226394
15.149999999999991,0.7308020270820782,0.7172896818121236,2.074352120597622
15.159999999999997,0.5821445122987329,0.61148277198336,1.669239410831976
15.170000000000002,0.4297493858483097,0.4870618044117735,1.315029791011596
15.179999999999993,0.3618800862055008,0.3451313383845066,1.1007591878301128
15.189999999999998,0.368199770031452,0.2503990780088723,0.9343750051276576
15.200000000000005,0.3377139171077435,0.1949105752170048,0.7605324935126216
15.209999999999994,0.2913073838758979,0.1419552682788909,0.5946045670566391
15.22,0.227879804250094,0.0818043462011975,0.4320940382588495
15.22999999999999,0.155550999081079,0.0568340584308333,0.3113615592366173
15.239999999999997,0.0400974875215696,-0.0177480101256685,0.1971678431576971
15.25,-0.0484925727055844,-0.0872397445431227,0.0987569191465791
15.259999999999993,-0.1738987690544522,-0.138103279309278,-0.0056412109910934
15.269999999999996,-0.2777113919628207,-0.1603523566010782,-0.1023663940536598
15.28,-0.349353931724821,-0.1829321904605982,-0.1894865580686853
15.289999999999992,-0.3846968980749553,-0.1929238007746793,-0.2338545703472027
15.299999999999995,-0.4116499648202918,-0.1956742811545352,-0.2349567232526282
15.310000000000002,-0.4180019088949497,-0.1962176367523695,-0.2576971345529191
15.319999999999991,-0.4172083325031062,-0.2098740996720395,-0.2759536946096199
15.329999999999998,-0.4342663964620696,-0.229913739045779,-0.3262185111217491
15.340000000000003,-0.4284311325349332,-0.2573665331484323,-0.4354237984967385
15.349999999999994,-0.4114074039929006,-0.2545026730851421,-0.6174325379944362
15.36,-0.4047504925003701,-0.2445821386116703,-0.8713288563747222
15.36999999999999,-0.3859606219292981,-0.2371408004445956,-1.161077064085268
15.379999999999995,-0.3716266988709468,-0.2255315388658184,-1.5711965628588127
15.39,-0.3146146021233049,-0.2440296231388802,-2.0597080030488804
15.399999999999991,-0.2516721415524106,-0.2400025302207925,-2.640407245191283
15.409999999999997,-0.1161604200727105,-0.2029057636658271,-3.3548838514087524
15.420000000000002,0.0932421117949164,-0.110939440011498,-4.136593222998357
15.429999999999993,0.3241945206908537,0.0059848322905213,-4.965146505612331
15.439999999999998,0.5236161916924785,0.1110372473182919,-5.820899205390793
15.450000000000005,0.6735962820033087,0.2574517609775575,-6.660472273114192
15.459999999999994,0.7764976473909899,0.4731848094646173,-7.431758110516606
15.47,0.8567751544284193,0.6269451947600196,-8.156739671039768
15.47999999999999,0.9071472783862108,0.7995367396449236,-8.744642398449358
15.489999999999997,0.9457329376300384,0.971492544497493,-9.17479797191429
15.5,1.0757805117106665,1.0315427368309436,-9.447338972133135
15.509999999999993,1.2703769015074946,0.992850595547336,-9.53026435493872
15.519999999999996,1.4255250733727538,0.8395310975183479,-9.426175082552335
15.53,1.5210654265138628,0.6477829309873039,-9.15994495355318
15.539999999999992,1.5754739894076666,0.4878705291155732,-8.818083290904132
15.549999999999995,1.669661299577004,0.3501997768677924,-8.446951082282743
15.560000000000002,1.8896528821762268,0.2061822271556129,-8.071636792874713
15.569999999999991,2.1852227066072065,0.0218110600974282,-7.647343751341954
15.579999999999998,2.3675201510699644,-0.1718913659659505,-7.240084829874691
15.590000000000003,2.319293482475048,-0.3250313499974017,-6.800328129395686
15.599999999999994,2.048983330825266,-0.3648878365313314,-6.307825328208507
15.61,1.712145187953471,-0.3863892651020069,-5.77480709605643
15.61999999999999,1.424400587423004,-0.3966192218967765,-5.240341181262182
15.629999999999995,1.2403619727420827,-0.4237305031205278,-4.7150405593800855
15.64,1.1641121717269065,-0.4406270551718803,-4.24168657996712
15.649999999999991,1.1313494847110586,-0.4043835487908372,-3.884876086901781
15.659999999999997,1.1306257072807715,-0.315671691986549,-3.5898679972571323
15.670000000000002,1.1543942802873208,-0.2000659787728779,-3.3581783361961333
15.679999999999993,1.2819598849765874,-0.080722563108073,-3.132763491146039
15.689999999999998,1.4143871573176805,0.0026949834265485,-2.888775512427378
15.700000000000005,1.4849094050345013,0.0490012508791045,-2.639770367996652
15.709999999999994,1.5011130057725786,0.1088573091017904,-2.347047700990144
15.72,1.461564199532634,0.1692064385798688,-2.00595774202849
15.72999999999999,1.3651294716806983,0.2076237626921696,-1.619109404014203
15.739999999999997,1.2087855518004098,0.2243422004420399,-1.272337523580796
15.75,1.020979235576292,0.2158620103949032,-0.967708970792436
15.759999999999993,0.7843006451931362,0.1829691151086958,-0.6838800254348428
15.769999999999996,0.5081252474239633,0.1728480943993716,-0.4542886495626204
15.78,0.2927384037639536,0.1461636923184874,-0.2520331403843782
15.789999999999992,0.0824715910313778,0.1117040089524971,-0.0176625397201841
15.799999999999995,-0.1353842191593106,0.0745587764033854,0.1929565712985996
15.810000000000002,-0.3416721404302301,0.0196164196592641,0.3636800077960396
15.819999999999991,-0.5261246806961273,-0.0493036266107835,0.544089889382407
15.829999999999998,-0.6833771818046461,-0.10500663451047,0.697126141455143
15.840000000000003,-0.7723712145760744,-0.1535912988062376,0.8248025121758678
15.849999999999994,-0.817372766027707,-0.1933862888357759,0.942997244439722
15.86,-0.8396184124315816,-0.229529814317166,1.051786088154243
15.86999999999999,-0.8545118821508584,-0.2623972356635537,1.1637195069862414
15.879999999999995,-0.8356782939593612,-0.2835741591309502,1.2861801893372742
15.89,-0.8183073965368772,-0.2754167186272924,1.404136105976339
15.899999999999991,-0.7928007374697974,-0.2556487710695093,1.5829479395973636
15.909999999999997,-0.7613902939468588,-0.220455155458093,1.7573994373532944
15.920000000000002,-0.7022173326064391,-0.2197691847657945,1.936088610562912
15.929999999999993,-0.6445378222269158,-0.1651805090107067,2.182047995748013
15.939999999999998,-0.583733391611774,-0.1383513920962514,2.473752510380957
15.950000000000005,-0.4960608030797645,-0.1262778237871655,2.8186521130407654
15.959999999999994,-0.411320981950489,-0.1048131132000865,3.2265952100388797
15.97,-0.2617484452260968,-0.0923999549442262,3.6893474187614954
15.97999999999999,-0.0559885904813025,-0.0087025633388529,4.236025983673753
15.989999999999997,0.0993430555513807,0.103411176829963,4.898118384048676
16.0,0.1481741403854017,0.2227083370388657,5.600569096532525
16.00999999999999,0.0337397452046377,0.3587908516247669,6.281642650255921
16.019999999999996,-0.1976207234736452,0.503899889444696,6.911479924556375
