time,Gyr_X,Gyr_Y,Gyr_Z
0.0,-0.0002436911165754,0.0019525553844348,0.0024605464797698
0.0100000000000051,0.0002402247498224,-0.000680436270573,0.0067214043453628
0.0200000000000031,0.0005652527642662,0.0022307559036846,0.0106118507784229
0.0300000000000011,0.0005178628509648,0.0008307847252061,0.006653609521072
0.0400000000000062,0.0010944704363753,0.0006613006966247,0.0080368012639673
0.0500000000000042,-0.0022359674020505,0.0019864861598925,0.0030115774047349
0.0600000000000022,-0.0023067105875365,0.0004973728893698,-0.0029108654957325
0.0700000000000002,-0.0015609784028264,-0.0020638434427869,-0.0072710824753985
0.0800000000000054,-0.0021807580879792,-0.002133500755239,-0.0066026965641593
0.0900000000000034,-0.0018075555560014,-0.0031627995200276,-0.0110707961374151
0.1000000000000014,-0.0029296520390018,-0.0016585635289355,-0.0103769005963082
0.1100000000000065,-0.0004734166915218,-0.0014491379542007,-0.0062358064666063
0.1200000000000045,-0.0011812058131779,0.0003229306113326,-0.00235542023046
0.1300000000000025,-0.0023371180354382,-0.0017414822724617,0.0005078961871565
0.1400000000000005,-0.002115631021541,-1.980204056166117e-05,0.0054673291658084
0.1500000000000056,0.0008521498926363,-0.0016102212500589,0.0077943648243786
0.1600000000000037,-0.0003306661430355,-0.0002864043973814,0.0064923805488593
0.1700000000000017,0.0030290024150101,0.0005540904877729,0.0070570574976734
0.1800000000000068,0.0010536410183899,-0.001735629654204,0.0028248985554616
0.1900000000000048,0.0003088179828628,-0.0015534042502004,0.001627668541067
0.2000000000000028,0.0007385593372423,-0.0002515696665889,-0.0002630971147676
0.2100000000000008,-0.0026509092142473,0.0004224339647389,-0.0030669233878235
0.2200000000000059,0.0012848041668883,0.000292237899944,-0.0032908340905914
0.2300000000000039,-0.0014793859933446,-0.0018415212025975,-0.0018901421954414
0.240000000000002,-0.0038689776342083,-0.0024417441625805,-0.0005498358185452
0.25,-0.0060609643452786,-0.0003719491033236,-0.0007318398592557
0.2600000000000051,-0.0070334295399633,0.0005331402708976,-0.0024657385999635
0.2700000000000031,0.0009891518622042,0.0004008251533802,-0.0043094716633402
0.2800000000000011,-0.0014861693846758,0.0001850441110348,-0.0013181228190695
0.2900000000000062,0.0016744687486856,-0.0045798884857246,-0.0039032025618564
0.3000000000000042,8.300532170359796e-05,-0.0035825136964933,-0.0025731831785724
0.3100000000000023,0.0001050539841559,-0.000916092427383,-0.0004530581599495
0.3200000000000003,0.0004582594798078,0.0001054530122828,-0.0047448683065544
0.3300000000000054,0.0003162546445125,0.0004552070805685,0.0022724606638513
0.3400000000000034,-0.004020223043855,-0.0042342289542726,0.0028283057877894
0.3500000000000014,-0.0075393074199976,-0.0009701887519427,0.0015949484277788
0.3600000000000065,-0.0097343242990264,0.0035825568794378,-0.004483494574092
0.3700000000000045,-0.0027637238309758,0.0012710332054743,-0.0171130286624484
0.3800000000000025,0.0016057541213004,-0.0018004084004137,-0.0230734311689246
0.3900000000000005,-0.0028624734441923,-0.0056833651118459,-0.0245129985219072
0.4000000000000057,-0.0135278246525086,-0.0038487704778723,-0.0149376661231925
0.4100000000000037,-0.0137491656591003,0.0012728096035925,-0.0089878114109747
0.4200000000000017,-0.0046648978939932,0.0044718214827846,0.0028761986540176
0.4300000000000068,0.0103658880146866,0.0037557883318829,0.0089688274666109
0.4400000000000048,0.0184894906552292,-0.0018867942437239,0.02066970982641
0.4500000000000028,0.0056538114104463,-0.0053721813786438,0.0235542259399886
0.4600000000000008,-0.0020293301112118,0.0025387991896916,0.0217830692240988
0.4700000000000059,-0.0107178678161018,0.0072809941409058,0.0225444293247795
0.480000000000004,-0.008070860329596,0.0125254629558112,0.0201108259491639
0.490000000000002,0.0036726008281525,0.0080674981179857,0.0149708342675104
0.5,0.0083625522025497,0.0030949185277567,0.0080363292933715
0.5100000000000051,0.0048624954123247,0.0012586661391832,0.0062999509329784
0.5200000000000031,-0.0082822638915784,0.0006723648251731,0.0035286006875046
0.5300000000000011,-0.0198543464316994,0.0034369820202857,0.0032806545395242
0.5400000000000063,-0.0245594206113917,0.0025335603510683,0.0020455934735484
0.5500000000000043,-0.0236518523129993,0.0030215986302777,-0.0025202456389576
0.5600000000000023,-0.0188538271649521,0.003896628695761,0.0062662791890948
0.5700000000000003,-0.0122659062557512,0.0087562627813544,0.0061062053917366
0.5800000000000054,-0.0074485793909375,0.007618641490748,0.0219035903839602
0.5900000000000034,0.0022170934201144,0.0079394609641899,0.0407911841344302
0.6000000000000014,0.0022895002114471,-0.001772773418796,0.0447924233685465
0.6100000000000065,-0.0029305531395758,-0.006540294903097,0.0516086461380423
0.6200000000000045,0.0003085979540418,-0.0043114377208557,0.0612823723939657
0.6300000000000026,-0.0020789837109593,0.0011931866852923,0.0702387693497181
0.6400000000000006,-0.0135888196629477,0.0064517150572886,0.0828297518115187
0.6500000000000057,-0.0214063871648233,0.0002572620525354,0.0952907858592018
0.6600000000000037,-0.0198501639086787,-0.0073558150457035,0.0981894601700277
0.6700000000000017,-0.017083851626878,-0.0194324438827629,0.1009894252746066
0.6800000000000068,-0.0092666060805348,-0.0371176082523302,0.1059115904182093
0.6900000000000048,-0.0056639218154669,-0.0586578017632955,0.106953137378794
0.7000000000000028,-0.0046266552966624,-0.0787782729746837,0.1121914243253462
0.7100000000000009,-0.0022610066575641,-0.1045099636310917,0.1133583218869174
0.720000000000006,0.0072934748619566,-0.1398952362864806,0.1092427219993177
0.730000000000004,0.0211980413095884,-0.183152265611444,0.0986732026111789
0.740000000000002,0.0337965691990887,-0.2244971764290654,0.0867623905703637
0.75,0.0528148121260207,-0.2598643226271812,0.0735801210855431
0.7600000000000051,0.0695552995724723,-0.2870831158763833,0.0738010055735155
0.7700000000000031,0.0769463696610844,-0.3200049351712177,0.0756047946640062
0.7800000000000011,0.1018711111387493,-0.3542036178540226,0.0839846578791722
0.7900000000000063,0.1299469391164736,-0.3926211816081864,0.0860685246704084
0.8000000000000043,0.1591610194751462,-0.4318796899293942,0.0798483759498382
0.8100000000000023,0.1920074313169249,-0.4550753066491577,0.0704368984143779
0.8200000000000003,0.2430678276940088,-0.456627150508599,0.0592368233065218
0.8300000000000054,0.2979966877891518,-0.4450390876041272,0.0462479040652173
0.8400000000000034,0.3206720938390986,-0.4219310243715017,0.0328228425926971
0.8500000000000014,0.3145110658131194,-0.3921520433489662,0.0279182568634334
0.8600000000000065,0.2908730352666099,-0.3583643993801554,0.0253040532987307
0.8700000000000045,0.292922403335428,-0.3131258986521429,0.0300042374619052
0.8800000000000026,0.3168508955126172,-0.2491092566754761,0.0370114248682876
0.8900000000000006,0.3392125982009503,-0.1677651904764106,0.0497238692304822
0.9000000000000057,0.3629269155329205,-0.0730765790702635,0.0614832472813404
0.9100000000000036,0.3713888426454383,0.0265329251185341,0.0776367521921639
0.9200000000000016,0.3738486678250619,0.1327078630753783,0.0960996535639657
0.9300000000000068,0.3676647404379626,0.2353560683157704,0.1044934508671362
0.9400000000000048,0.3417030222852231,0.3247192042644737,0.1197303087341822
0.9500000000000028,0.3013431348062651,0.3891481510699788,0.1311563862251065
0.9600000000000009,0.2481494639371463,0.4419161443787657,0.1452143086201586
0.970000000000006,0.2004435021985404,0.4805997571457218,0.1695288471637071
0.980000000000004,0.1640454137259215,0.5131613883089072,0.1874363965058278
0.990000000000002,0.1302757163362115,0.5432988731005143,0.2013821093668678
1.0,0.1004486264134092,0.569553223138247,0.203113759644073
1.0100000000000051,0.0828544627272428,0.5966733396895366,0.196860709905589
1.0200000000000031,0.075439008799291,0.6237570563811947,0.1835617159990268
1.0300000000000011,0.0551232486603343,0.6337181040829452,0.168864603126003
1.0400000000000065,0.0404027086134085,0.6319563165213737,0.1503855243950888
1.0500000000000045,0.0281289638879364,0.6219118191885824,0.1296636336746645
1.0600000000000025,0.0177816888485018,0.5991736735891355,0.1054280377197867
1.0700000000000005,0.0120230745187161,0.5730089003964995,0.0787988576353994
1.0800000000000054,-0.0086481063781814,0.5402879099772165,0.0552733977449669
1.0900000000000034,-0.0474440228489436,0.4978069906616049,0.0338024982182805
1.1000000000000014,-0.091164222681363,0.4539471788023846,0.0221628018030962
1.1100000000000063,-0.1283002911476625,0.4112833350037762,0.0188462666678851
1.1200000000000043,-0.1600132712557478,0.3684719810598439,0.0087896663074328
1.1300000000000026,-0.1857018965495765,0.3291911694347867,0.0073576835309726
1.1400000000000006,-0.1849779751661955,0.2877927593848962,-0.0007609194517909
1.1500000000000057,-0.1620078491992607,0.2635236494653589,-0.0067283172353767
1.1600000000000037,-0.1159502869655895,0.2461744887400182,-0.0134695425894588
1.1700000000000017,-0.062943083270035,0.2363649872365387,-0.0256422747987896
1.1800000000000068,-0.0029786841255766,0.2391157551182112,-0.0360758241303188
1.1900000000000048,0.0412347279069186,0.2432161096503122,-0.0497415877527901
1.2000000000000028,0.0666698805908703,0.2478365447743603,-0.0679770019895195
1.2100000000000009,0.0932861079095456,0.2522771745638613,-0.090981271752028
1.220000000000006,0.126213590942549,0.24797553665861,-0.1067140178209016
1.230000000000004,0.155084777310033,0.2414854451231952,-0.1281104203755873
1.240000000000002,0.170808745675167,0.2348285799374669,-0.1427892728961452
1.25,0.1910671701099412,0.2277572151473246,-0.1570626432953398
1.2600000000000051,0.2048384727508214,0.2257458425760142,-0.1710898833053581
1.2700000000000031,0.211717249168039,0.217795071515624,-0.1875180849892312
1.2800000000000011,0.2073109655689779,0.2046455797404262,-0.20225497233729
1.2900000000000065,0.1849678000882577,0.1914623537128575,-0.2099566928989943
1.3000000000000045,0.1685330409403199,0.1709296380636674,-0.2113496380673692
1.3100000000000025,0.1575344353567088,0.1500065974243363,-0.2107179332020779
1.3200000000000005,0.1579020932541351,0.1301575020829461,-0.2100092760256497
1.3300000000000054,0.1639766026826997,0.1121220820771866,-0.2098369112195398
1.3400000000000034,0.1831806712704975,0.0915788051440751,-0.215906222341751
1.3500000000000014,0.2018372025289346,0.0783165964902654,-0.2201795563506517
1.3600000000000063,0.211845034446228,0.0559619541706889,-0.2269376791443192
1.3700000000000043,0.2167609451936732,0.0334315420680236,-0.2376564816264731
1.3800000000000026,0.2091106823873913,0.0102455967847586,-0.2449826531472546
1.3900000000000006,0.1998474857719992,-0.0136920507576106,-0.2516090588590146
1.4000000000000057,0.1960238229129807,-0.0362853088758544,-0.2524679288112338
1.4100000000000037,0.1906068309290383,-0.0535339995532549,-0.2545299515623866
1.4200000000000017,0.1908377086918133,-0.0614911857251629,-0.2637410869434589
1.4300000000000068,0.1938425810007233,-0.0639613738633003,-0.2771683797417837
1.4400000000000048,0.1839017792965993,-0.0690354017937195,-0.2901256723333861
1.4500000000000028,0.168970989648691,-0.0689210100974633,-0.3066854213313103
1.4600000000000009,0.1615570360580893,-0.0652928428586615,-0.3186006482297718
1.470000000000006,0.1551885308150946,-0.0544663617898496,-0.3219535404594918
1.480000000000004,0.1447037341877788,-0.047098517157904,-0.32403705572124
1.490000000000002,0.1390993726906519,-0.0405033171092372,-0.3209876514844105
1.5,0.1339770519820077,-0.0381151489618186,-0.3174576911699203
1.5100000000000051,0.1232357985734675,-0.0423411640880041,-0.3149689466538525
1.5200000000000031,0.1071901609921603,-0.0471657487312444,-0.3034782949219547
1.5300000000000011,0.1019474417802622,-0.0542229574213286,-0.2860870862073851
1.5400000000000065,0.094260093539545,-0.0608533283473744,-0.2635512561602026
1.5500000000000045,0.0843138930754257,-0.0594024599447339,-0.2390132886555442
1.5600000000000025,0.0531002077634606,-0.0663401427350652,-0.213643602392887
1.5700000000000005,0.0152645211063018,-0.0740947313139361,-0.1856973991360397
1.5800000000000054,-0.0284953045351544,-0.085571947534341,-0.1624090097039453
1.5900000000000034,-0.0756203118253156,-0.0984798492397512,-0.1330818812074683
1.6000000000000014,-0.110886874698063,-0.1085223721918859,-0.1119163873006856
1.6100000000000063,-0.1338341992903395,-0.1162417583706352,-0.0902219933637822
1.6200000000000043,-0.1345164095667425,-0.1228167182238138,-0.0681890086282609
1.6300000000000026,-0.1272761227044063,-0.134118388088229,-0.0462775846396477
1.6400000000000006,-0.1098507698727283,-0.1420183863743586,-0.0210321778881535
1.6500000000000057,-0.1020367679291422,-0.1544880974137823,0.0005043723492295
1.6600000000000037,-0.0970033373464289,-0.1738488019919156,0.0240636591587628
1.6700000000000017,-0.0959786456034701,-0.1887617451152115,0.0576544227946789
1.6800000000000068,-0.1054049043022522,-0.2050423249708216,0.0851543549962475
1.6900000000000048,-0.1096797174383941,-0.2136281794385786,0.1194245410002095
1.7000000000000028,-0.1096205361665153,-0.2206109178826212,0.1526081671768307
1.7100000000000009,-0.0942540312517186,-0.219697332979441,0.1834685904407698
1.720000000000006,-0.0746437561470253,-0.2071136326553719,0.2135518415949848
1.730000000000004,-0.0462142251500408,-0.181673681454828,0.2417175582631769
1.740000000000002,-0.0263994046917045,-0.148862784955819,0.2816956061809441
1.75,-0.0228894956429607,-0.1076461304330816,0.3186539128059751
1.7600000000000051,-0.034018429331596,-0.0694378507725007,0.365027814293629
1.7700000000000031,-0.0592746876616859,-0.0350894697687614,0.4070377475760342
1.7800000000000011,-0.0796920470294595,0.0051403591307851,0.451389317399494
1.7900000000000065,-0.0997421360968432,0.0398908978453327,0.4964453376572882
1.8000000000000045,-0.1119576902789023,0.0718570180048329,0.5393592091918719
1.8100000000000025,-0.1184576269665586,0.1037970414275856,0.5748073392663778
1.8200000000000005,-0.1071757993496193,0.1360708329741597,0.6060224842103089
1.8300000000000052,-0.0814859509252108,0.1625271118443152,0.6301768161588648
1.8400000000000036,-0.0669470980328967,0.1907551077223113,0.6450647456220322
1.8500000000000012,-0.0675695408925976,0.2043631241614273,0.6533649180173811
1.8600000000000063,-0.0791444262838645,0.207989307807872,0.6637168816247229
1.8700000000000043,-0.1116373028253775,0.1973154433265218,0.6609560441751564
1.8800000000000023,-0.1372015180534118,0.1794112458287024,0.6524156650705185
1.8900000000000008,-0.1492630225226798,0.1622105782455093,0.638184402456225
1.9000000000000057,-0.1357283599821792,0.1433626148386207,0.6198252864411452
1.910000000000004,-0.1087057240509295,0.12566039427087,0.5938166246232255
1.9200000000000017,-0.0766650361681837,0.1076733600046084,0.5727045669063141
1.9300000000000068,-0.0451291040633615,0.0887460105324917,0.5498960960446346
1.9400000000000048,-0.0098242033371435,0.0647729878034623,0.523337382075912
1.9500000000000028,0.0258472361388383,0.0336041482748454,0.5085882954315103
1.9600000000000009,0.0693298997064068,-0.0001756437636279,0.4900489614950573
1.970000000000006,0.1013680445295209,-0.0258369866325243,0.479255963870736
1.980000000000004,0.1218534635478491,-0.0507562392110239,0.469586977916913
1.990000000000002,0.1351936413911165,-0.0788485100199172,0.4642304502016289
2.0,0.1428613009823889,-0.1051943762388017,0.4638326561224457
2.010000000000005,0.1472751124760654,-0.1287564977683565,0.4646206388519075
2.020000000000003,0.1458265936003221,-0.1550102909027932,0.4676191447882672
2.030000000000001,0.1481766298639499,-0.1829499210496245,0.4624713601039306
2.0400000000000063,0.1373506298279803,-0.2029203370627373,0.4563868619746337
2.0500000000000043,0.1243844304090351,-0.2217010573840639,0.4467112717374845
2.0600000000000023,0.1239268799205888,-0.236902004175633,0.4274046490210322
2.0700000000000003,0.1228167776340565,-0.2420728594414942,0.408729621433484
2.0800000000000054,0.1207261168812568,-0.248283556871891,0.3893911030690025
2.0900000000000034,0.1231997775062628,-0.2536479420294488,0.3722368950491024
2.1000000000000014,0.1224299048522878,-0.2548209915421419,0.3535998430157936
2.1100000000000065,0.1231616314819545,-0.2514549301385242,0.3351674765277952
2.1200000000000045,0.1181836909506408,-0.258636591156491,0.3240731910106831
2.1300000000000026,0.1161138080684134,-0.2643892274563851,0.3172024749611622
2.140000000000001,0.1131640713681149,-0.2744695968070352,0.3172104201239894
2.1500000000000057,0.1199461058911023,-0.2797573255137384,0.3225750973045652
2.160000000000004,0.1280048351424831,-0.2811689500320076,0.3252467082564483
2.1700000000000017,0.1371747759260908,-0.2758329115196496,0.3314001152775452
2.180000000000007,0.144025994755267,-0.2723657569741383,0.3406261122283938
2.190000000000005,0.1378979680883065,-0.2570449431648225,0.35076135500995
2.200000000000003,0.1249048997495801,-0.2367239401277784,0.3597657687983693
2.210000000000001,0.1034372714420117,-0.2126058500604986,0.3664483306435051
2.220000000000006,0.0938161317169222,-0.1856531313292466,0.3709133021425527
2.230000000000004,0.0914552475314973,-0.1587089776100651,0.3679842419677155
2.240000000000002,0.0993469745893279,-0.1293904234062341,0.3736972483285564
2.25,0.112502548092651,-0.0981157088141926,0.3806030767454966
2.260000000000005,0.1304647148324276,-0.0646482857209369,0.3899940272975467
2.270000000000003,0.1439147969844695,-0.0339636424944985,0.4008044646539699
2.280000000000001,0.1462150868163041,-0.0024758055576414,0.4109147991360777
2.2900000000000063,0.1361975396692577,0.0214058816118297,0.4178472905974329
2.3000000000000043,0.1226163824435164,0.0552399676391719,0.4245626872146575
2.3100000000000023,0.1159359103820671,0.0847398537762147,0.4231995827380741
2.3200000000000003,0.106983654629082,0.118065886881003,0.4266581419297699
2.3300000000000054,0.1023107983565356,0.145721486793719,0.427458609644333
2.3400000000000034,0.1083001669409704,0.1732042413567853,0.4253298132012409
2.3500000000000014,0.1117718486358797,0.1976786348419842,0.4338155656349555
2.3600000000000065,0.1063101049202757,0.2230004916987597,0.4407578425930598
2.3700000000000045,0.0958815272239009,0.2512419555522844,0.4470549582117624
2.3800000000000026,0.0899264460933245,0.2825379641687994,0.4497604638257729
2.390000000000001,0.0842031633135486,0.3112027053860961,0.4477409313552305
2.4000000000000057,0.0589129831407842,0.3414371224655943,0.4412177079941636
2.410000000000004,0.0167673558125892,0.3695278955586129,0.4387678413267304
2.4200000000000017,-0.0054934186881607,0.3905930437610244,0.4397535035854669
2.430000000000007,-0.0133755832598783,0.3980991027008425,0.445466099940605
2.440000000000005,-0.0282180358575678,0.4121549069996763,0.4553109320280361
2.450000000000003,-0.0365222540992776,0.4367943015830827,0.4677397960204255
2.460000000000001,-0.0425409683871175,0.4702776584352217,0.479530110862026
2.470000000000006,-0.036863783920633,0.50074755758826,0.4903205844090531
2.480000000000004,-0.0216420560888934,0.5244892376280613,0.5112448517976843
2.490000000000002,-0.0063345537989171,0.5328739766869213,0.536540039345295
2.5,0.0061822287043518,0.5359649624982141,0.5574185953678038
2.510000000000005,0.0053235811658302,0.5360188334056211,0.5765825454870755
2.520000000000003,-0.0072176977562717,0.5323701906676664,0.5860637566330823
2.530000000000001,-0.029717140678536,0.5298384400705562,0.5953245079337491
2.5400000000000063,-0.0690416184794567,0.5239787348388864,0.6028387484416026
2.5500000000000043,-0.1144916653868434,0.5188752783266245,0.6143739931831732
2.5600000000000023,-0.1559043717487931,0.5143311850164862,0.6214275258406717
2.5700000000000003,-0.1879090369631028,0.5011119965800869,0.6225484731897778
2.5800000000000054,-0.196589726279623,0.4886275653086082,0.6144852131005077
2.5900000000000034,-0.1831986602154035,0.4697231812470057,0.6010824386459833
2.6000000000000014,-0.1526589776154726,0.4463682389862088,0.5882840342702342
2.6100000000000065,-0.1161804000254531,0.4174364225452722,0.5741760335173316
2.6200000000000045,-0.0778731907344654,0.3833792519302925,0.5649748157653803
2.6300000000000026,-0.0350377858341076,0.3532397898381035,0.5474804215304326
2.640000000000001,0.010451268979663,0.3271177873367654,0.5253542509121615
2.6500000000000057,0.0598984554264186,0.3026337720632184,0.5067223752115572
2.660000000000004,0.1005613250352081,0.2896664101612466,0.4934541907768477
2.6700000000000017,0.1206777763317465,0.2744312213817584,0.4787835048181173
2.680000000000007,0.1304385607465084,0.2629589734261729,0.4737342097347081
2.690000000000005,0.1293018452092216,0.2528964191995268,0.4775080270236595
2.700000000000003,0.1189140963016804,0.2435681063808575,0.4958492512030854
2.710000000000001,0.0925161123389834,0.2334756328309638,0.5138628504404608
2.720000000000006,0.0644352254563548,0.2241015686518339,0.530085450790995
2.730000000000004,0.0298470904514975,0.2160452209220363,0.5468784512890229
2.740000000000002,-0.0026857225822988,0.2055901727721095,0.5574633528732075
2.75,-0.0454159321144393,0.1960504543067918,0.57126337714802
2.760000000000005,-0.0873513780766101,0.18382628553688,0.5812210885232204
2.770000000000003,-0.1153890417568315,0.1686004630920429,0.5853926750946281
2.780000000000001,-0.1126347247440633,0.1530504413296352,0.5868190137296364
2.7900000000000063,-0.1066297058234437,0.1324725232941954,0.5840727405936946
2.8000000000000043,-0.1007190242592198,0.1178099445129883,0.5745039783681756
2.8100000000000023,-0.0957268965094409,0.1039044114551913,0.5605989878494012
2.8200000000000003,-0.0933277629521183,0.0848854245865592,0.5528130797274518
2.8300000000000054,-0.089630733516422,0.061051934809072,0.5541689263866889
2.8400000000000034,-0.1006933381546512,0.0286868413232126,0.5723634595363385
2.8500000000000014,-0.1166538598902766,-0.0031541969806604,0.589789265340676
2.8600000000000065,-0.1352684309559926,-0.0292884796656713,0.6020754231945873
2.8700000000000045,-0.1548401497619442,-0.0508552817614132,0.6034400585254078
2.8800000000000026,-0.1759338136028056,-0.0703166747744594,0.5979996109219334
2.890000000000001,-0.1951011171195745,-0.0822559144931339,0.5848255043034745
2.9000000000000057,-0.1946792028811274,-0.090763549315497,0.5742771257345137
2.910000000000004,-0.1909171463262415,-0.1004249670375383,0.5676827125641599
2.9200000000000017,-0.1787735175223012,-0.1126691687417894,0.5651870999960268
2.930000000000007,-0.1668345300200926,-0.1334044204172319,0.5666641465312398
2.940000000000005,-0.1449555455993601,-0.1474237515951626,0.5853914709190806
2.950000000000003,-0.1158659135631861,-0.1661441304468071,0.6040420386272289
2.960000000000001,-0.0815858533273634,-0.1809146910838618,0.6110809085342679
2.970000000000006,-0.0511888255626382,-0.18131460448432,0.6122101273961088
2.980000000000004,-0.0379100678764551,-0.1728233011145813,0.6135632134529273
2.990000000000002,-0.0185117159275912,-0.160515189657092,0.5986875284713122
3.0,-0.0103950615245507,-0.1448338991529868,0.589538505541902
3.010000000000005,-0.0035829440695242,-0.1401239664440294,0.5930052314174518
3.020000000000003,-0.0128105219134648,-0.1289726579899777,0.5954323801580168
3.030000000000001,-0.0274643346056139,-0.1159050058553671,0.6049609819681688
3.0400000000000063,-0.0499050137822964,-0.1004985766524655,0.6115745084995632
3.0500000000000043,-0.0644890770824052,-0.084636815247838,0.6151848579465746
3.0600000000000023,-0.0704905805751494,-0.0697956637191784,0.617865189687042
3.0700000000000003,-0.0548469983203891,-0.051550423245125,0.6100788094036208
3.0800000000000054,-0.0255261685295532,-0.0241857471471444,0.6068003371406515
3.0900000000000034,0.0111892223054919,0.0072115423578449,0.6006590213887675
3.1000000000000014,0.0488516913445402,0.0439740339344279,0.5915267860369298
3.1100000000000065,0.0856238562930017,0.07688459947241,0.5807376549977716
3.1200000000000045,0.1259280696551717,0.1196825898888919,0.5625904424866985
3.1300000000000026,0.1631809891493059,0.1711522753551904,0.5462495485012262
3.140000000000001,0.1843228719717918,0.2190704153335456,0.5290462706269982
3.1500000000000057,0.1967793345108682,0.2626790055813653,0.5175782206734304
3.160000000000004,0.183093020840582,0.2936961575180076,0.5095002660439358
3.1700000000000017,0.1482979854559664,0.3058746026684721,0.5132121374790206
3.180000000000007,0.1037174325738273,0.2929454283691294,0.5268756472265176
3.190000000000005,0.0634689682436504,0.2696073553928974,0.5399899762401694
3.200000000000003,0.033123337344893,0.2429420639612558,0.5583329479639577
3.210000000000001,0.0085260425084527,0.2224413865647727,0.5631684768030786
3.220000000000006,-0.01234530402935,0.2016225817198562,0.5603981284662465
3.230000000000004,-0.0208334010388608,0.189302556887448,0.5634634056220582
3.240000000000002,-0.0127086419661707,0.1773045606648103,0.5649847957691403
3.25,0.0009755750222056,0.165802270096992,0.5562645155293384
3.260000000000005,0.0180667786955124,0.1508607787284119,0.5428778236243754
3.270000000000003,0.0396371238027706,0.1270647134480146,0.5350879265016344
3.280000000000001,0.0608964783120642,0.1041291460127934,0.5393175740704402
3.2900000000000063,0.0701841505762898,0.0806312651326889,0.5486017205070879
3.3000000000000043,0.0663494619743963,0.0559173222604451,0.5666926676323234
3.3100000000000023,0.0531133725838086,0.0309672609135391,0.589897989362974
3.3200000000000003,0.0252573617511566,0.0038852019972924,0.6176877177117144
3.3300000000000054,0.007345937849294,-0.0188254110072387,0.639109872969255
3.3400000000000034,0.0056062610442641,-0.0413451950193303,0.659314758348825
3.3500000000000014,0.0075814043469333,-0.0575893543443113,0.6673751315952585
3.3600000000000065,0.0126759957849899,-0.0598610451416408,0.6764697172156959
3.3700000000000045,0.0112378459752107,-0.065784356480965,0.6808517684397779
3.3800000000000026,0.0095698482514686,-0.0591269733225882,0.6804408827759906
3.390000000000001,0.0142940270712759,-0.0490915228661826,0.6876860612775544
3.4000000000000057,0.0244782695864358,-0.041910457148899,0.6897643595804881
3.410000000000004,0.03268221711282,-0.0256463557329998,0.6944196041627851
3.4200000000000017,0.0402049757355131,-0.0102927824124983,0.6969061049194373
3.430000000000007,0.0453313432569352,-0.004365325341919,0.7023108986963795
3.440000000000005,0.0328233465884133,0.0087759248273864,0.7093802056501839
3.450000000000003,0.0074469459010137,0.0218565673128856,0.7150868885046232
3.460000000000001,-0.0135712632532005,0.0334685836242773,0.7266391172673342
3.470000000000006,-0.0346430759644869,0.0456873645282126,0.7360585979826018
3.480000000000004,-0.0528160991276616,0.0588935582862642,0.7496728435486825
3.490000000000002,-0.059648286121015,0.0710624427827924,0.7617316589714136
3.5,-0.0599636288033471,0.088958540217742,0.7642882261267367
3.510000000000005,-0.0556634414782938,0.1022998680015608,0.7609737822394109
3.520000000000003,-0.0533961732443702,0.1188039821554893,0.7546792141628279
3.530000000000001,-0.0614411503417262,0.1252954982254929,0.7431917240757588
3.5400000000000063,-0.0755821044608306,0.1292522823823751,0.7333465152994979
3.5500000000000043,-0.0877881403964047,0.1307972621275595,0.7234219808103456
3.5600000000000023,-0.0906176617215405,0.1338270285514826,0.7147807787650655
3.5700000000000003,-0.0820776181549248,0.1350825553905824,0.7025745199258545
3.5800000000000054,-0.0710350882002,0.1345593648548066,0.6902592886299986
3.5900000000000034,-0.0622927080034343,0.1322316049571358,0.6745066313449947
3.6000000000000014,-0.0632666389945753,0.1242798966352564,0.6586729002466345
3.610000000000007,-0.0827589575758648,0.1154399966401641,0.6440121965761241
3.620000000000005,-0.1068211212292219,0.1069930860213613,0.6377986511474356
3.6300000000000026,-0.1294699767173699,0.0989174573984744,0.6376999173420581
3.640000000000001,-0.1421212849311657,0.0926038797683792,0.6386686926595239
3.6500000000000057,-0.134956981328358,0.0868580332032661,0.6378947536581161
3.660000000000004,-0.119139790754502,0.0782937122881,0.6318658867534818
3.6700000000000017,-0.1024277064302242,0.0623102915518481,0.6186402214491917
3.680000000000007,-0.098623829082043,0.0554746126002965,0.6076601620239669
3.690000000000005,-0.1122150941822583,0.0454347496927141,0.6093776113818385
3.700000000000003,-0.1342222832962643,0.0292119004457324,0.6216626096093415
3.710000000000001,-0.1608304849736788,0.021211722066868,0.6383173821611378
3.720000000000006,-0.1823260650144678,0.0100186236997619,0.6521038607623507
3.730000000000004,-0.2066601501564826,0.0061568872990006,0.6658568285038889
3.740000000000002,-0.2270441010721403,-0.0028378396189909,0.6800325485851656
3.75,-0.2387535403024317,-0.0094669450841642,0.6897694221969838
3.760000000000005,-0.243782301535219,-0.0230324569923557,0.7006751888258014
3.770000000000003,-0.2468708660158655,-0.0309468184842429,0.7090612016349708
3.780000000000001,-0.242410798699778,-0.0400326194328901,0.7281350136045874
3.7900000000000063,-0.2399368931372067,-0.0501975965219669,0.7515414476527988
3.800000000000004,-0.2376186764637601,-0.053206619932337,0.777992457882255
3.8100000000000014,-0.2347824796144293,-0.0484108834964812,0.8053993690521493
3.82,-0.2236887586942937,-0.0447785797581875,0.8342672026005254
3.830000000000005,-0.2120389318664524,-0.0410082736952881,0.8637293811323751
3.8400000000000034,-0.1969138249416481,-0.0330170887176873,0.8903306223971031
3.8500000000000014,-0.1773224087751382,-0.023783438008469,0.9186698403100824
3.860000000000007,-0.1523086617419111,-0.0141480334170225,0.9500286965570024
3.870000000000005,-0.1304853968062632,-0.006603329770868,0.980380456897028
3.8800000000000026,-0.1102958844682793,-0.0026460656536857,1.0098361734108452
3.890000000000001,-0.0873043801352756,-0.0022469173531761,1.0340461112482997
3.9000000000000057,-0.0902119562456039,-0.0069512789411081,1.0656953725788387
3.910000000000004,-0.1029238383848678,-0.0046197935615977,1.0933678821903865
3.9200000000000017,-0.1201818415786544,-0.00087527907999,1.1272704535594575
3.930000000000007,-0.1298747345686359,0.0063115544640967,1.1575161572801052
3.940000000000005,-0.1247784552917928,0.0181601433944723,1.1816340064969872
3.950000000000003,-0.1096927331214224,0.0326009810304524,1.2020103893693472
3.960000000000001,-0.0765924300870188,0.0561122413956899,1.2180991712473896
3.970000000000006,-0.0363016950780138,0.0815808386548552,1.244600036417914
3.980000000000004,-0.0063512533215665,0.1087939823621415,1.2705881336027165
3.990000000000002,0.0131944928046938,0.1445072223820399,1.299727907326042
4.0,0.0222341295211956,0.1806310964176063,1.3308724817482236
4.010000000000005,0.0139199800935128,0.2141820487964075,1.360568099253496
4.020000000000003,0.0050248170201209,0.247190597162095,1.3961592943464378
4.030000000000001,0.0053393398742586,0.269460473443107,1.4289725154575368
4.040000000000006,0.0076646017104042,0.2853382575836372,1.4574527002499464
4.050000000000004,0.0189602778097651,0.2987139685728109,1.4757420866406823
4.060000000000002,0.0301874175805947,0.3204720054517294,1.4951320206790375
4.07,0.0381083289701788,0.3469745687911852,1.5031901687077358
4.080000000000005,0.045453906985847,0.3799709861000812,1.49242284689435
4.090000000000003,0.0437240220083033,0.4182484246434356,1.4717990137029102
4.100000000000001,0.0362206622076997,0.4387095784459854,1.4314738401736655
4.110000000000007,0.0155974235278952,0.4423861347782086,1.3845286812887465
4.1200000000000045,-0.0244489335490234,0.4283144425660863,1.3374866815418924
4.130000000000003,-0.0897677668727959,0.3811651984945896,1.3009620454649533
4.140000000000001,-0.1577280484651445,0.3216711023196884,1.2715349830867042
4.150000000000006,-0.2129435155494583,0.2628953242107166,1.239201995429739
4.160000000000004,-0.2476391000842824,0.2063919690424193,1.205171139373667
4.170000000000002,-0.2494332720474559,0.1725350641987169,1.167165399324734
4.180000000000007,-0.2276449160595189,0.1480216043451592,1.127069573428516
4.190000000000005,-0.1837198398879769,0.1356624220387286,1.0808830019932063
4.200000000000003,-0.1277193677023116,0.1228258898121305,1.0231959485121302
4.210000000000001,-0.0724995811872589,0.0982057459836827,0.9634497085193674
4.220000000000006,-0.0349098110458308,0.0717620467879223,0.8989314040204334
4.230000000000004,-0.0320447775054394,0.0339527990906302,0.8408914787729656
4.240000000000002,-0.0621592931660527,-0.0115788635652972,0.7806862770246995
4.25,-0.1143098742002855,-0.0628406101437333,0.722396293965986
4.260000000000005,-0.1804455534391144,-0.1227927576113005,0.6742413681378732
4.270000000000003,-0.2336899279735926,-0.1751709306847577,0.628573905424135
4.280000000000001,-0.2660001151336914,-0.2171756357107667,0.5821914131826006
4.290000000000006,-0.2911190608343427,-0.2474039337779472,0.5468831952325763
4.300000000000004,-0.3104800501758613,-0.2570804335950648,0.5198485253132129
4.310000000000002,-0.325488550994517,-0.2653436305357369,0.5013357721952002
4.32,-0.3215772791473582,-0.2656956714228305,0.4869124832933142
4.330000000000005,-0.2886173471212008,-0.2451242656130079,0.4712256955029429
4.340000000000003,-0.2378633186054431,-0.2129620113246356,0.4663300966309487
4.350000000000001,-0.1983713820556581,-0.1669488228545675,0.459027454700728
4.360000000000007,-0.1915550292978789,-0.1176342330658584,0.4566157762760298
4.3700000000000045,-0.1987849500747427,-0.0715229207946466,0.4605114671164348
4.380000000000003,-0.2143036082249562,-0.039339110222353,0.4536201123491431
4.390000000000001,-0.2334095965899621,-0.0179237867032889,0.4343600042709266
4.400000000000006,-0.251791519892773,-0.0160826390158031,0.4053048285340941
4.410000000000004,-0.2606993510426599,-0.0205851816043358,0.3721068606564164
4.420000000000002,-0.2638569106662813,-0.034409845744068,0.3438278092411093
4.430000000000007,-0.2603147153114859,-0.0447044415736453,0.3096576171046819
4.440000000000005,-0.245981388879225,-0.0430218032477328,0.2832929226738568
4.450000000000003,-0.215583318216461,-0.0264170244550298,0.2563510128270033
4.460000000000001,-0.1818196284729395,-0.0055870651721441,0.2334926139558084
4.470000000000006,-0.1619642078628094,0.0204380614447068,0.2091463932330215
4.480000000000004,-0.1498009349373803,0.0448053195039006,0.1891077912865696
4.490000000000002,-0.1415202923032868,0.0662193645444235,0.182941458718818
4.5,-0.1367244925434609,0.0918905865981501,0.1845920061831054
4.510000000000005,-0.1289031089126354,0.1177508025624205,0.1836745921962476
4.520000000000003,-0.1275687592692439,0.1483234874265606,0.1854235900269325
4.530000000000001,-0.1221778134335757,0.1679884841048535,0.1792930716225807
4.540000000000006,-0.1226966744554935,0.18178342404407,0.1634093868771578
4.550000000000004,-0.132252271753283,0.18548865188034,0.1442891348802093
4.560000000000002,-0.1535478027677494,0.1775087437061727,0.1291544994542843
4.57,-0.1958667246639503,0.1714093263253953,0.1235046052844708
4.580000000000005,-0.2069014577754533,0.1638756844622657,0.1263443675963322
4.590000000000003,-0.1879880476308383,0.1695581320940009,0.1299915800627675
4.600000000000001,-0.150073975912995,0.1801873362488922,0.1283739642586608
4.610000000000007,-0.1055010628154822,0.1862423342836399,0.1264957401364033
4.6200000000000045,-0.0659479037678534,0.1890159106612814,0.1216213563756705
4.630000000000003,-0.0589370240804537,0.1735585164991088,0.1162858479326579
4.640000000000001,-0.0873991212376533,0.1477653735382122,0.1165783947995994
4.650000000000006,-0.1067251701007792,0.1205326507473758,0.1316555372899607
4.660000000000004,-0.0988695600535371,0.1087591419758062,0.1378291581912243
4.670000000000002,-0.0860744931322,0.0979240966057294,0.1384137519771894
4.680000000000007,-0.0664806123661278,0.090120927728859,0.1367425944229532
4.690000000000005,-0.0367081243166537,0.0842327800833128,0.1320023915430331
4.700000000000003,-0.0035205404496431,0.0744633812607715,0.1218680592000886
4.710000000000001,0.0230776901071463,0.0655485402115624,0.1102062310773899
4.720000000000006,0.0233310240979346,0.0476963011742976,0.0977940700170694
4.730000000000004,0.0019782862503549,0.027027651391424,0.0952076764931717
4.740000000000002,-0.0281141317733583,0.0043568123928171,0.1060935386334883
4.75,-0.0362584158124706,-0.0157945440549856,0.119115997522656
4.760000000000005,-0.0187251625519952,-0.036196764490058,0.1262281446953527
4.770000000000003,-0.0057128795163155,-0.0601584431996882,0.1331052462639562
4.780000000000001,0.0098488732042848,-0.0852422926572052,0.13414016720045
4.790000000000006,0.0177235608297053,-0.103342165091878,0.1371092115709859
4.800000000000004,0.0083598027458507,-0.1277836891122725,0.1372479908090078
4.810000000000002,-0.0114565933294853,-0.149498564437392,0.1367189038643427
4.82,-0.0197838833899715,-0.1659607089495589,0.1427469771317642
4.830000000000005,0.0101894169454788,-0.1725301984389537,0.1370951654386464
4.840000000000003,0.0502797928028553,-0.165989598383835,0.1304381378621251
4.850000000000001,0.0956588409429306,-0.1519380525279054,0.1248470603729863
4.860000000000007,0.1403143997014981,-0.1408039814826812,0.1202654376023708
4.8700000000000045,0.1688689009957313,-0.1305921614130359,0.1086013421775838
4.880000000000003,0.1735238485358488,-0.1300475977454548,0.1064348715372574
4.890000000000001,0.1569962568976687,-0.1393547864214279,0.1088609228705763
4.900000000000006,0.1415252213931378,-0.1403542214669315,0.1135015087421098
4.910000000000004,0.1409365422439641,-0.139227381975849,0.129543580816154
4.920000000000002,0.1520976180616558,-0.1242419975988873,0.1382772114205857
4.930000000000007,0.1619989509860223,-0.1057610702206369,0.1460853234997741
4.940000000000005,0.165293130059286,-0.0866585833680878,0.1641028739766789
4.950000000000003,0.1652838466614117,-0.0655906192581695,0.1772497092452898
4.960000000000001,0.1493293632713178,-0.0530382117945223,0.1959975292995712
4.970000000000006,0.107616945510886,-0.0527785782934227,0.2187013227814367
4.980000000000004,0.0666524819276356,-0.0609780607735078,0.240480760273172
4.990000000000002,0.0588369564302943,-0.061632866633662,0.2574106293762567
5.0,0.0698310494143412,-0.0540819415362406,0.2671379135490869
5.010000000000005,0.1005202870082837,-0.0408305281633147,0.2758967510713839
5.020000000000003,0.147901489362428,-0.0246879854656008,0.2882016251467038
5.030000000000001,0.1978758057759775,-0.0064696555559496,0.3002415374880243
5.040000000000006,0.2482015647748532,0.0129773919065497,0.3171116314322029
5.050000000000004,0.2937184478743229,0.0327188815043964,0.3352606836398857
5.060000000000002,0.3450186320924031,0.0575868992177537,0.3620472540519619
5.07,0.3931144253562377,0.0834364978982451,0.3816989872931595
5.080000000000005,0.4233719800513539,0.1046739712815079,0.3958010795548871
5.090000000000003,0.45669395192478,0.119529003260313,0.4043181383169637
5.100000000000001,0.4855462620659231,0.1277559457841062,0.4126232437370942
5.110000000000007,0.488225855747971,0.132136118648952,0.4157226239727427
5.1200000000000045,0.4685143853314089,0.1377951728371551,0.4278531933604361
5.130000000000003,0.4280878344542188,0.1369931131598054,0.4508925963555881
5.140000000000001,0.3667715045737041,0.1278530327978305,0.4760387194887589
5.150000000000006,0.2965384547555068,0.1161998565611623,0.5000162859058532
5.160000000000004,0.232773067853504,0.0936129557823959,0.5190338778098021
5.170000000000002,0.1834478119698359,0.0662560893538056,0.5309179846595063
5.180000000000007,0.163017677103935,0.0420432764998317,0.5361454338795173
5.190000000000005,0.1561263234225179,0.021841353396399,0.5372872715889705
5.200000000000003,0.1646528584718229,0.0031054292753093,0.5339910471700154
5.210000000000001,0.1775247271209414,-0.022248278792887,0.5219335485837726
5.220000000000006,0.1812859904956756,-0.0500686813302017,0.5129712087753715
5.230000000000004,0.1862403889654746,-0.0840214167919709,0.5007981946253369
5.240000000000002,0.1792394390124904,-0.1187448965514671,0.4994577043468669
5.25,0.1672468572908528,-0.1468444934728734,0.4897669134992317
5.260000000000005,0.1494105508203566,-0.174089129709114,0.4867441674594724
5.270000000000003,0.1324020348602917,-0.1982711285814381,0.4838028996066591
5.280000000000001,0.1065346461561371,-0.2246228292505976,0.4813395732205849
5.290000000000006,0.0672373201560507,-0.2402351148635868,0.4853376072862241
5.300000000000004,0.0138385313283287,-0.2529680752777574,0.4926274655709343
5.310000000000002,-0.0483676412430244,-0.26345376645275,0.508259272334228
5.32,-0.1151863949369941,-0.2751336088988603,0.5273537407356707
5.330000000000005,-0.1793876235364951,-0.2844405994063296,0.5455219488977818
5.340000000000003,-0.2254120217648175,-0.2877342175031012,0.5600748426993307
5.350000000000001,-0.2623638088108899,-0.2920098335978238,0.5707669508361457
5.360000000000007,-0.2900638625130737,-0.2932576261120784,0.577033791933349
5.3700000000000045,-0.2987176507820883,-0.2866756234491192,0.5765274999873078
5.380000000000003,-0.3071886443695583,-0.2784592412266503,0.5785790817757609
5.390000000000001,-0.3098787635638153,-0.2675441214803684,0.5763085251592812
5.400000000000006,-0.2994387492929891,-0.2434085221834296,0.573269893502271
5.410000000000004,-0.2785672934245348,-0.2159534486115004,0.5682999257083189
5.420000000000002,-0.2484170056413997,-0.187660713992614,0.5669181104557733
5.430000000000007,-0.2222397466388927,-0.1554302778557117,0.5691239466962144
5.440000000000005,-0.2032757801481049,-0.1309345632949866,0.5703956829596032
5.450000000000003,-0.1985296136891763,-0.1061424186568908,0.5791562549509346
5.460000000000001,-0.2037468138684714,-0.076645238852061,0.5863653354566053
5.470000000000006,-0.2110489356522944,-0.043434487376912,0.5980336831764117
5.480000000000004,-0.2103921445116631,-0.0053965941140755,0.6106032988291923
5.490000000000002,-0.2002186653933589,0.0299323663916111,0.6174032461734108
5.5,-0.1817058772253271,0.0673663974333709,0.6178116344617767
5.510000000000005,-0.1781488865030994,0.1039678666581688,0.6127197536401855
5.520000000000003,-0.1837486098476702,0.1298754595271307,0.613207638053689
5.530000000000001,-0.2106046945404935,0.1489024610235937,0.6209346636574555
5.540000000000006,-0.2422344832874958,0.1687421642488507,0.6262891972271984
5.550000000000004,-0.2648710621858997,0.1890388987314915,0.6313584525320354
5.560000000000002,-0.2715680274746779,0.2151749650136717,0.6324917945213061
5.57,-0.2572003937105148,0.2433872997593145,0.6277525617819834
5.580000000000005,-0.2296950765138851,0.2718425161506159,0.6254861608204537
5.590000000000003,-0.2059006661543717,0.2933929208166245,0.6225738263616877
5.6000000000000085,-0.1876407854345664,0.3089757562871907,0.6249662334477493
5.609999999999999,-0.1706176705332053,0.3118903911137581,0.6259532901595816
5.6200000000000045,-0.1601127257864902,0.3129991001231277,0.6268907269822659
5.63000000000001,-0.156124111283836,0.3065730215505965,0.6288118869566576
5.640000000000001,-0.1572863743772429,0.3003265971016984,0.6260126684400235
5.650000000000006,-0.1486312769335585,0.2935890086101931,0.6282125763714317
5.659999999999997,-0.1353619644493069,0.2882042404696849,0.6234414448027201
5.670000000000002,-0.1142864692572099,0.2837258673367632,0.6148953365195318
5.680000000000007,-0.0813925380785086,0.2733554543703866,0.606811330031619
5.689999999999998,-0.0507859470207186,0.2644283183084527,0.5993067197329105
5.700000000000003,-0.021526559141003,0.2520019910962671,0.5998668595512551
5.710000000000008,0.0039407710529036,0.2354811897002053,0.6032341497576463
5.719999999999999,0.0251351946444988,0.2252375198764281,0.6168035111726957
5.730000000000004,0.0536636236520862,0.2107914079401967,0.6325873101967282
5.740000000000009,0.0807571555819394,0.201024480384074,0.647837570685761
5.75,0.0958175811702268,0.1900266690322583,0.6649545397093188
5.760000000000005,0.0931643132519139,0.1639154003223684,0.6755805786829783
5.77000000000001,0.0747481379994555,0.1323850458560119,0.676935569284183
5.780000000000001,0.0519969951759154,0.1022245718521974,0.6723078197876245
5.790000000000006,0.0370343234694282,0.0808532389361306,0.6647473307278489
5.799999999999997,0.0364091944471534,0.07373776920303,0.6479638492836253
5.810000000000002,0.0329205454496158,0.0646247326478267,0.6359926676288551
5.820000000000007,0.0202450589280043,0.0509539671696834,0.630223435188277
5.829999999999998,-0.0160599689744079,0.0284318988100989,0.6197735921460277
5.840000000000003,-0.0626497757816632,0.0048540696878761,0.6198344595852968
5.8500000000000085,-0.1029909858663303,-0.019088519928604,0.6166754349491095
5.859999999999999,-0.1241480834846793,-0.0295173236400007,0.6163890952555316
5.8700000000000045,-0.1301832426870929,-0.0205839906948152,0.610951262784284
5.88000000000001,-0.1256952020745341,-0.0045413932779731,0.5969263792378214
5.890000000000001,-0.1393064086309543,0.0090165044761074,0.5865229450452503
5.900000000000006,-0.1616178313283115,0.0151228696391115,0.5721716220882612
5.909999999999997,-0.1736773676339598,0.0113940117292598,0.5555377313894411
5.920000000000002,-0.1814410104573607,0.0006816478495251,0.5331069348059438
5.930000000000007,-0.1770835465269007,-0.0064886834791328,0.5082817895016077
5.939999999999998,-0.1773054695647908,-0.010919767986967,0.4917824648400788
5.950000000000003,-0.1842716254575717,-0.0205291143280953,0.4785272648081665
5.960000000000008,-0.1914633527928095,-0.0289553129855896,0.470743276964559
5.969999999999999,-0.2159556075707363,-0.0427588125120044,0.4689332371786081
5.980000000000004,-0.2511598110843891,-0.0601814729247845,0.4688329615195074
5.990000000000009,-0.2850102149479739,-0.0803972089851872,0.4793558227617108
6.0,-0.3110561400929734,-0.0973719847594414,0.4830435992688219
6.010000000000005,-0.3176995674552906,-0.1133788116511706,0.4822930087110084
6.02000000000001,-0.304639864807158,-0.1273770056997034,0.4730251036173331
6.030000000000001,-0.2851751498156654,-0.1317672948313842,0.4636525223146875
6.040000000000006,-0.2695209597737655,-0.1284416343419276,0.4547292422752719
6.049999999999997,-0.2535299586147871,-0.1212193413999723,0.4478354909644304
6.060000000000002,-0.2447989196552616,-0.1163778079850114,0.445864913726853
6.070000000000007,-0.2413073876524033,-0.1219365298767773,0.4348651843669625
6.079999999999998,-0.242045097905117,-0.1344903782048717,0.424750220537295
6.090000000000003,-0.2369770597730414,-0.1488430500646424,0.4021844904539745
6.1000000000000085,-0.2226288542097863,-0.1591605043143774,0.3794169062038208
6.109999999999999,-0.2058604510163564,-0.1628054218185766,0.349206807971915
6.1200000000000045,-0.1839359033335536,-0.1606867052933732,0.3213822008525593
6.13000000000001,-0.1715913952379034,-0.153082146917942,0.3028091930418211
6.140000000000001,-0.1697194517379754,-0.1432806622481805,0.2803584490975445
6.150000000000006,-0.1523332161529127,-0.1335678740265998,0.2704611760931407
6.159999999999997,-0.1189471798398138,-0.120838219023526,0.26243606471519
6.170000000000002,-0.0854272032614708,-0.1049908840266533,0.2504243711862053
6.180000000000007,-0.0522879831717111,-0.0889291494725564,0.2358140613559648
6.189999999999998,-0.014091089620027,-0.0787663724126538,0.2153215167271005
6.200000000000003,0.020831502268516,-0.0801537295871188,0.1882337763706983
6.210000000000008,0.0277633398835901,-0.092927344515953,0.1639485982670784
6.219999999999999,0.0289740003827968,-0.1064694242039177,0.1480202673233631
6.230000000000004,0.0151835968722336,-0.1160505751105483,0.1306490676596242
6.240000000000009,-0.0070434896892237,-0.1225483006330131,0.115598893991186
6.25,-0.0090103515967644,-0.1274652399330674,0.1087875213814216
6.260000000000005,-0.0074460482699268,-0.1281286932635046,0.0935345232874601
6.27000000000001,-0.009081489843412,-0.1289346667034346,0.0822661854323
6.280000000000001,-0.0240881118688766,-0.1258041921988383,0.074475298014082
6.290000000000006,-0.0436454051597288,-0.1291611937065407,0.0671857006276644
6.299999999999997,-0.0576341242359467,-0.1360205207882327,0.0699919292728335
6.310000000000002,-0.0650873903659007,-0.1463030028487331,0.071634570062722
6.320000000000007,-0.0711119351663133,-0.1531830396669053,0.0736163593180411
6.329999999999998,-0.0794004402591248,-0.1525407216880778,0.073172849890373
6.340000000000003,-0.0774934277175045,-0.1447378569993383,0.0745431536740079
6.3500000000000085,-0.0739772697862269,-0.1440762509055576,0.0810599133529264
6.359999999999999,-0.0647418653027502,-0.1379562689300528,0.0830777959112504
6.3700000000000045,-0.0515270341406774,-0.1228194780388135,0.0999941870844075
6.38000000000001,-0.047143454685945,-0.1105749230812309,0.1210969551060694
6.390000000000001,-0.0381241723928579,-0.0928671180709113,0.1448961122192163
6.400000000000006,-0.0293658007352375,-0.0757617770097171,0.1782989556177652
6.409999999999997,-0.0201694426255497,-0.0531672122157202,0.2100498008593181
6.420000000000002,-0.017942236295929,-0.0374041375106492,0.240760574872803
6.430000000000007,-0.0132636100379915,-0.0258053000271403,0.269914011451592
6.439999999999998,0.0084177445076077,-0.0148256981469501,0.2878692981922512
6.450000000000003,0.0534787255364664,0.0048517459169026,0.2964616683356402
6.460000000000008,0.1124224984596221,0.0378598745802094,0.3040722988387502
6.469999999999999,0.1660300641829665,0.0778186734672144,0.3193340929885103
6.480000000000004,0.2134422600909172,0.1212019248934683,0.3424142058776921
6.490000000000009,0.2363358093403267,0.1583603176666115,0.3762638407261214
6.5,0.2417188120932635,0.1786793677139165,0.4047008100925219
6.510000000000005,0.2460766324785447,0.1821113154897824,0.4366199787614268
6.52000000000001,0.2496401384547189,0.1757706745640958,0.4537902728495801
6.530000000000001,0.2552967427569725,0.1594091497342661,0.4553001213317169
6.540000000000006,0.2506062345061668,0.1469432917204615,0.4559391122945208
6.549999999999997,0.2359736115923,0.1496792331900804,0.4526198262477852
6.560000000000002,0.2095531607689433,0.1575839492656944,0.4490583607574946
6.570000000000007,0.1763761129238606,0.1741863792349524,0.4566215496368809
6.579999999999998,0.14454764538143,0.1949145020407926,0.4592066693178121
6.590000000000003,0.1171117906109955,0.22262937951195,0.4588740798610162
6.6000000000000085,0.0982737066953329,0.2425143460335756,0.4619070405651892
6.609999999999999,0.0874736439998483,0.2563430228426699,0.45782873413901
6.6200000000000045,0.0928722817292484,0.258696857150599,0.4537407486424813
6.63000000000001,0.1033519241338115,0.2589469162300374,0.4433982537477074
6.640000000000001,0.1285054558781165,0.2656727962519072,0.4358828941763191
6.650000000000006,0.1523970335002297,0.2753731252650003,0.4254240836068828
6.659999999999997,0.1721087902208307,0.3032894040525791,0.4114594367168172
6.670000000000002,0.1803384111990591,0.3356709430024311,0.3965854357149967
6.680000000000007,0.1780641935324226,0.3680698160900076,0.3856882322503737
6.689999999999998,0.1705488439209031,0.397176445318303,0.3792447644702666
6.700000000000003,0.155466031965601,0.4171146647152582,0.364880771998379
6.710000000000008,0.1345543873346095,0.426504806785082,0.3430279691494735
6.719999999999999,0.1161561995870532,0.4231629483632308,0.318310371941726
6.730000000000004,0.0893179805675639,0.4190059379595298,0.2960807361315961
6.740000000000009,0.0444948879796145,0.4153356055816557,0.2712347053309158
6.75,-0.0045068565692137,0.4089680107962415,0.2527833821454776
6.760000000000005,-0.0527410792262889,0.4014383066025216,0.2351799236134997
6.77000000000001,-0.0931077670894028,0.3938873588723191,0.2205905542029997
6.780000000000001,-0.1233464576407661,0.3840549895876856,0.2049761386752429
6.790000000000006,-0.1389967189705233,0.3713540834979512,0.1894989279501968
6.799999999999997,-0.1233634933300077,0.3408731241603303,0.1721097256182797
6.810000000000002,-0.0808796180981676,0.3051149341688359,0.1501557469409489
6.820000000000007,-0.0466639574603544,0.280919233833855,0.1215518635892238
6.829999999999998,-0.0268021836428626,0.2703513480908059,0.0914574628908227
6.840000000000003,-0.0110162792924051,0.2704213299973518,0.0775546260837108
6.8500000000000085,0.0032114081692901,0.2741860046732631,0.0707758569752059
6.859999999999999,0.0075752204185385,0.2577092702466198,0.0699756046068818
6.8700000000000045,-0.0009858373792561,0.2296470988115621,0.070883207736929
6.88000000000001,-0.0213287298281013,0.192335700133764,0.0582025442241382
6.890000000000001,-0.01542815517927,0.1447517678384455,0.0344465816882849
6.900000000000006,-0.0341585434397987,0.0833417263130886,0.0225243450349596
6.909999999999997,-0.0707862481504207,0.0153854559640665,0.0221660370495317
6.920000000000002,-0.086661919797567,-0.0466266415328762,0.009763145999393
6.930000000000007,-0.1178990087237901,-0.0817236417245927,-0.0449714090463948
6.939999999999998,-0.1632413283447444,-0.1114822589196225,-0.100285089376225
6.950000000000003,-0.1790943767824523,-0.1388875744362057,-0.1409059946881732
6.960000000000008,-0.164683619861293,-0.1530379813840695,-0.1770318544206485
6.969999999999999,-0.1453676906854029,-0.1606559102729944,-0.2050576890657395
6.980000000000004,-0.1230585648898289,-0.1543398989809298,-0.2311326019504948
6.990000000000009,-0.1055049487594845,-0.1540081275426982,-0.2503604857623667
7.0,-0.0565542563021449,-0.1370746449706681,-0.2610579230826918
7.010000000000005,0.0017863074781851,-0.0996525137176629,-0.2773497843656679
7.02000000000001,0.0724504549121832,-0.058247481962049,-0.2958246056095214
7.030000000000001,0.137889244951527,-0.010674670707666,-0.3183578290051109
7.040000000000006,0.192939110538213,0.0337296738291263,-0.3646998327894336
7.049999999999997,0.2266795712304155,0.0682826364353131,-0.4014631028131074
7.060000000000002,0.229461078932651,0.0881919032678905,-0.4297461901309534
7.070000000000007,0.2144898223871285,0.0998451622613318,-0.4557652384225117
7.079999999999998,0.2155006977740851,0.1057923941029276,-0.4883370530195597
7.090000000000003,0.2361267459901939,0.1180637854499459,-0.5367471741542658
7.1000000000000085,0.2601450632345536,0.1320541570259844,-0.594899582882866
7.109999999999999,0.2936167273615921,0.1426529644865294,-0.6628338723030831
7.1200000000000045,0.3257838927277509,0.1433180510751386,-0.7304114877084842
7.13000000000001,0.3608845284738621,0.1299659863111355,-0.8015494029121423
7.140000000000001,0.3589239541145724,0.0951593692934388,-0.8695351976743338
7.150000000000006,0.3126160977274958,0.0459538289383804,-0.9231443182445732
7.159999999999997,0.2774476770865737,0.0008881343734573,-0.9540356446369744
7.170000000000002,0.2773647157660053,-0.0282574020927922,-0.9877374700539098
7.180000000000007,0.2819100183182902,-0.0448014938421319,-1.0263078482773669
7.189999999999998,0.2942329615547792,-0.0508436005105435,-1.064996916757842
7.200000000000003,0.3179197387916328,-0.0558325166885723,-1.0899610300779186
7.210000000000008,0.3386979464929191,-0.061526076344702,-1.1172613601757533
7.219999999999999,0.3467003580857227,-0.0789458857201221,-1.1513862446496868
7.230000000000004,0.3204025392932301,-0.1036148997572937,-1.189138890506722
7.240000000000009,0.3054728196815179,-0.1285967281269347,-1.2208381325819786
7.25,0.3044408669594145,-0.1560861019535481,-1.2602266212778443
7.260000000000005,0.3067006508761025,-0.1833886619265346,-1.2964250276902929
7.27000000000001,0.2970895377201258,-0.2136703010488466,-1.3369069371494564
7.280000000000001,0.2564633531599595,-0.2549978631996306,-1.3773705738688742
7.290000000000006,0.1995734952792448,-0.2869790960845408,-1.411413283730153
7.299999999999997,0.1550652163352627,-0.3053697942405495,-1.43786124623177
7.310000000000002,0.1349943167801137,-0.3158056806808065,-1.453787902154123
7.320000000000007,0.1305048209617502,-0.3036192611720727,-1.4612249609202277
7.329999999999998,0.1258264496571889,-0.293440495626411,-1.4644060978177649
7.340000000000003,0.1324051724526853,-0.2867643252819929,-1.4633779376535736
7.350000000000008,0.1502326729808671,-0.2838705912112534,-1.4576257241487784
7.359999999999999,0.1678721472144634,-0.2839085531782259,-1.4570923162142355
7.370000000000003,0.1915806586657868,-0.3030098065275823,-1.4537134082089982
7.38000000000001,0.2021089829943875,-0.3452832926408595,-1.459065899885322
7.390000000000001,0.1787690460127096,-0.394726327317854,-1.463208645161269
7.400000000000006,0.1287222564083815,-0.4446300266368355,-1.4645038788499
7.409999999999997,0.09061892858458,-0.4868983160170236,-1.4698358892282728
7.420000000000002,0.0646569340697312,-0.4991600751293814,-1.473993688338477
7.430000000000007,0.0324212984600315,-0.493901273649551,-1.4721430444419288
7.439999999999998,-0.0194039512071374,-0.4854794650027451,-1.4615044719231374
7.450000000000003,-0.1044436535717453,-0.4740993552891688,-1.4341323930445953
7.460000000000008,-0.1820643901904463,-0.4511441185160815,-1.409222421716675
7.469999999999999,-0.2289196398317699,-0.407786905081687,-1.3815628859321798
7.480000000000004,-0.2333362847307545,-0.3645775159157771,-1.3548030399340725
7.490000000000009,-0.209394815863016,-0.3229389206594134,-1.3281260156191534
7.5,-0.1582318024102097,-0.2848648615443397,-1.306129901679466
7.510000000000005,-0.0931422973251401,-0.2441119468117999,-1.2930165621259366
7.52000000000001,-0.0332337253172821,-0.2013817875446216,-1.2636833950005104
7.530000000000001,0.0098254965251712,-0.1609636993976323,-1.239876405622476
7.540000000000006,0.0361464931732789,-0.1209434990231991,-1.2067068032116102
7.549999999999997,0.0558353982321561,-0.0900690232380291,-1.1883853590191775
7.560000000000002,0.0662577502334033,-0.0604195641640008,-1.1412054994771643
7.570000000000007,0.0243576034311013,-0.0520965066049581,-1.1252985918779672
7.579999999999998,0.0150979401525079,-0.0264140133432249,-1.0018993308005255
7.590000000000003,0.1026350409604591,0.027604141155264,-0.7734189387595599
7.600000000000008,0.098123563377184,0.025102577473415,-0.797772708869443
7.609999999999999,0.1056793986579766,0.0298653722271334,-0.7822754313568872
7.620000000000003,0.1026126918358365,0.0280500792446709,-0.7908375734952272
7.63000000000001,0.1073411326646096,0.0311922068047344,-0.7845327775806025
7.640000000000001,0.1082624403658195,0.0316212146304957,-0.7862195940233654
7.650000000000006,0.1322337361855682,0.0454150836558287,-0.7798759598141367
7.659999999999997,0.1437048007381842,0.0596008404044183,-0.7742752497756995
7.670000000000002,0.1263870293520166,0.060983458724611,-0.7667727156078399
7.680000000000007,0.1019450884501469,0.058698481062719,-0.7656571946422187
7.689999999999998,0.0702833508279636,0.0469505455186706,-0.7615233305744559
7.700000000000003,0.0155008353998878,0.0443164890833884,-0.7456581300206139
7.710000000000008,-0.0330188161736243,0.0262862708939986,-0.7380827802808309
7.719999999999999,-0.1094695536051129,0.0218245716161055,-0.7105221986915026
7.730000000000004,-0.002601443909736,-0.1186943880061359,-0.794749070064555
7.740000000000009,0.0385302721931745,-0.1577323668260797,-0.8256821414338237
7.75,0.0252231511075946,-0.1467165248302208,-0.8166302282644742
7.760000000000005,0.0330295013745028,-0.1539276637640914,-0.8228452385076042
7.77000000000001,0.0284473042449533,-0.1502615053039925,-0.8197376936574403
7.780000000000001,0.0315901986006426,-0.1530806218413422,-0.8221570274291609
7.790000000000006,0.0296489854813506,-0.1515683270927925,-0.8208311767897883
7.799999999999997,0.0309715764227415,-0.1526005191141587,-0.8217348184296014
7.810000000000002,0.0302130858174223,-0.1523146988931961,-0.82143323699256
7.820000000000007,0.0309442972231215,-0.1526386577050449,-0.8218610957396332
7.829999999999998,0.0306125559706526,-0.1534381121260231,-0.8224427027976025
7.840000000000003,0.0315559920948141,-0.1534597243167539,-0.8230099746010016
7.850000000000008,0.0307834890471578,-0.1558431579907193,-0.824699037108008
7.859999999999999,0.0387756568370808,-0.1588138437637886,-0.8328114207889613
7.870000000000003,0.0493141154553539,-0.159869958176365,-0.8434996054493443
7.88000000000001,0.05196557123121,-0.1161522291351985,-0.8414579448402082
7.890000000000001,0.039422003726154,-0.0567010750587112,-0.8325257798198005
7.900000000000006,0.0262670660044455,-0.0015719791492687,-0.8261637896111542
7.909999999999997,0.002071298549873,0.0571480651112897,-0.8134106245313583
7.920000000000002,-0.0239097120120421,0.105512480015611,-0.7923967190655169
7.930000000000007,-0.0564597596262067,0.1546407591118399,-0.7613087074068945
7.939999999999998,0.0221255928587075,0.0238336741936727,-0.6727921260706484
7.950000000000003,0.0464053440908822,-0.008152923371268,-0.6582557061353753
7.960000000000008,0.0442613554387258,-0.0065898265977194,-0.6590858244595771
7.969999999999999,0.050761985881663,-0.0147758896628244,-0.6556210954700712
7.980000000000004,0.0501485967278168,-0.0144894587710234,-0.6556594682666539
7.990000000000009,0.0525643143980048,-0.0175598984326736,-0.6543330520056445
8.0,0.0520378889691642,-0.0169692492406942,-0.6545106754694879
8.010000000000005,0.0532070904169797,-0.0185440084441927,-0.6538064726738261
8.02000000000001,0.053362445595542,-0.0186701150800446,-0.653818514255389
8.030000000000001,0.0553479030731085,-0.0215717643140966,-0.6525850743898084
8.040000000000006,0.0570564754112607,-0.0235935580208909,-0.6520608915306211
8.049999999999997,0.0618461746087342,-0.0308664930802899,-0.6490714994528891
8.060000000000002,0.0661964203082077,-0.0356815762096761,-0.6479665165975791
8.070000000000007,0.1052739228677454,-0.0924423021555061,-0.6319004079013874
8.079999999999998,0.1403817244189235,-0.1658625921550469,-0.6128761360376929
8.090000000000003,0.1390567041043326,-0.2119253493465936,-0.6010923929583841
8.100000000000009,0.1031417050296307,-0.2419780504436052,-0.5918446817582304
8.11,0.0466667757959929,-0.2611838833684517,-0.5727437905348073
8.120000000000005,-0.0054604509189777,-0.2757376117347041,-0.5574185273820378
8.13000000000001,-0.0227492032551569,-0.3277102021276983,-0.5551638105796419
8.14,0.003053713522776,-0.409531731171724,-0.5496502593906076
8.150000000000006,0.0776818588651349,-0.3713294378473565,-0.5155515239485828
8.159999999999997,0.084911111711535,-0.3562349464337705,-0.5137773964090663
8.170000000000002,0.0851837321421201,-0.3556571510006717,-0.5139394161354026
8.180000000000007,0.0872130227028799,-0.3511215145610948,-0.5132109191740414
8.189999999999998,0.0872658639488254,-0.3490474988840332,-0.5141460507564939
8.200000000000003,0.1028314930868259,-0.3218756057531081,-0.5065742013923086
8.210000000000008,0.1424277952750003,-0.2609980513161307,-0.4973691227634184
8.219999999999999,0.1775494487519662,-0.2003238033882368,-0.483162137529024
8.230000000000004,0.2056827165823728,-0.1394894809653857,-0.4724404404627427
8.240000000000009,0.2178410315908098,-0.0844388260584325,-0.4580917267502363
8.25,0.2263212662555371,-0.0514219575199925,-0.4424196642886613
8.260000000000005,0.2171033236085597,-0.0220013567568454,-0.4244183785770745
8.27000000000001,0.218400970619207,-0.0075963711402625,-0.4202495835822887
8.280000000000001,0.1654823021424556,0.0475626615423055,-0.3841153622553999
8.290000000000006,0.1341141552300713,0.0801994881081926,-0.358855498009572
8.299999999999997,0.1403588997537284,0.0725856971061674,-0.3668355448513731
8.310000000000002,0.13548630721308,0.0772504336349044,-0.3644996904558489
8.320000000000007,0.1387745394261631,0.076466329233563,-0.3665236634144682
8.329999999999998,0.1466099039491956,0.0930702110313819,-0.3649988196962432
8.340000000000003,0.1521478304766458,0.1063044479804331,-0.3679109832263189
8.350000000000009,0.146430987457109,0.1219571776299665,-0.3687832584154151
8.36,0.1346534427985322,0.1398331696082288,-0.3821885312562222
8.370000000000005,0.1126445886356136,0.1574914017041618,-0.4024072973437756
8.38000000000001,0.0930818045017432,0.174978662588093,-0.4194446902745846
8.39,0.0704695428009483,0.1845744578099832,-0.426781050327392
8.400000000000006,0.0410281608077579,0.184635944849792,-0.4364999176411058
8.409999999999997,-0.0593585565833392,0.1840700718404314,-0.4355399532944765
8.420000000000002,-0.1959137159762569,0.1729267326730688,-0.4304935743903044
8.430000000000007,-0.3290852769512103,0.1535860290295217,-0.4124837507122074
8.439999999999998,-0.4537429357471803,0.1335742560744187,-0.3729352461920355
8.450000000000003,-0.5807460868977631,0.1105418963135499,-0.3307395437475235
8.460000000000008,-0.7169015255014005,0.090082790148747,-0.2749043911132142
8.469999999999999,-0.8188874613134092,0.0811404806036135,-0.2262371973689986
8.480000000000004,-0.8732009825645459,0.0784466966131667,-0.1835685911664936
8.490000000000009,-0.8672768994966912,0.0828055515132062,-0.1509120402263988
8.5,-0.7938272004545937,0.0918222928987297,-0.117426822630823
8.510000000000005,-0.6717216052328806,0.0998466394425876,-0.0875472307658531
8.52000000000001,-0.4942293841358529,0.1077656754835012,-0.0550050441261637
8.530000000000001,-0.2945638842848059,0.1171774423626473,-0.0323874362573188
8.540000000000006,-0.0873988305020612,0.1303579379661832,-0.0262543896619078
8.549999999999997,0.1196719147816711,0.1499747298635624,-0.0333854442453476
8.560000000000002,0.3182004392969267,0.1730793367686335,-0.0475026636873457
8.570000000000007,0.5057252651367928,0.1991698535591135,-0.0629170724499571
8.579999999999998,0.6604902476021232,0.2310966357794327,-0.0807611232732612
8.590000000000003,0.7697105951624746,0.2550409593565621,-0.1095125904181952
8.600000000000009,0.8371276300088228,0.278021458900644,-0.1421570437009467
8.61,0.8490678072915165,0.293483319272667,-0.1755616387684787
8.620000000000005,0.8242943121139147,0.2942371282008871,-0.2116419825941568
8.63000000000001,0.7719759910330526,0.28111188153939,-0.2391845524272264
8.64,0.7009627564231831,0.2517227754157585,-0.2601538656559447
8.650000000000006,0.611251936436022,0.2276381145057932,-0.2647737364780458
8.659999999999997,0.4946629596544382,0.1840033198132068,-0.265576231011417
8.670000000000002,0.3696618298592334,0.1303315582254255,-0.255718088232446
8.680000000000007,0.2228589566967672,0.0657305619696554,-0.226519143212032
8.689999999999998,0.0621768074041414,-0.0063020036147186,-0.1972857086950324
8.700000000000003,-0.1093911938064527,-0.0732560274764957,-0.1745818125788445
8.710000000000008,-0.2690489416017673,-0.1290661539632586,-0.1426885836623118
8.719999999999999,-0.3821637964607506,-0.1751284227007438,-0.107502000946436
8.730000000000004,-0.4597718934556714,-0.2110091187485915,-0.0631267973863399
8.740000000000009,-0.4910759730256452,-0.2330497209886009,-0.0002778776236744
8.75,-0.5200174887140339,-0.2483780995826931,0.0585984202805771
8.760000000000005,-0.5607114655785348,-0.2486202456375715,0.0961717257378187
8.77000000000001,-0.603985321280202,-0.221934055896231,0.1044543760202059
8.780000000000001,-0.6129051259947733,-0.1953258523363733,0.1084888168326755
8.790000000000006,-0.5739975794773882,-0.1660251235442208,0.1152069666276854
8.799999999999997,-0.4775810377837916,-0.1350949480654981,0.1167174021974647
8.810000000000002,-0.3367374601090335,-0.1081913748208903,0.115265725183586
8.820000000000007,-0.1866125562701532,-0.0883234522328909,0.1097771820623893
8.829999999999998,-0.0474223760746056,-0.0702364955038055,0.0917333711426572
8.840000000000003,0.0481519754197218,-0.0493537879500537,0.0574498194328323
8.850000000000009,0.1018252865629294,-0.029602294929464,0.0276496388442342
8.86,0.1297586788189309,-0.0045363660242847,-0.0080542924327504
8.870000000000005,0.1439400384151893,0.0247747815884122,-0.0373408275153035
8.88000000000001,0.1594637387465201,0.0550320706818204,-0.053383458006649
8.89,0.1749068051146936,0.0749859214152868,-0.0673598937310542
8.900000000000006,0.1824693183685422,0.083468262444365,-0.0758950640364467
8.909999999999997,0.1623392559221235,0.0826081959484786,-0.0796681213696114
8.920000000000002,0.1223692397640569,0.084639771054089,-0.0934374923390961
8.930000000000007,0.0644029876587397,0.0866661640350072,-0.0995323199062276
8.939999999999998,0.0017076409204388,0.0875654468805174,-0.0899677522877929
8.950000000000003,-0.0653847072963047,0.0944110778927083,-0.0804940260180568
8.960000000000008,-0.1357297263076381,0.1004388908601813,-0.0622796499021918
8.969999999999999,-0.1975469596901948,0.1116442402486588,-0.0404176511998088
8.980000000000004,-0.2442010472575481,0.1149125848284489,-0.0214644643581448
8.990000000000009,-0.2629281669582397,0.1071232144484711,0.0033060992824682
9.0,-0.2580648129960973,0.0813791745898819,0.0321739830654542
9.010000000000003,-0.2260041207508254,0.0513205811554411,0.0502474535547292
9.02000000000001,-0.1755365176869415,0.0249530267552728,0.0612713807502599
9.03,-0.1214615282295987,-0.000947509118198,0.0691717342299199
9.040000000000006,-0.0818861952795968,-0.0104589968039576,0.0716484585787526
9.049999999999995,-0.069198167082835,-0.0058466716271914,0.0630304008325883
9.060000000000002,-0.0764305107866331,0.0106273850093777,0.0513478982706512
9.070000000000007,-0.0885281193414951,0.0255100611456174,0.0376084215060231
9.079999999999998,-0.0966383283462299,0.0423545361365417,0.0220884566860709
9.090000000000003,-0.0873898164795899,0.0589885935497163,0.020786522935079
9.100000000000009,-0.0622044490729247,0.0664978703984322,0.0237280719264087
9.11,-0.0411561063979854,0.0645192596099454,0.0367408568763069
9.120000000000005,-0.0334689775482109,0.0619152072185718,0.0539463746018134
9.13000000000001,-0.0581843787656817,0.0643988274807265,0.0605659209402516
9.14,-0.10246650703052,0.0723829005643793,0.0616404281311128
9.150000000000006,-0.1535612624101549,0.0763618790992338,0.0589880210101496
9.159999999999997,-0.1701193620537105,0.0812834595778031,0.059383482294101
9.170000000000002,-0.1495620366032967,0.0726869819380544,0.0581112228825458
9.180000000000009,-0.1014399035792742,0.0567623644983622,0.0744463871072359
9.189999999999998,-0.0708871186362498,0.0483152049070737,0.0915636234527254
9.200000000000005,-0.0796800733336919,0.0471449057847702,0.0958850732007877
9.210000000000008,-0.1181074983753171,0.0536171389982528,0.0969079868023307
9.22,-0.1758645655959181,0.0626708719433667,0.0914922921392081
9.230000000000004,-0.2118200385546113,0.0663673614830786,0.087075041026938
9.240000000000007,-0.2160473276503044,0.0665282823018261,0.0771519071412939
9.25,-0.1771254617531406,0.0549091942942936,0.083950540222344
9.260000000000003,-0.1174712276066422,0.0329099088403191,0.0973400266716558
9.27000000000001,-0.0626010900723202,0.0095991151049241,0.1116223805913508
9.28,-0.0325744371241306,-0.009735091863949,0.119542948117325
9.290000000000006,-0.0297418957173375,-0.0156332376215038,0.1206702954509053
9.299999999999995,-0.0389954206734311,-0.0211500168071013,0.1246759688950015
9.310000000000002,-0.047979329764132,-0.0226347241479687,0.1352324967365526
9.320000000000007,-0.0423160194288456,-0.0267094367813322,0.1449411664485732
9.329999999999998,-0.0237377366277352,-0.0398976235094858,0.1506227352451701
9.340000000000003,0.001833891150287,-0.0722491186689844,0.1590671577874234
9.350000000000009,0.0242345313922892,-0.1168604754795318,0.1762209579593073
9.36,0.0163652012347796,-0.1539282994246887,0.1788352889223145
9.370000000000005,-0.022496639634514,-0.178830793190876,0.1758076685202248
9.38000000000001,-0.0766421567477605,-0.1889161682313964,0.1677179205564718
9.39,-0.1298616425940283,-0.1893150890279301,0.1628943130152717
9.400000000000006,-0.1641104469915797,-0.1888019698997979,0.1571205377949803
9.409999999999997,-0.1763944328447194,-0.193519437815183,0.1586516183437771
9.420000000000002,-0.1601960346976004,-0.2087642089178829,0.1647035369457215
9.430000000000009,-0.129255201810939,-0.2407511025228546,0.1756956863750584
9.439999999999998,-0.1018674405194155,-0.2686764027891965,0.1785064184757471
9.450000000000005,-0.0938078694060488,-0.2943108453792419,0.1758974136704874
9.460000000000008,-0.1025573863937294,-0.3158339987155691,0.1729373204975325
9.47,-0.1092048832532327,-0.329823186928467,0.1638063792844224
9.480000000000004,-0.1176228307381957,-0.337988257509605,0.165424638519996
9.490000000000007,-0.099030948395886,-0.3288921296163561,0.1701283951760274
9.5,-0.0587313582375117,-0.2937568913036489,0.1797227922352228
9.510000000000003,-0.0244662307791782,-0.2055793483401525,0.1822920331904242
9.52000000000001,0.0252808255999831,-0.1133895442953125,0.1893277514697105
9.53,0.0623840196243483,-0.0404084511124231,0.1958902313328409
9.540000000000006,0.0997112236069451,0.008180140058034,0.1913345853295195
9.549999999999995,0.1256459283696663,0.0318240979249274,0.1826779125865173
9.560000000000002,0.1458191280849757,0.0244577721494608,0.176814832330223
9.570000000000007,0.1475200291360657,0.0096464509724284,0.1791846890061623
9.579999999999998,0.1374870811370955,-0.0037554000630146,0.1830156375350352
9.590000000000003,0.1225810182145892,-0.0163083386217073,0.1876036440469184
9.600000000000009,0.0908370642094833,-0.0182323775934313,0.1885243096464371
9.61,0.0583522034814329,-0.0104007583466051,0.1993878833407447
9.620000000000005,0.0250879240047084,0.0102117405139801,0.2127949895668039
9.63000000000001,-0.0027522126159826,0.0367732396858467,0.2255258760131394
9.64,-0.0221399218342209,0.0575689461370362,0.2461381418562688
9.650000000000006,-0.0512557861148013,0.0659200200577888,0.2702143576981063
9.659999999999997,-0.0726822642058519,0.1141892446359256,0.2771819129060486
9.670000000000002,-0.1016980453282271,0.1809923154623743,0.2669113043299933
9.680000000000009,-0.1182398168316758,0.2425002943724934,0.2428880079966738
9.689999999999998,-0.1392533961391759,0.298532095405113,0.2056833550844652
9.700000000000005,-0.1657341131694148,0.3257153098591857,0.1661782436040976
9.710000000000008,-0.1845560962262016,0.3405603342060108,0.1279646385712745
9.72,-0.1874605553274545,0.350675308699807,0.0929788923951979
9.730000000000004,-0.1898450351784412,0.3583799159208286,0.0667723307345396
9.740000000000007,-0.1895996580683814,0.3630940457849483,0.0414075967950656
9.75,-0.1934476006999665,0.3513760008200873,0.0064993033665955
9.760000000000003,-0.2023628329836346,0.3168709288131505,-0.0301551936169362
9.77000000000001,-0.2096723928982042,0.2667313859372832,-0.0616475252282993
9.78,-0.2025144518904175,0.1968854257529841,-0.0894585291659627
9.790000000000006,-0.1843294391744467,0.1252201231343967,-0.115003424973925
9.799999999999995,-0.1584479659453591,0.0504290765812058,-0.1278200335390925
9.810000000000002,-0.1361690681563312,-0.0200902694586749,-0.1405697567360436
9.820000000000007,-0.1125381093394788,-0.0639480941597527,-0.1558010373563149
9.829999999999998,-0.0897650437540251,-0.0667986872951056,-0.1815198999953943
9.840000000000003,-0.0544628131110223,-0.0420923583043448,-0.1986297716206867
9.850000000000009,-0.0129094119791244,-0.0258880169590568,-0.2034954684570555
9.86,0.0380377058373317,-0.0303920555067245,-0.2002925435142603
9.870000000000005,0.0950443457534006,-0.0493937574275927,-0.1904417298782621
9.88000000000001,0.1528180987536553,-0.0608964696615391,-0.1779999769388942
9.89,0.2066583377476686,-0.0807073010594288,-0.1621894452964444
9.900000000000006,0.2416482437152458,-0.1025510834260978,-0.148289362679768
9.909999999999997,0.2560176588968549,-0.111589020319317,-0.14460249868561
9.920000000000002,0.245979172852906,-0.0888102757011687,-0.1528411376974799
9.930000000000009,0.2292440074070643,-0.0522393801530595,-0.1679908834322225
9.939999999999998,0.2021633511604622,-0.0246236562160557,-0.1786539272989532
9.950000000000005,0.177649235381427,-0.0248547498630019,-0.1795699046228229
9.960000000000008,0.1711076573385358,-0.0395554333263289,-0.165394723392252
9.97,0.1702253194912454,-0.0649673329707906,-0.1409048275679806
9.980000000000004,0.1552611622974953,-0.097530669940565,-0.1102777057331408
9.990000000000007,0.1301952933745197,-0.1253368302911655,-0.0813343072922416
10.0,0.0930231593048323,-0.1412373076982326,-0.0556770586456627
10.010000000000003,0.0543577317650766,-0.1489986833772796,-0.0266978690052276
10.02000000000001,0.0193187236085819,-0.1509119597243852,0.0057365207711185
10.03,0.0020421031666326,-0.1439774906632426,0.0279169620406439
10.040000000000006,0.0078469569891761,-0.1337514695909921,0.0434093547009809
10.049999999999995,0.0285408672184781,-0.132330593627319,0.0517030904510166
10.060000000000002,0.0533137841172889,-0.1350435712796485,0.0629171792245978
10.070000000000007,0.0664570931152251,-0.13067355839223,0.0648804949690306
10.079999999999998,0.0740311571763135,-0.1141312711730949,0.0555462649953803
10.090000000000003,0.069473280116713,-0.0801933372547002,0.0404098741089888
10.100000000000009,0.065054643146158,-0.0384075315474753,0.0238587356858689
10.11,0.0609165110108271,0.0050997369882355,0.0127030426728181
10.120000000000005,0.0637560281893149,0.0477882175720835,0.0072086391762585
10.13000000000001,0.0782174258864454,0.0743510656409131,0.0054136504236764
10.14,0.0890745222621619,0.0876652005434299,0.0133036843186163
10.150000000000006,0.094885427639397,0.0809303265009953,0.0229717864548666
10.159999999999997,0.0865073265445233,0.0710508890021154,0.0341429305124808
10.170000000000002,0.067303013533289,0.0686105094695307,0.026201009605257
10.180000000000009,0.0458480805093094,0.0650872546274054,0.015551211499466
10.189999999999998,0.0185185788122833,0.0809010700097838,0.0090307910956741
10.200000000000005,-0.0079452693316588,0.095692232476831,0.0070628313652489
10.210000000000008,-0.0300835065968635,0.1122053239772565,-0.0062338182827467
10.22,-0.0365615769146179,0.1259860324817121,-0.0160932979698459
10.230000000000004,-0.0262718467732229,0.1254551038117487,-0.0278043233027102
10.240000000000007,-0.0073727158588721,0.1148048923943037,-0.04032378279313
10.25,0.0143037883524715,0.1052641922229661,-0.053000491910364
10.260000000000003,0.0341929738759317,0.0951400259180915,-0.0605068539860539
10.27000000000001,0.0420445519248291,0.0845893638804577,-0.0667494452468222
10.28,0.0463290595116566,0.0691042091701661,-0.0652395570420704
10.290000000000006,0.037259170461291,0.0496715805596533,-0.0649295683248791
10.299999999999995,0.0239729974272056,0.0378408450591377,-0.0622004348399039
10.310000000000002,0.0093246453125018,0.029315022084909,-0.0713209799733827
10.320000000000007,-0.0041605088785402,0.0277167021231277,-0.082820963492808
10.329999999999998,-0.0084869072653331,0.015003078278974,-0.0832245964147146
10.340000000000003,-0.0109376159926869,0.0019636875491731,-0.0850427513258247
10.350000000000009,-0.0113567429561296,-0.0146250695691384,-0.0838736721212693
10.36,-0.0080300554995618,-0.0298588978421273,-0.0766576488045467
10.370000000000005,-0.0182899537119475,-0.0533332732491433,-0.0648120481561786
10.38000000000001,-0.0383966408127436,-0.0842967949989261,-0.0467431290283255
10.39,-0.0659038057713104,-0.1114491949804174,-0.0316529999194815
10.400000000000006,-0.1144356930552683,-0.1192687715297168,-0.0160396050119813
10.409999999999997,-0.1710309642869594,-0.0984205612490943,0.0053915677215601
10.420000000000002,-0.223221050779915,-0.0685432487718909,0.0214537617336439
10.430000000000009,-0.2454049500430004,-0.0616465245177822,0.0373876689677944
10.439999999999998,-0.2420689131311701,-0.0511371954160676,0.0352596984398811
10.450000000000005,-0.232498338317413,-0.0393171823786667,0.030569523055229
10.460000000000008,-0.2180085978336284,0.0150656326375292,0.0238295029781545
10.47,-0.1976767212304538,0.0791710140917014,0.0192205898241664
10.480000000000004,-0.1775414000089318,0.0876448486959251,0.0282439541325952
10.490000000000007,-0.1328146243739847,0.0666804077635176,0.0366414141438882
10.5,-0.0978307090921874,0.0128640768785312,0.0460489686619564
10.510000000000003,-0.0677023447373707,-0.0437923089697713,0.0472246015722639
10.52000000000001,-0.041463346081854,-0.1026771854411393,0.0561683820653194
10.53,-0.0248808236989692,-0.1594258712004175,0.0631420842744302
10.540000000000006,-0.0123057293817036,-0.1956774020592923,0.0650341177635431
10.549999999999995,-0.0046018647932377,-0.2006989427922366,0.0541178791234024
10.560000000000002,-0.0006406983440891,-0.1880107413449651,0.0518857060934624
10.570000000000007,0.000170168824369,-0.1608757542406081,0.0611424031942178
10.579999999999998,0.0015420972559465,-0.1316868519836259,0.0778403862099579
10.590000000000003,-0.0016526671525606,-0.1035985527426024,0.0933487968457275
10.600000000000009,0.0057854020067339,-0.0724557629761603,0.1053142819103496
10.61,0.019085622241412,-0.0454682254065943,0.1068061892888994
10.620000000000005,0.0362897284287225,-0.0469495954217253,0.1068117812577481
10.63000000000001,0.0542476694607279,-0.0532009462048962,0.1085078208931002
10.64,0.0714902261684218,-0.059396657935957,0.1075771012370635
10.650000000000006,0.0802647628584264,-0.0667689150954431,0.0947239821349505
10.659999999999997,0.096528951133534,-0.0650610428513002,0.0737484054631065
10.670000000000002,0.0979602837638885,-0.0698747401983999,0.0606058754452431
10.680000000000009,0.0927820450615425,-0.0703190433564645,0.0621400921304941
10.689999999999998,0.0816219008104463,-0.0686090657078567,0.0638619213232164
10.700000000000005,0.06608138699547,-0.0646250020892406,0.0619099575513171
10.710000000000008,0.0622177897577631,-0.0632512082565422,0.0585870474733569
10.72,0.050659128665309,-0.069509011885212,0.0576643342057624
10.730000000000004,0.0486341618549986,-0.0783261067568236,0.0522623777269781
10.740000000000007,0.0632237447155923,-0.0959932694503006,0.0482916079443825
10.75,0.0821995785546535,-0.1124786234544013,0.0535901983985121
10.760000000000003,0.1078452395542585,-0.1254995525893079,0.065717744888652
10.77000000000001,0.1404657035897987,-0.1245855126393995,0.0828196122820359
10.78,0.1753728174992902,-0.1131190247740615,0.0925934216614546
10.790000000000006,0.2130501233527932,-0.0931257183387896,0.0994922635333317
10.799999999999995,0.2488039800739359,-0.0682564578590535,0.1111381532616108
10.810000000000002,0.2793406731971259,-0.0417494470089887,0.1105514941277002
10.820000000000007,0.297854706138127,-0.0236247277100518,0.1264415964446538
10.829999999999998,0.3111364221131643,-0.0229497695809496,0.1432886108618894
10.840000000000003,0.313971503530812,-0.033486022202727,0.1619969150121319
10.850000000000009,0.2977317755919677,-0.0350956110077592,0.1955519882318788
10.86,0.2724220632918313,-0.029353775833712,0.2243466437140797
10.870000000000005,0.2482477889966026,-0.0283605065597221,0.2396548565098916
10.88000000000001,0.2218774468679522,-0.0167135534516548,0.2486051314437911
10.89,0.1923672758925186,0.0002267386940641,0.2495060549450126
10.900000000000006,0.1646414455068774,0.0243000927521888,0.2443292125996014
10.909999999999997,0.1345319197227443,0.0517159462925087,0.2403649016451232
10.920000000000002,0.1052717523262686,0.0823897519294332,0.2288208555018656
10.930000000000009,0.0732789582964868,0.1011458016308605,0.2317971830950521
10.939999999999998,0.0428234863928076,0.1015175414939612,0.2408857437991002
10.950000000000005,0.0142901936721682,0.0761885884934334,0.2447114571822609
10.960000000000008,-0.0006473790198874,0.040485777899785,0.2490532990731126
10.97,-0.0264562008797854,0.0045289127414142,0.2495398116262119
10.980000000000004,-0.058233992708943,-0.0176110722922017,0.2355353798094198
10.990000000000007,-0.0956966400089761,-0.0208045454396685,0.2150617218762226
11.0,-0.1314842630048967,-0.0174753355423529,0.1958723487322917
11.010000000000003,-0.1567693592414304,-0.0130333524628772,0.1894536121692584
11.02000000000001,-0.1619671653036326,-0.0140923571941007,0.1945587592985979
11.03,-0.1531282719587141,-0.0118606851346575,0.1954156807669157
11.040000000000006,-0.1300636717032297,-0.0255614238417953,0.1945791230105269
11.049999999999995,-0.0996087429150514,-0.0512235872417158,0.1867785913375892
11.060000000000002,-0.0671536188146216,-0.0834677403598415,0.174419194905968
11.070000000000007,-0.033762656549937,-0.1187121164019836,0.163495089883382
11.079999999999998,-0.013777989596558,-0.1327398351211209,0.1428799479765522
11.090000000000003,0.0050471571260852,-0.13162435920998,0.1090629444918848
11.100000000000009,0.0382866135965135,-0.1265688463936634,0.077189832845367
11.11,0.0697811234148592,-0.1193849117196236,0.0601071627876404
11.120000000000005,0.106217385193078,-0.1110054583579045,0.0434755582752095
11.13000000000001,0.1448220676308279,-0.1187794400315337,0.0426636950954167
11.14,0.175189751525762,-0.1419073603911445,0.0600970540795008
11.150000000000006,0.1920912125796325,-0.1557251488257301,0.077170267191794
11.159999999999997,0.1978184900725253,-0.163518576432193,0.0746722646212692
11.170000000000002,0.1942287093373149,-0.17280801620731,0.0703233293690868
11.180000000000009,0.1898822520602388,-0.1892846779389297,0.0610742173652746
11.189999999999998,0.1836622722528122,-0.20742137292756,0.0540150002241902
11.200000000000005,0.1952720547227598,-0.2303919949666447,0.0657179788276191
11.210000000000008,0.2007267525651977,-0.2573380414523369,0.0809346106336036
11.22,0.1816128598167036,-0.2225594408300771,0.0958841955907119
11.230000000000004,0.1464006038097051,-0.1309488232943445,0.1239506841533847
11.240000000000007,0.1086648490479308,-0.0708456212782274,0.12182512352694
11.25,0.0772900072810949,-0.0477472344819934,0.0992738263694801
11.260000000000003,0.0486552896543979,-0.0480023998494051,0.0843086198750439
11.27000000000001,0.0370380052276678,-0.0599214427755263,0.0764913280223641
11.28,0.0330144383959516,-0.0607552416583477,0.0768179381623245
11.290000000000006,0.0305295940219724,-0.052175782583968,0.0872000810351345
11.299999999999995,0.0259479726274488,-0.0385405536453064,0.0964399578461191
11.310000000000002,0.0265842239020181,-0.0440706353160199,0.1078865612986044
11.320000000000007,0.0220211277230317,-0.0508833645134386,0.1129219463445546
11.329999999999998,0.0078015152622281,-0.0559240132629684,0.1164065581965584
11.340000000000003,-0.0027030342073144,-0.0539126278952408,0.1228338115140796
11.350000000000009,-0.0062818964155178,-0.0513144455310707,0.1387322830611534
11.36,-0.0032468571663876,-0.0543678234752495,0.1475865825127858
11.370000000000005,0.0070187306511691,-0.016893429433579,0.1560440513613157
11.38000000000001,-0.0048528365600609,0.0510374293034365,0.1459677254512434
11.39,0.0007850046211832,0.0678909922423273,0.1296854113719559
11.400000000000006,0.0033813705008699,0.0690460011926939,0.1182529520093642
11.409999999999997,0.0091556351008927,0.0679382930010173,0.1123063059190494
11.420000000000002,0.0217560969318335,0.0566623030750746,0.1010377739860178
11.430000000000009,0.0275506606788285,0.048926117264357,0.093519786288841
11.439999999999998,0.0483078732254847,0.0363500787239934,0.0997071257558428
11.450000000000005,0.0656888055678834,0.0220034099884651,0.1053314988501782
11.460000000000008,0.0854127882940409,-0.0050644730789393,0.115147056483519
11.47,0.1052312319407396,-0.0341839945084977,0.1321939146368967
11.480000000000004,0.1307476834437699,-0.049712055569022,0.1384570840675739
11.490000000000007,0.1554672450483571,-0.0524366804313308,0.1338624312473385
11.5,0.1770848815912231,-0.0404282492579543,0.1194536879509145
11.510000000000003,0.2035701618566573,-0.0198136832690127,0.1028883233293295
11.52000000000001,0.2321625845216888,-0.0019181817106732,0.0745405414560494
11.53,0.2587585012314123,0.0077757173485159,0.0515679447283733
11.540000000000006,0.2817186941391628,0.0077059836811117,0.0458668779081359
11.549999999999995,0.287645768352932,-0.000609959546729,0.0548432824004646
11.560000000000002,0.2808915722588155,-0.0141852980468691,0.077240771836248
11.570000000000007,0.2562717092205469,-0.03123214571736,0.1094040295231104
11.579999999999998,0.2212450431657631,-0.0438561830323146,0.1326865319442899
11.590000000000003,0.1727639002469999,-0.0433075455588369,0.1341041251389078
11.600000000000009,0.1304397500468317,-0.031984334512228,0.1236022685858184
11.61,0.0912358615511359,-0.0192646738035401,0.1077913335178726
11.620000000000005,0.0522870052669776,-0.0156585235161071,0.0998086019663156
11.63000000000001,0.0307152807068522,-0.0098812969003515,0.0987842059508797
11.64,0.0110372832647832,-0.0082644683794177,0.1032904636433319
11.650000000000006,-0.0080297685438029,0.0021207738829327,0.1223682857738258
11.659999999999997,-0.0345530147464859,0.0185970067707361,0.144163587403612
11.670000000000002,-0.0626863166919766,0.0266028272915479,0.1630210847959845
11.680000000000009,-0.0769023708768198,0.0401167796183565,0.181497752033604
11.689999999999998,-0.0920787474577918,0.0447681962890421,0.2010105382923551
11.700000000000005,-0.1080711220986095,0.0432569010578131,0.211455128906924
11.710000000000008,-0.1326465775334558,0.061285815705995,0.2002106589886302
11.72,-0.1605020069083054,0.0661392228074666,0.192485545284727
11.730000000000004,-0.1923977842317875,0.0711836698137407,0.1784365575873858
11.740000000000007,-0.2308724640818589,0.0775380137400814,0.1531313530349939
11.75,-0.260708281445375,0.0661771927713115,0.13416813618205
11.760000000000003,-0.2863828952841558,0.062545382018938,0.1268687985443773
11.77000000000001,-0.2990241871958459,0.0600000964818189,0.1348501416561305
11.78,-0.3022191761948816,0.067064467007665,0.1308688060245733
11.790000000000006,-0.3003263988182623,0.0819485576902486,0.1108326633043838
11.799999999999995,-0.2978565984339985,0.0859131448132956,0.0776033334231911
11.810000000000002,-0.3030871150919791,0.0998755168417126,0.0396757829567757
11.820000000000007,-0.3119529965033783,0.1116791916301892,0.0040844692869487
11.829999999999998,-0.3172133627972813,0.1169219973585933,-0.0212869464125785
11.840000000000003,-0.3262682532341768,0.1210174138134359,-0.0455722327112348
11.850000000000009,-0.3432868725474196,0.1266278501414175,-0.0615556442445327
11.86,-0.3531332675556951,0.131302368957862,-0.0834094977008484
11.870000000000005,-0.3581085581201809,0.1373919519612982,-0.1214701840190693
11.88000000000001,-0.355787889773324,0.1509771607530671,-0.1546324528913933
11.89,-0.3364906809413523,0.1563297859112612,-0.1729571800730452
11.900000000000006,-0.2998723687025464,0.148569756950228,-0.1699286488462299
11.909999999999997,-0.2636292456428714,0.1001199082856998,-0.1492891215248588
11.920000000000002,-0.2098142623615311,0.0443760302826116,-0.108128167633682
11.930000000000009,-0.1492636188516561,0.0258267716837067,-0.0449351340599997
11.939999999999998,-0.0777458388248586,-0.0032586315320008,0.0128695867290655
11.950000000000005,-0.0013445193867301,-0.0299867907193524,0.0601346899470123
11.960000000000008,0.0724672343674325,-0.0463869210811324,0.0894329736944877
11.97,0.1345432804932645,-0.0412258373164588,0.107284908791147
11.980000000000004,0.1893736512316566,-0.0238465401731946,0.1168169007444566
11.990000000000007,0.2383770721705737,0.0026560498610811,0.1191870921291092
12.0,0.2786785571937129,0.0292846676038697,0.1185570482664733
12.010000000000003,0.3035980290279041,0.040100322943595,0.1190343246925837
12.02000000000001,0.309328831206437,0.0358921675395117,0.1233192788160418
12.03,0.3027794194160166,0.0262093879407938,0.1304056129256815
12.040000000000006,0.286839896073577,0.0354375831167432,0.1397672477369377
12.049999999999995,0.253061667812311,0.0551922844073243,0.1408375989438745
12.060000000000002,0.2139483109378396,0.070938205725391,0.1395855285078632
12.070000000000007,0.1673823480841063,0.0780223008812027,0.1324894237991599
12.079999999999998,0.1137800418628237,0.0775573059674916,0.127752461383654
12.090000000000003,0.058159413084085,0.0787379351053438,0.1245519720534429
12.100000000000009,0.0005540957819562,0.0785494977263142,0.1197903993254955
12.11,-0.0427803711635858,0.0727793010468625,0.1228045114485618
12.120000000000005,-0.0836102932810013,0.0707517639129175,0.1254848686137699
12.13000000000001,-0.1057958500518792,0.0652158079758154,0.1216885399359121
12.14,-0.1147716286780773,0.0531020943899585,0.116941550686603
12.150000000000006,-0.1153373783424604,0.0435388485128394,0.1108191483507164
12.159999999999997,-0.09639469781029,0.0366902169082095,0.1023145025287038
12.170000000000002,-0.0723292267762334,0.033664559399588,0.0945885644509775
12.180000000000009,-0.0432784203231248,0.0337347668875273,0.0794908966365331
12.189999999999998,-0.0179990394951405,0.0352407158094881,0.0679208548277927
12.200000000000005,0.0054744076795958,0.0322401488745683,0.0617790371325024
12.210000000000008,0.022431730402956,0.0282659534882987,0.0557522409077382
12.22,0.03589004749423,0.0303472648236859,0.0512469107135195
12.230000000000004,0.0427852120064216,0.032319957961807,0.0401143407814863
12.240000000000007,0.0446983343052246,0.0310380773373736,0.0141038108884346
12.25,0.0404867688948277,0.0284674866869328,0.0111351431881376
12.260000000000003,0.033582685175706,0.0201948261078394,0.0149198633777451
12.27000000000001,0.0155031546582715,0.0199033193416014,0.0181184640631984
12.28,0.0003746585277353,0.0172729404023198,0.0300930280119083
12.290000000000006,-0.0176651169101172,0.0131529901087351,0.0345007418705971
12.299999999999995,-0.0350898837711916,0.0070332737367571,0.0332871362407663
12.310000000000002,-0.0506920710247104,0.0033040190828691,0.0321776883908894
12.320000000000007,-0.0615462310909089,0.0013627791369988,0.0220312366106306
12.329999999999998,-0.0740066999076619,-0.0027838201459295,0.0154285948314736
12.340000000000003,-0.0948767066542792,-0.0041875132449137,0.0046127738886236
12.350000000000009,-0.1126641408005817,-0.0021669429405595,-0.000738269194635
12.36,-0.1205010486676119,-0.0006206579501378,-0.0050588422641051
12.370000000000005,-0.1310754635411538,-0.0058319066350528,-0.0093540609333998
12.38000000000001,-0.1396113943159798,-0.012319202061598,-0.0083625357143583
12.39,-0.1389946787253113,-0.0164979598029626,-0.0081748607822395
12.400000000000006,-0.1379661123812073,-0.0205407494309549,-0.0072272363263175
12.409999999999997,-0.1272683134079359,-0.0219271256006508,-0.0093521109191299
12.420000000000002,-0.104815142477959,-0.0262963060860917,-0.0122566266937266
12.430000000000009,-0.0717232126895899,-0.0255213659846988,-0.0134563927256216
12.439999999999998,-0.0292804466884773,-0.024349561009917,-0.018349149015359
12.450000000000005,0.0073214148299398,-0.0268281897906004,-0.030332569918471
12.460000000000008,0.0393411298001912,-0.0268365221711172,-0.0465909388050401
12.47,0.0652243497076585,-0.0301669051003232,-0.058494318680526
12.480000000000004,0.0777004641931286,-0.0336380462091149,-0.0769971893553764
12.490000000000007,0.0854780603594579,-0.0366694853517067,-0.0960354169314839
12.5,0.0848210319107807,-0.0420870967748475,-0.1109410018897393
12.510000000000003,0.0778160630046366,-0.045375472369751,-0.1307826498288984
12.52000000000001,0.0686660083892471,-0.0528275573676478,-0.1485713158066039
12.53,0.0600195630210133,-0.0575365363682506,-0.1688786398734982
12.540000000000006,0.04892487000327,-0.0642900618130158,-0.1913403029481375
12.549999999999995,0.0407519562555576,-0.0700343249125998,-0.2142327191415354
12.560000000000002,0.0338306150521598,-0.0719246880405782,-0.2390646606313669
12.570000000000007,0.0287141569149673,-0.0776896516440173,-0.2545009033735786
12.579999999999998,0.0239631961009219,-0.0839944644602557,-0.2777864418191308
12.590000000000003,0.0216161265313841,-0.0901965767802597,-0.3029605428880374
12.600000000000009,0.0248318517473066,-0.0963259122960892,-0.3197689576348409
12.61,0.0202495803006932,-0.1070435361367569,-0.3355567904737336
12.620000000000005,0.0219839754547678,-0.1164099785497856,-0.3444384656296934
12.63000000000001,0.0182751084297874,-0.12298343778167,-0.3570909884294062
12.64,0.0153028658265802,-0.126412824238998,-0.3695055420585546
12.650000000000006,0.0129671618157916,-0.1278408844240038,-0.3892103103088433
12.659999999999997,0.0092344737396292,-0.1249937029772819,-0.4064565690972157
12.670000000000002,0.0062357041939515,-0.1218157088121676,-0.4236862588466299
12.680000000000009,0.0090393073161419,-0.1185620207793095,-0.4467932434305015
12.689999999999998,0.0085839871689122,-0.1165719347851301,-0.4705254426797177
12.700000000000005,0.0162256826466255,-0.1166803291028889,-0.4984314018205013
12.710000000000008,0.0320588728161176,-0.1247337363435618,-0.5280904248771607
12.72,0.0374872543462219,-0.1333777971606048,-0.5497674645373885
12.730000000000004,0.0392582078630009,-0.1431979806558289,-0.5697187983288449
12.740000000000007,0.0383224853113723,-0.148635344620782,-0.6019797270499699
12.75,0.0348919389918983,-0.1511151468799081,-0.6316337872169581
12.760000000000003,0.0247600069989472,-0.148555911236879,-0.664241298836008
12.77000000000001,0.0202608970360112,-0.1453239476924823,-0.6992573129835344
12.78,0.0259295042666387,-0.146045079130625,-0.7375935469575572
12.790000000000006,0.0260172234952478,-0.1464193479139813,-0.776374497066976
12.799999999999995,0.0284655568412247,-0.1475838308135529,-0.8150942969250486
12.810000000000002,0.0334692423525317,-0.1585631195324028,-0.8575917549385289
12.820000000000007,0.034720500536145,-0.1732445486429228,-0.8998484810753818
12.829999999999998,0.0344622386489934,-0.1963725893452709,-0.9428517554682084
12.840000000000003,0.0367981681574269,-0.2192649183331242,-0.99682816045869
12.850000000000009,0.0410351595618182,-0.2473884501799439,-1.046705792781727
12.86,0.0432801159260869,-0.2771833049593151,-1.108904868482184
12.870000000000005,0.0464406163034233,-0.3094296847646579,-1.17093946765008
12.88000000000001,0.0488481275922834,-0.3422788324495717,-1.2360823330961817
12.89,0.0504597714985039,-0.373565913929051,-1.3051508615447005
12.900000000000006,0.0519713319010679,-0.3978823396054197,-1.375384910651684
12.909999999999997,0.0544175621710792,-0.4177817683391065,-1.4485565808780136
12.920000000000002,0.04525331397867,-0.4441594014455686,-1.517252608792362
12.930000000000009,0.0325901516182622,-0.4781532242741524,-1.6181126833674755
12.939999999999998,0.0193163762671017,-0.4967799756359767,-1.6901398355048052
12.950000000000005,0.0023521700472926,-0.5096816930552845,-1.7569224139698774
12.960000000000008,-0.0224379402002144,-0.5246234202212374,-1.8248222291432543
12.97,-0.0421595065926378,-0.5402752893928823,-1.8869885198558607
12.980000000000004,-0.0598316154719645,-0.5594337252256993,-1.9461635758568283
12.990000000000007,-0.0782554085290053,-0.5698863954775243,-2.0051738833428554
13.0,-0.0860237925843721,-0.5842701720899932,-2.054219522069756
13.010000000000003,-0.0884639750931264,-0.6031548807788544,-2.095488209374964
13.02000000000001,-0.0964119348795172,-0.6191913534581687,-2.1339693801398365
13.03,-0.107727587178906,-0.633321512041433,-2.171157773117163
13.040000000000006,-0.1187264287993033,-0.6435878330390299,-2.206628385241075
13.049999999999995,-0.1303945103373475,-0.6543134277130304,-2.2401012629931265
13.060000000000002,-0.1406928551241702,-0.6690861618754363,-2.2729330841512474
13.070000000000007,-0.1512244977454773,-0.674429106372151,-2.3028504093839968
13.079999999999998,-0.1617581709016504,-0.6725821218173803,-2.3331693482914964
13.090000000000003,-0.1685593087359082,-0.6665077136391687,-2.351077315761545
13.100000000000009,-0.1705880372131266,-0.6578739416139531,-2.369663891848135
13.11,-0.1698213040320941,-0.6433841840115856,-2.380811841650835
13.120000000000005,-0.165354915134547,-0.6260496640362461,-2.382513510722984
13.13000000000001,-0.1620695641817345,-0.6129960196822161,-2.389492442945406
13.14,-0.1532014679976384,-0.5924763613878776,-2.3946954609931126
13.150000000000006,-0.1404951396452126,-0.5708416090105525,-2.40578540424973
13.159999999999997,-0.1167484340319824,-0.5413369488451945,-2.417877484543553
13.170000000000002,-0.0835631583985984,-0.5005080295179842,-2.4218742249363
13.180000000000009,-0.0349736342646964,-0.4631804563303175,-2.425793925843397
13.189999999999998,0.0129837879100028,-0.4203168193614237,-2.424071450681166
13.200000000000005,0.0629403510873029,-0.3809558438475911,-2.4176566265894013
13.210000000000008,0.1049235135462379,-0.3532240914755149,-2.404359105334299
13.22,0.1398888026474984,-0.3251050732099156,-2.3892334317154718
13.230000000000004,0.1644985370351767,-0.3023435114454642,-2.3797940825956894
13.240000000000007,0.1717518295691679,-0.2873462818348382,-2.364369898685189
13.25,0.1612752324255528,-0.2639110844582631,-2.3432345863564787
13.260000000000003,0.1377947732437794,-0.250672332848131,-2.317960714133525
13.27000000000001,0.1126229658448886,-0.2338863114361296,-2.2891744109103604
13.28,0.0839414152705554,-0.2144811698250976,-2.259454727574348
13.290000000000006,0.0662792627318682,-0.201032293596126,-2.224498867942847
13.299999999999995,0.0405489279280911,-0.1847430630082486,-2.19081891737169
13.310000000000002,0.00719123287564,-0.1691375391301999,-2.16171826888787
13.320000000000007,-0.0292361364235879,-0.1506149069398182,-2.145349967655568
13.329999999999998,-0.0672772455955329,-0.135352945393607,-2.1219176952508563
13.340000000000003,-0.0944549729514666,-0.1169962434408224,-2.102313552094609
13.350000000000009,-0.123814475681706,-0.1120882017707148,-2.081331500990578
13.36,-0.1463116158285555,-0.1046530416442004,-2.0664923891121805
13.370000000000005,-0.1627202276047266,-0.1019369881520856,-2.053514043098089
13.38000000000001,-0.1730788773247708,-0.0968395736027955,-2.034753431844224
13.39,-0.1897588560701974,-0.0894465465260373,-2.019592686990332
13.400000000000006,-0.2066899410222041,-0.0779481001733673,-2.001234400084269
13.409999999999997,-0.2285300591666748,-0.0672958828514351,-1.990043835321449
13.420000000000002,-0.2426598042009845,-0.0644001428050572,-1.986466645617846
13.430000000000009,-0.2503225548932954,-0.0552132561580417,-1.9863145372990496
13.439999999999998,-0.2457776163423442,-0.0440120270016639,-1.985126315525412
13.450000000000005,-0.2227873745885338,-0.0210645786446127,-1.977257180841632
13.460000000000008,-0.1910238266975579,0.0004811449433514,-1.9647872033092453
13.47,-0.1566278302072477,0.0258077350345274,-1.948260217139505
13.480000000000004,-0.1220683604389033,0.0462282589299673,-1.9239573910175507
13.490000000000007,-0.0904366039291152,0.0562572245322893,-1.8937982174501415
13.5,-0.0671055595633103,0.054894618121781,-1.871410797477034
13.510000000000003,-0.0370772078027592,0.0552364730230254,-1.846939040592638
13.52000000000001,-0.0016678676829962,0.0527518779560105,-1.8260480880532997
13.53,0.039647777501282,0.0567898772910549,-1.7947736457871757
13.540000000000006,0.0778548479457613,0.0672597433124889,-1.7561930612283387
13.549999999999995,0.1169601213390472,0.0733191362812417,-1.7209030376651755
13.560000000000002,0.1426602338251989,0.0699683880498959,-1.6777559610630537
13.570000000000007,0.1686573589661485,0.0639161965091264,-1.6220942800588738
13.579999999999998,0.1826024859520975,0.0596479910265396,-1.559346113731517
13.590000000000003,0.1824830763263376,0.0647413015232962,-1.5049658106592052
13.600000000000009,0.1726835835670158,0.070286551995273,-1.446875325545825
13.61,0.1575745941112205,0.0759703360084343,-1.3881436875795994
13.620000000000005,0.1371460413340719,0.0794818181460949,-1.3246580662659986
13.63000000000001,0.1151538618030463,0.0797372559430843,-1.2458033466848517
13.64,0.0832991337651203,0.0751482967742619,-1.1568007020780977
13.650000000000006,0.0505568436476703,0.0688541114811792,-1.0496435162085824
13.659999999999997,0.0216598606042593,0.0575196093346195,-0.935500091797206
13.670000000000002,-0.0101054884335845,0.0482168275742341,-0.810263159030992
13.680000000000009,-0.0558429390722213,0.0370041882474919,-0.6834790807550744
13.689999999999998,-0.1070429868828947,0.0304307910293627,-0.5539497875351235
13.700000000000005,-0.1656380816570075,0.0170065074670736,-0.4324267966092479
13.710000000000008,-0.2092860650382433,0.0010671599398986,-0.3074314654459293
13.72,-0.2451835993495628,-0.008605535672033,-0.1723009150529177
13.730000000000004,-0.2680547765527593,-0.0118600626224991,-0.0445262853076754
13.740000000000007,-0.2616375520345243,-0.0152201287887682,0.0812303511031516
13.75,-0.2438077563650768,-0.0249693901642528,0.2092036763556636
13.760000000000003,-0.2204635029407927,-0.0355197989095823,0.3413205916506017
13.77000000000001,-0.2068267264641171,-0.03761380993728,0.4632472239052888
13.78,-0.2066028147571894,-0.0359639672538304,0.5802492418411639
13.790000000000006,-0.2185607554742342,-0.0253155341971103,0.6951256417516319
13.799999999999995,-0.2416749620700303,-0.0186955036072355,0.7979763510229535
13.810000000000002,-0.2565084728218502,-0.0106043837871646,0.8951866807880151
13.820000000000007,-0.2686426978591457,-0.0006768421931982,0.98227316534374
13.829999999999998,-0.268757192121787,0.0089606604171198,1.063917372352131
13.840000000000003,-0.2599132987239796,0.0258887671663503,1.1401108113621652
13.850000000000009,-0.2488479951757289,0.0479024447459047,1.2173993478812135
13.86,-0.2379041600353208,0.0697853320549645,1.2951475732331048
13.870000000000005,-0.2222321009476796,0.0897457360008873,1.3755429512578
13.88000000000001,-0.210175801137516,0.105898813195541,1.460637919971859
13.89,-0.2035349505655877,0.118915013746118,1.5364413452880137
13.900000000000006,-0.1991695817389585,0.1289757128353782,1.615546874094877
13.909999999999997,-0.1989795950406241,0.1327050094968793,1.7000697696004534
13.920000000000002,-0.1977636604263165,0.1379611569625633,1.7859372575501131
13.930000000000009,-0.2015684259030948,0.1403365490146571,1.878513294522384
13.939999999999998,-0.2041318281956713,0.1470739043500838,1.9591848792555304
13.950000000000005,-0.2066718460277833,0.1571784737831851,2.0367481525173923
13.960000000000008,-0.2095850805546478,0.1706296050592992,2.105509830143933
13.97,-0.2141771441644187,0.1855832354986772,2.174468470570304
13.980000000000004,-0.2152278477910762,0.1984975386046163,2.2319409834348534
13.990000000000007,-0.2127487176820552,0.2090275758658313,2.2839950623898058
14.0,-0.2073524422300943,0.2247961663644135,2.339914985779323
14.010000000000003,-0.2007607638073105,0.2407051066489629,2.402403934377462
14.02000000000001,-0.1901536427200587,0.2644786969167269,2.4638332279916
14.03,-0.1823550493142197,0.2866022564338839,2.518947803433212
14.040000000000006,-0.1794284846818075,0.3088268920662258,2.561995547123636
14.049999999999995,-0.1775737312146776,0.324764232790761,2.604227989641556
14.060000000000002,-0.1769668361190175,0.3384080069814739,2.640039868044558
14.070000000000007,-0.1805104984398982,0.3525890378858137,2.6762530344848896
14.079999999999998,-0.1859846242684373,0.3714530096868517,2.716490831201864
14.090000000000003,-0.190801453924923,0.385056273773262,2.754414087404001
14.100000000000009,-0.1959342501653277,0.3982041731637232,2.8048196221102213
14.11,-0.2088211940856225,0.414458484340632,2.85172870777981
14.120000000000005,-0.2231118061783352,0.4283840879308017,2.890679818244013
14.13000000000001,-0.2373682440813388,0.446310034777756,2.9245127269846085
14.14,-0.2474896387043699,0.4592999354768634,2.949650208392134
14.150000000000006,-0.2527350557107456,0.471054042396475,2.978888887685585
14.159999999999997,-0.2534758289938575,0.4734465421883851,3.005062875419806
14.170000000000002,-0.2477611881006453,0.4764480726753353,3.035817296226102
14.180000000000009,-0.2362413667525266,0.4789141897419856,3.054792084761373
14.189999999999998,-0.2275661795115262,0.4823904583919524,3.0678797275271954
14.200000000000005,-0.2288674252855725,0.4927877983586548,3.0880815236872823
14.210000000000008,-0.2352611900290618,0.5049514824542067,3.1108165262143985
14.22,-0.2571795438930287,0.5142890282790525,3.1348884221957483
14.230000000000004,-0.2950733785643707,0.527146974850929,3.15554719265366
14.240000000000007,-0.3560154856737905,0.5382882833635972,3.169004844098163
14.25,-0.4308915095605977,0.5338602766410552,3.175745307999113
14.260000000000003,-0.5048772283906275,0.5302228368280534,3.1817690269304366
14.27000000000001,-0.5695523655929403,0.5210064601324321,3.1925117067846904
14.28,-0.6085424703206339,0.5151833472805113,3.2009076134644983
14.290000000000006,-0.6132671714326404,0.5105075741483297,3.2099419898029224
14.299999999999995,-0.6011079940790987,0.5021459332412695,3.2236371254574125
14.310000000000002,-0.5809540968618145,0.4963530474582089,3.23692713044249
14.320000000000007,-0.5687781619526318,0.4892185219469049,3.2304517197786797
14.329999999999998,-0.5649488836337994,0.4903637772072702,3.2227378208666844
14.340000000000003,-0.5735415647269158,0.4943898728656486,3.218767190450315
14.350000000000009,-0.5747301049224921,0.4973374334277498,3.218987482980474
14.36,-0.5689523656302596,0.4958386606139406,3.222621862097952
14.370000000000005,-0.5512154258480668,0.4918984749919424,3.235562905002116
14.38000000000001,-0.5188682033863657,0.4845009601938982,3.24673780388418
14.39,-0.4926625406148071,0.48404336191802,3.2593054631138463
14.400000000000006,-0.4650501004806239,0.4833108221160281,3.268400178847228
14.409999999999997,-0.4368303015808548,0.4873034912367333,3.2736734462174097
14.420000000000002,-0.397227238767111,0.4859861758679081,3.2736373562199
14.430000000000009,-0.3524541892693055,0.4866012812398236,3.2749509629747933
14.439999999999998,-0.3017228443377908,0.4841457450283803,3.274126836736217
14.450000000000005,-0.2484547753133757,0.4866589263483339,3.2698220994242138
14.460000000000008,-0.196711796420435,0.4955406447876895,3.265103485992689
14.47,-0.1596683640880287,0.5028723620977756,3.261883991785981
14.480000000000004,-0.1393756109587697,0.5190039089557696,3.2611665940341346
14.490000000000007,-0.1418414150026074,0.5401388257106768,3.2584169209301512
14.5,-0.1482653540359338,0.5539574403638386,3.2551677996887824
14.510000000000003,-0.1496101612402866,0.5629257441531952,3.253119780536824
14.52000000000001,-0.1557323241109446,0.5636680017959852,3.250469778270028
14.53,-0.1571937404913073,0.5643678744041916,3.2468100886523943
14.540000000000006,-0.1609830936739651,0.5694749097064374,3.238627024529833
14.549999999999995,-0.1615950335475749,0.5725059330471985,3.235753875529238
14.560000000000002,-0.1673328283723208,0.5735232285971276,3.237776438907078
14.570000000000007,-0.1686179235677626,0.563165262426782,3.243447212747385
14.579999999999998,-0.1721367214638339,0.5535098106644022,3.2538566779273768
14.590000000000003,-0.1790413974841329,0.5389127895090559,3.261959333509349
14.600000000000009,-0.1903440668892937,0.532767098253469,3.2718098194763856
14.61,-0.2016999538537542,0.5286607562509242,3.2727362937737605
14.620000000000005,-0.2136948354660509,0.5200741355132102,3.274525642493604
14.63000000000001,-0.2241214425412323,0.5089708390557107,3.268841761092385
14.64,-0.2291447046966453,0.5011342848039329,3.258365268997324
14.650000000000006,-0.2288604133283614,0.4889861348888489,3.257597026557551
14.659999999999997,-0.228473416817185,0.4681962944689831,3.253852515547192
14.670000000000002,-0.2287761625740735,0.4526459008443103,3.242947624866858
14.680000000000009,-0.2318180737230407,0.4323559127118004,3.234382115088864
14.689999999999998,-0.2304219463443315,0.4165067779227752,3.217300678769768
14.700000000000005,-0.2400859752797816,0.4037004798434599,3.1958600876134087
14.710000000000008,-0.256067000143005,0.393001938465771,3.1801397933283577
14.72,-0.278937531037825,0.3747403011575034,3.171135374884248
14.730000000000004,-0.3060382809111648,0.3481171832161955,3.172017178738691
14.740000000000007,-0.323348962700912,0.316017191355378,3.178457900582501
14.75,-0.3311078629720971,0.2908860581437193,3.169275265711289
14.760000000000003,-0.3363735154430152,0.2694592331935946,3.152809549436779
14.77000000000001,-0.3336974125162523,0.2474224054283511,3.1298885380681143
14.78,-0.3322973292463774,0.2215415698692955,3.109013577876498
14.790000000000006,-0.3358710354222444,0.1911792377595858,3.090758098043232
14.799999999999995,-0.3387894808913638,0.1617553246926529,3.0825585233320583
14.810000000000002,-0.3359492442633425,0.1203771374195791,3.0779297999920328
14.820000000000007,-0.3363856596636826,0.0919001186394462,3.067016625463633
14.829999999999998,-0.3302484005934435,0.0717540078802136,3.03913209748928
14.840000000000003,-0.3284756096848503,0.0563238498821955,2.996392994231392
14.850000000000009,-0.3273067019564963,0.0464023077639416,2.948362014321156
14.86,-0.3339395419036488,0.0293970226734917,2.9020662257088365
14.870000000000005,-0.3428412665549423,0.0094107974310487,2.855214550040342
14.88000000000001,-0.3491278904627751,-0.0134303946203897,2.804677377115911
14.89,-0.366835073497827,-0.0299884915965346,2.743656177090936
14.900000000000006,-0.3855303591719051,-0.0358598525825565,2.6719812020190163
14.909999999999997,-0.4029233741793556,-0.0451507723734994,2.579949695936425
14.920000000000002,-0.4150696926215018,-0.0538225739607839,2.479517038678574
14.930000000000009,-0.4163814130456818,-0.0737865243899023,2.3554352672750696
14.939999999999998,-0.4067244782233126,-0.1012949860925642,2.2159707454998223
14.950000000000005,-0.3981936428850912,-0.1323567567344851,2.0781929814326343
14.960000000000008,-0.3933432234406935,-0.153976594010821,1.9120762977111987
14.97,-0.3884005111097487,-0.1580044219568499,1.7182964345361786
14.980000000000004,-0.3755068607818011,-0.1563305045322013,1.4942736462574806
14.990000000000007,-0.3693980380472853,-0.151004947668375,1.2499306314550922
15.0,-0.3641828988219911,-0.1501242153422232,0.9943592378162164
15.010000000000003,-0.3659248639124931,-0.1583732508381977,0.7363065607296557
15.02000000000001,-0.3643791077390048,-0.1739739725284993,0.4888217323682727
15.03,-0.3624065843943895,-0.1868782020056392,0.2512335389202664
15.040000000000006,-0.3667689404761288,-0.1965859375355005,0.0284461180231608
15.049999999999995,-0.3683835620234702,-0.2096970159775702,-0.1919567091514057
15.060000000000002,-0.3637978847439133,-0.2247328117680414,-0.4078725974194872
15.070000000000007,-0.3646341309908795,-0.2433807780447276,-0.6231475553686413
15.079999999999998,-0.36624195330706,-0.2616917217594667,-0.8433324085351921
15.090000000000003,-0.3665757385561757,-0.2813306550660605,-1.0515216786196395
15.100000000000009,-0.3634170379961457,-0.2998960839276026,-1.2497633496745455
15.11,-0.3597716126265536,-0.310564486088074,-1.4310076246175374
15.120000000000005,-0.3563570515691745,-0.3259550877449101,-1.5920666678681776
15.13000000000001,-0.3563308410385027,-0.3384405577689596,-1.733517884921939
15.14,-0.3562481777862845,-0.3444708197635026,-1.859908343992708
15.150000000000006,-0.3525270028463734,-0.3489616097069499,-1.9783810987998167
15.159999999999997,-0.3539487448376165,-0.35593380574727,-2.0918004924952287
15.170000000000002,-0.3626937913665251,-0.3699138818640991,-2.1998900862360102
15.180000000000009,-0.3694584235445445,-0.3794011999660394,-2.303488909802032
15.189999999999998,-0.3792466064712365,-0.3839638336959224,-2.385593675333997
15.200000000000005,-0.390527218022518,-0.3789785404376588,-2.451243121206323
15.210000000000008,-0.3856243458024668,-0.3683125289494641,-2.512970525594374
15.22,-0.3677225866197853,-0.3576511134305709,-2.562873672090199
15.230000000000004,-0.3429476460757778,-0.3433088631835168,-2.609310735413481
15.240000000000007,-0.3119808516493573,-0.3415785834422857,-2.65843389426099
15.25,-0.2845292883558676,-0.3445515573076382,-2.71301242235336
15.260000000000003,-0.2727104110744002,-0.3525332327719613,-2.7628551718368484
15.27000000000001,-0.2632280317277489,-0.3617217543440129,-2.820055042621662
15.28,-0.2600674772573176,-0.3614244310136222,-2.8613751758804846
15.290000000000006,-0.2516812995716961,-0.3600753369652202,-2.8992238038166533
15.299999999999995,-0.2358517109699875,-0.3533719870318419,-2.94553788894516
15.310000000000002,-0.2091886571867164,-0.3514252762871794,-2.984239964963547
15.320000000000007,-0.1741408638742453,-0.3561856365342242,-3.0171789115046512
15.329999999999998,-0.1344008688087127,-0.3562018262147611,-3.053580304815385
15.340000000000003,-0.0944561896337449,-0.3609184768481363,-3.0990056170189706
15.350000000000009,-0.0534732033778529,-0.357505182131242,-3.1436479934054504
15.36,-0.0148676516208095,-0.3555275758023895,-3.182314927157704
15.370000000000005,0.0184443519964158,-0.3558804933358159,-3.2161893521547373
15.38000000000001,0.0453640955210034,-0.3596714614421235,-3.2469447744769444
15.39,0.0731661471370113,-0.3609465836973783,-3.285677232892058
15.400000000000006,0.0923445213726986,-0.3729341085057754,-3.333861853898981
15.409999999999997,0.1021996660339795,-0.3814167722058489,-3.3848249989979213
15.420000000000002,0.1009651299105946,-0.3863435419664385,-3.4267605405764354
15.430000000000009,0.1076864026961465,-0.3923422434784602,-3.460245292550478
15.439999999999998,0.1212668221061117,-0.4046495246105373,-3.485381275687744
15.450000000000005,0.141422722956663,-0.4170858627945273,-3.5129675174553903
15.460000000000008,0.1670239777017612,-0.4256090985460115,-3.545382492012769
15.47,0.1879070947682348,-0.4265445029831201,-3.588196971997531
15.480000000000004,0.2000107372320439,-0.4222070517006305,-3.63938337075499
15.490000000000007,0.1989748172631886,-0.4202297396493903,-3.6837710010565785
15.5,0.187984480755238,-0.4157716403653677,-3.714529339917844
15.510000000000003,0.1750163069140162,-0.420111489599297,-3.725743844247981
15.52000000000001,0.1629960031893662,-0.424881372754405,-3.7288658349249446
15.53,0.1614256656164117,-0.4196800245587399,-3.728665501214801
15.540000000000006,0.1600505300473045,-0.4156687343288615,-3.732743795719248
15.549999999999995,0.1677917759815909,-0.4154615691144823,-3.7373154884566575
15.560000000000002,0.1627620977601716,-0.4211487494447492,-3.734750389125999
15.570000000000007,0.1637961570105808,-0.4294176471102796,-3.7231337584981
15.579999999999998,0.169321868552254,-0.4474723626831884,-3.7095829127351343
15.590000000000003,0.1696678572726066,-0.4584057886108302,-3.6983878014344014
15.600000000000009,0.1665997576009326,-0.457261525409853,-3.6767106300693913
15.61,0.1543249770115166,-0.4504462938706094,-3.65081625872072
15.620000000000005,0.132204077185552,-0.4461285760133145,-3.6194891361868433
15.63000000000001,0.11189483274457,-0.4448381728868175,-3.590962679113852
15.64,0.0906036899671576,-0.4423468873981414,-3.5634039318529744
15.650000000000006,0.0735419476239966,-0.4360490934437498,-3.5364521331953216
15.659999999999997,0.0504313461622962,-0.4270748124707586,-3.5156754491934827
15.670000000000002,0.0343379961075951,-0.4090317539536513,-3.4891238429068854
15.680000000000009,0.0337660374456741,-0.3907503003551817,-3.464115362354081
15.689999999999998,0.0360555329867703,-0.3788706023441285,-3.4338840524477656
15.700000000000005,0.0458249904832894,-0.3690364771998474,-3.3923972821947888
15.710000000000008,0.0572714815383472,-0.3661999098723201,-3.34472695622108
15.72,0.0751328611174203,-0.3662939408683259,-3.2937073406491444
15.730000000000004,0.0932418332223008,-0.3727853674083872,-3.244944907125092
15.740000000000007,0.1105959944452495,-0.3734644174677674,-3.2017786562775856
15.75,0.1310132037084449,-0.3695206071737371,-3.164726619888381
15.760000000000003,0.1518133673502486,-0.3684784465342361,-3.13090569500782
15.77000000000001,0.1624543151519268,-0.361651241635432,-3.101649240177532
15.78,0.1707193053824746,-0.3583960627513272,-3.0664447022513293
15.790000000000006,0.1675307718771442,-0.3624657317089863,-3.0191840375889134
15.799999999999995,0.1516899718440212,-0.3649138077730456,-2.968827411788862
15.810000000000002,0.1364946850080389,-0.3681765249801558,-2.9144795144645883
15.820000000000007,0.1153011425333386,-0.3674228693151543,-2.8650107131817
15.829999999999998,0.0926349391933285,-0.3573331900400172,-2.817003487594407
15.840000000000003,0.0665614605051643,-0.3476600473739742,-2.7702175516230856
15.850000000000009,0.0475671952893214,-0.3341642779714709,-2.732503220742218
15.86,0.0399615043831309,-0.3143004590973796,-2.703027749241562
15.870000000000005,0.0369097760216087,-0.2897168895594205,-2.6699742235949
15.88000000000001,0.0438905689507391,-0.2585832540828269,-2.6398494407894675
15.89,0.0463229127283749,-0.2314586767556929,-2.595415040419496
15.900000000000006,0.0516589820497248,-0.2067878682659686,-2.552229394179504
15.909999999999997,0.0458566322116164,-0.189974336517944,-2.503445070825447
15.920000000000002,0.0259340084510769,-0.1808589770804734,-2.454888917014165
15.930000000000009,0.002178557051123,-0.1839954163493344,-2.4043519308286885
15.939999999999998,-0.0233267586047873,-0.1858734392228232,-2.3586757768483952
15.950000000000005,-0.0452777886384256,-0.1862219463686925,-2.3124437847786785
15.960000000000008,-0.0583570388767552,-0.188031063107304,-2.275660594539985
15.97,-0.0673364587405755,-0.190661233587423,-2.252733383178388
15.980000000000004,-0.062324374544454,-0.1947737989069128,-2.233898567571781
15.990000000000007,-0.0550587870401182,-0.1897643576672486,-2.210868539883996
16.0,-0.0513168450289081,-0.1822868842794,-2.19254314131146
16.010000000000005,-0.0510208443066169,-0.182250350100772,-2.1710540215166287
