time,Gyr_X,Gyr_Y,Gyr_Z
0.0,-0.0035071603609136,0.0115117240567453,0.0685714481705598
0.0100000000000193,-0.0022256809405836,0.0074099803131968,0.0745455722112042
0.0200000000000102,-0.0062208332592813,0.020179605654805,0.0710748311105937
0.0300000000000011,-0.0183299737083067,0.0073796988985891,0.080083286150417
0.0400000000000204,-0.0051842497806802,0.0168195553266496,0.0603952092369443
0.0500000000000113,0.0053408602314441,0.012605458634553,0.0377690681706713
0.0600000000000022,-0.0170165356092318,0.0054736636722818,0.0268503203706469
0.0700000000000216,0.000439150086702,0.0210852219333501,0.0114478045697158
0.0800000000000125,-0.0150110960553262,0.0149234241357666,0.0054186191074927
0.0900000000000034,-0.002742673178693,0.0001764312773271,-0.0024883134945301
0.0999999999999943,0.0009609822215136,0.0149875464643678,-0.0036671513346399
0.1100000000000136,0.0009582981387412,0.0139927607781918,-0.0129790553016626
0.1200000000000045,0.0096671877756925,0.0063602601101488,0.0067355640267064
0.1299999999999954,-0.0064785639962582,0.0261595116634075,0.0109850766982636
0.1400000000000147,-0.0101020840229381,0.0132366901365595,0.0164307031738158
0.1500000000000056,-0.0063499376139992,0.0219074074350291,0.0084934207211967
0.1599999999999966,-0.0063848471120311,0.0131952992504172,-0.0030965615694721
0.1700000000000159,0.0115531408699368,0.009907555277407,0.0075996834342986
0.1800000000000068,0.0058831428350993,0.0149083474517499,0.0011322079522097
0.1899999999999977,-0.0043956491982932,0.0263589760795943,0.0104008544854265
0.200000000000017,-0.0031746900478776,0.0147946583540638,0.0055578579043947
0.2100000000000079,0.0012281810281161,0.0030182169830333,0.0033611444257995
0.2199999999999988,-0.0016405935034333,0.0095672036037678,0.0152378667251995
0.2300000000000182,-0.0057743809520263,0.0143395740736964,-0.0001058892482938
0.2400000000000091,-0.0068331628421304,0.004279496703058,0.0029363824430309
0.25,-0.0028835722582765,-0.0011614143742139,-0.0035679809280601
0.2600000000000193,-0.0098208136321799,0.0163528986999923,0.015242355924551
0.2700000000000102,0.0015109752887081,0.0032450224822337,0.0043183943156135
0.2800000000000011,0.0052866016640841,0.0154571107673981,0.0062826026540085
0.2900000000000204,-0.0058067888088259,0.0050300704224299,0.0247129879662038
0.3000000000000113,0.0008059843032687,0.0067798065198472,0.008080763459506
0.3100000000000023,0.0014764277708383,-0.004523658527133,0.0185695965152669
0.3200000000000216,0.0077029708074473,0.0112000898808405,0.0150218472437883
0.3300000000000125,-0.0039434062955257,0.0092791218409874,0.0248286464443608
0.3400000000000034,-0.0066361218514879,0.0181772993201422,0.0185639323368489
0.3499999999999943,-0.0088701466167394,0.0143229062966621,0.002005509894362
0.3600000000000136,-0.0109773178543128,0.0113182988079466,0.0096915618404863
0.3700000000000045,-0.0038393767318805,0.0160271716512755,0.0250377284806454
0.3799999999999954,-0.0096380798756703,0.020163154169067,0.0307038568478804
0.3900000000000148,-0.0053470161610249,0.0141012448093286,0.0128317909671101
0.4000000000000057,0.0065999804045277,0.0168482889859316,0.0110434324808395
0.4099999999999966,0.0007005116786566,0.0269864344819469,0.0217340826504226
0.4200000000000159,-0.0030845760011408,0.0057116671484899,0.0074712807993939
0.4300000000000068,0.0063968286424328,0.0103566270810262,0.0042631459329834
0.4399999999999977,0.0048504153728774,0.0015716351043639,0.0090537941377239
0.450000000000017,0.0019883997951585,0.0049838596822065,0.00618331174998
0.4600000000000079,-0.009646673710569,0.0172736498968292,0.0239297070669135
0.4699999999999988,-0.0070768575044261,0.0091769442330556,0.0195756722868724
0.4800000000000182,0.0036925173348032,0.0131006234721337,0.0210374533474984
0.4900000000000091,-0.0123339528476777,0.0081697732057046,0.0153090989520906
0.5,-0.0139746431043177,0.0131577057210975,0.0166195484945625
0.5100000000000193,0.0115919111382422,0.0220483569776235,0.0099262637474439
0.5200000000000102,0.0011717213699886,0.0089454569355906,0.0146482010130691
0.5300000000000011,-0.0121958521864881,0.014950888864485,0.0013521645699707
0.5400000000000205,0.0003720154408357,0.0020353625262424,0.0137146913303261
0.5500000000000114,-0.0229217339742671,0.0114488350992763,0.005004578613093
0.5600000000000023,-0.0003524887593099,0.0158552542783183,0.0012837253550435
0.5700000000000216,-0.0174159205690689,0.0079563786294001,-0.0055762753094156
0.5800000000000125,-0.0019900969765973,0.0140261773521441,-0.00403358595235
0.5900000000000034,-0.0032959478021113,0.004572759120792,-0.0057525252114832
0.5999999999999943,-0.0319771091307804,0.0104378509031955,-0.0116340980751085
0.6100000000000136,-0.0262162866980685,0.0201956781592928,-0.0240016265714095
0.6200000000000045,-0.0379069710183827,0.0095734506201476,-0.033409402181655
0.6299999999999955,-0.0134123488785134,0.0065231496615571,-0.0690418791660501
0.6400000000000148,-0.0047527190337865,-7.071123445887569e-05,-0.0601576790001421
0.6500000000000057,0.0102640662281519,0.0064992150809233,-0.0431581426182314
0.6599999999999966,-0.0049764498189214,-0.0107149875174955,-0.0196411763994174
0.6700000000000159,-0.0064936257809451,0.0013851069098503,0.0193806701352666
0.6800000000000068,0.0032513093922551,0.0258524524670439,0.0703958219232664
0.6899999999999977,-0.0038462302631022,0.0364772375728181,0.1171599794565499
0.700000000000017,-0.0086279780023811,0.0191381107891197,0.1555006170669851
0.710000000000008,-0.0188436124488512,0.0064176208915774,0.1781633408018624
0.7199999999999989,-0.0156306298835629,0.0088526199082082,0.2141174476371481
0.7300000000000182,-0.0109545430482636,0.0058484810897333,0.2371435795084097
0.7400000000000091,-0.0093329512927316,0.0228693135622798,0.2584465449566057
0.75,-0.0081597868533784,0.0026335406729034,0.2758472891165974
0.7600000000000193,-0.0131117204421731,0.0056607131895648,0.2853103974525254
0.7700000000000102,-0.0125108914406014,0.0173165237695939,0.2616131542628506
0.7800000000000011,0.0046952769187163,0.0230622675186708,0.2827010345592709
0.7900000000000205,-0.0051264487889203,0.0147305795724802,0.2965851492439091
0.8000000000000114,-0.0076703225260231,0.0074229225349083,0.2925947840132942
0.8100000000000023,0.0035845211907375,0.0085545137416452,0.3085412518653406
0.8200000000000216,0.0030143231714062,0.0126502907293876,0.3075668924946677
0.8300000000000125,-0.0210981582779243,0.005672645731091,0.3014152238109738
0.8400000000000034,-0.0206311645386671,0.0230016311885735,0.2963492344323836
0.8499999999999943,-0.0246559162396753,0.0141703934998404,0.2853347075334784
0.8600000000000136,-0.0253600189699516,0.0092087656957317,0.2665381091030234
0.8700000000000045,7.526176820842257e-05,0.0124572671470352,0.2780312931913253
0.8799999999999955,0.0014994558104814,0.0207140899475123,0.2576487501643722
0.8900000000000148,-0.0075571222397299,0.0191619014482535,0.2444942206929213
0.9000000000000057,-0.0252172110783175,0.0024551862868988,0.2305652127820227
0.9099999999999966,-0.0169796619434343,0.0154669655360597,0.2144452082002733
0.920000000000016,-0.0068201215023219,0.01289616550278,0.1888852382392244
0.9300000000000068,-0.0024305575252045,0.0309083746217485,0.171872993836984
0.9399999999999976,-0.0034797828045999,0.0232455189341058,0.1499957242401778
0.950000000000017,0.0184259128094949,0.0083800942273032,0.1436768755595533
0.960000000000008,-0.0100385656661847,0.0094176031149208,0.1281075503364712
0.9699999999999988,0.0056589824391023,0.0230122240185432,0.096263742940102
0.9800000000000182,0.0057088502612025,0.004189059163633,0.0830375489585565
0.9900000000000092,-0.013158091786517,0.0203059075434572,0.0418558401856123
1.0,0.0034085530130425,0.0091061677689758,0.003600568861254
1.010000000000019,-0.0069745016192483,-0.0039964815073305,-0.0039028082895634
1.0200000000000102,-0.0190173500668448,0.0087361732154889,-0.0370122613047755
1.0300000000000011,-0.0065247487004544,0.0063814502306636,-0.0409984103419971
1.0400000000000205,-0.0198515388589913,0.008508041167631,-0.046055216209159
1.0500000000000114,-0.0116334352735093,0.006389982775082,-0.0480703536052321
1.0600000000000025,-0.0127853045116146,0.0048186831540938,-0.042710803806046
1.0700000000000216,-0.0109692449762825,0.0169693625014673,-0.0304220903618995
1.0800000000000125,-0.0179213860953167,0.0133982314535388,-0.0127102397189516
1.0900000000000034,0.0101611457055766,0.0138584315965903,-0.0180781839463962
1.0999999999999943,-0.0127996189637754,0.0046951547872177,-0.0081804749980164
1.1100000000000136,-0.0135772985996641,-0.0085078846970648,-0.0124417229726368
1.1200000000000043,-0.0163507903555771,0.0062599215424856,-0.0212537868193684
1.1299999999999957,-0.0113993204034151,0.0132614140559147,-0.0407081691423172
1.1400000000000148,0.0016865984871509,0.0147855693648831,-0.0557491560379709
1.1500000000000057,-0.0203267657593437,0.0191928878797152,-0.077045582596947
1.1599999999999966,-0.020280723276008,0.0127025421642529,-0.0698149256557466
1.170000000000016,-0.0101537005567983,0.0027217153541667,-0.0782778966566709
1.1800000000000068,0.0027090677221616,0.0247684671980759,-0.0850090311574418
1.1899999999999975,0.0060985613622394,0.0140475729811657,-0.0909899964920885
1.200000000000017,-0.0156149528148434,0.0090576708486348,-0.1119863654733558
1.210000000000008,-0.0141866846693925,0.0051828133649315,-0.138604864341067
1.2199999999999989,-0.0062907512213634,0.0176739385417879,-0.1516213910142052
1.2300000000000182,0.0005960856538138,0.0241417378647197,-0.1706654550819917
1.240000000000009,-0.0096896615587101,0.0297895831493316,-0.1779329240525144
1.25,-0.0078553881054785,0.0118695410037713,-0.1813556315096425
1.260000000000019,-0.0058521068855301,0.0211694620343744,-0.2025260463115493
1.2700000000000102,-0.0146160151661446,0.0125608110679045,-0.1938308021020872
1.2800000000000011,-0.0199550690446727,0.0177369941557984,-0.2163931911581982
1.2900000000000205,-0.0205221073334523,0.0236737515287745,-0.2106593551966211
1.3000000000000114,0.0015098337030626,0.0015135279526892,-0.232216443131332
1.3100000000000025,-0.0155853272393035,0.0027352368811145,-0.2292731980129241
1.3200000000000216,-0.0092858444172222,0.0041715377992345,-0.2233122668284801
1.3300000000000125,-0.0050297575429969,0.0095353660765783,-0.2188718671213795
1.3400000000000034,-0.0115787167191299,0.0147151243646269,-0.1959825652157077
1.3499999999999943,0.0004079812807389,0.0320531508978152,-0.1748462194508822
1.3600000000000136,0.0001035890388691,0.0124349686255227,-0.1501653275293245
1.3700000000000043,-0.0117761491495469,0.0026601385335128,-0.1233856567267521
1.3799999999999957,0.001219324248527,0.0187617929878853,-0.1104787741413176
1.3900000000000148,-0.0073068135153672,0.0148992393130424,-0.0720670921631791
1.4000000000000057,0.0026973623086094,0.0163831702432371,-0.0875198267919135
1.4099999999999966,0.0084835765088258,0.0201620838028462,-0.0631691759205408
1.420000000000016,-0.0122561525649615,0.0122249502088843,-0.0336598875272457
1.4300000000000068,-0.0116000360872193,0.0183978821021758,-0.0275704680016959
1.4399999999999975,-0.0074948467522328,0.022737826832699,0.0005053111380146
1.450000000000017,-0.0142424651198295,0.0167694748009418,0.0255745126825146
1.460000000000008,-0.0027538609057403,-0.000498981336831,0.0497248221163188
1.4699999999999989,-0.0006495671867641,0.0186017078111992,0.0591823686458478
1.4800000000000182,-0.0061650607110202,0.0280084779239111,0.0344682500619449
1.490000000000009,-0.0029580901935073,0.0168161200922773,0.0320870306289008
1.5,-0.009549575637924,0.0141417993648517,0.0299691005606114
1.510000000000019,-0.0125270505937961,0.0185422059162637,0.015639623812595
1.5200000000000102,-0.0056992023433242,0.0210004024123402,0.0103244658181162
1.5300000000000011,-0.0018937505438164,0.0133689707047035,0.0104359927897729
1.5400000000000205,-0.0064437004430306,0.0139973977202737,0.0048485381283283
1.5500000000000114,-0.0055149104971061,0.0133566075101664,0.0141210342482168
1.5600000000000025,-0.0075683123250868,0.0139670672635375,0.022296738503526
1.5700000000000216,-0.0070883666941992,0.0203006212302502,-0.0016566026829986
1.5800000000000125,0.0033797688788314,0.0087414331918524,0.0044659307895947
1.5900000000000034,-0.0035042042327652,0.0169177808838255,-0.0050814522543119
1.5999999999999943,-0.0193676745874463,0.0172099615932492,-0.0166566569232311
1.6100000000000136,-0.0125604927688898,0.0126423503322713,0.0065147590141304
1.6200000000000043,0.0095778725330678,0.0120941313578294,0.0077805498984218
1.6299999999999957,0.0017787088249057,0.0066487693211292,0.0002067562361083
1.6400000000000148,0.0068620530391055,0.0068023633747111,0.0130933095332972
1.6500000000000057,0.0105936028682416,0.0076330381619406,0.0018714182222204
1.6599999999999966,-0.0109800631401928,0.010171634150256,0.01854171836543
1.670000000000016,0.0033630974757847,0.0155313857591193,0.0071537744021118
1.6800000000000068,-0.0134248710273321,0.0135108624112052,0.0045279433730359
1.6899999999999975,-0.0133037135333134,0.0103440618687551,-0.002497776566151
1.700000000000017,0.0086560102638526,0.0204189854409731,0.0062261943785483
1.710000000000008,-0.0071206473337375,0.0069808412118802,0.001727872808704
1.7199999999999989,-0.0071329116844213,-0.0040088977974911,0.0038584575368699
1.7300000000000182,0.0014702750422022,0.0088734665496014,0.0182937602636231
1.740000000000009,-0.0081806436117073,0.0028457656713954,0.0119210041004655
1.75,-0.0177528501171264,0.019262312032345,-0.0011204552068775
1.760000000000019,-0.008222180906666,0.0148720660669409,0.006744725814049
1.7700000000000102,-0.0088913650123081,0.0003965790774174,0.0084862703114645
1.7800000000000011,-0.0037448680581173,0.0113110167844537,0.0015509417235134
1.7900000000000205,-0.0160788273354721,0.0160531769561294,0.0110469949714465
1.8000000000000114,-0.0127149660866446,0.0319485193759956,-0.0001366094864314
1.8100000000000025,0.0079979558004715,0.0075446939713665,0.0081808570306968
1.8200000000000216,-0.010928251838576,0.0093634520795095,0.0034478941519737
1.8300000000000125,-0.0178256253272117,0.0161987392104915,0.0153792798069705
1.8400000000000036,-0.0162527018545555,0.0196645555928434,-0.0036145189112862
1.8499999999999943,-0.0025376130202051,0.0197609550899294,0.0047168241377314
1.8600000000000136,-0.0042747745786358,0.0145449245102478,0.0227543108467549
1.8700000000000043,-0.0025684990544708,0.0198236141105291,0.011844282993119
1.8799999999999957,-0.0103901343432372,0.0075163303296415,0.0138918095508134
1.8900000000000148,-0.006853629807109,0.0059703139224239,0.0120087232171344
1.9000000000000057,0.0153702245788805,0.0222731305246768,0.0003091489136894
1.9099999999999968,-0.0130648010955851,0.0094237763718359,0.0157065368460848
1.920000000000016,-0.0185105532423551,0.0092101498342981,0.0119330109894042
1.9300000000000068,0.0056225477995892,0.016427013953949,0.0130663471129616
1.9399999999999975,-0.0081102343597173,0.0144831180932785,0.0205270592200193
1.950000000000017,-0.0118774117951135,0.0042119141881602,0.0072150096859269
1.960000000000008,0.0105971081724912,0.0197388454350713,0.0078690732926189
1.9699999999999989,-0.0258797597851466,0.002364054857553,0.0012656437015608
1.9800000000000184,0.0009231430133641,0.0145287406784581,0.0007409674290121
1.990000000000009,-0.0010508017944763,0.0145037851881972,0.0002815340964899
2.0,-0.0151157559455016,0.0049950930661658,0.0078224612668028
2.0100000000000198,0.0060301841309815,0.0084182062297247,0.0047525788604655
2.0200000000000102,-0.0115362340851998,0.0076700219534307,0.0024120890109832
2.030000000000001,0.01125998930011,0.0144628378272327,0.0109435127650779
2.0400000000000205,0.0041079372541784,0.0130292647846581,0.020791626904351
2.050000000000012,-0.0126395000578313,0.0195204921149705,0.0049866550836306
2.0600000000000023,-0.0081777475413378,0.0156107688397276,0.0129134413812122
