time,Gyr_X,Gyr_Y,Gyr_Z
0.0,0.0323803199127337,-0.0043470656433784,0.0266963832832619
0.0099999999999909,0.0194039464359557,-0.0059858347549664,0.0255295343849666
0.0199999999999818,0.0173720044553355,-0.0106895162241505,0.0273885580034014
0.0300000000000011,0.0149489850092352,-0.0116586387305702,0.0239980038413265
0.039999999999992,0.0131939185369451,-0.0135873115231506,0.0206773770183502
0.0499999999999829,0.0062648167009702,-0.0042441159013991,0.0190132303988957
0.0600000000000022,0.0075571870608642,-0.0077793285610184,0.0141842772309587
0.0699999999999931,0.0009860133463382,-0.0132777719726764,0.012974485592965
0.079999999999984,-0.0130906082208847,-0.0208882061661971,0.0107772325959674
0.0900000000000034,-0.0051929608693052,-0.0134659600664971,0.0022509188268515
0.0999999999999943,0.0043641455410288,-0.0137087367575762,-0.0001511547807279
0.1099999999999852,0.0112749761505794,-0.0096245503026655,-0.0062366462870428
0.1200000000000045,0.0162502211795657,-0.0068662919954891,-0.005997162046287
0.1299999999999954,0.0213978082600411,-0.0041786909051964,-0.011660475578625
0.1399999999999863,0.0166367355402284,-0.0020305262567582,-0.0089745589348403
0.1500000000000056,0.0176882663612644,-0.0057184149411057,-0.0119996577031549
0.1599999999999966,0.0156878116338401,-0.0137693947866646,-0.0106552137742527
0.1699999999999875,0.0145246750822506,-0.0158632754778829,-0.0065410338728083
0.1799999999999784,0.0150284336021883,-0.0142623416503417,-0.0076936561020492
0.1899999999999977,0.0250608481160466,-0.0194802907899323,-0.003617745244927
0.1999999999999886,0.0322317627356677,-0.0183600314918031,-0.0036528919326992
0.2099999999999795,0.0422482177977208,-0.0181584441484308,-0.0029062379235031
0.2199999999999988,0.0426049328650721,-0.0136241485606494,-0.0052283972933499
0.2299999999999897,0.0375766879850745,-0.0164819783570015,-0.0003850073005399
0.2399999999999806,0.0370895517582832,-0.0240489459237918,0.0041175300420159
0.25,0.0421478197865229,-0.0207761264199111,0.0043582280152851
0.2599999999999909,0.054257561443771,-0.0185013319284455,0.0063124071595821
0.2699999999999818,0.0555250454495666,-0.0193571207518793,0.0127523982410589
0.2800000000000011,0.0615185081828257,-0.0190548608778994,0.0104238945100227
0.289999999999992,0.0627572075538745,-0.019469968464479,0.0149586494118031
0.2999999999999829,0.0459028812246947,-0.016368667387761,0.0216093573086917
0.3100000000000023,0.0399776446533213,-0.0140006872705362,0.0188868791632562
0.3199999999999932,0.0417832752541658,-0.008974604211561,0.0182729902170791
0.3299999999999841,0.0376047103852302,-0.0022152711482879,0.0127980587971596
0.3400000000000034,0.0376891838494706,-0.0060529361304196,0.0090690334465338
0.3499999999999943,0.0319958526536618,-0.0054881593853151,0.0073757525418787
0.3599999999999852,0.0228248117650068,-0.0094367501402909,0.011080724095796
0.3700000000000045,0.0171074403506103,-0.0072367537537487,0.0139669192576126
0.3799999999999954,0.0124991631004571,-0.0133955063572594,0.0111303460713127
0.3899999999999863,0.0105364900269572,-0.0142403759241723,0.0086458243348703
0.4000000000000057,-0.0099469829827387,-0.0083553420965877,0.0099255752202048
0.4099999999999966,-0.0100069305663816,-0.0086134987589458,0.0051349294408398
0.4199999999999875,-0.0146761859316279,-0.0094963172639629,0.0095610361460087
0.4299999999999784,-0.0118448100689911,-0.0182444102015096,0.0120317965973674
0.4399999999999977,-0.0097198063619566,-0.0236056146679385,0.0038939575286679
0.4499999999999886,-0.0094155195085039,-0.0235947856243328,0.005314238474605
0.4599999999999795,0.0026689465155086,-0.0281436174820468,0.0070185483036348
0.4699999999999988,0.0149109423652029,-0.0231048821389339,0.0088167962232809
0.4799999999999897,0.0173879285419953,-0.0180808342016344,0.0069861346299325
0.4899999999999807,0.0252907645835719,-0.0163126198831867,0.0074020267794289
0.5,0.037916290501449,-0.018755014558768,0.0100042866083732
0.5099999999999909,0.0411191103710083,-0.0123345964059775,0.0102688592800498
0.5199999999999818,0.0470446645113275,-0.0070496417514391,0.0063748370585016
0.5300000000000011,0.0581974894773704,-0.009558297920456,0.0097255271666977
0.539999999999992,0.0640272431382229,-0.0171186244013484,0.0120409739665939
0.549999999999983,0.053893267229702,-0.0105169277183683,0.0152615800030109
0.5600000000000023,0.04272138617192,-0.0108268239461788,0.0276367095746486
0.5699999999999932,0.0322845973436856,-0.0096995416485357,0.0338876090916493
0.5799999999999841,0.0202132004430503,-0.0023653683430112,0.034855271044533
0.5900000000000034,0.0311892156860816,0.0063615916728041,0.0399792188635958
0.5999999999999943,0.039710334819165,0.0048751457342387,0.0360443072982187
0.6099999999999852,0.0365334588782331,0.0056577461657204,0.0362899366104009
0.6200000000000045,0.0264064136540882,0.006825564425456,0.0419142333976954
0.6299999999999955,0.0246052795188686,0.0064927231305467,0.039058211392377
0.6399999999999864,0.0170052478128575,0.0089945952285883,0.0394252161638213
0.6500000000000057,0.0140450970008299,0.0145099671314621,0.0469078505407325
0.6599999999999966,0.0221419658509746,0.0169820228075109,0.0536144035177255
0.6699999999999875,0.0384035883114703,0.0245363339297796,0.0571929173293422
0.6799999999999784,0.0607469520735789,0.0214577781817735,0.059056224221015
0.6899999999999977,0.0670845958128849,0.0243429845573389,0.0595087520948071
0.6999999999999886,0.0664481148389515,0.0268486940384976,0.0593138367625007
0.7099999999999795,0.0656081447534461,0.0212117501863781,0.0643325908915218
0.7199999999999989,0.0562362830688488,0.0216909642599897,0.0712992352127527
0.7299999999999898,0.0486402623652669,0.0173124079570615,0.082024358568597
0.7399999999999807,0.041813309939073,0.0154166408957477,0.0851655181108175
0.75,0.0389099323708068,0.0136527487057124,0.0864520910433929
0.7599999999999909,0.0495204125911958,0.0147284899153336,0.0834389987903287
0.7699999999999818,0.0673888613769647,0.0149869686911377,0.0762258082730787
0.7800000000000011,0.0658336677478985,0.0139789781334631,0.0649039488346947
0.789999999999992,0.0673137191136009,0.0085810282407272,0.0596291332562224
0.799999999999983,0.0659455330233966,0.0045445398527924,0.0533485050063402
0.8100000000000023,0.0694531720292478,0.0041012076224867,0.0540819419048583
0.8199999999999932,0.0828714219051496,0.0054858295510424,0.0519986781734237
0.8299999999999841,0.0961570272361746,0.0011535968341505,0.0476016364621007
0.8400000000000034,0.1144077056476199,0.010610778139859,0.0483750346477372
0.8499999999999943,0.1243088679976832,0.0040106514107965,0.0502374812890307
0.8599999999999852,0.1402724086948745,0.0127781046835746,0.0446178461699608
0.8700000000000045,0.1440570717519356,0.0164491574357256,0.0362397942595123
0.8799999999999955,0.142641843497672,0.0197522934062144,0.034881024084508
0.8899999999999864,0.1441663024764447,0.0216391498375372,0.0290618529414544
0.9000000000000057,0.1434933820069446,0.0179685385491121,0.0234392642264855
0.9099999999999966,0.139036546931144,0.0176301608417727,0.0175055914124115
0.9199999999999876,0.1220523469181174,0.0128104031196441,0.011276186615368
0.9299999999999784,0.116591697047299,0.0118778733465779,0.004780774349866
0.9399999999999976,0.1015227740134919,0.0119895034677678,0.0069349854669093
0.9499999999999886,0.0814373553154785,0.0094893179857011,0.0010464625452807
0.9599999999999796,0.0701818508769203,0.0020717480833205,-0.0047510863198236
0.9699999999999988,0.052361011237894,-0.0007353639985667,-0.0111286589997202
0.9799999999999898,0.042769786141371,-0.0017999495502336,-0.0015124199770735
0.9899999999999808,0.0252785347201294,-0.0070503039669231,-0.0064266211641918
1.0,0.0081257308152482,-0.0121076607359581,-0.0150107976348813
1.009999999999991,-0.0046223970099691,-0.0126324925419298,-0.0141640932148841
1.0199999999999818,-0.0282444016194381,-0.0086568008549277,-0.0198865797938323
1.0300000000000011,-0.0336885426283184,-0.0067332673615924,-0.0196944481317525
1.039999999999992,-0.040717129724842,-0.0111747280889589,-0.0192498707444604
1.049999999999983,-0.0413727215144365,-0.0178312221902917,-0.0206219245157191
1.0600000000000025,-0.0427045420358936,-0.0053147158370282,-0.0217182089546356
1.0699999999999932,-0.0409269682690955,-0.0081589118979238,-0.0252937077830318
1.079999999999984,-0.0379602855161165,-0.0039273922374522,-0.0373724738857312
1.0900000000000034,-0.0428933347419207,-0.0054199841535021,-0.0414471912125863
1.0999999999999943,-0.0471822039869664,-0.0093420427138992,-0.0399251860610559
1.1099999999999852,-0.0581157937910966,-0.0184607490437965,-0.0447989284096875
1.1200000000000043,-0.0525746945778037,-0.0219384703192567,-0.0472231957482441
1.1299999999999957,-0.059949741554443,-0.02227577266895,-0.0460432578621222
1.1399999999999864,-0.0632733555244023,-0.021767986410158,-0.0440689573739781
1.1500000000000057,-0.0558021386012754,-0.0201345688405529,-0.0415281141618404
1.1599999999999966,-0.0512268190114915,-0.0217850984459576,-0.0351569548100417
1.1699999999999875,-0.0321649766374831,-0.0131497874331518,-0.0319875604768936
1.1799999999999784,-0.0035118857149758,-0.0070735668730289,-0.0256721016033245
1.1899999999999975,0.0101076617653623,-0.009890960489209,-0.0207752279099054
1.1999999999999886,0.0286847670236026,-0.0097796664826982,-0.0176714094030823
1.2099999999999795,0.0399593311733481,-0.0063564921727364,-0.0108023935449428
1.2199999999999989,0.0406816588584528,-0.0077660147996435,-0.006230158277748
1.2299999999999898,0.039990649989792,-0.0076289673464748,0.0029551586828404
1.239999999999981,0.0407664110850562,-0.0047176792449219,0.0103751720691157
1.25,0.0412045908337074,-0.0115481649347202,0.009388916355527
1.259999999999991,0.0356489476075616,-0.0145250833914977,0.0173993276639252
1.2699999999999818,0.0195166240834383,-0.0191667232335704,0.0209084494033
1.2800000000000011,0.0137351699026763,-0.0133401250585006,0.013837323910978
1.289999999999992,0.0031625842583605,-0.019531573606093,0.0179726249262545
1.299999999999983,-0.0083192479992605,-0.0130110350254979,0.0163485351362645
1.3100000000000025,-0.0142304496206147,-0.0188226300878066,0.0086654404552528
1.3199999999999932,-0.028827830573429,-0.0160108876387276,0.0059884001950317
1.329999999999984,-0.0360234863085136,-0.015495388288854,0.003176183040976
1.3400000000000034,-0.0354719844896274,-0.0148760153333004,0.0009157748372091
1.3499999999999943,-0.0367151936488465,-0.0063435720244389,0.0042648436245035
1.3599999999999852,-0.0364492759676924,-0.0050057538083988,-0.0034385254974865
1.3700000000000043,-0.021443278566738,-0.0017063995673946,-0.0032096319179105
1.3799999999999957,-0.0176709829390369,0.003625074736809,0.0005606207515763
1.3899999999999864,-0.0163814948020357,-0.002033278831322,0.0073168592873804
1.4000000000000057,-0.0214117297818086,-0.003531141455939,0.0055287624501683
1.4099999999999966,-0.0108360240642814,-0.0040797415839115,0.0138242822703123
1.4199999999999875,-0.0142301451358239,-0.0076000455816696,0.0133751238887671
1.4299999999999784,0.0057530054530298,-0.0164653583555761,0.0220363742180422
1.4399999999999975,0.0108741728784531,-0.0024142494997313,0.0159279937846533
1.4499999999999886,0.0189803573441351,0.0001620118140424,0.0115763934166271
1.4599999999999795,0.0270597540799167,-0.0026320233041311,0.0180213761914494
1.4699999999999989,0.0339615386213958,-0.0062501763345086,0.0093812259743662
1.4799999999999898,0.0428173607057683,-0.009747608967794,0.0219553101758638
1.489999999999981,0.0398894208512598,-0.0132418308191018,0.0210021150790722
1.5,0.041973585701925,-0.0175774278953903,0.0309138430056511
1.509999999999991,0.0406660477153925,-0.0092934196358795,0.032254195239354
1.5199999999999818,0.0450855330296289,-0.0057059709702616,0.0281761131833771
1.5300000000000011,0.0408683574287128,-0.0088086463255225,0.026159805404246
1.539999999999992,0.0423680997058982,0.0013675403229791,0.0186281407197678
1.549999999999983,0.032860515264136,-0.0012338247270249,0.0132635778309973
1.5600000000000025,0.0169806941496118,-0.0023159302240531,0.0097047779591605
1.5699999999999932,-0.0033030029685844,-0.0045022165565931,0.0095361637362954
1.579999999999984,-0.0120984861567146,-0.0051863270986239,0.0081607559327531
1.5900000000000034,-0.0282798949574737,-0.0002005741264547,0.0100127330669341
1.5999999999999943,-0.0216817011724654,-0.006246525637669,0.0021578152259477
1.6099999999999852,-0.0110970798905766,-0.0068288051750515,-0.0017190814694107
1.6200000000000043,-0.0093538155599213,-0.0039840072343862,-0.0011868174434872
1.6299999999999957,-0.0103949300291258,-0.0095584846138751,-0.0154748515062152
1.6399999999999864,-0.0063274326213963,-0.0150976864034098,-0.0124557563804869
1.6500000000000057,-0.0067211857258947,-0.0185279394072022,-0.0130521758067392
