time,Gyr_X,Gyr_Y,Gyr_Z
0.0,0.0082867101945147,0.0190918397495119,0.0200224058468925
0.0099999999999909,-0.0162814851952306,0.0256077601595172,0.014621914449028
0.019999999999996,-0.0005157205514263,0.019184081063333,0.0182774133671392
0.0300000000000011,0.0032366358145483,0.0065464980313513,0.0181019687591976
0.039999999999992,-0.0004748173545343,0.0158316250672952,0.0200197264562324
0.0499999999999971,0.0099450372265861,0.0263987892272117,0.0321519053213392
0.059999999999988,0.0064907859899328,0.0107719363643498,0.030508872969343
0.0699999999999931,0.015393605587912,0.0193765620559396,0.0215541114630584
0.0799999999999983,0.0136650660396103,0.009988636903772,0.0304352835084487
0.0899999999999892,-0.007521249400883,0.0010371566405252,0.0147442602703508
0.0999999999999943,-0.0003230832947963,0.0108390579399709,0.0208011855237538
0.1099999999999994,-0.0078564352087057,0.0287311838558979,0.0270674699071488
0.1199999999999903,-0.0003842143277354,0.0212794209158709,0.0242654757478158
0.1299999999999954,0.0073071386457093,0.0218104004014761,0.0199520905533908
0.1400000000000005,0.0079119421413142,0.0212737717727106,0.0074483125532164
0.1499999999999914,-0.0058610144152515,0.0251669540953535,0.0085754434576868
0.1599999999999966,-0.013532387055725,0.0341839971983601,0.0101214346983694
0.1700000000000017,-0.0136876035214202,0.0224918100506962,0.0051176690854051
0.1799999999999926,0.0003337923644508,0.0203238498127094,-0.0190257108815121
0.1899999999999977,0.0123916062419532,0.0181709481695308,-0.0171261643868653
0.1999999999999886,0.0088354228262983,0.0160787888443749,0.0109837771770933
0.2099999999999937,0.0248052260229738,-0.0025420022045719,-0.0101404662619653
0.2199999999999988,0.0142141913577004,0.0057217122497654,0.0066104110284658
0.2299999999999897,0.0368445043076471,0.000993552052412,0.0089851219546542
0.2399999999999948,0.0306418010766148,-0.0202354594892327,-0.0100918166139863
0.25,0.0494715747597522,0.0061337775272017,-0.0214300345318745
0.2599999999999909,0.0588306069153637,-0.0011015531033137,-0.0048622745673227
0.269999999999996,0.0443187590793561,-0.0077178007189959,-0.0179169242475096
0.2800000000000011,0.0306932560238217,-0.0167696966391005,-0.0255598544571264
0.289999999999992,0.0327939492033412,-0.0007614997762112,-0.023323245145494
0.2999999999999971,0.0345987821203266,-0.0211594551750573,-0.0215963256370582
0.309999999999988,-0.0051723643666063,-0.0285259795320929,-0.0302790562939308
0.3199999999999932,0.0084191526322301,-0.0202977194333425,-0.0141839465739823
0.3299999999999983,0.0018272789981073,-0.025020666523137,-0.0173949802150354
0.3399999999999892,0.0042346010785384,-0.0187064165460531,-0.0280463071231674
0.3499999999999943,-0.0049860890529028,-0.0216196459172987,-0.0379948041530879
0.3599999999999994,-0.0099202560273806,-0.0119484214642457,-0.0365864162540017
0.3699999999999903,-0.0086589326881655,-0.0146851365648786,-0.0241225609538712
0.3799999999999954,-0.025779225456531,-0.0224291264153763,-0.0307975306494982
0.3900000000000005,-0.0173335330820546,-0.0301582360821942,-0.0365148946385903
0.3999999999999915,-0.0135661991628991,-0.0223167407124019,-0.030629713211522
0.4099999999999966,0.0001475457405451,-0.0092548501100463,-0.0174115138134604
0.4200000000000017,-0.0222207095826138,-0.0181615522065418,-0.0410110378598595
0.4299999999999926,-0.0131746828445584,-0.0024077922391106,-0.0228992687120126
0.4399999999999977,-0.0011434243891715,0.0026144895295698,-0.0403405994853874
0.4499999999999886,0.0088630574415117,0.0150005708753876,-0.0179429027351287
0.4599999999999937,0.0216278724301919,0.0078335677170258,-0.0210689071179616
0.4699999999999988,0.019548971044235,-0.0022335713247884,-0.0073497879979926
0.4799999999999897,0.0195550341845891,0.0018155265507881,0.0010389449514484
0.4899999999999949,0.0246410060100595,-0.0125118858855533,0.0156652767810528
0.5,0.0530378724264131,-0.0040847847742324,0.01126214764109
0.5099999999999909,0.0655985286643226,-0.0071719955598934,0.003944158159655
0.519999999999996,0.0547601742891237,-0.006633401451575,0.0093306577804506
0.5300000000000011,0.042117162910938,0.0135702379275326,0.0262568906082025
0.539999999999992,0.0297942729802293,0.0019743767058239,0.0128223482604335
0.5499999999999972,0.0266710466404518,-0.0159667253368003,0.0072074469598474
0.5599999999999881,0.017601724440462,-0.0015245987975174,-0.0084846715631828
0.5699999999999932,0.0021501169946401,0.0029339191932735,-0.0118425959317549
0.5799999999999983,0.0017289997164447,0.0027892455749275,-0.0191490967213485
0.5899999999999892,0.009440293880235,0.0185155127806456,-0.0257763320289136
0.5999999999999943,0.0227751977524753,0.0245897228211652,-0.017767589643127
0.6099999999999994,0.0079473131310504,0.0340491626939067,-0.0449591192960516
0.6199999999999903,0.0299394077792302,0.0419328706944668,-0.0338897542257022
0.6299999999999955,0.0360245651996402,0.0549815340036374,-0.0255377214166867
0.6400000000000006,0.0279377625760577,0.0471461245013634,-0.0287420045001449
0.6499999999999915,0.0404338255629789,0.0515881668011592,-0.0209076602075731
0.6599999999999966,0.0256733729216899,0.0714457191510137,-0.0139349344814651
0.6700000000000017,0.0233595643890947,0.0437768090417471,0.0005527941719727
0.6799999999999926,-0.0066383773345339,0.0349464276560472,0.0197252262580354
0.6899999999999977,-0.0381489096720749,0.0323428012339031,0.0390652080988087
0.6999999999999886,-0.0506740268352531,0.0105326545452406,0.0623094312134799
0.7099999999999937,-0.0571906616829425,0.0046770935008171,0.0799927617644349
0.7199999999999989,-0.0783782088482706,-0.0216762762019312,0.079264429369668
0.7299999999999898,-0.0775140533401357,-0.0195758673277144,0.0926240069017037
0.7399999999999949,-0.0611042444614498,-0.0485197439233331,0.1126741621795313
0.75,-0.0891511446093333,-0.0610076428795161,0.122000251391004
0.7599999999999909,-0.0719837010959017,-0.0737335611944985,0.1321577670004299
0.769999999999996,-0.088816672288347,-0.092091699082705,0.1158995880431671
0.7800000000000011,-0.0824461315418594,-0.0955462691128721,0.1216129172121489
0.789999999999992,-0.0584371765232068,-0.0919198123609438,0.1050572649878636
0.7999999999999972,-0.0660042175393134,-0.1112766659915545,0.0906087311183509
0.8099999999999881,-0.0452005346106019,-0.131745395647577,0.0714916397995457
0.8199999999999932,-0.0350728695453146,-0.1356640075943238,0.0489374314436172
0.8299999999999983,-0.0570378311194062,-0.1439545344554214,0.0362160893513643
0.8399999999999892,-0.0486317098371571,-0.1306634762125921,0.0013765083081452
0.8499999999999943,-0.0563310042845104,-0.1422647116881308,-0.0132509957586679
0.8599999999999994,-0.0375830828428859,-0.134132711583348,-0.0197663989308527
0.8699999999999903,-0.0212867151410206,-0.138754496097951,-0.0471100242762092
0.8799999999999955,0.0002794666497015,-0.1263015224163146,-0.0535561099392173
0.8900000000000006,0.0137720505193243,-0.1240580433936991,-0.0863848538419486
0.8999999999999915,0.0578723767176272,-0.1113898027833527,-0.1086159018309991
0.9099999999999966,0.0958724969862492,-0.0797566422372065,-0.148973643130738
0.9200000000000016,0.1081462159617195,-0.0506064970184086,-0.1602036145841089
0.9299999999999926,0.1223820161974906,-0.0382053851283758,-0.1696748880708471
0.9399999999999976,0.1406256875977152,-0.0184360810115093,-0.1992451628976975
0.9499999999999886,0.1188689449450441,-0.0159080192108747,-0.1937082679581004
0.9599999999999936,0.0998012926688481,0.0066346366428538,-0.1900648274837146
0.9699999999999988,0.0951758922670409,0.0220093545986502,-0.1795887920512484
0.9799999999999898,0.1011362908733042,0.0294515075314253,-0.1563495916967187
0.9899999999999948,0.0904259612688382,0.0533062207141646,-0.1248669969105734
1.0,0.1122184954772995,0.0384995198308479,-0.1155896626163759
1.009999999999991,0.0951866693116719,0.0507220893288347,-0.1037616415842044
1.019999999999996,0.0877472846722526,0.0550885361240671,-0.0801517925508074
1.0300000000000011,0.0979870041978758,0.0688103126098227,-0.0739735564758117
1.039999999999992,0.0786075662542426,0.0802678253126025,-0.0571974215369306
1.0499999999999972,0.0848700776067415,0.0911803597714823,-0.0422448266974401
1.059999999999988,0.0449294574073349,0.0888612237033674,-0.0516999915562845
1.0699999999999932,0.057186487948022,0.084003509242155,-0.0323792740045809
1.0799999999999983,0.0473288234396906,0.0915702021380197,-0.0322989383742474
1.0899999999999892,0.0365885928506899,0.0856274703109145,-0.0224849173651239
1.0999999999999943,0.0187989031375386,0.0682455772212537,-0.0142976195079627
1.1099999999999994,-0.0036314727220878,0.0664802225485902,0.0026913211529827
1.1199999999999903,-0.0216305531228884,0.045781148238961,0.0213694132334569
1.1299999999999957,-0.040141202148144,0.0351971071958316,0.0242832191210256
1.1400000000000006,-0.0359815802242468,0.021559997895279,0.035585531358836
1.1499999999999917,-0.0438140905555317,0.0213062812720925,0.045553254809028
1.1599999999999966,-0.0590842968597891,0.0353161827699836,0.0285297216864467
1.1700000000000017,-0.0388412220843339,0.0263551604416215,0.0208614876037605
1.1799999999999926,-0.0339118203462243,0.0059121720345459,0.0106831946014258
1.1899999999999975,-0.0569090042085229,-0.0309291608731181,0.0176239317730976
1.1999999999999886,-0.0853992572970076,-0.0444755719832945,0.0198497014270414
1.2099999999999935,-0.0957167421882333,-0.0544095571213635,0.0179744067018222
1.2199999999999989,-0.1229055040567466,-0.0635865779646036,0.0306775389657285
1.2299999999999898,-0.1148759896554651,-0.0484472755941069,0.0048892600443369
1.2399999999999949,-0.0949721496648292,-0.0593305385388059,-0.0057910705155001
1.25,-0.0931024024644241,-0.0545133734518509,-0.0137998713078157
1.259999999999991,-0.0787465709048071,-0.0654837886446841,-0.0279779384060521
1.269999999999996,-0.0686728168734135,-0.048360357672241,-0.042193086478886
1.2800000000000011,-0.04766207674335,-0.049859265261346,-0.0458602699868471
1.289999999999992,-0.0720719015215139,-0.0474389399376018,-0.0483563975675612
1.2999999999999972,-0.0563311055117766,-0.0387876371893669,-0.063483618393792
1.309999999999988,-0.0727923970573205,-0.0344528414570337,-0.0581937863970283
1.3199999999999932,-0.0767415645975226,-0.0520169898357769,-0.0545141186427726
1.3299999999999983,-0.0816162434109383,-0.0430422388524497,-0.0599432766501066
1.3399999999999892,-0.1077881314012672,-0.0435714119167129,-0.0542425939213026
1.3499999999999943,-0.0958922901764212,-0.0550122676632881,-0.0580697605579205
1.3599999999999994,-0.0724329253724839,-0.0348355115502324,-0.0482240578869645
1.3699999999999903,-0.0822190007787214,-0.0028328404980102,-0.0442036453585284
1.3799999999999957,-0.0834025546286341,-0.0159123039907986,-0.0189433903348397
1.3900000000000006,-0.0863329458261685,-0.0337662410714325,0.0035363175357724
1.3999999999999917,-0.0854821123976943,-0.03839914733432,0.0218528909099155
1.4099999999999966,-0.1010664919595008,-0.0492130667166398,0.0397736915165253
1.4200000000000017,-0.1032642133112946,-0.0454710213065433,0.0361356359240933
1.4299999999999926,-0.0979473216077497,-0.0378608106736563,0.0527759331390367
1.4399999999999975,-0.1055931988420784,-0.0142865591252849,0.0626340811534885
1.4499999999999886,-0.0683181302961256,-0.0073185377194616,0.0630076365462173
1.4599999999999935,-0.0558209695660819,0.0256483812990939,0.0481509676158145
1.4699999999999989,-0.0510521333717475,0.0326113069232692,0.0741663963842393
1.4799999999999898,-0.0332465383245369,0.0448686797940661,0.0824712176033468
1.4899999999999949,-0.0248247203335011,0.0569555583061359,0.0897354084083779
1.5,-0.001212558129539,0.057119114008553,0.0796374652605339
1.509999999999991,0.0231115122076885,0.0743714304380908,0.0760713685251627
1.519999999999996,0.0462074598375754,0.0868949419663446,0.1058126904811807
1.5300000000000011,0.077392303985973,0.098891986207054,0.1073789893652925
1.539999999999992,0.0688830696722757,0.1130813822277541,0.1215122267328496
1.5499999999999972,0.0787384123180749,0.1231492159304985,0.123202165479273
1.559999999999988,0.0661211781568906,0.1105732272884295,0.1304260502074026
1.5699999999999932,0.0326989162732783,0.0847805298074364,0.13334124302262
1.5799999999999983,0.0176287404096869,0.0697207901533272,0.1308305435239037
1.5899999999999892,-0.006269314502969,0.0482099790155005,0.1416104978416488
1.5999999999999943,-0.0052698471417662,0.0384924896107218,0.1309105474614937
1.6099999999999994,-0.0024688239452504,0.0550214169242046,0.1194635491398517
1.6199999999999903,-0.011646669594202,0.0452843898531131,0.0813589423280437
1.6299999999999957,0.0070963586942846,0.064394657521079,0.0726927224580242
1.6400000000000006,0.013828656116842,0.0763326059590977,0.0313721291641019
1.6499999999999917,0.0081350128467953,0.0702054776650572,0.0021119441588466
1.6599999999999966,0.0262749514476944,0.0642347387291342,-0.0250344635597975
1.6700000000000017,0.0495466001646716,0.0461969729430868,-0.0222658270486638
1.6799999999999926,0.0577066499429696,0.0176615504121326,-0.0374504876980192
1.6899999999999975,0.0354704008442569,0.0157847440502799,-0.0256042755145676
1.6999999999999886,0.0308291310898771,-0.0041677091170055,-0.027072184884445
1.7099999999999935,0.0341440639791794,-0.018051371696629,-0.0466243712165424
1.7199999999999989,0.0117113661304053,-0.0173081967226272,-0.0508821899014422
1.7299999999999898,0.0151769956113716,-0.0250896586659416,-0.073617677693381
1.7399999999999949,0.0031758629185655,-0.0191859589525433,-0.0765652664076944
1.75,0.0359464078918833,-0.0233313042512102,-0.0956613844219334
1.759999999999991,0.0602140924963962,-0.0242714687423357,-0.1018460555953955
1.769999999999996,0.040905194006747,-0.0250613690321616,-0.1237564623357144
1.7800000000000011,0.0447109134257333,-0.0391118251268905,-0.1300806818869348
1.789999999999992,0.0561294816740968,-0.033626904717094,-0.1272671263988564
1.7999999999999972,0.0570390684860689,-0.0347561216181904,-0.1338767153830229
1.809999999999988,0.0644317416604677,-0.0431178300660301,-0.1448947322260302
1.8199999999999927,0.0489427165269764,-0.0253223489700497,-0.1392429577050232
1.8299999999999983,0.0414449847190824,-0.0249950098661749,-0.1499709358595293
1.8399999999999888,0.0274238948398748,-0.0245711028015162,-0.126698449162785
1.8499999999999943,0.0101646679316603,-0.0128996481200951,-0.1302934772569679
1.8599999999999997,0.0158049640369098,-0.022933956816284,-0.1248369304894324
1.8699999999999903,0.01066404340835,-0.0196816121208676,-0.0985055755034742
1.8799999999999957,0.0381999292289827,-0.0141430037632124,-0.0887474803127899
1.8900000000000008,0.0281478401146952,0.0012972362729417,-0.0845497322625301
1.8999999999999917,0.0218154666785834,0.0117561478184796,-0.0718629851022847
1.9099999999999968,0.0125495113123799,0.0178747403329707,-0.052806253888859
1.9200000000000017,0.0009984874178713,0.030665323255507,-0.0496507973374145
1.9299999999999928,-0.0019249490620926,0.0465345561356848,-0.0352701691512222
1.9399999999999975,0.0138385921076586,0.0618473525508102,-0.0284763669412268
1.9499999999999889,0.0128579121756231,0.0831195992304171,-0.0196203865302385
1.9599999999999935,0.0132560748155195,0.0894726590602584,0.0113099555189348
1.9699999999999989,0.0282742223363766,0.0903305237438786,0.0286921677581267
1.9799999999999895,0.0075232601111649,0.0911455487454859,0.0608581094670912
1.9899999999999949,0.0130021967420127,0.1026138787394295,0.061317069569252
2.0,-0.0063441201616754,0.1013009420997505,0.0662979183697194
2.009999999999991,-0.0175774638421738,0.1000221889379071,0.0649802103931333
2.019999999999996,-0.0128940578490838,0.1114657802886214,0.0699427336690191
2.030000000000001,-0.0191191870276236,0.1096616702016564,0.0887319011047463
2.039999999999992,-0.0222848672860729,0.1285686558552246,0.0911739858262505
2.049999999999997,-0.0380014274241399,0.1286193850437267,0.0877765019619753
2.059999999999988,-0.0330362884728899,0.142974887136853,0.0841497714334325
2.069999999999993,-0.0501649284937278,0.162430638628126,0.10022443519041
2.0799999999999983,-0.0547473323627947,0.1730199761433993,0.0877794329896686
2.089999999999989,-0.0930884119622907,0.1787199021447156,0.0863801231836073
2.0999999999999943,-0.1282593982338302,0.1813070596028477,0.1022613939024446
2.1099999999999994,-0.1755841056776943,0.1853293411771243,0.0921425807668196
2.1199999999999903,-0.243376399610415,0.2032281376332812,0.0851951728085158
2.1299999999999955,-0.3198877621372981,0.209125840264627,0.1143827671354564
2.140000000000001,-0.434096955000682,0.2477523088103117,0.1040978056726125
2.1499999999999915,-0.6081624674966769,0.258577818175141,0.1129613556362951
2.1599999999999966,-0.8555600529515179,0.2932816285923196,0.1113337756114636
2.1700000000000017,-1.195794526996672,0.3182770362997222,0.1294260081416811
2.1799999999999926,-1.675428482520122,0.3549255053916845,0.1653748649375322
2.1899999999999977,-2.2326526934368776,0.4161528328376196,0.1594621071320939
2.1999999999999886,-2.8796339470121786,0.4876332833727179,0.1698367728491436
2.2099999999999937,-3.6294813089325824,0.5628649131138859,0.1840494691816187
2.219999999999999,-4.490355938357614,0.6536902475483068,0.1967862132055474
2.2299999999999898,-5.429102987662562,0.7499457987945654,0.2080875006124846
2.239999999999995,-6.4597741149122605,0.8637339254967293,0.2331963758840383
2.25,-7.474255494664098,0.9905819837982006,0.2219560214196924
2.259999999999991,-8.427229603328316,1.1443123894066891,0.2020800376217991
2.269999999999996,-9.275708088256607,1.297533811284081,0.2002319660826633
2.280000000000001,-9.96283398096576,1.4144705513175135,0.2652898149871219
2.289999999999992,-10.490760643375234,1.4788604383592876,0.3302591094635441
2.299999999999997,-10.804664334767676,1.5263119897531994,0.4420015465403678
2.309999999999988,-10.902764408485504,1.5991912906992114,0.5706087231351264
2.319999999999993,-10.769175741745432,1.664062925134486,0.695297657863121
2.3299999999999983,-10.462532997817815,1.67583240335739,0.7278869201538107
2.339999999999989,-9.93604809167442,1.6087887202733435,0.7515260703227664
2.3499999999999943,-9.254281262852787,1.4867135473252493,0.8238732262343335
2.3599999999999994,-8.45434097367071,1.3427444926858036,0.8496786055739293
2.3699999999999903,-7.5460715501422335,1.1863499133077386,0.8592644789253268
2.3799999999999955,-6.594120173682473,1.0478752270981186,0.8390972336485327
2.390000000000001,-5.680383151597844,0.9740672380023546,0.8366551498010851
2.3999999999999915,-4.822802296809058,0.9982088542867212,0.8039316016549056
2.4099999999999966,-4.027874803599573,1.04678090357928,0.7382105944258993
2.4200000000000017,-3.228343666931632,1.112571514887125,0.6530457381354827
2.4299999999999926,-2.4389353934186224,1.1280381087343578,0.5254563274977956
2.4399999999999977,-1.6922812593628382,1.1437125121582006,0.3967152247221409
2.4499999999999886,-1.0346348384613198,1.1368439200703353,0.2453233762276388
2.4599999999999937,-0.4352391019623212,1.0874881651992525,0.1019635656454209
2.469999999999999,0.0660109235995712,1.0206926857224268,-0.0184236945313948
2.4799999999999898,0.4938028754854314,0.9720842382056104,-0.1277401128823772
2.489999999999995,0.8448261518668646,0.9029437568903654,-0.2336839430189642
2.5,1.1214369884062092,0.8264421177249613,-0.3391469007670699
2.509999999999991,1.3616407463139262,0.7564483919525199,-0.407403452033999
2.519999999999996,1.5695162655398578,0.6688229250770986,-0.481468699349787
2.530000000000001,1.8466155758792229,0.6113589988794895,-0.5105214411913723
2.539999999999992,2.1554299509069867,0.5825000140534005,-0.5255256676942629
2.549999999999997,2.517891107926106,0.5822625960971826,-0.5296992571856977
2.559999999999988,2.980987021796391,0.5924228102445138,-0.5117048036283421
2.569999999999993,3.581486502905312,0.6189460199495024,-0.4917250304563793
2.5799999999999983,4.296287270523495,0.5958043796215029,-0.5052235102911086
2.589999999999989,5.129868087505609,0.5818491941884991,-0.5412901378259449
2.5999999999999943,6.017098965045355,0.5203986131535657,-0.6097197213101246
2.6099999999999994,6.975886236285796,0.4536047654769794,-0.7092120540436971
2.6199999999999903,7.957706089427035,0.4175228485055873,-0.7962066222283044
2.6299999999999955,8.957324527301958,0.3567573148928986,-0.9009159011528934
2.640000000000001,9.944514849139631,0.2627781582392005,-0.961599589527164
2.6499999999999915,10.89293608022953,0.1820470739612977,-0.9845257233196968
2.6599999999999966,11.706999358921168,0.1300494063888209,-0.949361837638132
2.6700000000000017,12.375271184196238,0.1051787975641839,-0.8617238888099987
2.6799999999999926,13.061965127454304,0.0063530872351621,-0.7741221058417331
2.6899999999999977,13.52057339223769,-0.0698231946806971,-0.6488994495776749
2.6999999999999886,13.778710497442642,-0.106627640008393,-0.5311349219476631
2.7099999999999937,13.963013685442403,-0.0979981922004401,-0.4183105955674586
2.719999999999999,14.0773842719801,-0.0482603106189102,-0.2826701462338769
2.7299999999999898,14.05437334547566,0.0389365760679999,-0.1220666185523042
2.739999999999995,13.8869203960002,0.1002568397395811,0.1090452613144806
2.75,13.553574332747589,0.0729200617184,0.3451011350615691
2.759999999999991,12.953139195708284,0.0019403277312659,0.5503128871847187
2.769999999999996,12.093265768163583,-0.1210966098278083,0.710365027089944
2.780000000000001,11.087445261815295,-0.2522891554449937,0.8559480582757846
2.789999999999992,9.921036167376135,-0.3317230644766014,0.9428660829807968
2.799999999999997,8.709317972171425,-0.3412950246183747,0.9734444656244026
2.809999999999988,7.541502224672375,-0.319078409408348,0.9595420737536664
2.819999999999993,6.456358882294992,-0.2685019383968683,0.893252858728836
2.8299999999999983,5.4337192841730495,-0.2847884910661324,0.8060141343666973
2.839999999999989,4.500089338234044,-0.3677466994949804,0.660390308972523
2.8499999999999943,3.67560490230091,-0.4404341549100232,0.4912298417493328
2.8599999999999994,2.932358056753253,-0.4946597052503113,0.2786790109231946
2.8699999999999903,2.2465606320977587,-0.4786756430008592,0.0710286955549615
2.8799999999999955,1.7339646123237424,-0.4434187333847561,-0.1350555612007599
2.890000000000001,1.3160881092473673,-0.3983227865838061,-0.2901642088049946
2.8999999999999915,1.0148107068496002,-0.334468188536428,-0.4098439017045324
2.9099999999999966,0.7560357994930563,-0.2844222298526941,-0.4355475536178628
2.9200000000000017,0.5513673875865905,-0.2423586369104018,-0.4151591145233438
2.9299999999999926,0.3714376608597013,-0.1868328204078377,-0.378061905263407
2.9399999999999977,0.1818353746825096,-0.1515247289214899,-0.3535033035776106
2.9499999999999886,-0.0543402228731658,-0.1388939711108488,-0.3163359695268747
2.9599999999999937,-0.5887289405716903,-0.0884696149898492,-0.2532100266051802
2.969999999999999,-0.6123855278729029,-0.0958073835277058,-0.2127047353948314
2.9799999999999898,-0.8932057839168501,-0.1003544140221811,-0.1085237678589723
2.989999999999995,-1.1401125112206538,-0.0886918538683265,-0.0366444365548887
3.0,-1.337639163293644,-0.0800394617210264,0.0482374087906023
3.009999999999991,-1.5522029725940385,-0.0633565147697465,0.0944963619428472
3.019999999999996,-1.7032360106009194,-0.0436730563039889,0.1006022533914905
3.030000000000001,-1.8334997195371625,-0.0104077807302734,0.0874199973648528
3.039999999999992,-1.9257713392632096,0.0311092990545333,0.0645768410209376
3.049999999999997,-2.009695010844073,0.0615171476438657,0.0499523043163483
3.059999999999988,-2.0457497728789664,0.101212706537738,0.0298358867532317
3.069999999999993,-2.0964694366892087,0.1537263421276953,0.0191730211488299
3.0799999999999983,-2.1210573691548498,0.1720563800556148,0.0152702846392832
3.089999999999989,-2.1727745703521397,0.2370199291515487,-0.0104002404792366
3.0999999999999943,-2.304379822846721,0.2668924245187213,-0.0146547227994402
3.1099999999999994,-2.518083997738334,0.2946542452792544,-0.0346127670940042
3.1199999999999903,-2.8328249132673013,0.332402558195796,-0.0692195136578342
3.1299999999999955,-3.2950164915268654,0.3249796244184464,-0.0912161262213433
3.140000000000001,-3.838905645251546,0.364642560274668,-0.1283604852359258
3.1499999999999915,-4.408331626317539,0.3824068588083786,-0.1141269146355625
3.1599999999999966,-5.055994918575771,0.436432730559242,-0.104846398243715
3.1700000000000017,-5.752030697943621,0.4908642535821066,-0.0941791106758892
3.1799999999999926,-6.463949967268365,0.5699608471747966,-0.0795780312496788
3.1899999999999977,-7.241644276325717,0.6217090137000699,-0.0369363032206958
3.1999999999999886,-8.06105377937242,0.6838280138244753,-0.0069620331130542
3.2099999999999937,-8.969297505047585,0.7393352804882648,0.0361103866388873
3.219999999999999,-9.897043006153424,0.7740313637042247,0.1330914372807256
3.2299999999999898,-10.783020917386638,0.8012250701008357,0.2926571380992186
3.239999999999995,-11.61261203164524,0.7742261020891866,0.4639759366189899
3.25,-12.329316440770654,0.6989695521136909,0.6807832981430479
3.259999999999991,-12.953671885808712,0.59299091530768,0.9061259338969156
3.269999999999996,-13.422619143437329,0.4865833872467604,1.0965812704875522
3.280000000000001,-13.69466261436934,0.3835742222274449,1.2429124778231435
3.289999999999992,-13.767259541755042,0.2919154779795107,1.3570388623759595
3.299999999999997,-13.622665687119929,0.2115388805533776,1.4842002873143498
3.309999999999988,-13.26800780085996,0.1488388916481156,1.5931238535541443
3.319999999999993,-12.669810678649268,0.1053926134672772,1.6896792382693466
3.3299999999999983,-11.842156043793247,0.1185284088574184,1.7343260901160515
3.339999999999989,-10.870122233281558,0.1594270593153865,1.7519547549887915
3.3499999999999943,-9.612474733763406,0.153129698255602,1.7162751379231094
3.3599999999999994,-8.218576607726188,0.148097964656597,1.659263071411738
3.3699999999999903,-6.786995350422956,0.1888967818785507,1.5879902115618008
3.3799999999999955,-5.378388535395976,0.2917103572066711,1.473997601738984
3.390000000000001,-4.044922247326423,0.4408682652657727,1.3846965004091023
3.3999999999999915,-2.82649074425831,0.5469710713421083,1.239753993060136
3.4099999999999966,-1.727360627178131,0.6225640404586932,1.0961048616439155
3.4200000000000017,-0.7617794276632537,0.6488906536224494,0.9420185172447704
3.4299999999999926,0.0137796635314398,0.6664249256654345,0.811055659542281
3.4399999999999977,0.6174184332881846,0.6806385995474923,0.6564715451053578
3.4499999999999886,1.0171774917268597,0.6790605615491244,0.487564269652334
3.4599999999999937,1.2471471518206778,0.6520329175436435,0.3302007557164872
3.469999999999999,1.3311780186870252,0.6420565503914505,0.1326774045143338
3.4799999999999898,1.3055880640481086,0.594685295048564,-0.0743535957201045
3.489999999999995,1.2116220445263832,0.5185610816899953,-0.2571497269209283
3.5,1.0589375747536207,0.4149280437827551,-0.4273815882500837
3.509999999999991,0.8961047211585622,0.3156673611078069,-0.6094703569522624
3.519999999999996,0.6746288751988528,0.2153881397513577,-0.7271599965908017
3.530000000000001,0.4316324815401292,0.1109301155512842,-0.8130070239992947
3.539999999999992,0.2042623447702831,0.0583435293146604,-0.8684545778176881
3.549999999999997,0.0043186262394785,-0.0066740681087527,-0.9138510645246573
3.559999999999988,-0.1341575690983113,-0.0710912728196112,-0.926173305100018
3.569999999999993,-0.2041780608803007,-0.1184319293100462,-0.9060566586182028
3.5799999999999983,-0.2203603681910884,-0.1581979233272007,-0.910881114063798
3.589999999999989,-0.1427650724045743,-0.2010208982181901,-0.8505865790227237
3.5999999999999943,0.0005207323402087,-0.2270580898506401,-0.7967696421297927
3.61,0.1636447883983491,-0.211845967827567,-0.7282572174868104
3.6199999999999903,0.3862545668138289,-0.189438419458892,-0.6714145172519882
3.629999999999996,0.6244703344402337,-0.1680684764507508,-0.601332054101697
3.640000000000001,0.9087514329373024,-0.1508677560212691,-0.5146988331470315
3.649999999999992,1.2322523043036042,-0.1274875268314787,-0.4864314250053435
3.6599999999999966,1.5598034511000034,-0.1189587388344789,-0.4504904276610712
3.6700000000000017,1.966380835912927,-0.0964929939679482,-0.4349580855201762
3.6799999999999926,2.434056684742063,-0.0643851654806898,-0.4458245968733778
3.6899999999999977,2.9366372871507624,-0.0384708196398444,-0.4594095314683314
3.6999999999999886,3.515217621761212,-0.0242672160342661,-0.5131397033509554
3.7099999999999937,4.173648740446798,-0.012953958289281,-0.56841082408923
3.719999999999999,4.8855554317285455,0.0246668355717439,-0.6898307406528248
3.7299999999999898,5.679506010703554,0.0034130806911441,-0.7669686690647433
3.739999999999995,6.459208715153163,-0.0082514985882941,-0.8370844537321328
3.75,7.2293791785600305,0.0163397012998572,-0.9223503758414744
3.759999999999991,7.984349713907521,0.065384274569602,-0.9828852698660034
3.769999999999996,8.693469285398285,0.1287133810945498,-1.0184770232237452
3.780000000000001,9.341276280951218,0.173247401470008,-1.011733793104782
3.789999999999992,9.920876741023346,0.191564603321412,-1.006206657056477
3.799999999999997,10.420167664482056,0.2139250109488392,-0.94290260682623
3.809999999999988,10.864877343161456,0.2592015191228002,-0.8809826676860059
3.819999999999993,11.207212425010985,0.2889315670359682,-0.7872476236088506
3.8299999999999983,11.432675372140825,0.2940832040560827,-0.625293319427454
3.839999999999989,11.538261664606727,0.3053336245002326,-0.4762960696813759
3.8499999999999934,11.598682277237142,0.2994981790055468,-0.2813307933275463
3.86,11.47774909705544,0.3271173379481792,-0.0705885405595226
3.8699999999999903,11.202815544710235,0.3813703339278943,0.1259591834260368
3.879999999999996,10.846930383664109,0.4543895257770835,0.3201275517172818
3.890000000000001,10.37831726917926,0.5624894881459155,0.5075569077698602
3.899999999999992,9.810562881759754,0.7189267932622534,0.6637316239154556
3.9099999999999966,9.117959797294658,0.8599007633730557,0.8024567108361521
3.9200000000000017,8.305249334965206,0.997936383977896,0.8893675849270233
3.9299999999999926,7.361467367564491,1.021841958924278,0.9343824884993204
3.9399999999999977,6.359425454514091,0.980130883680854,0.9107253597818644
3.9499999999999886,5.300986888293463,0.8920676800457433,0.8125467169258097
3.9599999999999937,4.273773657428009,0.7940647438920152,0.6802600540912735
3.969999999999999,3.2856462688566337,0.6885622444569458,0.5473927983285307
3.9799999999999898,2.3972925638463503,0.5651310281290267,0.3970755530370629
3.989999999999995,1.5561569642992803,0.4460398963379857,0.2722428455584348
4.0,0.8072675217036249,0.2824969865656103,0.1468095827130461
4.009999999999991,0.1621327105576886,0.1150065555945807,0.0341139481298419
4.019999999999996,-0.370725448607792,-0.0485215732466669,-0.0734818424623571
4.030000000000001,-0.7937398321681077,-0.1621574005081303,-0.1705760058482838
4.039999999999992,-1.1374751103944207,-0.2907007935698243,-0.2231190729279079
4.049999999999997,-1.411586901828024,-0.3790593079869753,-0.2585244786447563
4.059999999999988,-1.596215561296954,-0.4218571025935038,-0.2499683734959559
4.069999999999993,-1.7331545179457977,-0.4802900717320345,-0.2475809848206459
4.079999999999998,-1.853471002461028,-0.4651362653671355,-0.2151665443633749
4.089999999999989,-1.9380122641513329,-0.4515327710342016,-0.1915616418122271
4.099999999999994,-2.0175014398604354,-0.4014412273723968,-0.1485632980722527
4.109999999999999,-2.048391365894098,-0.3482937498971545,-0.0990811411733828
4.11999999999999,-2.0568258749057287,-0.3025839572491587,-0.1008756262910808
4.129999999999996,-2.024599617467911,-0.2531402327942988,-0.0495298527819031
4.140000000000001,-1.9973814742658385,-0.2069224743293646,-0.0065284515192953
4.149999999999992,-1.9528902923590972,-0.1460005839259151,0.0139987899522542
4.159999999999997,-1.9588217781456,-0.0848679389877965,0.014417567966012
4.170000000000002,-2.004845652385708,-0.0252308634749592,0.0147815514801843
4.179999999999993,-2.0350283072643784,0.0253019231688566,0.0061134195736935
4.189999999999998,-2.1104020045562595,0.0410003309286949,-0.0289605672501612
4.199999999999989,-2.1844675234279665,0.0595956149882626,-0.0496619567603377
4.209999999999994,-2.297508130678021,0.073409434462649,-0.0608463388967817
4.219999999999999,-2.4771238607573443,0.0731067730629845,-0.0619397372367692
4.22999999999999,-2.7196429329549505,0.0595656863121099,-0.0678194332295249
4.239999999999995,-3.0240321419098675,0.0099508269828822,-0.0429087250549574
4.25,-3.3530697378993244,-0.0352036051938941,-0.0326452426562545
4.259999999999991,-3.711160754874267,-0.0792722831169703,-0.0407982856216102
4.269999999999996,-4.127800658340743,-0.0943625584600801,-0.022229489552059
4.280000000000001,-4.567536155626934,-0.093178820042703,-0.0307222069951783
4.289999999999992,-5.038264415104012,-0.1107728942580157,-0.0240448383824377
4.299999999999997,-5.519594656152379,-0.142859258308598,0.0027337747429014
4.309999999999988,-6.005429362255674,-0.1435487590356002,0.0285437609221522
4.319999999999993,-6.4991422125721146,-0.1548265412664068,0.0528213008634402
4.329999999999998,-7.014616387252789,-0.1750245433084538,0.074976712286712
4.339999999999989,-7.578464605615654,-0.2225272005983037,0.1433733257438238
4.349999999999994,-8.187770062305223,-0.2788612507205222,0.2425365973940166
4.359999999999999,-8.761423190781631,-0.341419329082036,0.3387075714661509
4.36999999999999,-9.294835953461734,-0.3868647623466387,0.4494188644626368
4.379999999999996,-9.772554639661887,-0.4098061227458674,0.5784323355066846
4.390000000000001,-10.200798175620394,-0.4629531359138429,0.7066562743222471
4.399999999999992,-10.5505510500708,-0.5215534552020266,0.8297522456352998
4.409999999999997,-10.79401122725202,-0.5791964403420872,0.9330948510333754
4.420000000000002,-10.963258286612888,-0.5921114898039009,1.0286868676871854
4.429999999999993,-11.003916315174123,-0.5348382958692126,1.14679720004869
4.439999999999998,-10.948792400018148,-0.4572521837887058,1.2471890778125172
4.449999999999989,-10.761556393552375,-0.3497358416370729,1.351224269964089
4.459999999999994,-10.443785302519276,-0.2869598073981066,1.4341381745188615
4.469999999999999,-10.004026786712783,-0.2613786682722404,1.4932441451408105
4.47999999999999,-9.380384006619868,-0.280424866398632,1.5085701627053876
4.489999999999995,-8.57874729629422,-0.3040111206415334,1.4735468352192642
4.5,-7.693342348077887,-0.3172673688201568,1.4363251936157466
4.509999999999991,-6.779605255312957,-0.3045776388795045,1.4088903316320391
4.519999999999996,-5.829165542690034,-0.252044101756586,1.4167674660104443
4.530000000000001,-4.898859526138628,-0.1386193030832718,1.3703945165353073
4.539999999999992,-4.042963252196497,0.0199145679611427,1.271579907909539
4.549999999999997,-3.2258580449202543,0.2148502213714507,1.1180240062390523
4.559999999999988,-2.4593500217059443,0.4139019013270773,0.9249045950550948
4.569999999999993,-1.7649999893670052,0.6002561207834524,0.775251108535798
4.579999999999998,-1.174962366762344,0.7966975815533336,0.5940091234429544
4.589999999999989,-0.6695191498762928,0.9459452579242096,0.3897207392296483
4.599999999999994,-0.2273144498084878,1.0457428431970637,0.1872902086384804
4.609999999999999,0.1655515561662566,1.0788008438098755,-0.0203660633374902
4.61999999999999,0.4460741263560698,1.0784296634065342,-0.2598283254832997
4.629999999999996,0.6600401922378597,1.0453211975943697,-0.4591477766944351
4.640000000000001,0.7927349507718279,1.0266509765722625,-0.6264146926104288
4.649999999999992,0.8626099522013733,1.0034962335860778,-0.7660909439986024
4.659999999999997,0.8760520846779385,0.9479051327526452,-0.8589449167532458
4.670000000000002,0.8352385023718543,0.9047169112714054,-0.9297803954686132
4.679999999999993,0.8081157997378601,0.8114832286834918,-0.9809062300672702
4.689999999999998,0.7374042466635297,0.7029176446742467,-1.0020178431722466
4.699999999999989,0.6808473037937852,0.5819770615050788,-1.009282902808001
4.709999999999994,0.6140969980370573,0.4751555291355657,-1.0062610006158974
4.719999999999999,0.5539673349289395,0.3871383792879475,-0.9782477303886004
4.72999999999999,0.4858809129254088,0.284658330187912,-0.9238063712657788
4.739999999999995,0.4217386414785001,0.2177968484480234,-0.8558408476780436
4.75,0.3888347664742624,0.1608898069849282,-0.776507406418766
4.759999999999991,0.3559414350169774,0.1250626914836419,-0.6982548775186904
4.769999999999996,0.3711995290107845,0.1034579664673734,-0.6052851068461124
4.780000000000001,0.4183635987166235,0.0809538884997801,-0.5334604326667903
4.789999999999992,0.498901805272084,0.0921109209017332,-0.4759617858696032
4.799999999999997,0.6413894156532269,0.074799086141541,-0.3753684925484365
4.809999999999988,0.8349265538666275,0.0733840622354787,-0.3130336269863392
4.819999999999993,1.0545225208751858,0.0858616454309049,-0.2541397496120799
4.829999999999998,1.312414447209446,0.1159714601900567,-0.2016813726492078
4.839999999999989,1.6101114239394771,0.1501345471647322,-0.1741284306268889
4.849999999999994,1.9417564944325596,0.1609919050290897,-0.1671448047617006
4.859999999999999,2.366956193157816,0.2053554675993158,-0.141131567273073
4.86999999999999,2.815318302730601,0.2493170111623315,-0.1463714152022864
4.879999999999996,3.3235202755463105,0.2873022710589563,-0.150971039002073
4.890000000000001,3.858887320405951,0.2934526881677343,-0.1866907333414712
4.899999999999992,4.432242330077089,0.3265647858549139,-0.2258719331426518
4.909999999999997,5.071130824144952,0.3576019312321804,-0.2690454116307733
4.920000000000002,5.727618237860338,0.3833824687676005,-0.3316392360824475
4.929999999999993,6.396552314155902,0.3919462761710356,-0.3906850192997778
4.939999999999998,7.071960440054266,0.4114731267006712,-0.4439634031462124
4.949999999999989,7.71876138708329,0.4179151218986953,-0.4684115575695926
4.959999999999994,8.325215196837714,0.4074362732532705,-0.4833842140936034
4.969999999999999,8.892645357892164,0.4047322766783988,-0.4857230591478728
4.97999999999999,9.355772587827872,0.3945335070373487,-0.4956292919423311
4.989999999999995,9.726877492944276,0.3711137703629756,-0.4890917523477087
5.0,9.969973802780904,0.3603004218247913,-0.4820730671207813
5.009999999999991,10.148923691434538,0.3625112615332354,-0.4533185658400839
5.019999999999996,10.23996701791843,0.3788036983772284,-0.3800943730503102
5.030000000000001,10.23992594198891,0.3913201011757273,-0.2703602111124281
5.039999999999992,10.104121659278352,0.4086241100679555,-0.1283282707804131
5.049999999999997,9.86995320487442,0.4122201080257883,0.0418987259972591
5.059999999999988,9.543542884399526,0.4055608984358643,0.1921733254078517
5.069999999999993,9.098200844485469,0.4383162422455215,0.3272312976609098
5.079999999999998,8.539055357204452,0.4377848501543626,0.4348483135980615
5.089999999999989,7.94551979463329,0.4585760477610885,0.54433507592217
5.099999999999994,7.319082481711819,0.482361774806063,0.6193662881834101
5.109999999999999,6.59736189055809,0.523146813115328,0.6855704319537124
5.11999999999999,5.81706829357084,0.5228753743239594,0.6995232745562586
5.129999999999996,4.9807195162531865,0.4697401252365181,0.6483492178481979
5.140000000000001,4.09391798571486,0.372282096834706,0.5807224159383779
5.149999999999992,3.143042469528428,0.282704236691108,0.4929975282564143
5.159999999999997,2.1893137318781597,0.1714550015038439,0.3749237658433723
5.170000000000002,1.2642578901904042,0.0708856303184201,0.2771067876450706
5.179999999999993,0.3942385336496717,-0.0145243838417172,0.2098266400490365
5.189999999999998,-0.362308406310264,-0.116758351360386,0.1304169671967602
5.199999999999989,-1.0311629511709752,-0.2146886747824195,0.0846855488252739
5.209999999999994,-1.5507192114282369,-0.2884347690932425,0.0564418727584789
5.219999999999999,-1.902936651091316,-0.3289750909491155,0.0827186249474661
5.22999999999999,-2.161840592250733,-0.3422324964275588,0.1589509466324092
5.239999999999995,-2.310851682357805,-0.2910281171855048,0.2157344587695539
5.25,-2.3211050153735173,-0.240921371460025,0.2626711599795557
5.259999999999991,-2.2398515932401084,-0.1384000684428919,0.3174191134592786
5.269999999999996,-2.0354074494116667,-0.0838903804865044,0.3906272995266778
5.280000000000001,-1.6566827201931784,-0.0520887244240864,0.4699580923505006
5.289999999999992,-1.272700581240943,0.0075290943719316,0.5207510148881336
5.299999999999997,-0.8934023416317446,0.0547077955278503,0.5473730286101248
5.309999999999988,-0.558223629077721,0.1228015346391545,0.5339379772061523
5.319999999999993,-0.3060603941090991,0.2039705002959836,0.5532996226496623
5.329999999999998,-0.1221652138840854,0.2836878130633747,0.4992404381479925
5.339999999999989,-0.012782155316545,0.353636714018933,0.4026864045986159
5.349999999999994,0.0076104707680775,0.4328373875945079,0.3337511613995415
5.359999999999999,0.0274187123024359,0.4529689079333743,0.2841125794948598
5.36999999999999,0.2635616399184007,0.3802313358348925,0.2408436045803566
5.379999999999996,0.6200628846385766,0.3205577527103477,0.1675020000037839
5.390000000000001,0.5810509070412446,0.3388686516158404,0.17964186911925
5.399999999999992,0.2341182502184985,0.3804186833934342,0.2774679333290277
5.409999999999997,-0.0009740017685303,0.3572434779427155,0.3132465329961698
5.420000000000002,-0.0871572358431309,0.2964153000585879,0.3268314301534842
5.429999999999993,-0.1358690352683132,0.2846368672681087,0.3413502951771333
5.439999999999998,-0.2429068303522533,0.2858141977207072,0.3346983719941399
5.449999999999989,-0.4591517940843733,0.2906303626574781,0.3844857275126529
5.459999999999994,-0.7372100458154656,0.2876695956981673,0.4485997376464393
5.469999999999999,-1.0320227017480064,0.2748324331630301,0.5084022392885598
5.47999999999999,-1.2307096467245957,0.273632762004189,0.4906246701448499
5.489999999999995,-1.3306991554390843,0.2421601377544506,0.4346536227260593
5.5,-1.3155438176845493,0.2598381017441884,0.3694952585953265
5.509999999999991,-1.1960245470240354,0.2465043152259781,0.3138428963722383
5.519999999999996,-1.0017026166402505,0.2700210862897838,0.2718664269728881
5.530000000000001,-0.7466037352444813,0.2587779965645728,0.2628969913512916
5.539999999999992,-0.4799096885738355,0.2870446312683686,0.2536826565469121
5.549999999999997,-0.237695085403891,0.3207721178123819,0.2343935302041872
5.559999999999988,-0.0115834987635066,0.3552147789733405,0.2305231206520561
5.569999999999993,0.205401208508667,0.3845331939672636,0.2151442271136822
5.579999999999998,0.3702809006256624,0.3662858593108964,0.2346793745010838
5.589999999999989,0.5171109438647685,0.3459434615233485,0.2230805922104966
5.599999999999994,0.5872309869875597,0.2891071868910287,0.155659890398764
5.609999999999999,0.6420401241264052,0.2732637035263285,0.0644806295634838
5.61999999999999,0.6382202968612677,0.240389605539414,-0.049618287710604
5.629999999999996,0.6101290921647979,0.1825156298646542,-0.161058888259719
5.640000000000001,0.5973349162337803,0.1324397851811598,-0.2593271258729089
5.649999999999992,0.6149770875506684,0.0835850851562684,-0.347672953610426
5.659999999999997,0.6654525883947865,0.0183465603075066,-0.4024718782695218
5.670000000000002,0.6825429375629292,-0.0340560878269619,-0.4359910431489411
5.679999999999993,0.6853607722387773,-0.0794633266901173,-0.458874917210724
5.689999999999998,0.6063471738286459,-0.1208998179250159,-0.4632022404149351
5.699999999999989,0.4540072312631776,-0.1485255101142441,-0.4392214676702423
5.709999999999994,0.3304628328146969,-0.1875434668874145,-0.428991036625765
5.719999999999999,0.2144511450365106,-0.2081151676970904,-0.4303064154566371
5.72999999999999,0.1554351744250591,-0.2419010005378456,-0.4576876397139229
5.739999999999995,0.1194936280675743,-0.2752549903923901,-0.4808374589758213
5.75,0.071131661560441,-0.2823559768893404,-0.4924128263629619
5.759999999999991,-0.1324479180610372,-0.2253111919353435,-0.4758416700779911
5.769999999999996,-0.3828923373348042,-0.1611513523970689,-0.438327089076904
5.780000000000001,-0.6166657196043277,-0.0865467111295586,-0.3756818695721293
5.789999999999992,-0.7922045125650052,-0.0361267429616379,-0.3528072308432963
5.799999999999997,-0.8445688390118767,-0.0005824837344371,-0.3266327825115121
5.809999999999988,-0.8067319607286049,0.0105186727590018,-0.3308550955278579
5.819999999999993,-0.6401959670878545,0.0295218489475004,-0.3530548794671867
5.829999999999998,-0.4895343736089314,0.0407199482652857,-0.364242985872459
5.839999999999989,-0.3242070713050387,0.0704506066308781,-0.3623587106448636
5.849999999999994,-0.168583575171492,0.1145270058564213,-0.3225101995526106
5.859999999999999,-0.0172789772019645,0.1394406933756466,-0.2727934357234984
5.86999999999999,0.1080068072931926,0.1710201837507899,-0.2364340589402549
5.879999999999996,0.2303382019608358,0.2012570238659781,-0.2127954478161167
5.890000000000001,0.295734594191015,0.250442295523778,-0.225680525388465
5.899999999999992,0.3301165193382893,0.2986344935210079,-0.2287897053038875
5.909999999999997,0.3592963460526691,0.3379664508599405,-0.2415412010654279
5.920000000000002,0.3612929193362701,0.3386573308680999,-0.2316539821445128
5.929999999999993,0.379793117823437,0.3399775654127983,-0.186062337155321
5.939999999999998,0.3412912692826944,0.3433946244760357,-0.1395258930377283
5.949999999999989,0.2842107840238687,0.3590365169845884,-0.0988790384823677
5.959999999999994,0.1605987354271052,0.3569639146532744,-0.0410127851203396
5.969999999999999,0.0550409954209069,0.3412107660857092,-0.0089544098088799
5.97999999999999,-0.0721696466615656,0.3068670996191451,0.0215800755378678
5.989999999999995,-0.2156348872616764,0.2848702814647098,0.0378413312101852
6.0,-0.3941962679859671,0.2953115813817543,0.0555990642006093
6.009999999999991,-0.5774491910926651,0.3193491868409664,0.106597120029198
6.019999999999996,-0.676585371711732,0.3196542624101133,0.1487007944476676
6.030000000000001,-0.7020352241216627,0.3305812648810215,0.1923824218819024
6.039999999999992,-0.6782362317469368,0.339949428254802,0.237080624389305
6.049999999999997,-0.5865239428424349,0.3419144602375427,0.28341550937305
6.059999999999988,-0.4525771107965797,0.3271891941934388,0.3114610367322535
6.069999999999993,-0.2839698561983859,0.3086974620598132,0.3308130802714652
6.079999999999998,-0.0932318285296904,0.3251785269534376,0.330174826956722
6.089999999999989,0.0812846489972034,0.3266811937366327,0.3178009372984368
6.099999999999994,0.1783112196527687,0.3295682775254364,0.2983976483670533
6.109999999999999,0.2180110767058773,0.3505855969821659,0.2931418317595611
6.11999999999999,0.1973013557142533,0.3763541971536763,0.298158994311537
6.129999999999996,0.1204667771590952,0.3691631271658006,0.2910631560208749
6.140000000000001,0.0900503633159063,0.3403622592603427,0.2988808921934665
6.149999999999992,0.0674050223175539,0.3058447976950289,0.3004680773104646
6.159999999999997,0.041510089087357,0.2666349237188471,0.2975492797282265
6.170000000000002,0.0505886950520248,0.2061268450290371,0.2689625386674665
6.179999999999993,0.0566604912479679,0.1609598922068865,0.2568915439742786
6.189999999999998,0.0805584741424839,0.104656802038063,0.199093412599763
6.199999999999989,0.0692772082207083,0.0724130212962781,0.162554520688737
6.209999999999994,0.0064970636697835,0.0669778811699219,0.1282980314097643
6.219999999999999,-0.0750315789691433,0.068377167941274,0.0930398638497607
6.22999999999999,-0.1607386167493065,0.0862668334050448,0.1047704969426864
6.239999999999995,-0.2205819362698777,0.0609957940934071,0.112631614403864
6.25,-0.302659961358973,0.0588514793805714,0.1242098780679144
6.259999999999991,-0.3571152207253122,0.0587038244255883,0.1116889179864903
6.269999999999996,-0.3837650410183826,0.0445273906760288,0.0919312405687466
6.280000000000001,-0.3439216305719713,0.0221368490521284,0.0727094581022489
6.289999999999992,-0.2569270335469799,-0.0280607617673351,0.0494369903023278
6.299999999999997,-0.194074274949748,-0.0614049941184662,0.0339390355854891
6.309999999999988,-0.1072173880798008,-0.0811424821498521,0.0089425922326852
6.319999999999993,-0.0446371330565911,-0.1049586345096377,0.0147134675348232
6.329999999999998,-0.0429965743797179,-0.1164105800724241,-0.0020348941896106
6.339999999999989,-0.0901630565397011,-0.1191267053329733,-0.016681056976255
6.349999999999994,-0.1681221473393123,-0.1334180304884362,-0.0355219687015245
6.359999999999999,-0.2968950013668395,-0.1321748125591839,-0.045102274893249
6.36999999999999,-0.4023131766289977,-0.102287497189372,-0.0745110058922517
6.379999999999996,-0.4732027637949026,-0.1018904674489422,-0.1189769930430923
6.390000000000001,-0.5173509783635162,-0.103592614683687,-0.1398387830114523
6.399999999999992,-0.5149364876893905,-0.105574888435426,-0.1580735135024323
6.409999999999997,-0.4744891361312365,-0.0998265745250019,-0.1531905379945009
6.420000000000002,-0.4551935272815053,-0.1035472773829747,-0.1177391236679828
6.429999999999993,-0.463018654804776,-0.1289145420204914,-0.0656838850169594
6.439999999999998,-0.4875397312238885,-0.1511743948438027,-0.0204973022249289
6.449999999999989,-0.5051726822643904,-0.1736844987003321,0.036974073374496
6.459999999999994,-0.4899386587514994,-0.176146556548576,0.0781821783963428
6.469999999999999,-0.4585355153294309,-0.1871100155894987,0.1319043128372086
6.47999999999999,-0.4197872812641361,-0.1758468378899711,0.1957950355219353
6.489999999999995,-0.4092794219301399,-0.1553139949178508,0.2727730274662265
6.5,-0.3689999895508286,-0.15455531164739,0.3312098760921601
6.509999999999991,-0.2877661971259488,-0.1613906967797634,0.3778863190635817
6.519999999999996,-0.2449514669333136,-0.1800292700478137,0.3868066233681437
6.530000000000001,-0.2175471143676492,-0.1678796641996495,0.3547216091501364
6.539999999999992,-0.210710855504026,-0.15061640534585,0.3319274997146028
6.549999999999997,-0.283232062068403,-0.1352895599100113,0.2926939241630434
6.559999999999988,-0.396365457530035,-0.104818925555122,0.2862419995801934
6.569999999999993,-0.5481790684706198,-0.0774800643093631,0.2688364249873815
6.579999999999998,-0.6976392297625594,-0.0507751335872353,0.2598810418203296
6.589999999999989,-0.8223889557174396,-0.0613395735416941,0.2178531285277575
6.599999999999994,-0.8843339651739036,-0.0517684502642292,0.1773034071077369
6.609999999999999,-0.9043692706638214,-0.0635977899007391,0.1284637905152725
6.61999999999999,-0.912709691238054,-0.0513065415796505,0.0804112850087909
6.629999999999996,-0.8823726373445315,-0.0474813063113334,0.0399842164114827
6.640000000000001,-0.8262619541429046,-0.0738440599987502,0.0355688833656588
6.649999999999992,-0.7444760624611948,-0.1198698209173265,0.0514157848587227
6.659999999999997,-0.6437823026134325,-0.1482237883895875,0.0786206875080468
6.670000000000002,-0.6096535354897764,-0.1408292379607874,0.0988727168116253
6.679999999999993,-0.5845141374301869,-0.1149844063485639,0.0886135456675269
6.689999999999998,-0.5393784106110034,-0.0819895687681698,0.0777089807000578
6.699999999999989,-0.4465320880434975,-0.0349623331709506,0.0485674998620411
6.709999999999994,-0.2691066031962512,-0.0086157987224911,0.0048270582660894
6.719999999999999,-0.0840065428204394,0.0200973053775001,-0.0229039899544983
6.72999999999999,0.1132424246892846,0.0272217784077587,-0.0969136190862696
6.739999999999995,0.2723462430093775,0.0890392319548057,-0.1628928312947647
6.75,0.3952590727985993,0.1249467810138807,-0.2527203766541789
6.759999999999991,0.4715738162808414,0.1449041906904701,-0.3277063296787728
6.769999999999996,0.544098359447228,0.1578773702334559,-0.3733969495856794
6.780000000000001,0.6324468803796648,0.1263258406598637,-0.4029638880221898
6.789999999999992,0.69260232319707,0.0801930676349988,-0.4317760710286236
6.799999999999997,0.7012812288861553,0.0347310061734044,-0.4550348741379128
6.809999999999988,0.6191672134255918,0.0035854564286002,-0.4645814660213834
6.819999999999993,0.5094520681402587,-0.0352488396310817,-0.4586096482051877
6.829999999999998,0.405531004193474,-0.0199151161681395,-0.4614191406134907
6.839999999999989,0.3181229454866348,-0.0740227448247376,-0.4633053314942682
6.849999999999994,0.2983183309387318,-0.1378795670852232,-0.4305093177651356
6.859999999999999,0.2724854923759215,-0.2046351279069664,-0.3859386444516234
6.86999999999999,0.2315536804511261,-0.2666454498945155,-0.2851852467196172
6.879999999999996,0.142915138063278,-0.3015901090701202,-0.1994127747224136
6.890000000000001,0.0118369858565324,-0.3457284576276052,-0.1017592272112867
6.899999999999992,-0.1588359903082564,-0.3621783420297266,-0.0005325563566893
6.909999999999997,-0.3225414801928041,-0.3794774530587518,0.0700002592166511
6.920000000000002,-0.4065320442805026,-0.4286615112210627,0.11524759630151
6.929999999999993,-0.4726254397014511,-0.4731500274574127,0.15364955777657
6.939999999999998,-0.5714273528578336,-0.4707228162753102,0.1611037287631971
6.949999999999989,-0.6673551084527098,-0.4425406751795328,0.1615472932907052
6.959999999999994,-0.7645569011761155,-0.3902529579519489,0.1676892181567597
6.969999999999999,-0.8499012665659417,-0.3359344732685069,0.1626205435672424
6.97999999999999,-0.895629768822307,-0.3026897204473609,0.1470600755694047
6.989999999999995,-0.893491868614108,-0.2860268887920973,0.1169691765465193
7.0,-0.8968051708041518,-0.2579922198664635,0.1080035320276898
7.009999999999991,-0.9286148539940948,-0.2601572502556805,0.1031091684562438
7.019999999999996,-1.0026874474227034,-0.2775691088634682,0.0910565969335603
7.030000000000001,-1.1744450135130295,-0.2939645808099795,0.0820741423988589
7.039999999999992,-1.4437514508142986,-0.316360817576495,0.0661013722467799
7.049999999999997,-1.866762586838998,-0.3732518199245596,0.039824914032604
7.059999999999988,-2.45714850721922,-0.440112006263841,0.0260112764009228
7.069999999999993,-3.1661841254067484,-0.5394548598114979,0.0248724064414923
7.079999999999998,-3.981611218245614,-0.6599523782379085,0.0162231170657682
7.089999999999989,-4.922548845831051,-0.7896989791539476,0.0026954141679092
7.099999999999994,-5.883297072845469,-0.9048586800990676,0.0050333956663677
7.109999999999999,-6.841660724916948,-0.9828305806689784,0.0022246963137441
7.11999999999999,-7.829135743547979,-1.0044990965398533,0.0020902778278202
7.129999999999996,-8.818842247909275,-0.9786233907424252,0.0307935499025429
7.140000000000001,-9.761729208067742,-0.9324711518150152,0.0354547583137554
7.149999999999992,-10.582127578333894,-0.88111628504875,0.0493553369370689
7.159999999999997,-11.323307624199844,-0.7848572839399006,0.0930786696738827
7.170000000000002,-12.005002266051513,-0.6990908536616847,0.0930276740804335
7.179999999999993,-12.566965136873792,-0.619589372925859,0.1221358320484893
7.189999999999998,-12.909468848830562,-0.5028458630011633,0.1492811013554153
7.199999999999989,-12.965106013479916,-0.3428488542819369,0.1746313601369322
7.209999999999994,-12.725680400322895,-0.1937009934699552,0.1708842136161373
7.219999999999999,-12.18587395332976,-0.1614726716185914,0.1681352922955234
7.22999999999999,-11.360004561525722,-0.2473213204292587,0.1237475198590339
7.239999999999995,-10.30695131068444,-0.3262523017878124,0.057941615911811
7.25,-9.09726320171883,-0.3697326713973864,0.0274970399760338
7.259999999999991,-7.783469172105981,-0.343662294584361,-0.012461398767707
7.269999999999996,-6.488738603401388,-0.2674111245686144,-0.0299230380487574
7.280000000000001,-5.266546001215068,-0.214128961685897,-0.0385101829318688
7.289999999999992,-4.12520721491584,-0.1776472437528949,-0.0545262691578265
7.299999999999997,-3.097894223776674,-0.1695097164639055,-0.0666060999158084
7.309999999999988,-2.1446049331451125,-0.1766249423329303,-0.0509598753626931
7.319999999999993,-1.2811637421600846,-0.1392386520484151,0.0002642468021487
7.329999999999998,-0.5261403271522125,-0.1092629918566922,0.05395611300395
7.339999999999989,0.0925531767421298,-0.0688640367044678,0.0680660051844015
7.349999999999994,0.5490500174785324,-0.0276292793242493,0.057200789223384
7.359999999999999,0.8276304125498773,0.0313895725906713,0.0461195694907413
7.36999999999999,0.9539897480231536,0.1069121922105321,0.0298532596038462
7.3799999999999955,0.9754998109754066,0.1706698956596562,-0.004607997928636
7.390000000000001,0.9030934250995144,0.2350915976318741,-0.0298163686099738
7.399999999999991,0.8239063943639349,0.2630914873065042,-0.0688243055294045
7.409999999999997,0.7066745891369498,0.2845043699500513,-0.1015817764705921
7.420000000000002,0.5558794989705289,0.2869514874962552,-0.1482009897512806
7.429999999999993,0.4232499569290153,0.2935846715904153,-0.1911208399358132
7.439999999999998,0.2921746873172889,0.284899734963267,-0.2556963710205278
7.449999999999989,0.1831859615426263,0.2820922202241951,-0.289007526747644
7.459999999999994,0.1232177523808344,0.2649561355281013,-0.3253129854555545
7.469999999999999,0.1188911222934554,0.2694501297908355,-0.3133011999295692
7.47999999999999,0.2005814313435856,0.2566462669109258,-0.2941792325044124
7.489999999999995,0.3953508401063866,0.2652810003172026,-0.2601805600130405
7.5,0.6973932249529411,0.2760647566379715,-0.2095935485319361
7.509999999999991,1.063690870682044,0.2852775392572304,-0.1483415530649206
7.519999999999996,1.540959818109574,0.3251391390498512,-0.0607968928572858
7.530000000000001,2.1320987769901967,0.3483104873583327,0.0298893289163718
7.539999999999992,2.8476138565587084,0.4226970342800027,0.1551229214402312
7.549999999999997,3.695197045876025,0.5118341807456617,0.2507624564527497
7.559999999999988,4.622224388062112,0.6476299110696249,0.3957631960659158
7.569999999999993,5.672855429207247,0.8306339275964925,0.5010209697903963
7.579999999999998,6.754314130776957,1.0331960170488894,0.588125410304346
7.589999999999989,7.903627141604248,1.2421256018627564,0.6413178960803013
7.599999999999994,9.060036134913185,1.462506365387093,0.6955737855869587
7.609999999999999,10.165252881999736,1.6504821794301976,0.7230535376039505
7.61999999999999,11.175868150304032,1.8240279649031097,0.7187355300024227
7.6299999999999955,12.0800838616043,1.9404310070267925,0.7335971495747391
7.640000000000001,12.8321721113053,2.059293816813817,0.7352127253031397
7.649999999999991,13.33360745809417,2.186809098405728,0.7389086457705971
7.659999999999997,13.655982200744974,2.2866292018156917,0.7178181318193689
7.670000000000002,13.819489764913357,2.376876446823746,0.6429112808741362
7.679999999999993,13.8337475144471,2.4435412145292306,0.584413989993928
7.689999999999998,13.706850578058804,2.486644295026651,0.5359813325615093
7.699999999999989,13.594596037684251,2.3978485552518336,0.5469295468259623
7.709999999999994,13.241352740940815,2.337995454148745,0.6060061686856395
7.719999999999999,12.75805498284235,2.237834278518829,0.6540116682682893
7.72999999999999,12.158155395405087,2.1183619108918563,0.7390032559293699
7.739999999999995,11.437420260737117,1.9432479703201635,0.8303610093577912
7.75,10.635821300130246,1.748284284980669,0.8939085649618647
7.759999999999991,9.818355244466618,1.510241099543678,1.020224464509294
7.769999999999996,8.978960285400442,1.244137731141091,1.11924448992297
7.780000000000001,8.109882976571331,0.9695325769923374,1.1841436494573307
7.789999999999992,7.240209477158398,0.7554911185841142,1.2311438126772865
7.799999999999997,6.424458280487226,0.5771510772614915,1.2299976004791708
7.809999999999988,5.628779165580204,0.4287267433882633,1.2055984282033758
7.819999999999993,4.906884353536301,0.3043524149425434,1.150945750566161
7.829999999999998,4.266378867394398,0.1639115154827205,1.080946532254775
7.839999999999989,3.687637882581172,0.0349698577871393,0.974125573271854
7.849999999999994,3.106813099173657,-0.1040847651751434,0.8640704018312935
7.859999999999999,2.549321145841734,-0.2376289328363028,0.7764117243397517
7.86999999999999,2.0559700478001366,-0.3333226982953705,0.6625262610375847
7.8799999999999955,1.585582075736682,-0.4026474553812909,0.5457359523462987
7.890000000000001,1.170596137487995,-0.4732309024318771,0.4253519892821834
7.899999999999991,0.8189082035373522,-0.5321746887376475,0.332044092700458
7.909999999999997,0.514877929698372,-0.5732556920401755,0.2619661644441057
7.920000000000002,0.2735699454972541,-0.6281385894203168,0.200115527444792
7.929999999999993,0.1071147234181201,-0.646372333736589,0.1720540450403276
7.939999999999998,-0.0418225202692873,-0.6590801407927444,0.1409373097773826
7.949999999999989,-0.1339105879452214,-0.6706327000506946,0.111231524101409
7.959999999999994,-0.2119790684925895,-0.6585440874511022,0.1028983710398741
7.969999999999999,-0.264496577885172,-0.6306294869019692,0.1079417397931338
7.97999999999999,-0.3166731010616056,-0.5899577851058773,0.1353494247508309
7.989999999999995,-0.3221957560998281,-0.5287618283041549,0.1798928174957917
8.0,-0.3311081016369567,-0.4671310816594881,0.1928954896223414
8.009999999999991,-0.3504629595750807,-0.403166940336606,0.1906311795756262
8.019999999999996,-0.3658913190966259,-0.3579366013751647,0.1979418154792615
8.030000000000001,-0.3850614099377472,-0.3154976366973243,0.213559655608566
8.039999999999992,-0.4306396710196496,-0.2870544791374823,0.1953038504743888
8.049999999999997,-0.5234418867149668,-0.2521080817164565,0.1772095944502662
8.059999999999988,-0.6231096078836079,-0.2093230318977841,0.1749030571427332
8.069999999999993,-0.7629199049609403,-0.1748886399724447,0.1549470467976762
8.079999999999998,-0.8548373510687259,-0.1470198806931204,0.1549867939224017
8.08999999999999,-0.9789802990995612,-0.1031937648892264,0.1398499837067626
8.099999999999994,-1.0869131279189137,-0.0664351831936664,0.1140631606077993
8.11,-1.2219542079389851,-0.0482218997383005,0.137068429537344
8.11999999999999,-1.3795034424904673,-0.0174433750941275,0.1251567403145697
8.129999999999995,-1.5843176560816088,0.0170060449972115,0.1319679231894958
8.14,-1.839950172773865,0.0538585650551711,0.1631111257442004
8.149999999999991,-2.168230478549068,0.0682465017652996,0.1635828140827974
8.159999999999997,-2.627260987973913,0.1013431887996337,0.2162923042211308
8.170000000000002,-3.1703102654929296,0.1106563199852817,0.2822114066636925
8.179999999999993,-3.823692483397155,0.0862484831584607,0.3510954577136855
8.189999999999998,-4.613771940209253,0.050819652483777,0.4214524429293797
8.199999999999989,-5.499296896518749,0.0316436801181579,0.4805979207132367
8.209999999999994,-6.473901013600765,0.0489419384714513,0.5283438842633856
8.219999999999999,-7.514192818754273,0.0728090142746695,0.5522116179311171
8.22999999999999,-8.624335145264503,0.1107803028452758,0.618544359338796
8.239999999999995,-9.748992097582704,0.1262411834436103,0.6772630066518844
8.25,-10.842228997404286,0.1245020550518578,0.7500939403097412
8.259999999999991,-11.820170302904524,0.088591600089272,0.8462611500256707
8.269999999999996,-12.70459575500919,0.0405532744379837,0.9462959174841896
8.280000000000001,-13.47002905300588,-0.0067066075744924,1.0754115095584105
8.289999999999992,-14.137525828966975,-0.0841729987990292,1.2229197789587103
8.299999999999997,-14.715876990360943,-0.1887451883108206,1.383731624726589
8.309999999999988,-15.142663382569836,-0.3022516557913263,1.5327185964696657
8.319999999999993,-15.445477302439691,-0.3987234402242313,1.6202986112926558
8.329999999999998,-15.58410191484908,-0.5119997233836506,1.6328205810223289
8.33999999999999,-15.544283838333296,-0.6209992547165771,1.581207185356459
8.349999999999994,-15.20154268239197,-0.7090234174599989,1.5350666177291146
8.36,-14.6696043892719,-0.7489834428740506,1.434593203006823
8.36999999999999,-13.966819539025314,-0.7040806630340538,1.2454367072790784
8.379999999999995,-12.99070070317166,-0.6236243678008216,1.0246452099312728
8.39,-11.818199086594923,-0.5222015737742408,0.8230164934464284
8.399999999999991,-10.442701097706117,-0.4594363245315988,0.6737717670804318
8.409999999999997,-8.858935330695985,-0.4140731540898226,0.5888181545301124
8.420000000000002,-7.201463906667614,-0.3011678926379706,0.4837014785407507
8.429999999999993,-5.544359489545901,-0.1286925141981814,0.3993915829065035
8.439999999999998,-3.951415886935684,0.1028102446784893,0.318659790444646
8.449999999999989,-2.472331399715595,0.3492815033990094,0.26352934826247
8.459999999999994,-1.140258282469678,0.5991979856562043,0.2046902718242756
8.469999999999999,0.0601587450333652,0.8043780676304579,0.1091432876943224
8.47999999999999,1.1079742424573025,0.9504583237973632,0.0348793853781279
8.489999999999995,1.9866322135118428,1.0248490887437935,-0.0798091540714392
8.5,2.6246296414392174,1.043163045724495,-0.1835934642526911
8.509999999999991,3.0359195640865355,0.990951725045338,-0.2768967439249388
8.519999999999996,3.238107605077826,0.942068415451484,-0.3634486670828739
8.530000000000001,3.229609607565674,0.8846172176289954,-0.4228337944192151
8.539999999999992,3.03364374798867,0.8041692834580882,-0.4941029077643486
8.549999999999997,2.696820292833158,0.7333206112901645,-0.5442315696974189
8.559999999999988,2.307563249705884,0.6466813758000224,-0.6011027934846598
8.569999999999993,1.8787745394721085,0.5301426247930098,-0.6354251193808919
8.579999999999998,1.4809628976188791,0.3955099195873908,-0.6614234663548936
8.58999999999999,1.0728593447423944,0.2823122950995571,-0.6700123169174986
8.599999999999994,0.7282235279912518,0.1920161974968746,-0.6562220395757771
8.61,0.4314907229388794,0.109846868805466,-0.6437080254808044
8.61999999999999,0.2265252072414258,0.0573460785794043,-0.6149059940812588
8.629999999999995,0.0737445394028988,0.0590845887418735,-0.5622376060262865
8.64,0.1062327864080472,0.0918303830690642,-0.4986811339990109
8.649999999999991,0.3089670608080052,0.1652795928311035,-0.4525083996668252
8.659999999999997,0.6639785048887876,0.2338809353066848,-0.3850402944744975
8.670000000000002,1.182324136464216,0.313789341529068,-0.3248751479864226
8.679999999999993,1.794374785326916,0.3837523543979719,-0.2589098419141218
8.689999999999998,2.5746117431684388,0.4419983562575064,-0.2129733364915886
8.699999999999989,3.423724637114964,0.5316517979296822,-0.1370136776865151
8.709999999999994,4.332878307869504,0.6296983149686597,-0.0990431009397298
8.719999999999999,5.25257494389351,0.741519205967981,-0.0583656149369486
8.72999999999999,6.214798285410643,0.8522408718896384,-0.0326014474494018
8.739999999999995,7.149409340370787,0.953361820920737,-0.0010599338872108
8.75,8.02096636927918,1.033518548435122,0.0219114263750462
8.759999999999991,8.822618215330303,1.1133315887465791,0.0235674790266766
8.769999999999996,9.492996005791866,1.1358214520463497,0.003624984276138
8.780000000000001,10.04665486273531,1.130401731176211,0.0106815153943315
8.789999999999992,10.473902287952493,1.1207475893140375,0.0038710780323626
8.799999999999997,10.79121869593894,1.0893443284009443,0.005470474212033
8.809999999999988,11.01030897304794,1.0336579418790903,0.0333555702023762
8.819999999999993,11.124964841773515,0.991073366150805,0.0565970143479079
8.829999999999998,11.166979708878,0.974743926913508,0.1046115924727147
8.83999999999999,11.179892933171471,0.9630004144174278,0.1486759801941624
8.849999999999994,11.157046557044316,0.9690835219408698,0.1936702665107647
8.86,11.066551541015766,0.9877289456539884,0.2538878789577997
8.86999999999999,11.047077757271714,0.9645903395051612,0.3267497184829252
8.879999999999995,10.934106731757783,0.9982362793105364,0.3770355257872659
8.89,10.757066493235095,1.0341131170646196,0.4208440844459115
8.899999999999991,10.517941519326028,1.0604112136099926,0.4235724518293955
8.909999999999997,10.20912075907772,1.0979290337558754,0.4217164062852213
8.920000000000002,9.836871980940543,1.0756714669169811,0.4661808312371603
8.929999999999993,9.340397678850756,1.0144587256906012,0.4767894172648951
8.939999999999998,8.752774957297735,0.9062715899719588,0.516302928994113
8.949999999999989,8.068430515881685,0.7746729620453251,0.5391147049304051
8.959999999999994,7.375206297521178,0.6146652866360273,0.5782887952990069
8.969999999999999,6.638086512205843,0.4657737146350667,0.597841284626931
8.97999999999999,5.968508866938734,0.3079216977476834,0.6472161703752561
8.989999999999995,5.354656341443992,0.2029577589484407,0.6598322715050415
9.0,4.810094019946602,0.083277217491405,0.6573710403333903
9.009999999999993,4.317406098685492,0.0188891834754719,0.6383854357299593
9.019999999999996,3.869806669619268,-0.0690275486411606,0.6070857636520591
9.03,3.4330423815227715,-0.1446305630063477,0.5612852313853252
9.039999999999992,2.982652862467686,-0.2133479319684632,0.4790655575152295
9.049999999999995,2.5369829030145232,-0.2950217343441524,0.3973794195825118
9.059999999999988,2.092767381693933,-0.3625326142357724,0.2611427425521272
9.069999999999991,1.662225636443453,-0.4155946070661886,0.1406717375755679
9.079999999999998,1.2503999499982312,-0.4411336229980757,0.0128675076014371
9.08999999999999,0.8634314331978777,-0.4538606054595307,-0.0718164126202346
9.099999999999994,0.4919450469323823,-0.4836390535410278,-0.1427982584184701
9.11,0.1614989060319517,-0.517024945163621,-0.1885328550722919
9.11999999999999,-0.1406922724950585,-0.5293276296652543,-0.1859085818819108
9.129999999999995,-0.4160307785254552,-0.5452027619322796,-0.1640396628130191
9.14,-0.6761309693038321,-0.52647368300912,-0.1603944762785389
9.149999999999991,-0.8973545187628967,-0.5056361842996162,-0.1480496159726439
9.159999999999997,-1.065238852348707,-0.4697153545510522,-0.1125438099810084
9.170000000000002,-1.2000401648702448,-0.4037500335991464,-0.0981719735770926
9.179999999999993,-1.3030924465751343,-0.3388593901044283,-0.0692224593690441
9.189999999999998,-1.3687141227316466,-0.3026294187243376,-0.0274376214730668
9.199999999999989,-1.4475538651850277,-0.2689127237286181,0.0111943888638352
9.209999999999994,-1.4893960765865726,-0.2337829063102247,0.0418157070375474
9.22,-1.5335017051703246,-0.2122388070436894,0.0839731415076508
9.22999999999999,-1.5930723665939646,-0.2079300634362267,0.073722494654363
9.239999999999997,-1.6083752107377915,-0.1801071858291023,0.0822803418263044
9.25,-1.6416082582692273,-0.1716438452500341,0.0770468322330669
9.259999999999993,-1.686608557676358,-0.1482508945834079,0.0513009517763686
9.269999999999996,-1.739294654747643,-0.1540569107165753,0.070472427220615
9.28,-1.8795910917456269,-0.1531730010346806,0.0582771859015346
9.289999999999992,-2.0765356858756467,-0.1371999038273295,0.0785066383772768
9.299999999999995,-2.341193092370518,-0.1395717185108869,0.0851761804673911
9.309999999999988,-2.7391112564844917,-0.1801286615985887,0.1171727990505736
9.319999999999991,-3.3054566199742,-0.1878958694550654,0.1636903516065687
9.329999999999998,-4.041008902728598,-0.2405700143274233,0.2131930217903634
9.33999999999999,-4.941407005553367,-0.2979728084390241,0.2625178758770948
9.349999999999994,-5.981291354300993,-0.3629162334818536,0.3459122257219933
9.36,-7.139055458714286,-0.4411901745168636,0.4501550360244229
9.36999999999999,-8.331652281741508,-0.5081537255920122,0.5481637567174915
9.379999999999995,-9.545801714792852,-0.5603320500747007,0.6525159132503938
9.39,-10.7087160312534,-0.5856173443739926,0.7554200184077927
9.399999999999991,-11.8039862820688,-0.6661062951072262,0.8197840138267991
9.409999999999997,-12.79070595808566,-0.7490206562541173,0.912302497771643
9.420000000000002,-13.673738660016124,-0.8569658791750429,1.0005513150335998
9.429999999999993,-14.429151253621926,-0.9670803937275174,1.0985221124625768
9.439999999999998,-14.991635579869111,-1.0809748405395905,1.2377443956565548
9.449999999999989,-15.40702520836292,-1.1796246830134416,1.3470013363174251
9.459999999999994,-15.61867007495193,-1.2871649080112415,1.445599652555399
9.47,-15.641206502277798,-1.368154424564913,1.4830343058687183
9.47999999999999,-15.482989131774202,-1.4057650653039857,1.4503529495197391
9.489999999999997,-15.163216970376489,-1.3844597907050482,1.3282737842768182
9.5,-14.545146027641287,-1.4115035386247812,1.2111926140584286
9.509999999999993,-13.675459870635075,-1.3172298627205543,1.0787873627171247
9.519999999999996,-12.63968890635488,-1.167394243893196,0.9275802856021385
9.53,-11.450961080862491,-0.9031969262550829,0.7843309885830202
9.539999999999992,-10.097642532647376,-0.6170628100643685,0.7016745004009055
9.549999999999995,-8.560391123829294,-0.3509394601030666,0.6310269114976563
9.559999999999988,-6.869268519160249,-0.0900933736672521,0.5551526700368149
9.569999999999991,-5.138182670519942,0.1561393084089201,0.5004917257352226
9.579999999999998,-3.433848869744975,0.459271232201229,0.4640934095095305
9.58999999999999,-1.866317656888136,0.7171942949418761,0.4196141430272868
9.599999999999994,-0.4461528009628691,0.9778050750045952,0.3472014250726726
9.61,0.759022982318782,1.142495141791586,0.2687023948381338
9.61999999999999,1.765599176730798,1.242743490705752,0.1591151334568339
9.629999999999995,2.4921780785570253,1.2502427412222263,0.0418255488402339
9.64,2.980424530344484,1.2067989350625632,-0.0579215865089141
9.649999999999991,3.268914046381352,1.1240485903354984,-0.1754511373618583
9.659999999999997,3.2903876770398544,0.9752581740315605,-0.229162768711072
9.670000000000002,3.1187998666185157,0.8279635371639431,-0.2988957277519184
9.679999999999993,2.800615748795054,0.6754240433185488,-0.3649845443683034
9.689999999999998,2.3752317247867305,0.5237005018006353,-0.4086733435883445
9.699999999999989,1.8865802671487664,0.3813409028632071,-0.4528952689301788
9.709999999999994,1.417258416227714,0.2572124096653203,-0.4967775177176299
9.72,1.0193868700813635,0.1648367832580839,-0.5152193448657477
9.72999999999999,0.70742149319704,0.038606611456592,-0.523666482754404
9.739999999999997,0.5077240421526793,-0.0433434535221742,-0.5182085101143886
9.75,0.3768665507275635,-0.101230023175938,-0.4748153012175279
9.759999999999993,0.368739061939099,-0.1448322912944186,-0.4484577772120875
9.769999999999996,0.4542993265418153,-0.1364301768725095,-0.4253425313244941
9.78,0.6443988851804521,-0.1217063600319476,-0.3978747276942072
9.789999999999992,0.9520529717341366,-0.0640320746040448,-0.3429381306650548
9.799999999999995,1.3578411764107436,0.0220689278254422,-0.2876955438752975
9.809999999999988,1.9254412330069457,0.1290295016881029,-0.2446373873393073
9.819999999999991,2.586530775719329,0.2377848901476958,-0.2037254283402593
9.829999999999998,3.3434808668138727,0.3593033532069017,-0.1686704750076777
9.83999999999999,4.175442079719601,0.5052619596465417,-0.1219316212503516
9.849999999999994,5.065459824729722,0.6234419852900441,-0.1266395095844354
9.86,5.944880375346616,0.7376470805782546,-0.1262940960683296
9.86999999999999,6.8015051377862985,0.8327350768484197,-0.1151943080328735
9.879999999999995,7.626116863733683,0.9390624669628616,-0.1419361849256942
9.89,8.383909294062082,1.002788632278893,-0.1503050208420154
9.899999999999991,9.08494390066606,1.0706179645730505,-0.1666764083022908
9.909999999999997,9.723238244048147,1.1162223488202836,-0.1930537180828622
9.920000000000002,10.27824898719503,1.1320338596385764,-0.209154207020814
9.929999999999993,10.76162439724544,1.1566788487170976,-0.2114281851691798
9.939999999999998,11.068559338337332,1.1576695899434375,-0.213061723735186
9.949999999999989,11.287674680145576,1.1757768611505668,-0.2359140654080856
9.959999999999994,11.434913850877582,1.1821418349572312,-0.2463695476656968
9.97,11.46711192871956,1.1728453406018111,-0.2672344305865142
9.97999999999999,11.38529457463654,1.119274324542625,-0.2720047194525313
9.989999999999997,11.236871170347502,1.061749617211438,-0.2251410933880923
10.0,11.028191422665136,0.9662274460575184,-0.1608691613515141
10.009999999999993,10.6792774007917,0.8489044813238041,-0.0801036929034509
10.019999999999996,10.18747433216971,0.7500960215488722,0.0396287622369376
10.03,9.51092497024408,0.635103667822594,0.1601423066100736
10.039999999999992,8.708966547441241,0.4741612493854067,0.300565157116094
10.049999999999995,7.750738578743725,0.302422690097255,0.4349179209400661
10.059999999999988,6.707459214641179,0.0917112227420956,0.5248573600493514
10.069999999999991,5.627120918940825,-0.1310298355797008,0.5670240258138928
10.079999999999998,4.532806904553443,-0.3514077442859211,0.5752572604801146
10.08999999999999,3.463416470707898,-0.5277958501299532,0.572313701000668
10.099999999999994,2.463227876860462,-0.6494978829629066,0.5307304829413017
10.11,1.5745869283975469,-0.755470061471489,0.4563832311702959
10.11999999999999,0.8015334272707747,-0.8178033270444658,0.3704382738887185
10.129999999999995,0.1013441590321201,-0.8539433137743185,0.2835638761034005
10.14,-0.5035225550027789,-0.8860025232423869,0.1968126922463108
10.149999999999991,-1.0527294882573257,-0.8718386353322264,0.0841427121531201
10.159999999999997,-1.4719189508081678,-0.8318347764440472,-0.0068246423351659
10.170000000000002,-1.797152119474121,-0.7326417216387652,-0.1140588230445683
10.179999999999993,-1.9526708874412408,-0.6409752531004628,-0.1729298221200801
10.189999999999998,-1.9719492845937,-0.5395837926143833,-0.2053020749169062
10.199999999999989,-1.9196761038707275,-0.4467885003497387,-0.2304071978180079
10.209999999999994,-1.7734929499832606,-0.3379476374230221,-0.2066123888308186
10.22,-1.6373075443656329,-0.2774058129355725,-0.1605593705967045
10.22999999999999,-1.5119963338992686,-0.2248245258959324,-0.1042768609383059
10.239999999999997,-1.4190273935136368,-0.1833081249235747,-0.0584857698218394
10.25,-1.3674983440241215,-0.1620019676090232,0.0120192465563383
10.259999999999993,-1.3692453654119736,-0.1597046890494909,0.049514026323514
10.269999999999996,-1.4116443531837606,-0.1862205361716345,0.1195633318771701
10.28,-1.4550794871171937,-0.20526694922817,0.1943405057695856
10.289999999999992,-1.4905152745502912,-0.2460850125242343,0.2533634260718321
10.299999999999995,-1.546901196355912,-0.2618864196649475,0.3127204441484343
10.309999999999988,-1.5972332142001588,-0.2729524510593784,0.3523779449383092
10.319999999999991,-1.650772552449658,-0.2765617692393117,0.3673052862380058
10.329999999999998,-1.667713916009966,-0.2818977384544977,0.358643224940625
10.33999999999999,-1.6508716328589357,-0.2865530825084363,0.3589388867524031
10.349999999999994,-1.638162653217387,-0.2805021501120849,0.3718843839150632
10.36,-1.5997387262038398,-0.2757805962610667,0.3807289711582909
10.36999999999999,-1.538776299301127,-0.2451041153115476,0.3848696193287808
10.379999999999995,-1.4868190549280786,-0.2137764005289349,0.386588593441164
10.39,-1.4161907230853206,-0.1820606072857433,0.4037515267718865
10.399999999999991,-1.351692566634693,-0.1658051698225,0.4114978535028726
10.409999999999997,-1.3297495568858728,-0.1488804813825265,0.4653286721516789
10.420000000000002,-1.3420968310735348,-0.1081353737367738,0.513173504329758
10.429999999999993,-1.3686740952744572,-0.0644334377333042,0.5539978071044758
10.439999999999998,-1.4157164038498866,-0.0088076371626398,0.6044304040881664
10.449999999999989,-1.443194616731291,0.07922315155281,0.6537469138141833
10.459999999999994,-1.4780126259637467,0.169251304004818,0.6996799103624368
10.47,-1.5250505290246297,0.2709612213506719,0.7471083571671082
10.47999999999999,-1.58667904929448,0.4198574062679532,0.7960849689871443
10.489999999999997,-1.6749960022664734,0.5457198135223057,0.8302790304068761
10.5,-1.7732057050352767,0.6948974909239656,0.877079052772992
10.509999999999993,-1.9297059979668847,0.857566300982728,0.9064320831669626
10.519999999999996,-2.1340648376288174,1.0301787497040322,0.9392155986729936
10.53,-2.400252350929773,1.220010834542575,0.967491758662469
10.539999999999992,-2.7331037065824373,1.3998899493865182,1.0075059058628113
10.549999999999995,-3.174937690081423,1.5607120192648958,1.0521126438543955
10.559999999999988,-3.749517270397547,1.7318690374532262,1.0678566802300191
10.569999999999991,-4.415890130177017,1.8515768167488091,1.072411898307848
10.579999999999998,-5.124909790181361,1.9170210735940116,1.0544728853447616
10.58999999999999,-5.874805007839494,1.942698406854439,1.044149747098658
10.599999999999994,-6.600425131214184,1.9019065584369088,1.012467568262771
10.61,-7.3398401776925395,1.842990293588162,0.9690940823748592
10.61999999999999,-8.004125250142856,1.7199684584142658,0.9580677482525176
10.629999999999995,-8.569169934234203,1.5514264298430211,0.971760767757104
10.64,-9.041293514931471,1.3416120538211038,0.9770092129902548
10.649999999999991,-9.41730397029843,1.0482636092544064,0.983189050294649
10.659999999999997,-9.73513855164669,0.7147612561838352,0.9161649500033552
10.670000000000002,-9.974283178489914,0.3929885943370483,0.7357503023583796
10.679999999999993,-10.115943995815597,0.1108289484453675,0.5175594730626376
10.689999999999998,-10.116244434948486,-0.0678281724090734,0.2254890050565043
10.699999999999989,-10.007765937009228,-0.1225529718703298,-0.0961192045808868
10.709999999999994,-9.761851276406675,-0.1863524434930569,-0.3746896217831063
10.72,-9.396783775407872,-0.1864949021336909,-0.5773826283926825
10.72999999999999,-8.973266005938855,-0.1606211580872477,-0.7836047349801697
10.739999999999997,-8.475945948461456,-0.0621485294364982,-1.002319586518882
10.75,-7.897924888194797,0.103000650445828,-1.2467568552196255
10.759999999999993,-7.284816649361025,0.3081389812169585,-1.4496660870880842
10.769999999999996,-6.654649557537108,0.50215409311277,-1.5845145593375711
10.78,-5.956738999217116,0.6685673262196979,-1.6633720828965826
10.789999999999992,-5.209612129463154,0.7869943228710123,-1.6926062355307627
10.799999999999995,-4.4477368489880496,0.880391243072806,-1.6819087051082084
10.809999999999988,-3.655188267164087,0.9843688362680736,-1.6433027963924391
10.819999999999991,-2.8514029977293336,1.0456462716522887,-1.5618608998254444
10.829999999999998,-2.040741943680448,1.0597080417052012,-1.4356616153109072
10.83999999999999,-1.2215584522194247,1.0576254651983872,-1.289820097436445
10.849999999999994,-0.4334263445413569,1.0577333234376631,-1.1264172621632094
10.86,0.2687010025128107,1.028087874467354,-0.9772796705692102
10.86999999999999,0.8875338748138273,0.9914748910347794,-0.8372460766867852
10.879999999999995,1.3936589184651027,0.9682250590083968,-0.7260332921252369
10.89,1.7589610004414122,0.9422819696161842,-0.611577232792615
10.899999999999991,2.0073093395157304,0.8802319649427972,-0.491492831530703
10.909999999999997,2.1419724297560685,0.8039367367402365,-0.3750087816388736
10.920000000000002,2.20280220597987,0.7163571887711309,-0.2897270315604208
10.929999999999993,2.185498366210494,0.6231343418293578,-0.210572427175857
10.939999999999998,2.0851999331883486,0.5247667125044309,-0.1087972971489778
10.949999999999989,1.930713761200684,0.4197616051246769,-0.0534455951654688
10.959999999999994,1.7456983971010993,0.340569542514358,0.0045619088976697
10.97,1.5482939410053214,0.2537101607045562,0.0248437939649635
10.97999999999999,1.3422315306326722,0.164831418227161,0.0467022914140921
10.989999999999997,1.1869512069221344,0.0635197184301273,0.0789192462987577
11.0,1.0842399444725972,0.0051353092271834,0.0814470480504888
11.009999999999993,1.1126117698269034,-0.0230040135938506,0.121582342694946
11.019999999999996,1.248668807408157,-0.0176977348457257,0.1466933979867061
11.03,1.556666318679922,0.0076055629825589,0.1982291121038787
11.039999999999992,2.0152563493305418,0.0682410606456158,0.2072659439633526
11.049999999999995,2.605915414282034,0.171710978405812,0.2450233903654565
11.059999999999988,3.371722783319933,0.2460305466818528,0.2937238841162095
11.069999999999991,4.253958308665131,0.321936530295395,0.3935709371019165
11.079999999999998,5.243186786315026,0.3899713189446416,0.4943178625204907
11.08999999999999,6.342740311438711,0.4868973301415514,0.5924756592316592
11.099999999999994,7.473482118553398,0.5980907291992368,0.6729667791625766
11.11,8.64116661268557,0.7076555870804979,0.7617265457541113
11.11999999999999,9.779268785712109,0.816354417175188,0.8952548489752093
11.129999999999995,10.829800241412809,0.9452944509727108,1.018998852166535
11.14,11.68906865448389,1.0071301643293271,1.1807033642016618
11.149999999999991,12.314497523463617,1.03796093369619,1.3110792270591225
11.159999999999997,12.657774750081654,1.080214516152286,1.4228150138362723
11.170000000000002,12.708183945707272,1.1328944064851874,1.4689549326653295
11.179999999999993,12.51289136523179,1.1804359493162822,1.475639939738277
11.189999999999998,12.158989080601112,1.2449333208475966,1.4257834040534705
11.199999999999989,11.660591047076206,1.3198492930695116,1.323517692313705
11.209999999999994,11.08842877262166,1.2897853251227922,1.1940385331572572
11.22,10.274576170614449,1.2616653292017894,1.034591591500888
11.22999999999999,9.204690437481483,1.1471464257920658,0.8713611433989398
11.239999999999997,7.983529148964557,0.9689985192491978,0.7044329587013153
11.25,6.567023107687167,0.6627140735577024,0.5251224572331343
11.259999999999993,5.0865960366371405,0.2810507911649704,0.3798041851501693
11.269999999999996,3.627896596848849,-0.1540802132914281,0.2995734262112586
11.28,2.227369538170227,-0.5421410150610778,0.2303163721152416
11.289999999999992,0.9162946507720906,-0.8316044957042353,0.1291404944586087
11.299999999999995,-0.2576635269577758,-1.05640509654854,0.0377836172643294
11.309999999999988,-1.2092370397420489,-1.2270406555503737,-0.0529581589350242
11.319999999999991,-1.9690790220547147,-1.3229656130994127,-0.086404074991187
11.329999999999998,-2.5334087758149204,-1.330128917825076,-0.1389716578311682
11.33999999999999,-2.878061561647996,-1.2935405716058592,-0.1627268073307877
11.349999999999994,-2.991882069897825,-1.2074024721919852,-0.1678490053599396
11.36,-2.893129361554585,-1.089983202525626,-0.1390659796005087
11.36999999999999,-2.6077411812263693,-0.9554509723010256,-0.1044795708807676
11.379999999999995,-2.199114715512307,-0.8327731857843799,-0.0737991349349249
11.39,-1.7546854850856082,-0.6918754323517265,-0.0376604987743951
11.399999999999991,-1.2900011336391917,-0.5558662757391797,-0.009321940601672
11.409999999999997,-0.8594334203925911,-0.4288095734585254,-0.0017576656342827
11.420000000000002,-0.5026159475300517,-0.3267871477614745,0.0334852069620597
11.429999999999993,-0.2314357736373642,-0.242009732441327,0.0590014886082807
11.439999999999998,-0.0428440773018146,-0.1798602336992759,0.0579874595303717
11.449999999999989,0.0599124444982683,-0.1531641750485494,0.0477078787850817
11.459999999999994,0.1217136093206309,-0.1362149183597493,0.0363104748373852
11.47,0.1163398148347687,-0.1278234208605959,0.0148710907755714
11.47999999999999,0.0713132165163161,-0.1212610527347237,-0.0002175445210937
11.489999999999997,-0.0082244741613886,-0.117367369994049,-0.021785982061933
11.5,-0.1155000613698891,-0.1245974527248038,-0.0207528847404975
11.509999999999993,-0.1929458381455177,-0.1269144603594014,-0.034952758570308
11.519999999999996,-0.2750181908827112,-0.1144190875906566,-0.0496686707416587
11.53,-0.3159119084553269,-0.0868653506901775,-0.062546384929825
11.539999999999992,-0.3263888695979044,-0.0653529216317035,-0.0375012925088909
11.549999999999995,-0.3281590634766751,-0.0435854154398298,-0.0057574099606376
11.559999999999988,-0.3025579443376846,0.0061151606252461,0.002866631433584
11.569999999999991,-0.272692283161591,0.0431986394945325,0.0498594377291193
11.579999999999998,-0.2560183626027806,0.0685589369855745,0.0571018743932727
11.58999999999999,-0.2026257630603102,0.0883334859010317,0.0843276210019304
11.599999999999994,-0.1806100935497632,0.1137307631161117,0.0767040726842338
11.61,-0.1588880518399004,0.1385371198079565,0.0891019519701576
11.61999999999999,-0.0908416655383867,0.1572995839373381,0.0812470701814569
11.629999999999995,-0.0641595288026808,0.175114383823574,0.0724497159758554
11.64,-0.0186175295171743,0.1896187082881103,0.0841980482317729
11.649999999999991,0.0147177055978054,0.170062284537588,0.0701306785071756
11.659999999999997,0.0277378112532694,0.1697837988993076,0.0662095647396921
11.670000000000002,0.0009060132438846,0.1541590951780651,0.0526227075487581
11.679999999999993,-0.0171100175754392,0.127082926756711,0.0596400022569144
11.689999999999998,-0.0218238398979421,0.1087500096313625,0.0573777743873936
11.699999999999989,-0.035238791051798,0.0757359812802609,0.0547200276389755
11.709999999999994,-0.0426546813021176,0.0597768600464954,0.0567948274039611
11.72,-0.0324987911005995,0.054712950232239,0.0671884847017341
11.72999999999999,0.0018817397657035,0.0541399107627729,0.0528071635832477
11.739999999999997,0.0343973098257079,0.0561972775360528,0.0498745645342828
11.75,0.0394606726644119,0.0535488951741862,0.0345599172736851
11.759999999999993,0.0454333281392358,0.0504568657677384,0.0346922642505617
11.769999999999996,0.0386903364883676,0.0528280994724907,0.0289579496293705
11.78,0.0405425823099649,0.0568654627140672,0.0135434993731854
11.789999999999992,0.0449782276355367,0.0523269569279429,0.0268769347977562
11.799999999999995,0.0548224371361752,0.0634855051723096,0.017076048154978
11.809999999999988,0.0755706000871629,0.096122167749349,-0.0124763510718548
11.819999999999991,0.0923143514196721,0.1075709328532305,-0.0043119606335916
11.829999999999998,0.1088943116230145,0.1334339005770312,-0.0023091063879779
11.83999999999999,0.1278386352683906,0.1665973135964548,-0.0220388037557185
11.849999999999994,0.1319439157288199,0.2306097818705014,-0.0381011526695959
11.86,0.1186523187724271,0.337269968489397,-0.0564336815829842
11.86999999999999,0.0374562589022999,0.5316975913507841,-0.1104466533169475
11.879999999999995,-0.1073442957483741,0.8177162702962266,-0.1750434374375255
11.89,-0.2897387465413324,1.2041772881547572,-0.1959762674935949
11.899999999999991,-0.4759805072778561,1.697788741331484,-0.1860061358123663
11.909999999999997,-0.6703006828353211,2.292742453560012,-0.0664176354546735
11.920000000000002,-0.8849601026781599,2.975240733487315,0.0655451333836168
11.929999999999993,-1.0724798523068582,3.7685270884664592,0.3057452939977718
11.939999999999998,-1.2535115314986642,4.590250915819763,0.5798685908160854
11.949999999999989,-1.4015998865148005,5.429052206399954,0.8463138283283836
11.959999999999994,-1.5480181514819478,6.2556997080007335,1.070799538986848
11.97,-1.715450642202673,7.021995007061094,1.254929407850322
11.97999999999999,-1.910819760779163,7.688965652535733,1.3746158148074616
11.989999999999997,-2.141720321066697,8.265696272169999,1.466426020709552
12.0,-2.385025334715297,8.744510751301526,1.5200359685336786
12.009999999999993,-2.5796806546721247,9.083330472903327,1.5081347986176492
12.019999999999996,-2.695408260959393,9.291550729422848,1.495319901605327
12.03,-2.7949591668263163,9.297163650359662,1.4158846510795204
12.039999999999992,-2.822527792189341,9.05184538796839,1.2151938975153591
12.049999999999995,-2.7596109969910594,8.547069660170097,0.9333517001769356
12.059999999999988,-2.576607700651264,7.915481823912203,0.5880132767544197
12.069999999999991,-2.269029924837162,7.171613428798282,0.2949365378072214
12.079999999999998,-1.8886616012416948,6.451174079521493,0.1075189929787142
12.08999999999999,-1.4293469941503665,5.84134678684264,0.0159547477268424
12.099999999999994,-0.9403709398905832,5.325465793615772,0.0491018889536657
12.11,-0.5840414351266141,4.831005095832031,0.1200434976440868
12.11999999999999,-0.369426766137257,4.330826463648727,0.1461597325260215
12.129999999999995,-0.2717136930979156,3.817997406106932,0.1539658465424422
12.14,-0.2532414063792658,3.325596670924728,0.1450275994603779
12.149999999999991,-0.2604391973289279,2.876401025919108,0.1666032593876972
12.159999999999997,-0.3056723041786779,2.480016438143315,0.174245965355874
12.170000000000002,-0.3969674828393291,2.168175573652629,0.1665079923456127
12.179999999999993,-0.5047792337109777,1.8490576806833128,0.1847204223213845
12.189999999999998,-0.5998741624814949,1.5365886177824728,0.2032231830362557
12.199999999999989,-0.7076172756611269,1.2262676201990028,0.2231222944810708
12.209999999999994,-0.778324077147885,0.9053082372929058,0.2668694113975542
12.22,-0.849397924199662,0.6090320495854038,0.3181550764471322
12.22999999999999,-0.8625179933669307,0.3273668892478423,0.3808796053885792
12.239999999999997,-0.7851269987306772,0.0778024765133629,0.4311711377986369
12.25,-0.70186926872285,-0.1644574461875183,0.4597313571786688
12.259999999999993,-0.5434518132017806,-0.3556081634890449,0.4993970021122374
12.269999999999996,-0.3984603747770678,-0.5126170207243559,0.5442427922562738
12.28,-0.2066251624293774,-0.6496313077439837,0.5598987957008559
12.289999999999992,0.0083815980811427,-0.784160187999556,0.5554279385185587
12.299999999999995,0.1756737250724888,-0.8677155546184075,0.5576481290701756
12.309999999999988,0.3264327217440057,-0.9624338695135434,0.5631217922695697
12.319999999999991,0.4492697343924952,-1.0365710560264223,0.5719439615539293
12.329999999999998,0.5398820944960926,-1.085005423434558,0.5741971812993468
12.33999999999999,0.6019892331856389,-1.132985358142431,0.5974997761001624
12.349999999999994,0.660532766920978,-1.1782506822477226,0.6141589313495076
12.36,0.690732760896043,-1.2235987874932417,0.6429793829061657
12.36999999999999,0.7155863492118864,-1.3077106985814688,0.6777479749929747
12.379999999999995,0.7222942575755407,-1.4404296582822107,0.7090148460403097
12.39,0.6952522170366128,-1.596699806946528,0.7532010426320058
12.399999999999991,0.6628974700403025,-1.837276459529826,0.816561544948832
12.409999999999997,0.6082690992277817,-2.127121709253864,0.92138293115439
12.420000000000002,0.5865407998081987,-2.483585294732241,1.0011997435860025
12.429999999999993,0.6264392298543506,-2.916881719661091,1.0942910252902254
12.439999999999998,0.737578244275897,-3.398755334774794,1.1630210863907535
12.449999999999989,0.8652201666779629,-3.9092600063217846,1.2300724746948557
12.459999999999994,1.0371675668514972,-4.454238745103441,1.327700998534444
12.47,1.2150128575508286,-5.022886786647839,1.4361785937115736
12.47999999999999,1.3953182550193164,-5.573583162135121,1.5397309957980247
12.489999999999997,1.5347619559399903,-6.122095235485372,1.668246620702157
12.5,1.6969087495371429,-6.649837078139352,1.7725372870541167
12.509999999999993,1.8388645125671828,-7.156217897987767,1.866336797419892
12.519999999999996,1.8990764575171837,-7.645764844563645,1.9443342336498504
12.53,1.90756456493108,-8.069550947263908,2.0059960551605087
12.539999999999992,1.8579436480837448,-8.474563018229745,2.0366705767378384
12.549999999999995,1.7720538150781378,-8.813258978777515,2.073939158228185
12.559999999999988,1.6178183287472887,-9.0595936625316,2.0798752522522057
12.569999999999991,1.3877825809913165,-9.23904304388425,1.980573111733266
12.579999999999998,1.1714502970516758,-9.32464132972706,1.7797025381610598
12.58999999999999,0.9120161870207056,-9.37700550318247,1.501174224022214
12.599999999999994,0.641574839453754,-9.392978453251615,1.323110343460852
12.61,0.3692253109871265,-9.395968600382002,1.1724234948096883
12.61999999999999,0.0435880331650057,-9.372836581680644,1.036997276423786
12.629999999999995,-0.3362569445176762,-9.298212161434192,0.842429342354504
12.64,-0.7210925107164051,-9.09264932409635,0.5824753869840813
12.649999999999991,-0.9332427199245,-8.698291082317908,0.2870453620264706
12.659999999999997,-0.9651636632812294,-8.193013910199788,0.0290276754376842
12.670000000000002,-0.8734518375173866,-7.648517125166575,-0.1920516637043152
12.679999999999993,-0.7745620861338949,-7.049523426236426,-0.4128578884483252
12.689999999999998,-0.734138407663018,-6.464050770812579,-0.6144199992695948
12.699999999999989,-0.7797455691019002,-5.947395925406686,-0.7979809245997973
12.709999999999994,-0.8112253352380359,-5.460647468873195,-0.9738794961619324
12.72,-0.7808246755302449,-4.950800364865953,-1.1155565227778623
12.72999999999999,-0.6983525496670029,-4.469864390725734,-1.194021848328134
12.739999999999997,-0.6261764495103678,-4.014341911866346,-1.222217524781227
12.75,-0.7169334112046446,-3.618076732115499,-1.273046193483648
12.759999999999993,-0.8057348555697982,-3.0806500574063653,-1.2600987690753975
12.769999999999996,-0.926350593752644,-2.576002830602329,-1.1883595992806142
12.78,-1.0283929073349296,-2.112627470650212,-1.059315823269581
12.789999999999992,-1.1559784467433438,-1.7113765087916128,-0.9464213507832936
12.799999999999995,-1.239677912102456,-1.3705933540798871,-0.8149515152850149
12.809999999999988,-1.247935422179375,-1.0319887040030582,-0.6715844740728845
12.819999999999991,-1.1841592279747524,-0.7624020136611781,-0.5078313777416227
12.829999999999998,-1.084079931905484,-0.507302118306623,-0.3203360746811359
12.83999999999999,-0.962804908219552,-0.2688154524043959,-0.1567223219661131
12.849999999999994,-0.8403575898829669,-0.0313034647029764,0.0169057879401873
12.86,-0.7042865972442423,0.1456106477028602,0.1661161195054483
12.86999999999999,-0.5825954748308558,0.3025411903591152,0.2982833208262737
12.879999999999995,-0.4785437397999185,0.4290968730880677,0.3934064927957596
12.89,-0.4139487896691402,0.5418942889145253,0.48234379233432
12.899999999999991,-0.3414132417992118,0.6546270362192181,0.532217058836733
12.909999999999997,-0.276923041486997,0.7338056872844607,0.5773830536741102
12.920000000000002,-0.2553238665762785,0.7920434391478591,0.6155163968695204
12.929999999999993,-0.2212309225877266,0.8196820304909258,0.627747109356995
12.939999999999998,-0.2070428136842076,0.8303448054814144,0.619812160899144
12.949999999999989,-0.1917542867691754,0.8237509063558718,0.6144663406802228
12.959999999999994,-0.160182876362129,0.8417812313985432,0.5781629124606225
12.97,-0.1535833967311025,0.8722334626692126,0.5646433615113946
12.97999999999999,-0.1443865138684165,0.9185669697288268,0.4780159057544706
12.989999999999997,-0.1479170835107774,1.0224214917404464,0.4009636728425542
13.0,-0.1881235774769683,1.1826633764313248,0.3113330582235781
13.009999999999993,-0.2850469961964742,1.419052872660972,0.2240731743913482
13.019999999999996,-0.4233020762556113,1.7416430800516902,0.1416021974178072
13.03,-0.5538406079135437,2.1614775077831903,0.059526211523811
13.039999999999992,-0.65764210704255,2.723661293759563,0.0164431834150069
13.049999999999995,-0.7445438210888691,3.4171067882011337,-0.0603191131975736
13.059999999999988,-0.8235477835357947,4.182459495176372,-0.0857518906398185
13.069999999999991,-0.9403240654035362,5.012978924774255,-0.0731235139842629
13.079999999999998,-1.1488529899417983,5.81238260973921,-0.032845367297201
13.08999999999999,-1.4002914072101518,6.640429030090062,0.0625175648976397
13.099999999999994,-1.722457868325655,7.4400976579670015,0.2138757975458871
13.11,-2.0400721044974177,8.161371860069368,0.4268807635715493
13.11999999999999,-2.347512368535327,8.817294405339528,0.6848995304532826
13.129999999999995,-2.628943799984496,9.316402678870844,0.959346099961232
13.14,-2.867087089594291,9.643749743603095,1.2250718293384062
13.149999999999991,-3.1129876790181155,9.870709060855484,1.4585937814763092
13.159999999999997,-3.3511500963661653,10.013720441666267,1.654594776687602
13.170000000000002,-3.601804322547381,10.063466721188869,1.8363546170603264
13.179999999999993,-3.7836759781734703,10.077445342037144,1.9367945874287669
13.189999999999998,-3.8906037617667377,10.003272929072883,1.9952043986455823
13.199999999999989,-3.9688837095325527,9.853851959225029,2.022695433053142
13.209999999999994,-4.023447306740864,9.60581047901379,1.978951613401373
13.22,-4.003310262050338,9.262165401164758,1.903113081324627
13.22999999999999,-3.932098739928215,8.88413203267152,1.8213080460458664
13.239999999999997,-3.726051634353015,8.481339924581635,1.6914984040330012
13.25,-3.433686827886348,8.099880189119268,1.5338619731064844
13.259999999999993,-3.040288956422513,7.703367678025732,1.3716582019664605
13.269999999999996,-2.5466088987929,7.311543965657606,1.2140143252311746
13.28,-2.0462302725653267,6.913514045587262,1.061383709273095
13.289999999999992,-1.5342566099753974,6.561303460011904,0.9481157061357186
13.299999999999995,-1.0957731957937382,6.1865732689504815,0.8744607335698604
13.309999999999988,-0.7615630168437262,5.771008979614503,0.7643374851157277
13.319999999999991,-0.5439409702780735,5.2532139340833925,0.6266023488473351
13.329999999999998,-0.4231924414758999,4.634668146085655,0.453339878150371
13.33999999999999,-0.3420737603386577,3.981676405527579,0.3090396248224232
13.349999999999994,-0.2515237422565524,3.3401552874528817,0.255026011862363
13.36,-0.1793461269030357,2.733147739657619,0.2165306286157843
13.36999999999999,-0.1302727515283891,2.160189352477891,0.1594721695475362
13.379999999999995,-0.0981315820249274,1.5952604372532306,0.1174952264012345
13.39,-0.0851558237591169,1.0459994483877704,0.1270602765684778
13.399999999999991,-0.0828057229546373,0.593690393724233,0.1336380982916258
13.409999999999997,-0.0937472166426075,0.1969543412419841,0.1255679202239915
13.420000000000002,-0.0713750841137531,-0.1218543626199312,0.1396817114918952
13.429999999999993,-0.04731404018817,-0.3948527434079819,0.1454073407188326
13.439999999999998,0.0018111252311291,-0.6300913284473562,0.114273428197377
13.449999999999989,0.05558637307797,-0.8090300830603405,0.1290466938559187
13.459999999999994,0.1125766089418255,-0.9340715973493764,0.1261662703756977
13.47,0.1831693449122339,-1.012944840851728,0.1650637823640767
13.47999999999999,0.2242134385804222,-1.060525391114023,0.1907578093186317
13.489999999999997,0.2623002895425344,-1.0634914491717768,0.2272846338479284
13.5,0.2956651833582562,-1.0550257352362795,0.2518408548078372
13.509999999999993,0.3373811712264001,-1.0217440667079096,0.2796289533116095
13.519999999999996,0.3638467867475745,-0.9767488933906916,0.2970812331694362
13.53,0.4069622930836875,-0.9036258519055136,0.3160928156115923
13.539999999999992,0.4355375305064906,-0.8485438624935546,0.340386596940789
13.549999999999995,0.464385846715572,-0.8234775310376404,0.3728004285105573
13.559999999999988,0.4982210652298533,-0.8218852445327426,0.4160635163179985
13.569999999999991,0.5210200264957601,-0.872545478263129,0.4204248468363289
13.579999999999998,0.576200387227499,-0.9737638114574312,0.4438540552445641
13.58999999999999,0.6331614983861377,-1.1323410746964988,0.4248814761165133
13.599999999999994,0.6942409901547865,-1.3624548332142588,0.4543793404059522
13.61,0.777568248675731,-1.6280445592437216,0.4552849637662335
13.61999999999999,0.8718173860965138,-1.9643593745366263,0.4475875628895462
13.629999999999995,1.003602096127998,-2.339191986542432,0.4668668125836041
13.64,1.151963910313621,-2.7723504798370566,0.478122591000808
13.649999999999991,1.290643500188558,-3.2459863684352417,0.5131289213320265
13.659999999999997,1.4518183725177396,-3.753677623451556,0.5542617762366738
13.670000000000002,1.5806216779984272,-4.259818682110087,0.6230668325160645
13.679999999999993,1.6766333207855704,-4.786305416854914,0.671394568965664
13.689999999999998,1.7393604400696332,-5.2885973896544405,0.7496834424989781
13.699999999999989,1.8022107922825448,-5.804102381642256,0.8137616908230972
13.709999999999994,1.8595838649194032,-6.301670087532899,0.8735119956875044
13.72,1.8673796513440457,-6.781719133702146,0.9252822979049432
13.72999999999999,1.8762393120410763,-7.262958600582858,0.9594369007367088
13.739999999999997,1.8493439418381965,-7.719122214612187,0.9863208571515284
13.75,1.781442355710098,-8.168002076176421,1.0086544157447823
13.759999999999993,1.7032910110834774,-8.574975485292383,0.9905705000110708
13.769999999999996,1.547301050618436,-8.92321645309141,0.9252580651430072
13.78,1.2975275626979768,-9.229817498622406,0.785145772423879
13.789999999999992,1.0684658307752066,-9.45738573435073,0.5439596351483006
13.799999999999995,0.8163942128073582,-9.668613743359224,0.2536036689949004
13.809999999999988,0.5835372179946895,-9.794391931863863,-0.0033932473194408
13.819999999999991,0.2883595805602215,-9.863964999356496,-0.2124416418678762
13.829999999999998,-0.0657082934164023,-9.868493305435242,-0.4000096044456722
13.83999999999999,-0.4829382518794047,-9.787313955519014,-0.6114679658039194
13.849999999999994,-0.8811408707254437,-9.64276333795869,-0.9016430024571694
13.86,-1.1657653976649331,-9.409540071430676,-1.240373061768165
13.86999999999999,-1.3218425830851332,-9.115261406574788,-1.5763270470700357
13.879999999999995,-1.405808262743561,-8.883787203439905,-1.882120590915624
13.89,-1.5854948947129386,-8.68212136065449,-2.152446360959454
13.899999999999991,-1.6257510394274208,-8.11778563281992,-2.35485034722866
13.909999999999997,-1.6588276368104184,-7.57841854880936,-2.496379849306542
13.920000000000002,-1.6433355289842342,-7.069364889071026,-2.6146385361459887
13.929999999999993,-1.5599464094547852,-6.536189409811287,-2.736828405285274
13.939999999999998,-1.4369067611134514,-6.058053933130629,-2.8627933551189964
13.949999999999989,-1.2455506038271855,-5.610731417113775,-2.980671856738779
13.959999999999994,-1.028700477968849,-5.175078136351473,-3.060566737356174
13.97,-0.8272216257073642,-4.740435716471042,-3.085763512124066
13.97999999999999,-0.6834236687513067,-4.301277328092813,-3.0235217400649
13.989999999999997,-0.6021954435670732,-3.863629784491466,-2.888021250319208
14.0,-0.5606022084872035,-3.4157141252135776,-2.742247931309296
14.009999999999993,-0.528598937347269,-2.9878702538023725,-2.554972510013444
14.019999999999996,-0.4767608342288139,-2.575607083539265,-2.3749845954298903
14.03,-0.4043649416781579,-2.197030924935732,-2.1687082588724325
14.039999999999992,-0.3306811617423866,-1.8923028148321264,-1.932966028798071
14.049999999999995,-0.255714350711579,-1.6138899051053406,-1.63344485994594
14.059999999999988,-0.2049180827507997,-1.349963081817216,-1.3095584484410765
14.069999999999991,-0.1905034254672382,-1.0625730978573402,-1.0036609777950898
14.079999999999998,-0.162667097950985,-0.7897773888168089,-0.6726184553634574
14.08999999999999,-0.1135963759311934,-0.527164820033866,-0.3477317222279345
14.099999999999994,-0.0718540869435543,-0.2851502529991075,-0.037585218580893
14.11,-0.0149437817299864,-0.0697774937043089,0.2118769972018838
14.11999999999999,0.013354628800154,0.1265879467451299,0.4936290429487325
14.129999999999995,-0.0059190502367269,0.2685109785129453,0.7280645166024767
14.14,-0.0159710784818451,0.3993944596280157,0.9195858982780496
14.149999999999991,-0.0568294656167748,0.5148039529558656,1.0910724825764109
14.159999999999997,-0.0774524631603645,0.6246923929532787,1.1998458981923463
14.170000000000002,-0.0730624284279604,0.7471699955508008,1.2829625371493414
14.179999999999993,-0.0877321980731367,0.8699169494236645,1.321934714924673
14.189999999999998,-0.0880490670194794,0.9518438762241108,1.336466757190855
14.199999999999989,-0.0911680976324197,1.022573379580727,1.3526493959128525
14.209999999999994,-0.0959373802668647,1.1072216123171634,1.3250239693564925
14.22,-0.1148855993544771,1.2169210779995665,1.282250920280387
14.22999999999999,-0.1673571603943615,1.3799561661448712,1.2241625245800962
14.239999999999997,-0.2606898862994,1.6560684139584294,1.1550927963173918
14.25,-0.3556843689496641,2.0138761520094306,1.055909130888428
14.259999999999993,-0.4936341813698387,2.439206153672894,0.948546027102392
14.269999999999996,-0.5587645952489878,2.9844931505118826,0.8332064733755113
14.28,-0.534689460417468,3.6316492226372414,0.7363063325273882
14.289999999999992,-0.4224951755693428,4.405268885730821,0.6767751997192727
14.299999999999995,-0.2785892511194983,5.29718610031487,0.64762120339857
14.309999999999988,-0.1949979297250852,6.247798593310545,0.6697350287361288
14.319999999999991,-0.2125655108854925,7.200046592798988,0.741067055071783
14.329999999999998,-0.386644718045894,8.131864282894467,0.8866650667782481
14.33999999999999,-0.7029211542222445,8.980389550114548,1.1138982692306747
14.349999999999994,-1.1489009982886926,9.672140986387726,1.3678812081956004
14.36,-1.692597431556666,10.213466816957414,1.6824239822545282
14.36999999999999,-2.2675761835507067,10.580632760574725,2.004002376879768
14.379999999999995,-2.811675379321655,10.814549321005668,2.322654188419241
14.39,-3.3323526202614,10.968533852337265,2.5826996639479263
14.399999999999991,-3.825680879383201,11.072422492985009,2.8169634185134997
14.409999999999997,-4.256930746900342,11.164270898345048,3.0023910794662383
14.420000000000002,-4.598470348755699,11.2132731681749,3.123102234010369
14.429999999999993,-4.801974397231174,11.176824704176678,3.170687723394093
14.439999999999998,-4.886107716743795,10.999675986290988,3.138396700168081
14.449999999999989,-4.873019013295704,10.637870429487355,3.009763206296463
14.459999999999994,-4.771385294273116,10.189675550278489,2.8258060677988386
14.47,-4.672453580242646,9.67069459178819,2.635345597733349
14.47999999999999,-4.544831237543106,9.121685361349144,2.4460681633165198
14.489999999999997,-4.363026930305319,8.536458292318057,2.2274700900837745
14.5,-4.012479751706263,7.891183807568,2.008442225890313
14.509999999999993,-3.5102791587893822,7.210542074759815,1.768495952494915
14.519999999999996,-2.956969801408812,6.499391518882977,1.558946949134273
14.53,-2.343450192955326,5.777609144490143,1.3942433121381257
14.539999999999992,-1.7704971507352314,5.021737829396967,1.2253077994627923
14.549999999999995,-1.2677266737438384,4.3137520056302,1.1041761868025424
14.559999999999988,-0.8062620598351264,3.585831213385412,0.992649458183294
14.569999999999991,-0.4182738826668073,2.8911968338379825,0.8857188340912737
14.579999999999998,-0.0849830913891204,2.2325550267375216,0.7629000183493256
14.58999999999999,0.1454879706117733,1.5719554953221857,0.6554575801928183
14.599999999999994,0.3101431252229985,0.9780072417103696,0.5754926994228545
14.61,0.4197546343923106,0.4513156766773835,0.5112149316794378
14.61999999999999,0.5040486161572181,0.0168094544506162,0.4691484277921809
14.629999999999995,0.5442305207926923,-0.3374095166401331,0.410554216917219
14.64,0.5468461128536578,-0.6479774060974706,0.3665871580403021
14.649999999999991,0.551047701106212,-0.9121917148192455,0.3130611314940393
14.659999999999997,0.494227035793879,-1.06850594259458,0.264108537919217
14.670000000000002,0.4421242776932898,-1.1988220112593853,0.242733606843038
14.679999999999993,0.3776108058217283,-1.2804263229319353,0.2139909938955563
14.689999999999998,0.3319284028952032,-1.3176171411629485,0.1881006389496705
14.699999999999989,0.3560204287475055,-1.3180928596215808,0.1783590225479287
14.709999999999994,0.3543682947030759,-1.3023486971419107,0.1978917539150871
14.72,0.3863389874386186,-1.25142413259995,0.1832357235595122
14.72999999999999,0.4217138210869272,-1.1635484164650791,0.1966510680179106
14.739999999999997,0.4580301707122819,-1.0918981031305992,0.2108520200368864
14.75,0.4890544455757198,-1.0430502528998928,0.2432752268336636
14.759999999999993,0.5612784077600426,-1.013244416539281,0.2811934501141387
14.769999999999996,0.6460540451209158,-0.9972098085252772,0.3269453090202256
14.78,0.7403713352872286,-1.0660057275915846,0.3829838569230201
14.789999999999992,0.8661789787396437,-1.1929501240992106,0.4057021037699203
14.799999999999995,0.9982837841186952,-1.3974494256636625,0.4274412455399382
14.809999999999988,1.1411243308827517,-1.6838087110552409,0.437672710894764
14.819999999999991,1.2966185871078162,-2.0590855584483223,0.4590734326100208
14.829999999999998,1.4911632209588173,-2.491678356246221,0.4490824663014311
14.83999999999999,1.6968419586677834,-2.995139080773885,0.5208260777680435
14.849999999999994,1.9242806480555767,-3.5290680080993284,0.6125297764580988
14.86,2.1446074403827597,-4.108229220378968,0.7182581319380518
14.86999999999999,2.362662790624196,-4.697352792347759,0.8298218586860147
14.879999999999995,2.4980620491919865,-5.284383636292257,0.9603559834188956
14.89,2.6088177103707904,-5.890873477939328,1.0730672246033028
14.899999999999991,2.6415373504777597,-6.47873092428085,1.2173750762923568
14.909999999999997,2.628260429568238,-7.076627084279554,1.3346515668013423
14.920000000000002,2.5811905848322496,-7.6665071394328335,1.3846305587046943
14.929999999999993,2.460011355893754,-8.240832372192388,1.4085257035365817
14.939999999999998,2.2738171589439324,-8.776532547622843,1.418501566722398
14.949999999999989,2.045680742308124,-9.243329884180072,1.3685464929392313
14.959999999999994,1.811946495481381,-9.624988765621763,1.258041821618858
14.97,1.549638232207795,-9.892700784332586,1.096828685750512
14.97999999999999,1.315335318146656,-10.050576771559186,0.8877724973487541
14.989999999999997,1.084495183941288,-10.133376633971755,0.672327939491671
15.0,0.8722006313978469,-10.112314783181253,0.4147427211601185
15.009999999999993,0.6742819276784504,-9.992684213705266,0.1263496446315234
15.019999999999996,0.4846290444668412,-9.799884709023594,-0.111493863653206
15.03,0.2354267433371665,-9.577416844463489,-0.2977769089552404
15.039999999999992,-0.0897718877893201,-9.309984347236451,-0.4191625080492256
15.049999999999995,-0.3154614355721048,-8.935092517775459,-0.5055280803750494
15.059999999999988,-0.5294425263639038,-8.540299262640062,-0.560028128089778
15.069999999999991,-0.6976084314437462,-8.146013935494057,-0.5914528840237246
15.079999999999998,-0.7949655228349719,-7.744979121231515,-0.6782540879967054
15.08999999999999,-0.8230442599296396,-7.37174432609736,-0.83476941319938
15.099999999999994,-0.7831307971242378,-6.983192799510944,-1.0219959236530325
15.11,-0.6938064598215772,-6.547062795900832,-1.1725988209781255
15.11999999999999,-0.590179329804142,-6.137602853937314,-1.269604626438237
15.129999999999995,-0.5134119328054898,-5.73337857283377,-1.3072935568097543
15.14,-0.4791042271331421,-5.316089772912862,-1.3025818902470845
15.149999999999991,-0.4472920322902534,-4.880289668000124,-1.2766475646860416
15.159999999999997,-0.3990829601679049,-4.4568490516597326,-1.2449025356705292
15.170000000000002,-0.4072667444653306,-4.032172004473403,-1.1972114538759129
15.179999999999993,-0.4361507702759057,-3.64013334520799,-1.1624495369763332
15.189999999999998,-0.5330670688625321,-3.263964422438109,-1.0910762437628905
15.199999999999989,-0.6322457940623504,-2.884545511433501,-1.0057585714394486
15.209999999999994,-0.7180246333717853,-2.5199450234886918,-0.92082256930589
15.22,-0.8478732126258517,-2.1491994059057298,-0.8413872451381512
15.22999999999999,-0.9152662987481772,-1.7865497219626827,-0.787792283308732
15.239999999999997,-0.964989348923387,-1.437348696937464,-0.7108351639520205
15.25,-0.9323175559305552,-1.1098729927259168,-0.6093097591622708
15.259999999999993,-0.8632535004782076,-0.8139525712972325,-0.4565952798044239
15.269999999999996,-0.7240341259625859,-0.5477708102842023,-0.2597821352740744
15.28,-0.5918431390563674,-0.2852558671491432,-0.0564670855960773
15.289999999999992,-0.5031146230508735,-0.0573009640059484,0.174344044174108
15.299999999999995,-0.4474954155299041,0.1643265850400787,0.3879217348529145
15.309999999999988,-0.4439961560380233,0.362826077899506,0.5856209734060831
15.319999999999991,-0.4778029002915905,0.5463818944778476,0.7606331681814222
15.329999999999998,-0.529178515558151,0.7404472718193965,0.901477249869916
15.33999999999999,-0.5417344369216708,0.9369810211555736,1.028297193627662
15.349999999999994,-0.512772609931163,1.0918049245617452,1.0977046481620136
15.36,-0.4866941710122942,1.2353823380161082,1.1505236423489065
15.36999999999999,-0.4316839623469212,1.4149814780554504,1.1641616895250608
15.379999999999995,-0.3556362808657641,1.6192641892326638,1.1278223599870223
15.39,-0.3218609920849108,1.8487307510400215,1.1094161521931958
15.399999999999991,-0.2759840340086499,2.137209569186802,1.0247848402834423
15.409999999999997,-0.2696846976904461,2.5024398661963665,0.9135875528227562
15.420000000000002,-0.253746770569228,2.921539689313154,0.798706991941187
15.429999999999993,-0.2099511116424108,3.426757591929264,0.6693445039228801
15.439999999999998,-0.1446497512032683,4.019612880526575,0.5151537406516542
15.449999999999989,-0.0481741224527359,4.708443518064398,0.365981963680337
15.459999999999994,0.020870548751917,5.466291850173573,0.2175451209811992
15.47,0.0166430678560755,6.251320051101579,0.0750706594144315
15.47999999999999,-0.0415638302336583,7.06423693182176,-0.0154949357788893
15.489999999999997,-0.1409597828057658,7.852535316867369,-0.0748204215602903
15.5,-0.3293300804087006,8.596755840736948,-0.0978368031904521
15.509999999999993,-0.6279589037837735,9.23300708429253,-0.1107410838001521
15.519999999999996,-0.9862924245036652,9.831180614887488,-0.0668051946377654
15.53,-1.359948245386322,10.305661235307785,0.0337958173731138
15.539999999999992,-1.7233761319940175,10.655385775898074,0.1979856226311563
15.549999999999995,-2.1011429583215397,10.902154701913252,0.3954973158759112
15.559999999999988,-2.5011687810150183,11.0691979535616,0.5782618185187094
15.569999999999991,-2.8778235724263284,11.21803814621107,0.725182432765275
15.579999999999998,-3.262467134722678,11.313856187492185,0.8302011092974784
15.58999999999999,-3.5627041693459267,11.357866372381697,0.9124489381800496
15.599999999999994,-3.7517442921312494,11.29251407931164,0.9773050060224112
15.61,-3.8258160423376513,11.117769197053534,1.0088684856258074
15.61999999999999,-3.822265741916957,10.805752733423535,0.9339805260967992
15.629999999999995,-3.800367724809513,10.417179978310518,0.8174313178560795
15.64,-3.805399654947831,9.89722486887122,0.6828792589193573
15.649999999999991,-3.810119983625965,9.27905899480312,0.5535664361050617
15.659999999999997,-3.724834406933626,8.580921521723502,0.3849450601138585
15.670000000000002,-3.478906940742888,7.835897078215543,0.2286617790532615
15.679999999999993,-3.1528498774560547,7.085908405383831,0.1241033528323394
15.689999999999998,-2.6904167615515107,6.364245782011735,0.0967445478679775
15.699999999999989,-2.2453186129294225,5.688902478100894,0.1673672098776985
15.709999999999994,-1.8800903382011425,5.033661346358275,0.2828858985306918
15.72,-1.5247748156367813,4.328916936227728,0.3839815271139195
15.72999999999999,-1.208755279825681,3.586243819583455,0.4795619087529847
15.739999999999997,-0.9481186215968976,2.8506803060677,0.5715951304238743
15.75,-0.7542295290959665,2.117076628100725,0.6144352526109491
15.759999999999993,-0.5574289532606121,1.439931656862316,0.6422062593613292
15.769999999999996,-0.3558164202533898,0.8522498454474046,0.6582372063082897
15.78,-0.1662615461242785,0.3354821725785513,0.6511828492002245
15.789999999999992,0.0192937629045204,-0.1297336385810109,0.6674006563820134
15.799999999999995,0.2134367344362606,-0.5292996681146894,0.6518284306503249
15.809999999999988,0.375951951973515,-0.8935293033465503,0.600653253420511
15.819999999999991,0.4883754503666687,-1.215959582137736,0.548249117293812
15.829999999999998,0.5893768266671595,-1.4901177534480083,0.4750329877434966
15.83999999999999,0.6513164927909065,-1.7340462685166766,0.3976732668116898
15.849999999999994,0.7098620657969346,-1.9122887996503068,0.3265653345882731
15.86,0.7259477213402352,-2.092479989919826,0.2955401324099519
15.86999999999999,0.7570499373568248,-2.219559389040903,0.2491863275024916
15.879999999999995,0.7792641810725349,-2.318867940458954,0.2510564691119428
15.89,0.8119512072726609,-2.4358454652296366,0.2674253266029835
15.899999999999991,0.8863201937920527,-2.5543197597645158,0.2892984944609049
15.909999999999997,0.9621872487001426,-2.694631472855978,0.3335435372163859
15.920000000000002,1.0730492846495432,-2.861183218583375,0.3993561449939482
15.929999999999993,1.1975610194085784,-3.1047249934259717,0.5026323942795251
15.939999999999998,1.321607697724804,-3.384207970422133,0.6495466118635381
15.949999999999989,1.4923292760445,-3.742190770549177,0.8366110832150201
15.959999999999994,1.7186838464880387,-4.149930674644826,1.022236712766303
15.97,1.9491798889966097,-4.602130707854653,1.1963051737969368
15.97999999999999,2.182188787386323,-5.078723476191768,1.375137958555409
15.989999999999997,2.417607592157483,-5.599500139158865,1.5653760716577387
16.0,2.586029011210208,-6.124176436160022,1.7759578949239667
16.00999999999999,2.742211359706524,-6.65650720344112,1.9138397120473205
16.019999999999996,2.8594171034036906,-7.215732621424707,2.0390787929464587
16.03,2.8562174978494963,-7.800356185239885,2.1326216880673203
16.039999999999992,2.8155590290841594,-8.399228648125135,2.1863346333062483
16.049999999999997,2.706536603278104,-8.94391211385291,2.1754773991611893
16.059999999999988,2.491436828926673,-9.402097767847692,2.112609137740637
16.069999999999993,2.2176760823318302,-9.754577968973432,2.009482275384112
16.08,1.9486066004550635,-9.956253456635803,1.8499265774814584
16.08999999999999,1.7174372431988805,-10.087005841916334,1.7192518200815832
16.099999999999994,1.4831752771750264,-10.124521614054885,1.5835834794701706
