time,Gyr_X,Gyr_Y,Gyr_Z
0.0,0.01967,0.034758,-0.024888
0.0100000000000051,0.039914,0.036586,-0.017983
0.019999999999996,0.044544,0.046936,-0.034808
0.0300000000000011,0.032096,0.057265,-0.034752
0.0400000000000062,0.047124,0.041768,-0.027754
0.0499999999999971,0.039405,0.043424,-0.044448
0.0600000000000022,0.049952,0.044346,-0.039222
0.0700000000000073,0.037521,0.048639,-0.039126
0.0799999999999983,0.023276,0.046879,-0.034606
0.0900000000000034,0.032024,0.046941,-0.028494
0.0999999999999943,0.046054,0.060865,-0.025099
0.1099999999999994,0.0375,0.048682,-0.040877
0.1200000000000045,0.047993,0.047019,-0.030357
0.1299999999999954,0.056896,0.045312,-0.032169
0.1400000000000005,0.022217,0.034832,-0.019543
0.1500000000000056,0.046688,0.045355,-0.002104
0.1599999999999966,0.035353,0.041813,-0.012602
0.1700000000000017,0.045916,0.038408,-0.007373
0.1800000000000068,0.014287,0.045164,-0.026562
0.1899999999999977,0.016115,0.029602,-0.024771
0.2000000000000028,0.028545,0.029646,-0.026621
0.2099999999999937,0.030069,0.027976,-0.008981
0.2199999999999988,0.034021,0.0331,-0.037246
0.2300000000000039,0.023205,0.031357,-0.024827
0.2399999999999948,0.018931,0.026117,-0.033613
0.25,0.023593,0.019163,-0.045989
0.2600000000000051,0.012785,0.022601,-0.034464
0.269999999999996,-0.002865,0.017302,-0.051095
0.2800000000000011,0.009529,-0.01031,-0.041403
0.2900000000000062,0.012342,-0.011187,-0.052002
0.2999999999999971,0.000637,-0.006002,-0.042223
0.3100000000000023,0.002534,0.001764,-0.052832
0.3200000000000074,0.01054,-0.01723,-0.047539
0.3299999999999983,0.002664,-0.020729,-0.052758
0.3400000000000034,0.023798,-0.015444,-0.045868
0.3499999999999943,0.004973,-0.010284,-0.033403
0.3599999999999994,-0.002912,-0.022438,-0.035976
0.3700000000000045,-0.004597,-0.027649,-0.041254
0.3799999999999954,0.000839,-0.02247,-0.051017
0.3900000000000005,-0.018725,-0.01389,-0.049146
0.4000000000000057,-0.014996,-0.017379,-0.059761
0.4099999999999966,-0.011691,-0.00522,-0.048351
0.4200000000000017,0.000996,-0.015605,-0.063421
0.4300000000000068,-0.018562,-0.008748,-0.061537
0.4399999999999977,0.000929,-0.015597,-0.0599
0.4500000000000028,-0.006287,0.003423,-0.058128
0.4599999999999937,-0.014875,-0.013942,-0.070364
0.4699999999999988,-0.020538,0.001669,-0.052713
0.480000000000004,-0.02044,0.013769,-0.063314
0.4899999999999949,-0.011431,0.00513,-0.069525
0.5,-0.012528,0.020731,-0.059838
0.5100000000000051,0.007573,0.013943,-0.03879
0.519999999999996,-0.012627,0.003468,-0.047437
0.5300000000000011,0.002144,0.007034,-0.030805
0.5400000000000063,-0.001475,0.007037,-0.026371
0.5499999999999972,-0.015643,0.023413,-0.031596
0.5600000000000023,-0.012126,0.022563,-0.029857
0.5700000000000074,-0.006778,0.007008,-0.026335
0.5799999999999983,0.000205,0.019155,-0.02288
0.5900000000000034,-0.008582,0.006999,-0.022795
0.5999999999999943,-0.006869,0.015662,-0.021948
0.6099999999999994,-0.012182,0.023422,-0.024577
0.6200000000000045,-0.009451,0.024282,-0.02989
0.6299999999999955,-0.01563,0.023383,-0.029845
0.6400000000000006,-0.004836,0.009559,-0.035173
0.6500000000000057,-0.022679,0.017303,-0.028881
0.6599999999999966,0.001442,0.026004,-0.045841
0.6700000000000017,-0.008411,0.027726,-0.040481
0.6800000000000068,-0.00636,0.010382,-0.052818
0.6899999999999977,-0.004639,0.006935,-0.048412
0.7000000000000028,0.007749,6.2e-05,-0.044066
0.7099999999999937,0.029271,-0.018065,-0.054754
0.7199999999999989,0.014963,0.001792,-0.05294
0.730000000000004,0.016905,-0.013799,-0.059099
0.7399999999999949,0.012639,-0.034594,-0.063435
0.75,-0.007659,-0.022586,-0.07215
0.7600000000000051,-0.005867,-0.020855,-0.073929
0.769999999999996,-0.003851,-0.028677,-0.086268
0.7800000000000011,-9.9e-05,-0.026109,-0.100409
0.7900000000000063,0.00245,-0.020897,-0.095152
0.7999999999999972,0.012592,-0.034769,-0.11636
0.8100000000000023,0.017877,-0.05031,-0.109312
0.8200000000000074,0.026659,-0.036439,-0.109419
0.8299999999999983,0.030237,-0.039883,-0.111202
0.8400000000000034,0.032036,-0.034692,-0.11476
0.8499999999999943,0.01806,-0.045156,-0.126119
0.8599999999999994,0.021617,-0.034779,-0.130593
0.8700000000000045,0.007557,-0.031397,-0.139322
0.8799999999999955,0.011054,-0.029644,-0.136701
0.8900000000000006,0.010096,-0.026167,-0.134046
0.9000000000000057,0.027978,-0.033043,-0.14297
0.9099999999999966,0.028787,-0.036486,-0.137686
0.9200000000000016,0.023376,-0.041671,-0.13058
0.9300000000000068,0.028617,-0.02954,-0.130654
0.9399999999999976,0.018064,-0.033057,-0.134098
0.9500000000000028,0.039248,-0.046794,-0.123617
0.9599999999999936,0.049224,-0.043338,-0.139561
0.9699999999999988,0.044617,-0.022568,-0.134276
0.980000000000004,0.042241,-0.050295,-0.143011
0.9899999999999948,0.025422,-0.048635,-0.144665
1.0,0.050094,-0.036412,-0.141342
1.0100000000000051,0.041632,-0.050352,-0.162417
1.019999999999996,0.017604,-0.048695,-0.155191
1.0300000000000011,0.034381,-0.041704,-0.153555
1.0400000000000065,0.032538,-0.036517,-0.150029
1.0499999999999972,0.035135,-0.033039,-0.147417
1.0600000000000025,0.023585,-0.042576,-0.142906
1.0700000000000074,0.011003,-0.03394,-0.134896
1.0799999999999983,0.009271,-0.042601,-0.133971
1.0900000000000034,0.023324,-0.045994,-0.12347
1.0999999999999943,-0.006908,-0.043498,-0.116207
1.1099999999999994,0.015945,-0.06068,-0.098699
1.1200000000000043,-0.003679,-0.052093,-0.092426
1.1299999999999957,-0.01784,-0.048694,-0.094109
1.1400000000000006,-0.009179,-0.052092,-0.080062
1.1500000000000057,-0.018877,-0.059921,-0.080861
1.1599999999999966,-0.012799,-0.048642,-0.076528
1.1700000000000017,-0.011228,-0.039962,-0.065995
1.1800000000000068,-0.00611,-0.053734,-0.048356
1.1899999999999975,0.000686,-0.055385,-0.028115
1.2000000000000028,-0.024259,-0.055456,-0.019129
1.2099999999999935,-0.018894,-0.0494,-0.02448
1.2199999999999989,-0.036586,-0.034779,-0.031461
1.230000000000004,-0.042087,-0.029581,-0.020861
1.2399999999999949,-0.032377,-0.024353,-0.020955
1.25,-0.042226,-0.02956,-0.012946
1.2600000000000051,-0.033461,-0.021734,-0.008614
1.269999999999996,-0.039025,-9.1e-05,0.001978
1.2800000000000011,-0.056778,-0.00878,0.00833
1.2900000000000065,-0.035571,-3.3e-05,0.00906
1.2999999999999972,-0.033922,0.00692,0.01433
1.3100000000000025,-0.039146,0.016406,0.003762
1.3200000000000074,-0.034902,0.025974,0.011642
1.3299999999999983,-0.009528,0.043422,0.025528
1.3400000000000034,-0.027152,0.04334,0.019483
1.3499999999999943,-0.030941,0.043368,0.03538
1.3599999999999994,-0.043441,0.055442,0.03898
1.3700000000000043,-0.027352,0.051157,0.031844
1.3799999999999957,-0.057474,0.039809,0.035619
1.3900000000000006,-0.054153,0.040724,0.049702
1.4000000000000057,-0.053269,0.053705,0.046153
1.4099999999999966,-0.065421,0.048425,0.033021
1.4200000000000017,-0.068374,0.060576,0.048883
1.4300000000000068,-0.087808,0.051845,0.048139
1.4399999999999975,-0.087789,0.048379,0.048139
1.4500000000000028,-0.080753,0.058792,0.048076
1.4599999999999935,-0.070186,0.057106,0.053295
1.4699999999999989,-0.047013,0.053695,0.046074
1.480000000000004,-0.049586,0.041564,0.044346
1.4899999999999949,-0.058364,0.060543,0.03201
1.5,-0.05917,0.036324,0.033828
1.5100000000000051,-0.088159,0.037914,0.015507
1.519999999999996,-0.062465,0.044938,0.011789
1.5300000000000011,-0.057107,0.046688,0.008222
1.5400000000000065,-0.062432,0.032846,0.012708
1.5499999999999972,-0.060529,0.022453,0.008311
1.5600000000000025,-0.041156,0.016496,0.017894
1.5700000000000074,-0.044741,0.029459,0.017896
1.5799999999999983,-0.03056,0.026912,0.01957
1.5900000000000034,-0.041255,0.022565,0.025837
1.5999999999999943,-0.021931,0.009705,0.040732
1.6099999999999994,-0.01486,0.013193,0.040676
1.6200000000000043,-0.020386,0.015793,0.053045
1.6299999999999957,-0.000822,0.000274,0.053813
1.6400000000000006,-0.011622,0.005438,0.063572
1.6500000000000057,-0.034578,-0.008492,0.063781
1.6599999999999966,-0.004507,-0.012698,0.06887
1.6700000000000017,-0.016863,-0.010151,0.064552
1.6800000000000068,-0.025543,-0.034425,0.060258
1.6899999999999975,-0.024092,-0.013617,0.07253
1.7000000000000028,-0.036382,-0.034442,0.070877
1.7099999999999935,-0.061121,-0.041474,0.068402
1.7199999999999989,-0.053935,-0.04665,0.063073
1.730000000000004,-0.055733,-0.043194,0.06395
1.7399999999999949,-0.068232,-0.049275,0.072873
1.75,-0.069802,-0.053632,0.060551
1.7600000000000051,-0.048368,-0.050135,0.048033
1.769999999999996,-0.055579,-0.057054,0.058698
1.7800000000000011,-0.034465,-0.062146,0.070906
1.7900000000000065,-0.038956,-0.074269,0.079772
1.7999999999999972,-0.036145,-0.076022,0.070935
1.8100000000000025,-0.046894,-0.067402,0.076278
1.8200000000000076,-0.039649,-0.063087,0.065632
1.8299999999999983,-0.04513,-0.080369,0.083359
1.8400000000000036,-0.043221,-0.0631,0.06919
1.8499999999999943,-0.039452,-0.070916,0.056823
1.8599999999999997,-0.064398,-0.070995,0.065799
1.8700000000000043,-0.069759,-0.052003,0.062235
1.8799999999999957,-0.081175,-0.06245,0.058788
1.8900000000000008,-0.069687,-0.065872,0.060449
1.9000000000000057,-0.081322,-0.060712,0.065796
1.9099999999999968,-0.092449,-0.070333,0.042967
1.9200000000000017,-0.095276,-0.048706,0.046451
1.9300000000000068,-0.092848,-0.052125,0.06318
1.9399999999999975,-0.096483,-0.041763,0.065803
1.9500000000000028,-0.085628,-0.036591,0.050707
1.9599999999999935,-0.094349,-0.04703,0.046375
1.9699999999999989,-0.097729,-0.038432,0.034032
1.980000000000004,-0.125983,-0.045461,0.03074
1.9899999999999949,-0.136539,-0.026498,0.020194
2.0,-0.148763,-0.021393,0.009715
2.010000000000005,-0.15391,-0.002423,-0.002598
2.019999999999996,-0.174973,-0.011164,-0.009438
2.030000000000001,-0.162706,0.006215,-0.006021
2.0400000000000063,-0.178437,0.021677,-0.025369
2.049999999999997,-0.209943,0.019759,-0.05074
2.0600000000000023,-0.213396,0.030115,-0.058659
2.0700000000000074,-0.202804,0.037101,-0.055164
2.0799999999999983,-0.209729,0.052632,-0.067439
2.0900000000000034,-0.193992,0.059667,-0.054295
2.0999999999999943,-0.182428,0.083926,-0.065
2.1099999999999994,-0.18186,0.097825,-0.049173
2.1200000000000045,-0.151612,0.127317,-0.066203
2.1299999999999955,-0.127144,0.141312,-0.045218
2.140000000000001,-0.111353,0.158701,-0.036518
2.1500000000000057,-0.09551,0.195087,-0.036702
2.1599999999999966,-0.072567,0.219391,-0.033374
2.1700000000000017,-0.058061,0.223694,-0.051116
2.180000000000007,-0.05631,0.238381,-0.052959
2.1899999999999977,-0.063328,0.267717,-0.070684
2.200000000000003,-0.076805,0.281499,-0.066298
2.2099999999999937,-0.080824,0.286564,-0.09722
2.219999999999999,-0.087787,0.293414,-0.111352
2.230000000000004,-0.091206,0.276072,-0.11662
2.239999999999995,-0.08213,0.251852,-0.124581
2.25,-0.067651,0.247523,-0.144973
2.260000000000005,-0.06763,0.222438,-0.139642
2.269999999999996,-0.031914,0.22771,-0.161968
2.280000000000001,-0.015058,0.196663,-0.157592
2.2900000000000063,-0.007955,0.207062,-0.163839
2.299999999999997,0.007449,0.205336,-0.187741
2.3100000000000023,0.001159,0.206211,-0.185935
2.3200000000000074,0.009305,0.227868,-0.208954
2.3299999999999983,0.018466,0.2262,-0.233647
2.3400000000000034,0.025822,0.246996,-0.261026
2.3499999999999943,0.048556,0.259189,-0.248055
2.3599999999999994,0.055624,0.262666,-0.248123
2.3700000000000045,0.068689,0.262782,-0.235844
2.3799999999999955,0.073921,0.267187,-0.234082
2.390000000000001,0.075057,0.258542,-0.251686
2.4000000000000057,0.078367,0.25431,-0.239332
2.4099999999999966,0.070333,0.264706,-0.242807
2.4200000000000017,0.07301,0.272543,-0.248102
2.430000000000007,0.09269,0.280396,-0.262342
2.4399999999999977,0.091465,0.270103,-0.235813
2.450000000000003,0.117041,0.290109,-0.234216
2.4599999999999937,0.130994,0.278978,-0.214817
2.469999999999999,0.132745,0.282571,-0.219075
2.480000000000004,0.097828,0.293255,-0.164823
2.489999999999995,0.140352,0.313834,-0.131801
2.5,0.19397,0.310437,-0.169331
2.510000000000005,0.19934,0.331243,-0.188839
2.519999999999996,0.198213,0.332897,-0.230243
2.530000000000001,0.19333,0.324082,-0.255862
2.5400000000000063,0.214254,0.318879,-0.285979
2.549999999999997,0.217471,0.289479,-0.307901
2.5600000000000023,0.223221,0.253236,-0.327994
2.5700000000000074,0.22677,0.229107,-0.320807
2.5799999999999983,0.2127,0.168521,-0.308216
2.5900000000000034,0.202269,0.111371,-0.302737
2.5999999999999943,0.151922,0.048906,-0.286337
2.6099999999999994,0.136185,0.002143,-0.277227
2.6200000000000045,0.108025,-0.075797,-0.260943
2.6299999999999955,0.05574,-0.118362,-0.246359
2.640000000000001,0.016656,-0.192886,-0.218615
2.6500000000000057,-0.018406,-0.244146,-0.229765
2.6599999999999966,-0.064107,-0.3153,-0.233718
2.6700000000000017,-0.085222,-0.361239,-0.225512
2.680000000000007,-0.102512,-0.393367,-0.239413
2.6899999999999977,-0.109158,-0.441891,-0.249846
2.700000000000003,-0.121273,-0.480055,-0.253245
2.7099999999999937,-0.116231,-0.525102,-0.277883
2.719999999999999,-0.108965,-0.563105,-0.279584
2.730000000000004,-0.075991,-0.602791,-0.283296
2.739999999999995,-0.041971,-0.6581,-0.286126
2.75,-0.103259,-0.741712,-0.288179
2.760000000000005,-0.112329,-0.81428,-0.267666
2.769999999999996,-0.135126,-0.868887,-0.264853
2.780000000000001,-0.175816,-0.897569,-0.253975
2.7900000000000063,-0.188159,-0.89755,-0.264514
2.799999999999997,-0.161583,-0.838702,-0.288791
2.8100000000000023,-0.138847,-0.75397,-0.295477
2.8200000000000074,-0.118113,-0.653584,-0.296827
2.8299999999999983,-0.0604,-0.556482,-0.284354
2.8400000000000034,-0.055773,-0.438887,-0.279523
2.8499999999999943,-0.053543,-0.307293,-0.233162
2.8599999999999994,-0.068835,-0.172273,-0.199823
2.8700000000000045,-0.069631,-0.05108,-0.189513
2.8799999999999955,-0.082819,0.066583,-0.178253
2.890000000000001,-0.079846,0.146199,-0.166148
2.9000000000000057,-0.10351,0.215379,-0.147645
2.9099999999999966,-0.129496,0.287984,-0.149384
2.9200000000000017,-0.14367,0.326011,-0.157266
2.930000000000007,-0.142924,0.367556,-0.161768
2.9399999999999977,-0.108582,0.395381,-0.159465
2.950000000000003,-0.093908,0.402345,-0.133172
2.9599999999999937,-0.069471,0.389483,-0.101605
2.969999999999999,-0.028612,0.369892,-0.03831
2.980000000000004,0.027166,0.33744,-0.022653
2.989999999999995,0.039776,0.289009,-0.015463
3.0,-0.015346,0.237789,0.01864
3.010000000000005,-0.043628,0.169385,0.032256
3.019999999999996,-0.031413,0.117561,0.05786
3.030000000000001,-0.006695,0.070974,0.079005
3.0400000000000063,0.031773,0.02621,0.129997
3.049999999999997,0.077372,-0.020226,0.172105
3.0600000000000023,0.089268,-0.066791,0.223263
3.0700000000000074,0.120602,-0.108058,0.270749
3.0799999999999983,0.142821,-0.180604,0.284836
3.0900000000000034,0.163089,-0.232354,0.302423
3.0999999999999943,0.189337,-0.245996,0.324303
3.1099999999999994,0.197897,-0.282163,0.35259
3.1200000000000045,0.236585,-0.287086,0.372699
3.1299999999999955,0.248909,-0.286083,0.381546
3.140000000000001,0.240961,-0.25232,0.372812
3.1500000000000057,0.199006,-0.228208,0.392521
3.1599999999999966,0.15098,-0.169585,0.382115
3.1700000000000017,0.09393,-0.093711,0.376979
3.180000000000007,0.020972,-0.030841,0.372001
3.1899999999999977,-0.018299,0.052922,0.360561
3.200000000000003,-0.073552,0.147035,0.34924
3.2099999999999937,-0.108789,0.235076,0.307838
3.219999999999999,-0.115323,0.358759,0.28731
3.230000000000004,-0.120129,0.45558,0.274709
3.239999999999995,-0.073551,0.552632,0.271463
3.25,-0.084507,0.606299,0.27053
3.260000000000005,-0.064644,0.65312,0.295888
3.269999999999996,-0.027444,0.661023,0.292924
3.280000000000001,-0.023626,0.665283,0.278734
3.2900000000000063,-0.017544,0.653017,0.24518
3.299999999999997,-0.006168,0.611437,0.21435
3.3100000000000023,0.003539,0.564687,0.174795
3.3200000000000074,-0.009771,0.491037,0.14428
3.3299999999999983,-0.024853,0.420845,0.113783
3.3400000000000034,-0.026361,0.342854,0.068193
3.3499999999999943,-0.03239,0.23893,0.035916
3.3599999999999994,-0.031074,0.160876,-0.021204
3.3700000000000045,-0.02748,0.055275,-0.045591
3.3799999999999955,-0.023327,-0.029517,-0.055931
3.390000000000001,-0.034979,-0.10575,-0.079441
3.4000000000000057,-0.012914,-0.195707,-0.103183
3.4099999999999966,-0.005348,-0.244185,-0.119008
3.4200000000000017,0.026573,-0.284747,-0.110351
3.430000000000007,0.048104,-0.336595,-0.114827
3.4399999999999977,0.052042,-0.360881,-0.136918
3.450000000000003,0.071831,-0.389428,-0.152953
3.4599999999999937,0.075705,-0.401613,-0.174199
3.469999999999999,0.077409,-0.402472,-0.172491
3.480000000000004,0.080265,-0.398178,-0.18841
3.489999999999995,0.072326,-0.375756,-0.200794
3.5,0.057969,-0.358509,-0.196362
3.510000000000005,0.057733,-0.301416,-0.20092
3.519999999999996,0.05568,-0.256419,-0.199256
3.530000000000001,0.062095,-0.180192,-0.182734
3.5400000000000063,0.043791,-0.112716,-0.169539
3.549999999999997,0.009474,-0.039228,-0.15359
3.5600000000000023,0.019515,0.020587,-0.137035
3.5700000000000074,0.003084,0.084596,-0.126466
3.5799999999999983,0.002352,0.150428,-0.09839
3.5900000000000034,0.007227,0.185113,-0.079086
3.5999999999999943,-0.005836,0.223231,-0.046433
3.61,0.006447,0.234561,-0.041212
3.620000000000005,0.007684,0.244201,-0.009452
3.629999999999996,0.016982,0.254696,0.016923
3.640000000000001,0.002568,0.245175,0.037339
3.6500000000000057,-0.001194,0.216668,0.061247
3.6599999999999966,-0.007729,0.220156,0.082452
3.6700000000000017,-0.014633,0.188983,0.080843
3.680000000000007,-0.010654,0.164708,0.063258
3.6899999999999977,0.008641,0.148404,0.086146
3.700000000000003,0.014323,0.104288,0.080963
3.7099999999999937,0.033833,0.090538,0.086165
3.719999999999999,0.033043,0.057667,0.090652
3.730000000000004,0.014404,0.04204,0.096986
3.739999999999995,-0.015206,0.013324,0.07259
3.75,-0.014236,-0.008284,0.07441
3.760000000000005,-0.034352,-0.027421,0.064892
3.769999999999996,-0.026948,-0.062049,0.055174
3.780000000000001,-0.047926,-0.06652,0.037651
3.7900000000000063,-0.033349,-0.089889,0.018179
3.799999999999997,0.007802,-0.105373,-0.003249
3.8100000000000014,0.00627,-0.126169,-0.01377
3.820000000000008,0.0126,-0.108881,-0.027965
3.8299999999999983,0.007028,-0.110749,-0.068504
3.8400000000000034,-0.005151,-0.098737,-0.087876
3.8499999999999934,-0.009793,-0.101474,-0.130182
3.86,-0.011029,-0.081707,-0.169045
3.870000000000005,-0.008169,-0.076713,-0.239658
3.879999999999996,-0.000417,-0.045672,-0.292728
3.890000000000001,-0.034783,-0.037382,-0.363106
3.9000000000000057,-0.010597,-0.03585,-0.439182
3.9099999999999966,0.006158,-0.016947,-0.495788
3.9200000000000017,0.01704,-0.020565,-0.562845
3.930000000000007,0.022491,-0.007744,-0.629917
3.9399999999999977,0.074993,-0.018992,-0.694658
3.950000000000003,0.117216,-0.026057,-0.78409
3.9599999999999937,0.129792,-0.041962,-0.904157
3.969999999999999,0.115826,-0.051079,-1.027603
3.980000000000004,0.132341,-0.078291,-1.170599
3.989999999999995,0.148343,-0.09329,-1.287151
4.0,0.157897,-0.109285,-1.444208
4.010000000000005,0.186825,-0.104418,-1.598789
4.019999999999996,0.218772,-0.116918,-1.77193
4.030000000000001,0.238529,-0.11045,-1.967039
4.040000000000006,0.271262,-0.102151,-2.143691
4.049999999999997,0.299216,-0.102617,-2.353781
4.060000000000002,0.316788,-0.089366,-2.583269
4.070000000000007,0.317184,-0.0744,-2.793261
4.079999999999998,0.299754,-0.068088,-2.994264
4.090000000000003,0.257229,-0.067155,-3.230345
4.099999999999994,0.239305,-0.073008,-3.450708
4.109999999999999,0.214031,-0.054603,-3.662222
4.1200000000000045,0.215383,-0.048186,-3.873884
4.129999999999996,0.236173,-0.027849,-4.090992
4.140000000000001,0.219794,-0.008511,-4.311348
4.150000000000006,0.249816,0.036198,-4.500256
4.159999999999997,0.254877,0.097275,-4.680179
4.170000000000002,0.221622,0.150431,-4.83691
4.180000000000007,0.19022,0.204416,-4.997213
4.189999999999998,0.130737,0.284325,-5.130109
4.200000000000003,0.066072,0.347804,-5.275304
4.209999999999994,0.034012,0.42177,-5.40579
4.219999999999999,0.021096,0.504585,-5.522244
4.230000000000004,0.018301,0.594357,-5.612438
4.239999999999995,0.016654,0.703235,-5.66212
4.25,0.013001,0.805276,-5.688735
4.260000000000005,0.058606,0.919869,-5.63447
4.269999999999996,0.046596,1.023939,-5.572678
4.280000000000001,0.065415,1.140286,-5.50233
4.290000000000006,0.07079,1.25129,-5.410833
4.299999999999997,0.058194,1.345881,-5.305034
4.310000000000002,0.038038,1.428441,-5.16651
4.320000000000007,0.066916,1.487931,-4.985958
4.329999999999998,0.048526,1.512678,-4.775951
4.340000000000003,0.050188,1.497612,-4.588061
4.349999999999994,0.043103,1.482737,-4.351514
4.359999999999999,0.011234,1.448744,-4.107663
4.3700000000000045,-0.00497,1.420025,-3.850771
4.379999999999996,-0.039172,1.349773,-3.557505
4.390000000000001,-0.077377,1.288947,-3.298625
4.400000000000006,-0.08744,1.20403,-3.0161
4.409999999999997,-0.14764,1.093823,-2.748128
4.420000000000002,-0.146862,0.950962,-2.458531
4.430000000000007,-0.15824,0.814873,-2.184808
4.439999999999998,-0.121149,0.677316,-1.896399
4.450000000000003,-0.089339,0.525931,-1.606992
4.459999999999994,-0.037246,0.400645,-1.322099
4.469999999999999,0.003903,0.278797,-1.021302
4.480000000000004,0.069056,0.13791,-0.718969
4.489999999999995,0.114679,0.033314,-0.426248
4.5,0.139421,-0.099068,-0.149156
4.510000000000005,0.145859,-0.219539,0.106774
4.519999999999996,0.146659,-0.326997,0.37857
4.530000000000001,0.191149,-0.416192,0.627967
4.540000000000006,0.210771,-0.480363,0.873124
4.549999999999997,0.21331,-0.517732,1.126305
4.560000000000002,0.207072,-0.536133,1.368043
4.570000000000007,0.208691,-0.551894,1.616776
4.579999999999998,0.182115,-0.562586,1.853368
4.590000000000003,0.169629,-0.580143,2.096906
4.599999999999994,0.129282,-0.608319,2.310604
4.609999999999999,0.1049,-0.651156,2.529505
4.6200000000000045,0.097654,-0.685309,2.725368
4.629999999999996,0.08325,-0.705573,2.919548
4.640000000000001,0.06995,-0.745731,3.106756
4.650000000000006,0.061546,-0.766764,3.312422
4.659999999999997,0.042744,-0.783595,3.502237
4.670000000000002,0.013483,-0.817777,3.684232
4.680000000000007,-0.013835,-0.825988,3.84504
4.689999999999998,-0.094583,-0.847348,4.029131
4.700000000000003,-0.16091,-0.885175,4.202504
4.709999999999994,-0.241191,-0.923981,4.363605
4.719999999999999,-0.304444,-0.957574,4.512229
4.730000000000004,-0.378436,-0.979058,4.666224
4.739999999999995,-0.401687,-1.009869,4.807597
4.75,-0.445303,-1.051105,4.952727
4.760000000000005,-0.510832,-1.084705,5.081213
4.769999999999996,-0.565875,-1.155471,5.234328
4.780000000000001,-0.612534,-1.246213,5.363536
4.790000000000006,-0.636727,-1.344694,5.470547
4.799999999999997,-0.630681,-1.455207,5.575572
4.810000000000002,-0.583254,-1.543033,5.689084
4.820000000000007,-0.540195,-1.603214,5.791142
4.829999999999998,-0.499503,-1.666925,5.880017
4.840000000000003,-0.449635,-1.671674,5.987265
4.849999999999994,-0.415603,-1.6912,6.087597
4.859999999999999,-0.3956,-1.693542,6.168507
4.8700000000000045,-0.384691,-1.686357,6.258247
4.879999999999996,-0.375283,-1.653308,6.33031
4.890000000000001,-0.342711,-1.614951,6.395213
4.900000000000006,-0.296121,-1.530699,6.44931
4.909999999999997,-0.223444,-1.416929,6.524273
4.920000000000002,-0.18286,-1.27468,6.604722
4.930000000000007,-0.129632,-1.118548,6.669274
4.939999999999998,-0.056719,-0.960665,6.719526
4.950000000000003,-0.022631,-0.792617,6.748786
4.959999999999994,-0.013382,-0.628082,6.775577
4.969999999999999,-0.006712,-0.470421,6.800694
4.980000000000004,-0.027294,-0.293891,6.8101
4.989999999999995,-0.046637,-0.131263,6.80722
5.0,-0.042927,0.010696,6.812192
5.010000000000005,-0.061913,0.110969,6.805032
5.019999999999996,-0.066758,0.21824,6.799542
5.030000000000001,-0.080077,0.280508,6.785474
5.040000000000006,-0.081497,0.302989,6.761755
5.049999999999997,-0.104108,0.315863,6.734662
5.060000000000002,-0.123936,0.275801,6.660904
5.070000000000007,-0.163469,0.224408,6.608419
5.079999999999998,-0.196891,0.159954,6.503929
5.090000000000003,-0.182869,0.100096,6.418528
5.099999999999994,-0.217546,0.030367,6.272616
5.109999999999999,-0.195548,-0.033125,6.127146
5.1200000000000045,-0.18959,-0.067278,5.981687
5.129999999999996,-0.140707,-0.103085,5.813877
5.140000000000001,-0.054182,-0.156141,5.619332
5.150000000000006,0.038175,-0.172832,5.434275
5.159999999999997,0.125628,-0.206002,5.228188
5.170000000000002,0.220381,-0.221838,5.000033
5.180000000000007,0.302574,-0.215214,4.776318
5.189999999999998,0.337255,-0.222646,4.53267
5.200000000000003,0.364875,-0.18433,4.272162
5.209999999999994,0.39897,-0.178946,4.004572
5.219999999999999,0.394449,-0.155642,3.710751
5.230000000000004,0.44228,-0.139056,3.417532
5.239999999999995,0.449411,-0.139865,3.124711
5.25,0.424232,-0.128758,2.800364
5.260000000000005,0.409613,-0.11329,2.477654
5.269999999999996,0.401126,-0.097797,2.1566
5.280000000000001,0.357506,-0.097212,1.814592
5.290000000000006,0.248279,-0.072643,1.471273
5.299999999999997,0.173288,-0.080883,1.104924
5.310000000000002,0.072272,-0.068392,0.752851
5.320000000000007,0.013937,-0.069634,0.396058
5.329999999999998,-0.036869,-0.072695,0.016249
5.340000000000003,-0.032976,-0.078098,-0.34718
5.349999999999994,-0.002176,-0.086039,-0.73372
5.359999999999999,-0.031677,-0.108892,-1.110984
5.3700000000000045,-0.040124,-0.129025,-1.474257
5.379999999999996,-0.075858,-0.19247,-1.835429
5.390000000000001,-0.105092,-0.233298,-2.166726
5.400000000000006,-0.118316,-0.288794,-2.499903
5.409999999999997,-0.101537,-0.332075,-2.828049
5.420000000000002,-0.082282,-0.370974,-3.145642
5.430000000000007,-0.031105,-0.41493,-3.461645
5.439999999999998,0.028637,-0.48132,-3.749448
5.450000000000003,0.092961,-0.54149,-3.99407
5.459999999999994,0.16471,-0.622397,-4.257171
5.469999999999999,0.237548,-0.67807,-4.487697
5.480000000000004,0.274948,-0.756356,-4.713527
5.489999999999995,0.326166,-0.79654,-4.928989
5.5,0.347621,-0.857669,-5.156547
5.510000000000005,0.363373,-0.893643,-5.368225
5.519999999999996,0.34963,-0.918434,-5.565584
5.530000000000001,0.330352,-0.940578,-5.74345
5.540000000000006,0.310074,-0.939323,-5.925756
5.549999999999997,0.274913,-0.944931,-6.063879
5.560000000000002,0.270521,-0.934,-6.19257
5.570000000000007,0.299682,-0.891826,-6.3198
5.579999999999998,0.316758,-0.826239,-6.418814
5.590000000000003,0.359959,-0.748419,-6.491643
5.599999999999994,0.39539,-0.632458,-6.534528
5.609999999999999,0.418631,-0.530363,-6.587836
5.6200000000000045,0.425648,-0.421358,-6.623427
5.629999999999996,0.41362,-0.315119,-6.687142
5.640000000000001,0.408488,-0.239093,-6.729673
5.650000000000006,0.392015,-0.169175,-6.784431
5.659999999999997,0.352452,-0.101918,-6.831898
5.670000000000002,0.356515,-0.078629,-6.874234
5.680000000000007,0.346203,-0.060564,-6.900604
5.689999999999998,0.352716,-0.034642,-6.93065
5.700000000000003,0.365026,0.008693,-6.937837
5.709999999999994,0.343394,0.050227,-6.925377
5.719999999999999,0.313588,0.083134,-6.89872
5.730000000000004,0.325055,0.12832,-6.854775
5.739999999999995,0.331597,0.182059,-6.844303
5.75,0.301124,0.261717,-6.798368
5.760000000000005,0.268331,0.322271,-6.762966
5.769999999999996,0.226446,0.369025,-6.704536
5.780000000000001,0.213653,0.453135,-6.646355
5.790000000000006,0.243827,0.503752,-6.546094
5.799999999999997,0.243735,0.549963,-6.43855
5.810000000000002,0.249083,0.597011,-6.341608
5.820000000000007,0.276268,0.640741,-6.227189
5.829999999999998,0.305652,0.651561,-6.121467
5.840000000000003,0.345917,0.648711,-5.967289
5.849999999999994,0.357905,0.619763,-5.809396
5.859999999999999,0.37263,0.587357,-5.65593
5.8700000000000045,0.387149,0.556737,-5.493639
5.879999999999996,0.3706,0.532944,-5.331138
5.890000000000001,0.324078,0.489121,-5.173669
5.900000000000006,0.270338,0.474661,-5.014478
5.909999999999997,0.227169,0.43864,-4.842942
5.920000000000002,0.174876,0.424238,-4.659072
5.930000000000007,0.133506,0.400301,-4.493817
5.939999999999998,0.11601,0.398247,-4.277617
5.950000000000003,0.100381,0.417818,-4.073784
5.959999999999994,0.112627,0.427202,-3.83309
5.969999999999999,0.076639,0.426965,-3.562936
5.980000000000004,0.070099,0.412932,-3.301808
5.989999999999995,0.024238,0.417831,-3.022813
6.0,0.000319,0.366682,-2.711165
6.010000000000005,-0.046982,0.349218,-2.387103
6.019999999999996,-0.03058,0.303456,-2.051125
6.030000000000001,-0.017372,0.243763,-1.734523
6.040000000000006,-0.008288,0.198914,-1.386969
6.049999999999997,-0.013489,0.141929,-1.026908
6.060000000000002,0.00241,0.078122,-0.655542
6.070000000000007,-0.022528,0.040093,-0.287536
6.079999999999998,-0.010403,-0.017597,0.097067
6.090000000000003,-0.010362,-0.050328,0.455241
6.099999999999994,-0.01117,-0.102115,0.816953
6.109999999999999,-0.031462,-0.141041,1.175223
6.1200000000000045,-0.055713,-0.195673,1.508825
6.129999999999996,-0.078553,-0.269235,1.868929
6.140000000000001,-0.129336,-0.334285,2.199264
6.150000000000006,-0.171086,-0.394128,2.515412
6.159999999999997,-0.20397,-0.448753,2.827946
6.170000000000002,-0.246476,-0.49828,3.130803
6.180000000000007,-0.276328,-0.546059,3.41595
6.189999999999998,-0.310175,-0.590416,3.670302
6.200000000000003,-0.344094,-0.646869,3.93527
6.209999999999994,-0.40591,-0.689741,4.168586
6.219999999999999,-0.453383,-0.744708,4.394766
6.230000000000004,-0.480793,-0.829932,4.590923
6.239999999999995,-0.524991,-0.894493,4.776551
6.25,-0.592002,-0.985979,4.95886
6.260000000000005,-0.641917,-1.070471,5.118136
6.269999999999996,-0.665598,-1.137537,5.296564
6.280000000000001,-0.695485,-1.182157,5.470591
6.290000000000006,-0.725085,-1.242395,5.631415
6.299999999999997,-0.744729,-1.268048,5.768304
6.310000000000002,-0.764343,-1.292853,5.905188
6.320000000000007,-0.765843,-1.311618,6.011048
6.329999999999998,-0.785132,-1.326124,6.117873
6.340000000000003,-0.803676,-1.322448,6.230827
6.349999999999994,-0.807597,-1.306635,6.313719
6.359999999999999,-0.800122,-1.282153,6.396451
6.3700000000000045,-0.774741,-1.217951,6.454178
6.379999999999996,-0.726953,-1.153701,6.497679
6.390000000000001,-0.70216,-1.087828,6.537812
6.400000000000006,-0.697687,-1.023778,6.572777
6.409999999999997,-0.677068,-0.952771,6.590855
6.420000000000002,-0.670688,-0.889571,6.619657
6.430000000000007,-0.630797,-0.78641,6.647289
6.439999999999998,-0.577993,-0.673729,6.641381
6.450000000000003,-0.570512,-0.561183,6.641095
6.459999999999994,-0.540378,-0.45564,6.607069
6.469999999999999,-0.523997,-0.329306,6.594244
6.480000000000004,-0.542843,-0.204832,6.564048
6.489999999999995,-0.551347,-0.080242,6.553211
6.5,-0.585244,0.011357,6.540906
6.510000000000005,-0.622344,0.127087,6.502122
6.519999999999996,-0.602697,0.236057,6.462928
6.530000000000001,-0.634016,0.295485,6.410983
6.540000000000006,-0.642518,0.355898,6.371184
6.549999999999997,-0.676994,0.378932,6.304302
6.560000000000002,-0.706121,0.414941,6.228508
6.570000000000007,-0.673932,0.399081,6.104796
6.579999999999998,-0.661546,0.391868,5.997118
6.590000000000003,-0.650831,0.344866,5.898404
6.599999999999994,-0.613065,0.297908,5.766916
6.609999999999999,-0.603307,0.261196,5.607411
6.6200000000000045,-0.570418,0.195125,5.446886
6.629999999999996,-0.563885,0.142705,5.267056
6.640000000000001,-0.554564,0.072794,5.027242
6.650000000000006,-0.513622,0.011736,4.799575
6.659999999999997,-0.452567,-0.073561,4.540064
6.670000000000002,-0.381015,-0.108655,4.276838
6.680000000000007,-0.300463,-0.122955,3.997663
6.689999999999998,-0.218895,-0.126886,3.706997
6.700000000000003,-0.145724,-0.132658,3.379331
6.709999999999994,-0.120517,-0.136037,3.052788
6.719999999999999,-0.119486,-0.132734,2.688465
6.730000000000004,-0.109959,-0.129478,2.292381
6.739999999999995,-0.091917,-0.133069,1.926265
6.75,-0.050148,-0.132415,1.514075
6.760000000000005,-0.022104,-0.140372,1.129318
6.769999999999996,-0.015052,-0.151881,0.72443
6.780000000000001,-0.008864,-0.165128,0.323076
6.790000000000006,-0.0539,-0.156065,-0.092886
6.799999999999997,-0.072313,-0.159014,-0.509888
6.810000000000002,-0.0823,-0.163596,-0.898752
6.820000000000007,-0.073795,-0.174976,-1.281541
6.829999999999998,-0.06733,-0.165629,-1.648538
6.840000000000003,-0.0053,-0.164673,-1.996468
6.849999999999994,0.033508,-0.179365,-2.326602
6.859999999999999,0.117966,-0.195499,-2.628789
6.8700000000000045,0.191396,-0.195985,-2.91149
6.879999999999996,0.264643,-0.215451,-3.176519
6.890000000000001,0.34302,-0.234874,-3.42837
6.900000000000006,0.392678,-0.247459,-3.658906
6.909999999999997,0.442078,-0.251347,-3.874446
6.920000000000002,0.493742,-0.230938,-4.07062
6.930000000000007,0.554271,-0.22866,-4.263306
6.939999999999998,0.600892,-0.202101,-4.424214
6.950000000000003,0.668826,-0.191881,-4.586991
6.959999999999994,0.703239,-0.185264,-4.761878
6.969999999999999,0.758443,-0.188883,-4.90341
6.980000000000004,0.785586,-0.178827,-5.066814
6.989999999999995,0.843376,-0.173779,-5.202162
7.0,0.911917,-0.161796,-5.34374
7.010000000000005,0.93323,-0.130906,-5.469122
7.019999999999996,1.005038,-0.103273,-5.596626
7.030000000000001,1.010801,-0.072345,-5.695505
7.040000000000006,1.039986,-0.036196,-5.824554
7.049999999999997,1.044953,0.003381,-5.939326
7.060000000000002,1.028148,0.021153,-6.071562
7.070000000000007,0.996527,0.002503,-6.204491
7.079999999999998,0.982654,-0.017783,-6.337504
7.090000000000003,0.95812,-0.025076,-6.471266
7.099999999999994,0.943651,-0.036546,-6.56805
7.109999999999999,0.932588,-0.018628,-6.662313
7.1200000000000045,0.900804,0.006186,-6.735262
7.129999999999996,0.883994,0.060462,-6.81454
7.140000000000001,0.858543,0.115708,-6.854954
7.150000000000006,0.809492,0.163046,-6.914603
7.159999999999997,0.776014,0.195794,-6.940824
7.170000000000002,0.736142,0.252705,-6.958282
7.180000000000007,0.67841,0.245633,-6.947221
7.189999999999998,0.648229,0.266288,-6.952328
7.200000000000003,0.580674,0.26085,-6.939535
7.209999999999994,0.520054,0.307396,-6.935675
7.219999999999999,0.470008,0.356622,-6.924789
7.230000000000004,0.43007,0.415483,-6.878707
7.239999999999995,0.432474,0.471909,-6.817941
7.25,0.436558,0.530956,-6.750991
7.260000000000005,0.465321,0.576292,-6.672701
7.269999999999996,0.452995,0.597333,-6.568486
7.280000000000001,0.465492,0.631428,-6.475091
7.290000000000006,0.407311,0.628011,-6.382946
7.299999999999997,0.382823,0.638521,-6.291105
7.310000000000002,0.328854,0.6395,-6.179595
7.320000000000007,0.267959,0.651671,-6.080418
7.329999999999998,0.22202,0.657032,-5.972439
7.340000000000003,0.158167,0.679649,-5.85554
7.349999999999994,0.107793,0.697256,-5.692867
7.359999999999999,0.082544,0.699331,-5.549788
7.370000000000003,0.050949,0.729206,-5.350311
7.3799999999999955,0.035614,0.730518,-5.157954
7.390000000000001,0.019982,0.730152,-4.944433
7.400000000000006,-0.013543,0.722006,-4.71483
7.409999999999997,-0.036973,0.728699,-4.455334
7.420000000000002,-0.076351,0.716276,-4.188651
7.430000000000007,-0.076587,0.701563,-3.876372
7.439999999999998,-0.074956,0.70591,-3.576449
7.450000000000003,-0.119235,0.69291,-3.222392
7.459999999999994,-0.150417,0.673855,-2.850871
7.469999999999999,-0.135103,0.612497,-2.492857
7.480000000000004,-0.149192,0.560656,-2.131045
7.489999999999995,-0.155513,0.485543,-1.750697
7.5,-0.142967,0.406276,-1.331702
7.510000000000005,-0.116652,0.328694,-0.943673
7.519999999999996,-0.104916,0.231268,-0.521944
7.530000000000001,-0.111823,0.157997,-0.101879
7.540000000000006,-0.106112,0.073475,0.312817
7.549999999999997,-0.103134,-0.026621,0.738134
7.560000000000002,-0.129846,-0.126023,1.135446
7.570000000000007,-0.119202,-0.228758,1.520162
7.579999999999998,-0.10526,-0.323656,1.913624
7.590000000000003,-0.08869,-0.444655,2.257679
7.599999999999994,-0.057161,-0.539649,2.598916
7.609999999999999,-0.071478,-0.626188,2.922858
7.620000000000003,-0.085995,-0.711979,3.201846
7.6299999999999955,-0.122799,-0.784026,3.484453
7.640000000000001,-0.153943,-0.84749,3.74405
7.650000000000006,-0.167858,-0.912655,3.978857
7.659999999999997,-0.202955,-0.965813,4.204947
7.670000000000002,-0.227726,-1.022477,4.392192
7.680000000000007,-0.261529,-1.077388,4.588367
7.689999999999998,-0.303542,-1.12382,4.74135
7.700000000000003,-0.336608,-1.181464,4.892532
7.709999999999994,-0.372184,-1.233128,5.032211
7.719999999999999,-0.404099,-1.284816,5.163016
7.730000000000004,-0.43584,-1.353815,5.288589
7.739999999999995,-0.471869,-1.383945,5.389377
7.75,-0.517381,-1.429588,5.541389
7.760000000000005,-0.566316,-1.475425,5.629935
7.769999999999996,-0.586525,-1.509796,5.746534
7.780000000000001,-0.598783,-1.558131,5.809325
7.790000000000006,-0.617672,-1.573558,5.893266
7.799999999999997,-0.655814,-1.578717,5.960567
7.810000000000002,-0.667667,-1.561267,6.038168
7.820000000000007,-0.68789,-1.543083,6.080518
7.829999999999998,-0.685395,-1.498843,6.134084
7.840000000000003,-0.673672,-1.46586,6.166466
7.849999999999994,-0.660322,-1.425077,6.208548
7.859999999999999,-0.648299,-1.398239,6.233027
7.870000000000003,-0.629905,-1.382623,6.253082
7.8799999999999955,-0.597262,-1.318546,6.24468
7.890000000000001,-0.579814,-1.283907,6.24965
7.900000000000006,-0.558935,-1.234504,6.256348
7.909999999999997,-0.522438,-1.179795,6.284111
7.920000000000002,-0.472182,-1.125133,6.285332
7.930000000000007,-0.454606,-1.075793,6.281525
7.939999999999998,-0.452664,-1.003212,6.246043
7.950000000000003,-0.443543,-0.939254,6.210547
7.959999999999994,-0.465744,-0.844225,6.185786
7.969999999999999,-0.465873,-0.747368,6.162595
7.980000000000004,-0.447143,-0.656552,6.125159
7.989999999999995,-0.456376,-0.560716,6.061456
8.0,-0.45933,-0.457104,5.987965
8.010000000000005,-0.478192,-0.359587,5.916395
8.019999999999996,-0.491934,-0.269103,5.805999
8.030000000000001,-0.497324,-0.146515,5.718393
8.040000000000006,-0.501333,-0.060328,5.611469
8.049999999999997,-0.48053,0.029388,5.500831
8.060000000000002,-0.484186,0.099916,5.370991
8.070000000000007,-0.476527,0.156714,5.255206
8.079999999999998,-0.468129,0.18055,5.099841
8.090000000000003,-0.482471,0.190444,4.935061
8.099999999999994,-0.477025,0.183075,4.759647
8.11,-0.465372,0.170538,4.58861
8.120000000000005,-0.444572,0.130333,4.410541
8.129999999999995,-0.423753,0.09186,4.227178
8.14,-0.383552,0.039614,4.050706
8.150000000000006,-0.337667,-0.012705,3.847691
8.159999999999997,-0.336146,-0.05393,3.641411
8.170000000000002,-0.323606,-0.089977,3.405057
8.180000000000007,-0.314583,-0.125187,3.174025
8.189999999999998,-0.30144,-0.156166,2.907695
8.200000000000003,-0.284705,-0.176768,2.637811
8.209999999999994,-0.255668,-0.210287,2.374022
8.219999999999999,-0.251836,-0.240535,2.071539
8.230000000000004,-0.240366,-0.239561,1.778613
8.239999999999995,-0.229621,-0.24295,1.47867
8.25,-0.216582,-0.253357,1.151365
8.260000000000005,-0.235425,-0.249203,0.820699
8.269999999999996,-0.216468,-0.256965,0.511826
8.280000000000001,-0.211322,-0.273493,0.179248
8.290000000000006,-0.168159,-0.270862,-0.151864
8.299999999999997,-0.128769,-0.280283,-0.466129
8.310000000000002,-0.122031,-0.293303,-0.788109
8.320000000000007,-0.083588,-0.28716,-1.103313
8.329999999999998,-0.049528,-0.281033,-1.419344
8.340000000000003,-0.026223,-0.280096,-1.724685
8.349999999999994,0.041874,-0.282389,-2.00211
8.36,0.102456,-0.273547,-2.311238
8.370000000000005,0.157211,-0.273288,-2.585052
8.379999999999995,0.218018,-0.292883,-2.846553
8.39,0.273622,-0.290006,-3.125691
8.400000000000006,0.341891,-0.280065,-3.364385
8.409999999999997,0.40994,-0.283898,-3.583623
8.420000000000002,0.485636,-0.258234,-3.794163
8.430000000000007,0.567611,-0.213579,-4.018981
8.439999999999998,0.627869,-0.179291,-4.216296
8.450000000000003,0.689016,-0.136321,-4.417076
8.459999999999994,0.711045,-0.065816,-4.613201
8.469999999999999,0.740139,-0.009108,-4.798736
8.480000000000004,0.756736,0.061423,-4.982437
8.489999999999995,0.753555,0.121533,-5.142207
8.5,0.774977,0.214643,-5.300459
8.510000000000005,0.817764,0.281904,-5.461425
8.519999999999996,0.85754,0.312913,-5.588728
8.530000000000001,0.902489,0.354331,-5.709012
8.540000000000006,0.892635,0.393788,-5.835965
8.549999999999997,0.877206,0.421184,-5.938113
8.560000000000002,0.840633,0.450222,-6.049826
8.570000000000007,0.809094,0.49317,-6.15281
8.579999999999998,0.732064,0.514337,-6.226388
8.590000000000003,0.689899,0.548537,-6.323182
8.599999999999994,0.615559,0.585297,-6.403842
8.61,0.591212,0.637023,-6.454903
8.620000000000005,0.535934,0.66181,-6.500399
8.629999999999995,0.504686,0.67803,-6.549548
8.64,0.461448,0.689141,-6.566807
8.650000000000006,0.399489,0.712309,-6.58398
8.659999999999997,0.318102,0.73279,-6.604546
8.670000000000002,0.245289,0.765447,-6.609347
8.680000000000007,0.203458,0.775722,-6.603745
8.689999999999998,0.150833,0.79119,-6.589229
8.700000000000003,0.095769,0.797969,-6.584359
8.709999999999994,0.047817,0.812575,-6.579524
8.719999999999999,0.003261,0.849695,-6.570366
8.730000000000004,-0.038544,0.873821,-6.563002
8.739999999999995,-0.09506,0.918755,-6.530863
8.75,-0.127749,0.968956,-6.493625
8.760000000000005,-0.147902,1.013994,-6.458195
8.769999999999996,-0.184324,1.074607,-6.405915
8.780000000000001,-0.181797,1.112888,-6.346845
8.790000000000006,-0.186526,1.133854,-6.272755
8.799999999999997,-0.214273,1.144377,-6.202892
8.810000000000002,-0.238505,1.163575,-6.136583
8.820000000000007,-0.278174,1.165502,-6.03746
8.829999999999998,-0.301706,1.156177,-5.941991
8.840000000000003,-0.305364,1.167735,-5.811446
8.849999999999994,-0.278495,1.136992,-5.69686
8.86,-0.277414,1.125368,-5.525665
8.870000000000005,-0.252762,1.115647,-5.336087
8.879999999999995,-0.290416,1.112624,-5.129366
8.89,-0.27572,1.076889,-4.913278
8.900000000000006,-0.263123,1.060252,-4.683981
8.909999999999997,-0.28335,1.038512,-4.396213
8.920000000000002,-0.287743,0.990878,-4.090899
8.930000000000007,-0.280624,0.945135,-3.732806
8.939999999999998,-0.246654,0.879531,-3.385464
8.950000000000003,-0.218606,0.80455,-2.99392
8.959999999999994,-0.174958,0.73234,-2.583054
8.969999999999999,-0.167095,0.643622,-2.140129
8.980000000000004,-0.136607,0.572275,-1.669225
8.989999999999995,-0.110155,0.478353,-1.214101
9.0,-0.094491,0.377526,-0.748268
9.010000000000003,-0.05867,0.261332,-0.268367
9.019999999999996,-0.058808,0.146843,0.243523
9.03,0.010457,0.039451,0.73192
9.040000000000006,0.05303,-0.06632,1.225729
9.049999999999995,0.135197,-0.180688,1.681364
9.060000000000002,0.194475,-0.279589,2.123028
9.070000000000007,0.234657,-0.370866,2.537473
9.079999999999998,0.253988,-0.455409,2.922029
9.090000000000003,0.231325,-0.530734,3.268891
9.099999999999994,0.219702,-0.623386,3.59454
9.11,0.19236,-0.712666,3.903526
9.120000000000005,0.156276,-0.780352,4.196664
9.129999999999995,0.135833,-0.842847,4.449175
9.14,0.112413,-0.885596,4.655767
9.150000000000006,0.094298,-0.935274,4.865873
9.159999999999997,0.058729,-0.979846,5.054061
9.170000000000002,0.01007,-1.024503,5.231753
9.180000000000009,-0.068238,-1.064192,5.377869
9.189999999999998,-0.171335,-1.116957,5.530348
9.200000000000005,-0.21561,-1.150525,5.653262
9.209999999999994,-0.249298,-1.200445,5.784984
9.22,-0.3058,-1.240131,5.898327
9.230000000000004,-0.35005,-1.291986,5.968451
9.239999999999997,-0.417959,-1.3388,6.02198
9.25,-0.470698,-1.376951,6.067429
9.260000000000003,-0.5582,-1.411766,6.126289
9.269999999999996,-0.60259,-1.449983,6.143336
9.28,-0.648876,-1.484711,6.168354
9.290000000000006,-0.65274,-1.495094,6.191209
9.299999999999995,-0.638462,-1.517604,6.194589
9.310000000000002,-0.64709,-1.536726,6.190254
9.320000000000007,-0.659445,-1.529909,6.191169
9.329999999999998,-0.651755,-1.537006,6.160151
9.340000000000003,-0.656851,-1.523323,6.141495
9.349999999999994,-0.638904,-1.516468,6.122694
9.36,-0.645816,-1.491481,6.100542
9.370000000000005,-0.650304,-1.489066,6.051147
9.379999999999995,-0.619748,-1.470019,6.01912
9.39,-0.615625,-1.439871,5.973996
9.400000000000006,-0.609451,-1.418411,5.907677
9.409999999999997,-0.575389,-1.387259,5.864931
9.420000000000002,-0.543293,-1.342233,5.832787
9.430000000000009,-0.500605,-1.25911,5.796996
9.439999999999998,-0.454646,-1.182847,5.785901
9.450000000000005,-0.433931,-1.073726,5.789014
9.459999999999994,-0.412296,-0.97236,5.788631
9.47,-0.394409,-0.84763,5.789957
9.480000000000004,-0.404857,-0.71699,5.789664
9.489999999999997,-0.432554,-0.615074,5.770113
9.5,-0.455329,-0.52535,5.725868
9.510000000000003,-0.499394,-0.440838,5.685384
9.519999999999996,-0.536119,-0.359782,5.630797
9.53,-0.526639,-0.280317,5.574147
9.540000000000006,-0.517712,-0.225112,5.505227
9.549999999999995,-0.49276,-0.168108,5.429169
9.560000000000002,-0.472167,-0.112029,5.347799
9.570000000000007,-0.459777,-0.078605,5.231233
9.579999999999998,-0.424445,-0.04677,5.114524
9.590000000000003,-0.385572,-0.023548,4.997803
9.599999999999994,-0.321489,0.003977,4.850869
9.61,-0.296121,0.015738,4.697227
9.620000000000005,-0.2629,0.024146,4.55775
9.629999999999995,-0.242477,0.015165,4.391963
9.64,-0.176946,0.030557,4.222229
9.650000000000006,-0.107246,0.042561,4.064787
9.659999999999997,-0.072646,0.038774,3.888192
9.670000000000002,-0.044957,0.031444,3.699283
9.680000000000009,-0.002675,0.022369,3.482062
9.689999999999998,0.021862,0.008048,3.27382
9.700000000000005,0.082469,0.009282,3.025623
9.709999999999994,0.126339,-0.00858,2.777604
9.72,0.162855,-0.031615,2.542805
9.730000000000004,0.162002,-0.04629,2.249973
9.739999999999997,0.153269,-0.056653,1.943961
9.75,0.137006,-0.072331,1.613333
9.760000000000003,0.132385,-0.059512,1.272842
9.769999999999996,0.127463,-0.083104,0.913084
9.78,0.134978,-0.099707,0.550596
9.790000000000006,0.163501,-0.097144,0.196737
9.799999999999995,0.213894,-0.105006,-0.195214
9.810000000000002,0.244578,-0.130187,-0.567553
9.820000000000007,0.29284,-0.155287,-0.929425
9.829999999999998,0.327136,-0.194312,-1.30353
9.840000000000003,0.347951,-0.261003,-1.661609
9.849999999999994,0.375826,-0.313857,-2.022471
9.86,0.347889,-0.373845,-2.381192
9.870000000000005,0.329705,-0.4442,-2.737336
9.879999999999995,0.298365,-0.499076,-3.104023
9.89,0.288202,-0.552066,-3.467258
9.900000000000006,0.303396,-0.582423,-3.813056
9.909999999999997,0.351753,-0.600461,-4.130873
9.920000000000002,0.43732,-0.588762,-4.403119
9.930000000000009,0.537575,-0.559664,-4.661449
9.939999999999998,0.608108,-0.521946,-4.894927
9.950000000000005,0.685502,-0.476391,-5.115256
9.959999999999994,0.757337,-0.416959,-5.323184
9.97,0.821772,-0.354869,-5.510722
9.980000000000004,0.866576,-0.279875,-5.688435
9.989999999999997,0.892859,-0.166786,-5.822008
10.0,0.871641,-0.0738,-5.971935
10.010000000000003,0.832741,-0.006803,-6.118142
10.019999999999996,0.825086,0.076854,-6.231122
10.03,0.82482,0.151851,-6.363541
10.040000000000006,0.813666,0.18624,-6.467567
10.049999999999995,0.807692,0.223272,-6.562812
10.060000000000002,0.780541,0.232512,-6.652583
10.070000000000007,0.743868,0.232136,-6.751105
10.079999999999998,0.713306,0.205839,-6.827542
10.090000000000003,0.669464,0.205494,-6.918886
10.099999999999994,0.599363,0.19911,-6.974738
10.11,0.513645,0.175271,-7.045474
10.120000000000005,0.400882,0.172188,-7.094008
10.129999999999995,0.292505,0.20895,-7.155855
10.14,0.18001,0.26394,-7.184219
10.150000000000006,0.047352,0.298885,-7.213308
10.159999999999997,-0.073594,0.404896,-7.217946
10.170000000000002,-0.191204,0.52391,-7.212068
10.180000000000009,-0.281845,0.618746,-7.223954
10.189999999999998,-0.34094,0.725887,-7.218406
10.200000000000005,-0.363177,0.834962,-7.190179
10.209999999999994,-0.383712,0.961335,-7.158489
10.22,-0.378145,1.061825,-7.14542
10.230000000000004,-0.399807,1.160595,-7.093358
10.239999999999997,-0.438001,1.255804,-7.057932
10.25,-0.473511,1.354429,-7.019023
10.260000000000003,-0.49038,1.437544,-6.978463
10.269999999999996,-0.506591,1.515508,-6.91671
10.28,-0.490764,1.564197,-6.851553
10.290000000000006,-0.495397,1.60074,-6.782706
10.299999999999995,-0.457243,1.630657,-6.677096
10.310000000000002,-0.424271,1.61904,-6.571344
10.320000000000007,-0.430682,1.611622,-6.436258
10.329999999999998,-0.397104,1.580939,-6.296168
10.340000000000003,-0.404336,1.535403,-6.151392
10.349999999999994,-0.410753,1.508014,-6.006669
10.36,-0.424739,1.446188,-5.82824
10.370000000000005,-0.448223,1.400023,-5.614501
10.379999999999995,-0.431328,1.360994,-5.37813
10.39,-0.401593,1.335945,-5.115375
10.400000000000006,-0.356025,1.278116,-4.82793
10.409999999999997,-0.31076,1.241058,-4.522893
10.420000000000002,-0.226276,1.171391,-4.164306
10.430000000000009,-0.189923,1.086018,-3.785984
10.439999999999998,-0.124788,0.990403,-3.377046
10.450000000000005,-0.061027,0.863568,-2.983907
10.459999999999994,0.025507,0.735169,-2.578558
10.47,0.120623,0.589546,-2.145
10.480000000000004,0.196019,0.442209,-1.688278
10.489999999999997,0.258911,0.305231,-1.229747
10.5,0.335063,0.133607,-0.755498
10.510000000000003,0.414694,-0.041381,-0.286492
10.519999999999996,0.475378,-0.19212,0.193225
10.53,0.567791,-0.338361,0.679776
10.540000000000006,0.60294,-0.490059,1.147338
10.549999999999995,0.632592,-0.612394,1.616571
10.560000000000002,0.632364,-0.718513,2.065628
10.570000000000007,0.633751,-0.818558,2.525211
10.579999999999998,0.61725,-0.917913,2.939954
10.590000000000003,0.592179,-0.976706,3.32382
10.599999999999994,0.556735,-1.040723,3.691063
10.61,0.512303,-1.084841,4.061002
10.620000000000005,0.460897,-1.106537,4.417709
10.629999999999995,0.408106,-1.140408,4.75151
10.64,0.325358,-1.160594,5.069569
10.650000000000006,0.259233,-1.168731,5.340757
10.659999999999997,0.201877,-1.187173,5.619005
10.670000000000002,0.178319,-1.198627,5.885496
10.680000000000009,0.162411,-1.196296,6.110467
10.689999999999998,0.123445,-1.200955,6.337377
10.700000000000005,0.0691,-1.205727,6.526523
10.709999999999994,0.006284,-1.203723,6.690099
10.72,-0.084553,-1.214045,6.83619
10.730000000000004,-0.160825,-1.200201,6.949456
10.739999999999997,-0.263583,-1.169145,7.050554
10.75,-0.362148,-1.13646,7.108417
10.760000000000003,-0.430726,-1.09157,7.171307
10.769999999999996,-0.460026,-1.053482,7.214548
10.78,-0.467609,-1.003074,7.280594
10.790000000000006,-0.506876,-0.958064,7.342432
10.799999999999995,-0.504099,-0.930331,7.390747
10.810000000000002,-0.487844,-0.888737,7.424855
10.820000000000007,-0.501557,-0.854174,7.445969
10.829999999999998,-0.52098,-0.804147,7.428311
10.840000000000003,-0.55435,-0.760297,7.398387
10.849999999999994,-0.578773,-0.702552,7.356064
10.86,-0.589103,-0.661114,7.324311
10.870000000000005,-0.567225,-0.607521,7.270238
10.879999999999995,-0.520546,-0.568572,7.226575
10.89,-0.468431,-0.54862,7.178529
10.900000000000006,-0.440899,-0.473483,7.093463
10.909999999999997,-0.407804,-0.431242,6.9996
10.920000000000002,-0.415216,-0.376245,6.88659
10.930000000000009,-0.426033,-0.322144,6.76658
10.939999999999998,-0.443246,-0.288768,6.66784
10.950000000000005,-0.467349,-0.239006,6.5497
10.959999999999994,-0.47807,-0.195295,6.429658
10.97,-0.453576,-0.165239,6.32881
10.980000000000004,-0.398748,-0.130739,6.211927
10.989999999999997,-0.361718,-0.111821,6.104083
11.0,-0.308598,-0.120547,5.994428
11.010000000000003,-0.308816,-0.131172,5.897487
11.019999999999996,-0.294583,-0.15907,5.785505
11.03,-0.28318,-0.195572,5.687727
11.040000000000006,-0.260782,-0.202726,5.563359
11.049999999999995,-0.263972,-0.213471,5.439159
11.060000000000002,-0.235123,-0.243113,5.309488
11.070000000000007,-0.17943,-0.246803,5.149509
11.079999999999998,-0.121388,-0.224686,4.945332
11.090000000000003,-0.077505,-0.209562,4.743901
11.099999999999994,-0.00981,-0.196252,4.490218
11.11,0.00491,-0.191832,4.227222
11.120000000000005,0.027545,-0.178879,3.905974
11.129999999999995,-0.008002,-0.173155,3.572754
11.14,0.008513,-0.169957,3.193283
11.150000000000006,0.006063,-0.166948,2.774182
11.159999999999997,-0.028854,-0.180653,2.274234
11.170000000000002,-0.112742,-0.191023,1.789635
11.180000000000009,-0.169376,-0.211745,1.267918
11.189999999999998,-0.256895,-0.222219,0.739377
11.200000000000005,-0.349419,-0.248363,0.194984
11.209999999999994,-0.407008,-0.274315,-0.316151
11.22,-0.416692,-0.317347,-0.825772
11.230000000000004,-0.423361,-0.34986,-1.305423
11.239999999999997,-0.41768,-0.388346,-1.779816
11.25,-0.423362,-0.42502,-2.208302
11.260000000000003,-0.411858,-0.464145,-2.599892
11.269999999999996,-0.405971,-0.505832,-2.977346
11.28,-0.386473,-0.530128,-3.323256
11.290000000000006,-0.316065,-0.54202,-3.643048
11.299999999999995,-0.288332,-0.552293,-3.95191
11.310000000000002,-0.220718,-0.538886,-4.211684
11.320000000000007,-0.16359,-0.506338,-4.429075
11.329999999999998,-0.094398,-0.452926,-4.634271
11.340000000000003,-0.007716,-0.387186,-4.77267
11.349999999999994,0.067817,-0.277333,-4.891744
11.36,0.123843,-0.159798,-5.010736
11.370000000000005,0.183139,-0.048228,-5.112078
11.379999999999995,0.256163,0.086823,-5.188838
11.39,0.332153,0.190759,-5.274273
11.400000000000006,0.404099,0.282664,-5.319045
11.409999999999997,0.472046,0.365808,-5.386695
11.420000000000002,0.545757,0.457704,-5.430604
11.430000000000009,0.592934,0.532197,-5.470784
11.439999999999998,0.663536,0.577289,-5.526961
11.450000000000005,0.734396,0.61539,-5.599021
11.459999999999994,0.800845,0.630988,-5.663051
11.47,0.823366,0.643843,-5.750477
11.480000000000004,0.831506,0.654099,-5.821906
11.489999999999997,0.854078,0.661765,-5.910188
11.5,0.811343,0.628521,-6.003195
11.510000000000003,0.75055,0.607372,-6.07848
11.519999999999996,0.687076,0.589488,-6.206671
11.53,0.622159,0.582071,-6.295169
11.540000000000006,0.594635,0.552357,-6.397038
11.549999999999995,0.570864,0.53404,-6.469872
11.560000000000002,0.499553,0.529317,-6.568027
11.570000000000007,0.448721,0.518711,-6.606387
11.579999999999998,0.377024,0.520049,-6.670193
11.590000000000003,0.308592,0.536181,-6.726964
11.599999999999994,0.189223,0.539256,-6.757774
11.61,0.066203,0.555274,-6.786872
11.620000000000005,-0.0593,0.539257,-6.810584
11.629999999999995,-0.174688,0.554516,-6.804403
11.64,-0.256629,0.585351,-6.844322
11.650000000000006,-0.365184,0.617833,-6.876981
11.659999999999997,-0.444704,0.669491,-6.903695
11.670000000000002,-0.531656,0.734187,-6.91005
11.680000000000009,-0.618212,0.821424,-6.892685
11.689999999999998,-0.668711,0.907968,-6.860607
11.700000000000005,-0.685354,1.005101,-6.777666
11.709999999999994,-0.658834,1.115388,-6.682749
11.72,-0.648715,1.180753,-6.545276
11.730000000000004,-0.619393,1.269513,-6.395722
11.739999999999997,-0.585253,1.33065,-6.203894
11.75,-0.553919,1.360494,-6.047264
11.760000000000003,-0.521544,1.359376,-5.83588
11.769999999999996,-0.506872,1.333977,-5.624325
11.78,-0.468101,1.312221,-5.366227
11.790000000000006,-0.429285,1.245574,-5.102715
11.799999999999995,-0.389565,1.196502,-4.790597
11.810000000000002,-0.314759,1.140704,-4.453985
11.820000000000007,-0.249437,1.060651,-4.066222
11.829999999999998,-0.177538,0.955548,-3.636214
11.840000000000003,-0.10172,0.829665,-3.227345
11.849999999999994,-0.019349,0.681419,-2.776154
11.86,0.066631,0.502039,-2.316103
11.870000000000005,0.154305,0.323549,-1.845446
11.879999999999995,0.229369,0.170199,-1.370267
11.89,0.276406,-0.001477,-0.907176
11.900000000000006,0.311136,-0.158511,-0.454607
11.909999999999997,0.318148,-0.307805,0.010494
11.920000000000002,0.324842,-0.446648,0.488786
11.930000000000009,0.333807,-0.568283,0.925543
11.939999999999998,0.36691,-0.679334,1.399122
11.950000000000005,0.406796,-0.774042,1.831165
11.959999999999994,0.470361,-0.861887,2.220679
11.97,0.532083,-0.90306,2.60038
11.980000000000004,0.573869,-0.959921,2.955603
11.989999999999997,0.593154,-0.982216,3.323275
12.0,0.626372,-1.023589,3.655621
12.010000000000003,0.642661,-1.019198,3.979126
12.019999999999996,0.67712,-1.027758,4.274331
12.03,0.679557,-1.027765,4.577702
12.040000000000006,0.668496,-1.002877,4.828162
12.049999999999995,0.647866,-0.972892,5.066304
12.060000000000002,0.602932,-0.953467,5.272905
12.070000000000007,0.559439,-0.895884,5.484746
12.079999999999998,0.5058,-0.858265,5.664985
12.090000000000003,0.42654,-0.819072,5.843593
12.099999999999994,0.402512,-0.742586,5.997002
12.11,0.376971,-0.673938,6.1363
12.120000000000005,0.337759,-0.607182,6.240373
12.129999999999995,0.250054,-0.536265,6.325444
12.14,0.107517,-0.451682,6.398595
12.150000000000006,-0.025165,-0.354987,6.46284
12.159999999999997,-0.169559,-0.253156,6.535892
12.170000000000002,-0.292292,-0.173811,6.587623
12.180000000000009,-0.399817,-0.134211,6.649936
12.189999999999998,-0.444641,-0.082453,6.675566
12.200000000000005,-0.448373,-0.013353,6.679658
12.209999999999994,-0.44905,0.02109,6.668809
12.22,-0.46112,0.064789,6.592803
12.230000000000004,-0.460632,0.121977,6.453073
12.239999999999997,-0.435565,0.156897,6.267582
12.25,-0.436135,0.203716,6.00997
12.260000000000003,-0.409902,0.22465,5.741605
12.269999999999996,-0.379774,0.249053,5.442317
12.28,-0.357078,0.261206,5.114831
12.290000000000006,-0.283645,0.245568,4.73673
12.299999999999995,-0.241914,0.237544,4.335899
12.310000000000002,-0.258288,0.205025,3.917076
12.320000000000007,-0.306374,0.169749,3.491467
12.329999999999998,-0.308779,0.131286,3.089374
12.340000000000003,-0.306105,0.105937,2.692564
12.349999999999994,-0.320029,0.075461,2.332886
12.36,-0.314775,0.026077,1.992449
12.370000000000005,-0.324075,-0.018036,1.674172
12.379999999999995,-0.30871,-0.04126,1.359233
12.39,-0.309615,-0.067065,1.07003
12.400000000000006,-0.259707,-0.079622,0.817513
12.409999999999997,-0.230262,-0.100054,0.570432
12.420000000000002,-0.197944,-0.133382,0.370943
12.430000000000009,-0.166865,-0.154516,0.194434
12.439999999999998,-0.122135,-0.171167,0.05841
12.450000000000005,-0.119897,-0.201818,-0.070241
12.459999999999994,-0.097687,-0.236563,-0.177712
12.47,-0.083121,-0.267787,-0.252527
12.480000000000004,-0.053483,-0.295542,-0.329295
12.489999999999997,-0.069865,-0.325253,-0.406675
12.5,-0.057747,-0.333988,-0.447289
12.510000000000003,-0.062616,-0.36881,-0.526508
12.519999999999996,-0.058619,-0.360223,-0.560037
12.53,-0.02425,-0.382652,-0.606072
12.540000000000006,-0.000725,-0.373984,-0.639721
12.549999999999995,0.024518,-0.339391,-0.678782
12.560000000000002,0.053308,-0.339366,-0.703638
12.570000000000007,0.085491,-0.32026,-0.728537
12.579999999999998,0.106551,-0.266502,-0.736661
12.590000000000003,0.095836,-0.242356,-0.737526
12.599999999999994,0.079945,-0.213993,-0.746411
12.61,0.053522,-0.204665,-0.756899
12.620000000000005,0.028512,-0.175366,-0.753312
12.629999999999995,-0.015937,-0.161686,-0.751335
12.64,-0.032297,-0.145257,-0.735462
12.650000000000006,-0.0335,-0.102877,-0.730306
12.659999999999997,-0.050976,-0.064878,-0.697713
12.670000000000002,-0.041964,-0.059536,-0.649271
12.680000000000009,-0.031241,-0.052361,-0.598996
12.689999999999998,-0.045631,-0.047144,-0.587421
12.700000000000005,-0.079846,-0.067899,-0.551892
12.709999999999994,-0.107591,-0.066252,-0.541218
12.72,-0.130036,-0.073235,-0.51996
12.730000000000004,-0.111145,-0.07478,-0.479536
12.739999999999997,-0.112285,-0.079901,-0.457419
12.75,-0.098006,-0.079697,-0.401897
12.760000000000003,-0.094438,-0.076061,-0.347213
12.769999999999996,-0.075843,-0.074121,-0.294486
12.78,-0.03652,-0.082578,-0.261336
12.790000000000006,-0.052942,-0.102487,-0.222443
12.799999999999995,-0.035942,-0.110105,-0.173204
12.810000000000002,-0.027851,-0.135923,-0.11506
12.820000000000007,-0.004769,-0.11824,-0.007687
12.829999999999998,0.026187,-0.102359,0.050307
12.840000000000003,0.062943,-0.093341,0.139977
12.849999999999994,0.065599,-0.07416,0.197248
12.86,0.019685,-0.069021,0.2443
12.870000000000005,-0.013174,-0.048238,0.300895
12.879999999999995,-0.064912,-0.046619,0.324199
12.89,-0.088981,-0.053575,0.334979
12.900000000000006,-0.095452,-0.038858,0.350879
12.909999999999997,-0.111568,-0.013832,0.36151
12.920000000000002,-0.125477,0.018924,0.340413
12.930000000000009,-0.11152,0.036337,0.346502
12.939999999999998,-0.081728,0.065925,0.355052
12.950000000000005,-0.033802,0.072128,0.346737
12.959999999999994,-0.003983,0.091291,0.358784
12.97,0.028325,0.100811,0.324948
12.980000000000004,0.037469,0.093828,0.308961
12.989999999999997,0.034249,0.097196,0.287792
13.0,0.059795,0.093695,0.241755
13.010000000000003,0.051336,0.078033,0.222447
13.019999999999996,0.082501,0.07122,0.214319
13.03,0.115679,0.062644,0.188531
13.040000000000006,0.119758,0.050471,0.155018
13.049999999999995,0.116769,0.021834,0.128662
13.060000000000002,0.135052,0.026147,0.091527
13.070000000000007,0.131892,0.048576,0.059805
13.079999999999998,0.13078,0.009554,0.031708
13.090000000000003,0.118823,0.007704,0.005343
13.099999999999994,0.13153,0.008571,-0.015032
13.11,0.128475,0.009356,-0.049387
13.120000000000005,0.12879,0.015374,-0.074077
13.129999999999995,0.143294,0.022307,-0.098844
13.14,0.135023,0.009207,-0.133991
13.150000000000006,0.106611,0.02208,-0.135569
13.159999999999997,0.113264,0.025472,-0.169144
13.170000000000002,0.106333,0.021937,-0.177046
13.180000000000009,0.112752,0.03229,-0.193878
13.189999999999998,0.118133,0.032295,-0.199227
13.200000000000005,0.113297,0.021817,-0.230944
13.209999999999994,0.111237,0.020141,-0.216837
13.22,0.112984,0.013224,-0.215092
13.230000000000004,0.1150586652797897,-0.0024095817402331,-0.2275147523532275
13.239999999999997,0.1184305248360403,0.0210226915963703,-0.2231459828744555
13.25,0.1071461564765345,0.012312502378228,-0.2344904669433953
13.260000000000003,0.0952247584918,0.0253153788463008,-0.2150534467374953
13.269999999999996,0.0789918771238152,0.0253331164846972,-0.1954994086055383
13.28,0.0362761381539479,0.0338657820140283,-0.1828332309392797
13.290000000000006,-0.027624486100944,0.0405404687059382,-0.1736031269488008
13.299999999999995,-0.1092702928755599,0.0677360682981561,-0.1521918280546292
13.310000000000002,-0.2023687740881835,0.0485809243948967,-0.1567029724678346
13.320000000000007,-0.3623920422748267,0.0601917146315972,-0.1361604152984484
13.329999999999998,-0.5213401553012821,0.0753690361665562,-0.1296784670546314
13.340000000000003,-0.7208255378074787,0.0721029334954387,-0.1257012659258359
13.349999999999994,-0.9580158821586872,0.0791802285727425,-0.0967143573859326
13.36,-1.2241006873950762,0.0842564150381287,-0.0702103265412757
13.370000000000005,-1.5475669967697194,0.0979758104636296,-0.0107441093865916
13.379999999999995,-1.866031522286234,0.0935444414283228,0.0699971310502496
13.39,-2.20424964167686,0.1133513075120069,0.1551499963364859
13.400000000000006,-2.555338388343029,0.1099020453850092,0.280996523803564
13.409999999999997,-2.9192587540191663,0.1340664647703578,0.4247240579457183
13.420000000000002,-3.254932529002223,0.1559359983710996,0.5752469110319047
13.430000000000009,-3.585464352754514,0.1776855823728798,0.7461108163374657
13.439999999999998,-3.884198912201224,0.1954581509072886,0.9220254617995732
13.450000000000005,-4.218295936188362,0.1783060771879447,1.119330123253379
13.459999999999994,-4.540361257211897,0.1379772821090744,1.3113866724443102
13.47,-4.819647617153824,0.0614438169779228,1.5208400562992603
13.480000000000004,-5.0878622025963605,-0.0238902219511948,1.7118136166973903
13.489999999999997,-5.274478828321647,-0.1261298440452723,1.889029063659386
13.5,-5.392172264572306,-0.2558642920852519,2.045670333867016
13.510000000000003,-5.465206142537961,-0.3821726829255596,2.171993619087193
13.519999999999996,-5.484723736747108,-0.5057168960092435,2.277313519018836
13.53,-5.463656679595654,-0.6353126631715889,2.3893972623536923
13.540000000000006,-5.43371454432206,-0.7570656247044963,2.4564682519338232
13.549999999999995,-5.426950665363306,-0.9169649248486416,2.5147542115824675
13.560000000000002,-5.384227127087738,-1.076718442084108,2.545112320506599
13.570000000000007,-5.429126479426705,-1.2376296019446824,2.5107274441372605
13.579999999999998,-5.385686692666471,-1.4231736030860125,2.429622785027869
13.590000000000003,-5.212518296564864,-1.5731457335775094,2.3035223410008623
13.599999999999994,-4.960948290500137,-1.6893965116209282,2.1521794472029683
13.61,-4.655017335995283,-1.7732529006223128,2.051513920250486
13.620000000000005,-4.331355398518831,-1.8005126085565757,2.007064333964358
13.629999999999995,-3.941816271448903,-1.789435527921267,1.98325282866414
13.64,-3.5426674727549603,-1.7527430307592935,1.9184708788201077
13.650000000000006,-3.128726270257799,-1.6850206947060211,1.8218770239406068
13.659999999999997,-2.724258746285912,-1.5894410132146908,1.6891214430809516
13.670000000000002,-2.3449494704454232,-1.4679326582990806,1.5917602130939577
13.680000000000009,-2.040439865583582,-1.3110782256749791,1.4942149379662315
13.689999999999998,-1.7463541388218875,-1.1440667802876636,1.3860769202945595
13.700000000000005,-1.522994406699702,-0.9393234589618964,1.2605050746875035
13.709999999999994,-1.2950520944518331,-0.74464424349917,1.162134301227833
13.72,-1.1246002679610574,-0.5556367760362819,1.0397010948345065
13.730000000000004,-1.018697054296937,-0.3736122763561297,0.9375061340414168
13.739999999999997,-0.9349068946552648,-0.1953025141442658,0.8467370615189097
13.75,-0.8527940876862173,-0.0064930272152524,0.7335687213282375
13.760000000000003,-0.7443037116439797,0.1429338921091565,0.6584960859255395
13.769999999999996,-0.5982675786426593,0.2849514164069918,0.5550840941078748
13.78,-0.3833501244587579,0.4405509782487294,0.4613559758009721
13.790000000000006,-0.0879600494334553,0.5383435742684534,0.343855963992544
13.799999999999995,0.2580512583369216,0.61265206636559,0.1876424320912095
13.810000000000002,0.6723103918210447,0.6656411685682156,0.0618319426763205
13.820000000000007,1.196774365164783,0.710354235391723,-0.0767725711376279
13.829999999999998,1.7575590914773844,0.7475096740656637,-0.199338492381315
13.840000000000003,2.3410557525020748,0.7694033400970187,-0.2900329849316355
13.849999999999994,2.948160527673324,0.7730470972355035,-0.363444056977497
13.86,3.5711774465878405,0.7838648201247904,-0.4049088666569468
13.870000000000005,4.12386646207567,0.7823391180495461,-0.4685853025845568
13.879999999999995,4.625037267262297,0.7851025252568774,-0.5275281693316091
13.89,5.005690277687447,0.7956572510777483,-0.60754228572082
13.900000000000006,5.269949930751704,0.8344883362710054,-0.7179298711188229
13.909999999999997,5.468179058058478,0.8435109089339101,-0.8463973358727508
13.920000000000002,5.636921838865102,0.8576040568387617,-0.9886810874033456
13.930000000000009,5.789677917190141,0.8490791270247331,-1.1136618238053853
13.939999999999998,5.950329751180107,0.8493179882585892,-1.2170567291178385
13.950000000000005,6.127883836917363,0.8066300350939457,-1.3279494225365605
13.959999999999994,6.229276829227463,0.7599828757418683,-1.4043261497062722
13.97,6.244865252567203,0.6786561650692298,-1.5353337370464328
13.980000000000004,6.258286559686445,0.5760943139234485,-1.6753204365881669
13.989999999999997,6.35761309852617,0.4721706452784523,-1.84760771813113
14.0,6.436201640455784,0.3741948849053158,-1.983324766046385
14.010000000000003,6.520068989943996,0.2730625527085592,-2.1078274505644137
14.019999999999996,6.5211162031772885,0.1738877978243621,-2.216501860900461
14.03,6.508304314852612,0.0751966145084738,-2.2989883115627534
14.040000000000006,6.435088387199267,-0.0496552223328894,-2.374897001616094
14.049999999999995,6.171117924800578,-0.1444792726563248,-2.433648736555327
14.060000000000002,5.913716361957078,-0.2048242341181327,-2.4776155978535344
14.070000000000007,5.76643136068496,-0.2542535262442599,-2.5297816691619324
14.079999999999998,5.727013087170663,-0.3282776172633532,-2.618497335798601
14.090000000000003,5.753632668567519,-0.4116682304339267,-2.6890833136476844
14.099999999999994,5.700023795843779,-0.4741752203081998,-2.755856332333585
14.11,5.7126368499410045,-0.5502595183945178,-2.7765802221542666
14.120000000000005,5.826850595485421,-0.6577345951690365,-2.7563721793351754
14.129999999999995,5.901707309701435,-0.7667410089431689,-2.711709743318072
14.14,5.855084957330928,-0.8342152670929655,-2.649683153131207
14.150000000000006,5.701153384878784,-0.9070510948021736,-2.5737550722584785
14.159999999999997,5.5092532394173865,-0.942564124575604,-2.5280495633093816
14.170000000000002,5.31646820301085,-0.9398054965772636,-2.480419723088823
14.180000000000009,5.194868430952334,-0.9091826825971814,-2.47959777204741
14.189999999999998,5.205682971461906,-0.8937754523827589,-2.472539248325738
14.200000000000005,5.407623414224407,-0.8603557238757441,-2.521496277760737
14.209999999999994,5.569993423628946,-0.8082477486860354,-2.5296728535152257
14.22,5.55603403333947,-0.7658571450594907,-2.49192597547422
14.230000000000004,5.387207513302757,-0.6763482718052185,-2.4239843176595004
14.239999999999997,5.079944029604171,-0.593030852591375,-2.341899320515208
14.25,4.689428117477964,-0.4889111529918634,-2.224108640147372
14.260000000000003,4.3372828717190925,-0.3635305082815964,-2.122901468799412
14.269999999999996,4.013915138309257,-0.2261058327248928,-2.018810904072705
14.28,3.7629002874425272,-0.0743698720700122,-1.9132839755074489
14.290000000000006,3.580257038192289,0.0777192108223587,-1.78561628724318
14.299999999999995,3.4047289885889755,0.2179281254009528,-1.636451520226503
14.310000000000002,3.2601378750908587,0.3603661055346128,-1.4805223199595294
14.320000000000007,3.0187285179068737,0.5057538405965502,-1.3324300733346934
14.329999999999998,2.7123498194927778,0.6219158490142467,-1.1843504451420914
14.340000000000003,2.3594575802671724,0.737323155942544,-1.031861705829374
14.349999999999994,2.0445314458284125,0.8181656022707462,-0.8992982460448675
14.36,1.7651856094136211,0.8785042976281391,-0.7615877872146389
14.370000000000005,1.563243036891086,0.9256593739966,-0.6157514491143093
14.379999999999995,1.3889667074709862,0.9737458076983392,-0.4607788593596139
14.39,1.2093306352337472,0.971813427451786,-0.3184772350757075
14.400000000000006,1.034223233618766,1.0044348217381185,-0.160752069678199
14.409999999999997,0.8135561291266905,0.9975604917443308,-0.0538054165084417
14.420000000000002,0.5469621254067216,0.986635548519468,0.0835726643160214
14.430000000000009,0.2741333242772193,0.936358656406889,0.1957954935119255
14.439999999999998,0.0282740009651507,0.8791512669719874,0.3021937865809885
14.450000000000005,-0.2711205544213077,0.823975390177127,0.3945071351878849
14.459999999999994,-0.6067210950492875,0.7487638404984363,0.4445094751641644
14.47,-0.9346696500767114,0.6577997493628523,0.5152930900145213
14.480000000000004,-1.2762772561930094,0.5726503981747746,0.5509037110691731
14.489999999999997,-1.5842777831654609,0.4875483838800928,0.58425054479506
14.5,-1.927152773410364,0.4001236766660283,0.621884272885766
14.510000000000003,-2.2582016070193096,0.2814260099225306,0.6628307355312402
14.519999999999996,-2.6333842607114675,0.1572345202218598,0.6845348217042603
14.53,-2.989858310711669,0.0284233898494653,0.7541302389041136
14.540000000000006,-3.40350530934168,-0.0778885305032213,0.7719171723182597
14.549999999999995,-3.786579977487575,-0.2057890520253784,0.7816197982343713
14.560000000000002,-4.152544581493066,-0.3028444210048188,0.7828771748848753
14.570000000000007,-4.4815738434678645,-0.397546358270297,0.7758195191080578
14.579999999999998,-4.78250742684833,-0.4803260598143446,0.7595302549650815
14.590000000000003,-5.088924335093052,-0.5602718024342352,0.7512796336806086
14.599999999999994,-5.387116844529155,-0.6351038518816415,0.7390484246061809
14.61,-5.718570624816479,-0.707400282928081,0.7589291297950099
14.620000000000005,-6.007232972283071,-0.7895638678343793,0.7619612186882512
14.629999999999995,-6.296765744393924,-0.8794077394709138,0.7859404899516553
14.64,-6.5451339770014725,-0.9477240997002188,0.7743717009931858
14.650000000000006,-6.735796238464356,-1.0266356904207838,0.7672090599615787
14.659999999999997,-6.9019318084006,-1.089211142760688,0.7733234494000631
14.670000000000002,-7.066312987519848,-1.178573099044476,0.7482117011383453
14.680000000000009,-7.1502804851575945,-1.2292628722181496,0.7362441884482995
14.689999999999998,-7.142052766155654,-1.3141394766906094,0.7320248791594043
14.700000000000005,-7.050416010769005,-1.3357183405736823,0.7268749709632127
14.709999999999994,-6.919064862790036,-1.3501908049864142,0.7502491757940988
14.72,-6.80275711081442,-1.3601018269119274,0.798662524754678
14.730000000000004,-6.760126709863712,-1.368981902263396,0.8765028430993942
14.739999999999997,-6.726532161195847,-1.3578382502980075,0.963570810611394
14.75,-6.724488943143021,-1.3603686267588573,1.063509067155182
14.760000000000003,-6.671541073950912,-1.3853912890343345,1.1667305724031465
14.769999999999996,-6.612189237564837,-1.4047084218136725,1.2350237392729122
14.78,-6.5003844315220345,-1.4603392297194666,1.2971167879531802
14.790000000000006,-6.362188727623702,-1.4882449389812324,1.3196748026745813
14.799999999999995,-6.251112136607125,-1.509070484603581,1.3021840182238402
14.810000000000002,-6.169895232172712,-1.537562466101957,1.2279194962574056
14.820000000000007,-6.0686180905313805,-1.5032043345469437,1.1737669340000365
14.829999999999998,-5.954795355611648,-1.4699481075408194,1.106313291493845
14.840000000000003,-5.8166676768835215,-1.3993487559314597,1.066664160626955
14.849999999999994,-5.693345948477077,-1.315055965119876,1.0933400668844373
14.86,-5.612471044649575,-1.257428327387812,1.1277968402296146
14.870000000000005,-5.561224858214667,-1.179567426352662,1.1728135270467708
14.879999999999995,-5.415649748946376,-1.114869039718784,1.2424573755717596
14.89,-5.262391553806439,-1.0957540734018465,1.2994766261219155
14.900000000000006,-5.037822425260313,-1.0722760814567542,1.3198743274031852
14.909999999999997,-4.744906299020071,-1.0877276263583626,1.3213850019590092
14.920000000000002,-4.416046676635525,-1.09963025838057,1.275569167263454
14.930000000000009,-4.087067083303036,-1.101378607584568,1.2512077980118093
14.939999999999998,-3.796946743876001,-1.1198262157025916,1.198165517155196
14.950000000000005,-3.5062991854814176,-1.1218872218606235,1.1680373248601748
14.959999999999994,-3.1779571877127344,-1.120636900865138,1.0860403172480677
14.97,-2.851533599778399,-1.0705068515222638,0.98265444840844
14.980000000000004,-2.5615796470682404,-1.026506330350054,0.8957449402221689
14.989999999999997,-2.2558861000324857,-0.9601067949367892,0.7932729089348898
15.0,-1.954218742940622,-0.8961281534146155,0.6741132069137108
15.010000000000003,-1.639186566716767,-0.8433099927130082,0.5904170955705456
15.019999999999996,-1.3327415025866396,-0.7967720057458151,0.4776103528904933
15.03,-1.0173220286977147,-0.6849285905942243,0.4013307387641815
15.040000000000006,-0.7129928709325811,-0.624391114865505,0.3588803282211856
15.049999999999995,-0.4443629569588017,-0.5334224052487264,0.3052099016980109
15.060000000000002,-0.147637415038844,-0.444902883840176,0.2565473799106284
15.070000000000007,0.1763631763409132,-0.3291652296845047,0.185937182321108
15.079999999999998,0.5415898012143936,-0.244057453079533,0.1285407324675984
15.090000000000003,0.934710406291618,-0.1307855565229616,0.0610070930428318
15.099999999999994,1.3579183036082991,-0.0089006708873291,0.0245573189209089
15.11,1.7598694100653922,0.0954861390318311,-0.0050177591562656
15.120000000000005,2.21294289011312,0.2071922491017851,-0.023857331769785
15.129999999999995,2.6313899339917657,0.253034389483728,-0.0436206694959317
15.14,3.045602474434636,0.3223863359415124,-0.0678051852748793
15.150000000000006,3.45279122461371,0.3795156065260109,-0.1194314703695514
15.159999999999997,3.8139753402511936,0.445354910374663,-0.1856943625153566
15.170000000000002,4.170591009435435,0.5032115369999296,-0.245360141433111
15.180000000000009,4.501993832144106,0.577823067478059,-0.3171712951067909
15.189999999999998,4.752432273131792,0.6579466926328466,-0.3916455674673794
15.200000000000005,5.028574440381979,0.7048289590156953,-0.4318678031928967
15.209999999999994,5.315534799035251,0.7374335890946029,-0.4342346011111698
15.22,5.606362731072559,0.7537952246025307,-0.4466126044085642
15.230000000000004,5.886157612045141,0.7706216434373451,-0.464529336234055
15.239999999999997,6.112318086568328,0.7829504065435932,-0.4801142752271619
15.25,6.288941512106013,0.8334097362752223,-0.4929326420934263
15.260000000000003,6.544822361140937,0.8659256505167995,-0.4873199004790156
15.269999999999996,6.796849557354636,0.8880139978304675,-0.4780487307422688
15.28,7.100254470560186,0.8917491959968161,-0.4905164130909571
15.290000000000006,7.3633788448154975,0.8874365489929322,-0.5097403186779932
15.299999999999995,7.583877956550848,0.8300029281652632,-0.535889794699938
15.310000000000002,7.697439341208347,0.7714187299043962,-0.5675995882974537
15.320000000000007,7.725886820125607,0.6974813780481729,-0.6256644604849928
15.329999999999998,7.722435103093447,0.5975811561776857,-0.6612030564151657
15.340000000000003,7.677822128274397,0.4979146443404276,-0.6800938328795543
15.349999999999994,7.592420486713938,0.4119354187540409,-0.7103055943638147
15.36,7.509723724633861,0.2832603804789481,-0.7557583721640269
15.370000000000005,7.448257468822246,0.1926016670596883,-0.774387818580419
15.379999999999995,7.39816325360937,0.0883734383867877,-0.8337698812468489
15.39,7.343194223566186,-0.0010455239126995,-0.8941027158959692
15.400000000000006,7.286146410541952,-0.1087889913383279,-0.9770120506409586
15.409999999999997,7.205874118204873,-0.1898565872247028,-1.0649950222987774
15.420000000000002,7.041660986605593,-0.2756332626662751,-1.1271142407522767
15.430000000000009,6.84109116931693,-0.3300021989732292,-1.19082944977844
15.439999999999998,6.5966887760461725,-0.4112715526638774,-1.243754283679296
15.450000000000005,6.322962289969809,-0.4620154589725274,-1.2911144406219066
15.459999999999994,6.035363322323736,-0.5423101447107739,-1.3399703168439057
15.47,5.732260383693134,-0.5981137913015037,-1.3991972434121696
15.480000000000004,5.364853442624714,-0.6696706131028133,-1.4534528787527947
15.489999999999997,4.93863720242504,-0.7411360228939295,-1.4822006223767723
15.5,4.52583684667011,-0.8082847618941591,-1.5093116788815328
15.510000000000003,4.137690531437544,-0.8520241955701413,-1.5009106320329433
15.519999999999996,3.815658174837977,-0.8905390819306179,-1.497725143415968
15.53,3.5917256857711948,-0.9199530411830252,-1.479723628334281
15.540000000000006,3.4262542770112496,-0.9248712668599508,-1.420928677569795
15.549999999999995,3.2715753200365727,-0.959964665500658,-1.360775176738113
15.560000000000002,3.143351841810277,-0.9556902206544732,-1.2322008692514566
15.570000000000007,2.9651818674649646,-0.9662527656122168,-1.0967027980971136
15.579999999999998,2.732737518558046,-0.9715436563459264,-0.9499081168118442
15.590000000000003,2.4730952011417364,-0.9400488160438176,-0.8143878399559221
15.599999999999994,2.1859511689566857,-0.9068669695506452,-0.6923293952900834
15.61,1.9166813698656813,-0.829338501160289,-0.5873964150953842
15.620000000000005,1.643836707264643,-0.7447787477287384,-0.5180908165094776
15.629999999999995,1.3915768183374044,-0.6391147711152282,-0.4346232332718583
15.64,1.0549726837223592,-0.5505987214372922,-0.334723815890616
15.650000000000006,0.7028970592737235,-0.4459175059829963,-0.2553496347614625
15.659999999999997,0.2993402655960575,-0.337714573954382,-0.1382912778951924
15.670000000000002,-0.1328556959484982,-0.2262226504792704,-0.0576382274707007
15.680000000000009,-0.6116853161672533,-0.1080196200756395,0.0232829263329945
15.689999999999998,-1.106184584960678,-0.0005002756239896,0.1074071622989263
15.700000000000005,-1.5909266592502016,0.1035507575708774,0.173314931844813
15.709999999999994,-1.9979099443505968,0.2059830078320256,0.2408726829006016
15.72,-2.4516349782280824,0.292077005085504,0.3299161865262738
15.730000000000004,-2.8451721519596957,0.3428570198619576,0.4038850299851856
15.739999999999997,-3.2812660254542294,0.4035132523566943,0.4713611902276011
15.75,-3.689544941968696,0.439525823436125,0.5469026769728708
15.760000000000003,-4.0785900340662735,0.4487498180862359,0.5954534743020273
15.769999999999996,-4.447611210143954,0.4501864950014521,0.6544526129284111
15.78,-4.843945036101477,0.4545245160564358,0.679441987718673
15.790000000000006,-5.209975750960232,0.4489419965669718,0.7024605609847832
15.799999999999995,-5.6170634498412335,0.4062838426789488,0.7272404213848083
15.810000000000002,-5.968080410218573,0.3684863475470713,0.7500894436032354
15.820000000000007,-6.28494202787402,0.3093140638825231,0.7823513361692284
15.829999999999998,-6.533673938705155,0.2388002618989321,0.7899194119017775
15.840000000000003,-6.749618291117736,0.1525572648750931,0.8098560602206916
15.849999999999994,-6.954225799748388,0.0439993148244251,0.7887244816251681
15.86,-7.185360051988316,-0.0517673600108115,0.7967459092867611
15.870000000000005,-7.371405142706946,-0.1650611684640866,0.802015969043797
15.879999999999995,-7.4821198639060835,-0.2809484773426742,0.8201471597652914
15.89,-7.534874063247313,-0.4095993926392322,0.8421769674918503
15.900000000000006,-7.534559662491698,-0.5175196513466759,0.8638663198926813
15.909999999999997,-7.490414718415421,-0.6421209141502755,0.8744046923652744
15.920000000000002,-7.378654177449572,-0.7390391181746517,0.8985010267641448
15.930000000000009,-7.213732422468538,-0.8433311223309087,0.8846947131058283
15.939999999999998,-7.052597833467125,-0.9198028799208152,0.8584266530254883
15.950000000000005,-6.928155887390592,-0.9988267923055668,0.8351276762076858
15.959999999999994,-6.866289962600406,-1.063601667140021,0.802859121080395
15.97,-6.819409454372885,-1.1131485611363956,0.775185787933079
15.980000000000004,-6.7385443939552765,-1.1520100307478442,0.7523891204679487
15.989999999999997,-6.661106488173148,-1.1784782654006891,0.7343832273215296
16.0,-6.577954812377798,-1.1624378154229844,0.7124357010597592
16.010000000000005,-6.488669025652715,-1.1505139383353484,0.6918661845771577
16.019999999999996,-6.365868349471164,-1.1238501994348251,0.6209675888486176
16.03,-6.1992806999865575,-1.0551512493013522,0.5422350268214724
16.040000000000006,-6.018257393025592,-0.9781358036517286,0.4884273589042439
16.049999999999997,-5.819821745703396,-0.899719706165558,0.4055328669963203
16.060000000000002,-5.608217388425591,-0.7910438344030721,0.3567916483746291
16.070000000000007,-5.41972389312461,-0.6882258830861675,0.3520418260064554
16.08,-5.233858286956019,-0.5672269876417656,0.3755710952696748
16.090000000000003,-5.0366394605726965,-0.4607419256154073,0.3973878413428501
16.099999999999994,-4.817942943377995,-0.3792686552481608,0.4567634201496376
16.11,-4.613974485481899,-0.3326989348218124,0.4671627155415138
16.120000000000005,-4.380857931563794,-0.3250682003284297,0.4830661102184161
16.129999999999995,-4.138452541297033,-0.3505712331151106,0.4629366121764189
16.14,-3.848854438479183,-0.3360819178022315,0.4584840109571285
16.150000000000006,-3.562902710962734,-0.3327757844767521,0.4534209799823363
16.159999999999997,-3.267940914062482,-0.3154859008665571,0.4566028246774218
16.17,-2.957409747494656,-0.3178025393467449,0.4226027012850033
16.180000000000007,-2.6495540100391723,-0.3190579739233545,0.3663056463851193
16.189999999999998,-2.3642534089781613,-0.3428324190534605,0.3010537023050156
16.200000000000003,-2.087461448952712,-0.3634104971198722,0.262210105936258
16.209999999999994,-1.7857855567537388,-0.346485389483979,0.2574079750410905
16.22,-1.4499900307964573,-0.3312679925492401,0.2695036159985616
16.230000000000004,-1.0877312754011843,-0.2904934197398243,0.3155857746376885
16.239999999999995,-0.6686824295695184,-0.2789969273842708,0.326702466734514
16.25,-0.266798841928028,-0.2521218579446046,0.3324286673369938
16.260000000000005,0.1280846617184298,-0.2311327163320042,0.3174891402801104
16.269999999999996,0.4760406352195817,-0.2119396549032488,0.2888074426155715
16.28,0.7943694092456554,-0.1867519706749681,0.2959912016222159
16.290000000000006,1.1488190012629165,-0.1436035915072245,0.3251284253997381
16.299999999999997,1.5156357042504651,-0.0878138805060498,0.3423758033915111
16.310000000000002,1.878676700852815,-0.0320338052185112,0.3619120772856946
16.320000000000007,2.25813612616268,0.0445010103049432,0.394532109301547
16.33,2.632062370227076,0.1316329911688408,0.4214393102132087
16.340000000000003,3.0468661393785963,0.2150218741499221,0.4725440938120868
16.349999999999994,3.4520951384560643,0.339392861694109,0.5076595014552749
16.36,3.863044248113209,0.4348680816341339,0.513484314844841
16.370000000000005,4.222829718557322,0.5350511515116839,0.5314783391376919
16.379999999999995,4.55371292909338,0.5896434197516296,0.5404373177485116
16.39,4.875487007369728,0.6401138269773379,0.5451644019338503
16.400000000000006,5.182276234015411,0.6937154888508408,0.5720406099424943
16.409999999999997,5.520150736445687,0.7315553327773011,0.571411103529509
16.42,5.871729479784198,0.7555342296369305,0.5540702185435671
16.430000000000007,6.243275450498222,0.7892571875177479,0.5355167994785381
16.439999999999998,6.543390528713651,0.8154446350764708,0.5135478797423225
16.450000000000003,6.830507258938701,0.8285623000121927,0.4958611801868222
16.459999999999994,7.076577006220996,0.8220882578634768,0.4902567821621347
16.47,7.241110430791346,0.7963932164505495,0.4740763876292925
16.480000000000004,7.379812199901063,0.7717656673060932,0.4532989478094021
16.489999999999995,7.420210007879769,0.7101204835226526,0.3852197318954193
16.5,7.408997220096419,0.6409261554603302,0.3076917465020706
16.510000000000005,7.402561516840702,0.5626060645456272,0.204906480315969
16.519999999999996,7.404146316565082,0.4911079528934609,0.1136619181557972
16.53,7.445708532946,0.3857158297732844,0.0092511039264548
16.540000000000006,7.424432397352535,0.2794387923947777,-0.043491184879227
16.549999999999997,7.343563960924542,0.1739941650356943,-0.1075389463678725
16.560000000000002,7.176473606401384,0.0457405176135404,-0.1611297964079092
16.570000000000007,7.036013530648613,-0.085503991098373,-0.2089558825887741
16.58,6.895098325785261,-0.1888095705240732,-0.2717924598075144
16.590000000000003,6.77443286556083,-0.2978140618088005,-0.3064309980911534
16.599999999999994,6.712602388916156,-0.4123844606192001,-0.3424646241066931
16.61,6.6342110824216,-0.516423538895376,-0.3670237812574655
16.620000000000005,6.583073545965352,-0.6039892331254764,-0.396993453240303
16.629999999999995,6.501576055892327,-0.7064405223427158,-0.4528316493652441
16.64,6.346151684907145,-0.7891233598602716,-0.5019481591435152
16.650000000000006,6.157011634577801,-0.8759777693846678,-0.5875425102950995
16.659999999999997,5.972750606213535,-0.9456991347670568,-0.6796634979866214
16.67,5.763861887913069,-1.0042770783455386,-0.7607396390296944
16.680000000000007,5.535851787422283,-1.0865787196695826,-0.8293082832200035
16.689999999999998,5.266518343379058,-1.1156655816850911,-0.8877952422262466
16.700000000000003,4.994146981548765,-1.1784435173136645,-0.9103956557783456
16.709999999999994,4.707844302861569,-1.2400468660737882,-0.9472017847031052
16.72,4.4797662501342,-1.273058013016537,-0.9617594630481652
16.730000000000004,4.293246364683052,-1.3437335862443796,-0.9798793694977952
16.739999999999995,4.098866577840037,-1.380694910533324,-0.983737692361496
16.75,3.929027764563642,-1.4444878658987754,-0.99375067972232
16.760000000000005,3.713229735861334,-1.4795218299255664,-0.9628083276630062
16.769999999999996,3.491426958932654,-1.533372886001534,-0.9510553873795948
16.78,3.230895792595587,-1.5617437561693202,-0.8989394967476593
16.790000000000006,2.986323068063441,-1.5645897891761584,-0.8599222634182213
16.799999999999997,2.73826217839284,-1.5462053449615172,-0.8211744475487656
16.810000000000002,2.491509065027852,-1.5041118699570717,-0.7711798955387802
16.820000000000007,2.2693900128879965,-1.4245770525393353,-0.7295208489913739
16.83,2.042246530568929,-1.3634330561087988,-0.6368414445348654
16.840000000000003,1.7867665548043616,-1.2639321184651338,-0.5785803631551655
16.849999999999994,1.5055783335139985,-1.1696427031100214,-0.4864258516668358
16.86,1.1891495705978958,-1.0697094314195434,-0.3921734413710392
16.870000000000005,0.8268767930999921,-0.9393484290129268,-0.3030462256634003
16.879999999999995,0.4460759751165732,-0.8196328221799791,-0.2383304492555585
16.89,0.0726151109237937,-0.6691062610685224,-0.1526113404538552
16.900000000000006,-0.3215559041218404,-0.538809265620003,-0.0644653277647706
16.909999999999997,-0.7150625564034178,-0.3847153420967882,0.0184306169685708
16.92,-1.0715323574412223,-0.2546574585721051,0.1068334182622538
16.930000000000007,-1.439894132966034,-0.139040553285598,0.1787408688995603
16.939999999999998,-1.782181353399557,-0.0381230973828381,0.256829715013507
16.950000000000003,-2.091761220884877,0.0494506889678851,0.3094403117759588
16.959999999999994,-2.3795320506110658,0.1109394989032915,0.3395815919414222
16.97,-2.678812484674211,0.1597506151022381,0.3615205184815345
16.980000000000004,-2.987078508303375,0.2009645299520173,0.3637232456529329
16.989999999999995,-3.304691939691203,0.2219341647393906,0.372544649259956
17.0,-3.653521505656399,0.2330571433200178,0.3918797122036678
17.010000000000005,-3.992069571867693,0.2441304521040409,0.4394343460654749
17.019999999999996,-4.245320689699797,0.2259529072766223,0.4661194537846331
17.03,-4.500178608914202,0.188788917998018,0.4738793887897499
17.040000000000006,-4.706795139493796,0.1552868408099536,0.5190510839197823
17.049999999999997,-4.888626572250011,0.102241551164226,0.5427224685832795
17.060000000000002,-5.058502416366643,0.0525436333995428,0.5595006639607903
17.070000000000007,-5.192898433561067,-0.0327249209256245,0.5676297935229694
17.08,-5.344012962089383,-0.0910939926845623,0.5674188269008329
17.090000000000003,-5.49396382167861,-0.1642883333915795,0.5808899683381378
17.099999999999994,-5.5830016458175615,-0.2368801312682039,0.5937206893075784
17.11,-5.642867276020203,-0.309793485674986,0.6219868967576677
17.120000000000005,-5.689182013506916,-0.3773685203886028,0.6540461451923417
17.129999999999995,-5.681403746195189,-0.4631452630179103,0.6964126016441721
17.14,-5.700108725849626,-0.5463168367424638,0.7155384209159733
17.150000000000006,-5.769535456014509,-0.6528238432349888,0.7476436974520593
17.159999999999997,-5.85150060611455,-0.7480544565145818,0.7876477160879403
17.17,-5.908987554162851,-0.8307359086852921,0.7891261095043758
17.180000000000007,-5.934712466218934,-0.9139381692305965,0.8216336733683542
17.189999999999998,-5.954485978039945,-0.9773397515278052,0.8240452771443937
17.200000000000003,-5.942325514494716,-1.0270900168092127,0.8400494905632919
17.209999999999994,-5.886441078679814,-1.0531353873983618,0.8378285282537625
17.22,-5.863490130239197,-1.1137728361069297,0.8518943049215647
17.230000000000004,-5.802403780996976,-1.148512457093329,0.8380246278334732
17.239999999999995,-5.729986939281616,-1.1731044469548857,0.82539751732366
17.25,-5.627117137709324,-1.2150749111429997,0.7921012419388811
17.260000000000005,-5.53109020108024,-1.226148472177767,0.7933847202798346
17.269999999999996,-5.421854199794544,-1.2273673339925215,0.8108155115801885
17.28,-5.330617301740457,-1.230314528761604,0.8372153083374752
17.290000000000006,-5.248955459008796,-1.2327796097323815,0.837522688931929
17.299999999999997,-5.184822962412008,-1.2333310043649897,0.8702952960259833
17.310000000000002,-5.11453898129276,-1.2291839527064776,0.8753648906001346
17.320000000000007,-5.005375198613473,-1.2256426945728531,0.8632819248206874
17.33,-4.861811403712464,-1.2272743584497954,0.8497354390151488
17.340000000000003,-4.693887639680889,-1.223522534885845,0.8296987616101504
17.349999999999994,-4.488734764855225,-1.2325814781195517,0.8115262326851679
17.36,-4.295300906441221,-1.2268323656705264,0.7950300012037923
17.370000000000005,-4.111424040909414,-1.2327271471167536,0.7758873366669061
17.379999999999995,-3.93249370153057,-1.2372513842161246,0.7699685159578247
17.39,-3.730006718637562,-1.2388181250129058,0.7474944721220536
17.400000000000006,-3.4968711237661365,-1.2194206124631928,0.7303253933278367
17.409999999999997,-3.238054467289881,-1.1965857559970166,0.7138906576718438
17.42,-2.924303873319061,-1.1541909788039364,0.6772369251293513
17.430000000000007,-2.6168188249270137,-1.125330258612918,0.6609892942220659
17.439999999999998,-2.3414145458340894,-1.065460389623996,0.6361351471462867
17.450000000000003,-2.0282060895053564,-1.0153693511340238,0.6430609168375228
17.459999999999994,-1.7436086905348696,-0.9898067623052116,0.6165199658386197
17.47,-1.448068718631485,-0.9537402994476284,0.5875526394424678
17.480000000000004,-1.1577234087285115,-0.9246130238078694,0.5511892033569193
17.489999999999995,-0.8462415458809623,-0.889185317033016,0.4957085354007736
17.5,-0.5343532349481503,-0.8625642761136876,0.4719292897714913
17.510000000000005,-0.2160701829167672,-0.7782749410261169,0.4472100567625222
17.519999999999996,0.0939038082859349,-0.7233495951409615,0.4309492821375191
17.53,0.3793465099844363,-0.6672507563616545,0.4067104928888628
17.540000000000006,0.6788401327561951,-0.5910697700518859,0.3843163736169374
17.549999999999997,1.0003614897458908,-0.5518304474380468,0.3647221473337771
17.560000000000002,1.348466138452305,-0.4477329147088395,0.3795428625250408
17.570000000000007,1.731517717460885,-0.3710077878825314,0.3586199607984721
17.58,2.143050068460346,-0.2722853342075119,0.3575867154453572
17.590000000000003,2.5648677949650147,-0.1876452927890203,0.3606317619764531
17.599999999999994,2.9578584125533407,-0.1143091827015456,0.354174704536441
17.61,3.339887748560801,-0.038720036291152,0.3685571618184539
17.620000000000005,3.701927469443863,0.0241534552129874,0.3324314287192788
17.629999999999995,4.0056914677474,0.0821639618431848,0.2595922603832437
17.64,4.334950379543688,0.1437397233038518,0.171262215284289
17.650000000000006,4.656285025528726,0.1953711430156595,0.1028907539508293
17.659999999999997,4.976387611920833,0.2497524036484211,0.0020834385112747
17.67,5.325282238339556,0.293476490590735,-0.0755329418796192
17.680000000000007,5.629269185569058,0.3239983687742458,-0.1287601460818059
17.689999999999998,5.90719454105811,0.3434403822684529,-0.1577182329286106
17.700000000000003,6.118985778643004,0.3340418278337111,-0.2343008799907589
17.709999999999994,6.232356911395367,0.3257565560993716,-0.2935989552511836
17.72,6.32132333635394,0.2802190020930596,-0.3937734586596814
17.730000000000004,6.402298414643056,0.2389339062228534,-0.488019700650953
17.739999999999995,6.510724478332975,0.2023873397584631,-0.5997562587589383
17.75,6.6252911157093335,0.1113595388951861,-0.7100678290976437
17.760000000000005,6.723095219267695,0.04873429014054,-0.8156205961813874
17.769999999999996,6.791439568807935,-0.0424462526131802,-0.891772909868886
17.78,6.773371032581351,-0.1184084355674237,-0.9478932166381266
17.790000000000006,6.725785430517967,-0.2238377991452232,-1.0148395037380626
17.799999999999997,6.619146438079189,-0.3019120489001253,-1.080901463150116
17.810000000000002,6.459166606417925,-0.3903908636422118,-1.1786364596431604
17.820000000000007,6.333545901445534,-0.4663467006994696,-1.2329373848258087
17.83,6.229277241062468,-0.5543292482110302,-1.3423423963205876
17.840000000000003,6.157960779771546,-0.6240901734891086,-1.4168342443270845
17.849999999999994,6.062497575806462,-0.6851661995001104,-1.5072429101545306
17.86,5.923839875928139,-0.7414240598784851,-1.5528338570105713
17.870000000000005,5.710031733798222,-0.7913981799075526,-1.587341607547917
17.879999999999995,5.481018188857155,-0.8454370980424325,-1.6179707628807014
17.89,5.220007025955496,-0.8792342515589792,-1.6623918487734135
17.900000000000006,4.986452872724348,-0.9178982599218268,-1.7076289564271483
17.909999999999997,4.7868866447499565,-0.9421377538729524,-1.7434554944941427
17.92,4.625996608368589,-0.9645367398910876,-1.7977898196293034
17.930000000000007,4.4302168260084605,-0.9556276827012922,-1.8480347119250389
17.939999999999998,4.237301114483193,-0.9572569676461984,-1.868164785007112
17.950000000000003,4.025024502326026,-0.9456902561232052,-1.8836303828989944
17.959999999999994,3.741268102959177,-0.9187652121305248,-1.865182350889422
17.97,3.451483731745422,-0.8874525326327433,-1.8669316573411063
17.980000000000004,3.1671902050086964,-0.8534301551615144,-1.8386459591278896
17.989999999999995,2.947367420738336,-0.8167002418469241,-1.81589051477073
18.0,2.7650271514027365,-0.7815429247647061,-1.7886705607328917
18.010000000000005,2.606763843813757,-0.7543818367319934,-1.7294649992667088
18.02,2.436004394970292,-0.7082073506163652,-1.6498278642647712
18.03,2.1957214173257547,-0.7011341033728409,-1.531480062704757
18.040000000000006,1.925227998214016,-0.6853339011669903,-1.4261223140923698
18.05,1.627322885156955,-0.6561590308275949,-1.2955913622555084
18.06,1.298841309180428,-0.6281600755572495,-1.181482074087195
18.070000000000007,0.9703002986491122,-0.5959111454895576,-1.0644598270574357
18.08,0.6188974260362208,-0.5532027111193325,-0.9689230561546112
18.090000000000003,0.2641895062049623,-0.5077730095606806,-0.8866970610780143
18.099999999999994,-0.0922353723443705,-0.4788899990120778,-0.8129389890827912
18.11,-0.4691363570865819,-0.4226309730899159,-0.7186590729856556
18.120000000000005,-0.852614197189579,-0.3979026671737482,-0.6361116164682294
18.129999999999995,-1.2395075475810844,-0.3561983846481284,-0.5675625372074837
18.14,-1.5769588146965192,-0.3280828039375534,-0.5005741502385496
18.15000000000001,-1.912274272838361,-0.2914449137911407,-0.4326144892432808
18.16,-2.2485399555682912,-0.2480606538612487,-0.3612592215779683
18.17,-2.5733564509046007,-0.239707904295044,-0.2972407517406775
18.180000000000007,-2.9318706282543934,-0.2154292942554222,-0.2304695900396461
18.19,-3.221864459743927,-0.1960640629810424,-0.1772918399929003
18.200000000000003,-3.495980885711122,-0.1893767398422056,-0.1279230097272163
18.209999999999997,-3.752080225078271,-0.1785259739385239,-0.0618990362606067
18.22,-3.9777619558499966,-0.1605417966419516,-0.0004114599103214
18.230000000000004,-4.155138473449621,-0.1596442736367609,0.0579117695312157
18.239999999999995,-4.28333757237262,-0.1327434530440889,0.1091898254476485
18.25,-4.392445737444654,-0.1389416113637353,0.1753546168880508
18.260000000000005,-4.501373520732256,-0.1402974909996349,0.2290134138803208
18.27,-4.611104795711704,-0.1593173661560928,0.2900600992721947
18.28,-4.741459696310862,-0.1982987354071702,0.3315320042880487
18.290000000000006,-4.847703282121387,-0.2619725942554552,0.4087861244832308
18.3,-4.93882313289283,-0.3409606143704601,0.4731824768011389
18.31,-4.999421255208247,-0.439489048195786,0.5149065773418523
18.320000000000007,-5.046161636663832,-0.5040508426808861,0.5744211648067005
18.33,-5.07498272680495,-0.6070309447901521,0.6119997147877441
18.340000000000003,-5.082408980197701,-0.688441162747009,0.6613534385304288
18.349999999999994,-5.076509399607231,-0.7710884205398001,0.6697966345539295
18.36,-5.019024430807634,-0.8248799826774352,0.688409499264018
18.370000000000005,-5.01125734493175,-0.9033537190767318,0.7160413860056372
18.379999999999995,-4.981715251727328,-0.9634114390524892,0.7275762232405856
18.39,-4.965306677181962,-1.0378937367298464,0.7667745359470374
18.40000000000001,-4.978710767245527,-1.1071401282593516,0.7831138021924208
18.41,-4.996764199984225,-1.1687118246091537,0.8094848513679065
18.42,-5.002438170568081,-1.239644608324621,0.8306788359792444
18.430000000000007,-5.012461603372906,-1.31567648809685,0.8505769191726472
18.44,-5.028318322957262,-1.3792333610266838,0.8427304834003457
18.450000000000003,-5.011843600142064,-1.4327343435043285,0.8619577904195821
18.459999999999997,-4.969579953782877,-1.4824623938076034,0.8616939708323748
18.47,-4.941091906854307,-1.5156495989154288,0.8573547429236963
18.480000000000004,-4.865887272702847,-1.5323792352774182,0.8461251035656646
18.489999999999995,-4.817804000067966,-1.5742804952828482,0.8461840874677343
18.5,-4.759006824711991,-1.6006574347391,0.8469456684094219
18.510000000000005,-4.702269575857142,-1.601575162786065,0.8581201062611847
18.52,-4.621398373274598,-1.6183780565226165,0.8868617852359603
18.53,-4.562075410700031,-1.6263301242429815,0.8734348597704326
18.540000000000006,-4.471145541548201,-1.6387249713905332,0.885573891316118
18.55,-4.334740615843576,-1.641045986083718,0.8939244779095161
18.56,-4.14144158492329,-1.6362545360515366,0.9110199049532328
18.570000000000007,-3.933210892815214,-1.6346067068220222,0.923038527361666
18.58,-3.6953982568424384,-1.6069003266618904,0.934180512540213
18.590000000000003,-3.4780034110044906,-1.5834052582686102,0.9607758698701911
18.599999999999994,-3.256568182474881,-1.5657208328021448,0.9854092959615874
18.61,-3.048718197656929,-1.541530723121259,1.0010211832122908
18.620000000000005,-2.842999957359866,-1.5132845908312604,0.999093700431501
18.629999999999995,-2.586243240003954,-1.4679131940169288,1.0032741881367735
18.64,-2.3558119952478016,-1.4470556049211551,0.974061965501273
18.65000000000001,-2.1062393317189163,-1.3991284083674222,0.948835396084494
18.66,-1.87183706310376,-1.3323409335920986,0.9300551326044688
18.67,-1.6731125955831023,-1.287521632546903,0.9134657252452626
18.680000000000007,-1.5054417367165005,-1.2162689658617476,0.8980640276042423
18.69,-1.3616247944964153,-1.1439616049194,0.8526276574266886
18.700000000000003,-1.2158945880318284,-1.0580773544985234,0.8344288125314802
18.709999999999997,-1.0781857973345943,-0.9839994444346414,0.7980386349449204
18.72,-0.9033336445881908,-0.8866579325718374,0.770862242047826
18.730000000000004,-0.7138217256759327,-0.7982354201210382,0.7652619611760476
18.739999999999995,-0.5001567449796824,-0.6915411315519139,0.7428983300898887
18.75,-0.2387308007028981,-0.6215887417420859,0.7431056987437017
18.760000000000005,0.0142074482629621,-0.5393926549212047,0.7087235527711295
18.77,0.2845574099954027,-0.4498159014522039,0.6931595922586887
18.78,0.5724054723473028,-0.3604688768874803,0.6791579595109704
18.790000000000006,0.8420690470539457,-0.2751774055218727,0.6553475351612172
18.8,1.095020039987046,-0.1771193397517093,0.6327092950765556
18.81,1.390282023320406,-0.1088603958751039,0.6026071179093937
18.820000000000007,1.6969681389779705,-0.0367730987137185,0.5409785516371719
18.83,2.0407195381658534,0.0450006803495549,0.464900402952897
18.840000000000003,2.4020287873906314,0.1198164238535815,0.3738899297936496
18.849999999999994,2.767564839705442,0.2010337289418891,0.2497395235886385
18.86,3.1289279249207147,0.292873560815028,0.1398489945066288
18.870000000000005,3.455760725281848,0.3679367304205139,-0.002739595501062
18.879999999999995,3.7795949108988935,0.4541535407080481,-0.0948503704840453
18.89,4.096927837010263,0.5130796117760394,-0.2092921543845892
18.90000000000001,4.387239962893155,0.58520877370438,-0.2866846737502729
18.91,4.620218610448871,0.6532806895718654,-0.3859124605052621
18.92,4.817036697919339,0.6950171665975303,-0.4736366944784705
18.930000000000007,4.972588469497037,0.7435927276246033,-0.5764754844964366
18.94,5.080351997477527,0.7827650113645709,-0.6596134178107997
18.950000000000003,5.16387198157508,0.7889664599934556,-0.7559396847596423
18.959999999999997,5.299789368845819,0.819302694755585,-0.8414700103962929
18.97,5.411510169946408,0.8060515842707459,-0.9184518667688067
18.980000000000004,5.577422250837326,0.8019320875919159,-0.9914381690377844
18.989999999999995,5.704296641444964,0.777448365061168,-1.0557785226427856
19.0,5.8063796118266415,0.7324537653119262,-1.1012231840610018
19.010000000000005,5.879015546019305,0.6756215773228634,-1.1652926260922585
19.02,5.933110126298493,0.6063507293973139,-1.2134285391598305
19.03,5.994767771556638,0.5491134414194356,-1.259360035418043
19.040000000000006,6.074166294405311,0.4723319459901707,-1.2862678810547976
19.05,6.120501436244696,0.3908043369723294,-1.294394943514391
19.06,6.1558483565941104,0.33159087371011,-1.305340171825505
19.070000000000007,6.144406061394615,0.2959298314862241,-1.3174035095698922
19.08,6.114512071639436,0.2392910313701365,-1.3047606922380552
19.090000000000003,6.068589559962384,0.2044311277187059,-1.2851961437613135
19.099999999999994,6.019684555028204,0.1794340325829988,-1.2582170334677658
19.11,5.918348500349152,0.1393124682942108,-1.2447962016372922
19.120000000000005,5.80061364891286,0.1133822993592345,-1.2505318742357985
19.129999999999995,5.685833012665213,0.0891657606352973,-1.2695661013025046
19.14,5.553395898595162,0.0429593512724348,-1.2784564648886123
19.15000000000001,5.409772244638248,0.0135252256309945,-1.3087572668743246
19.16,5.29166721374484,-0.0060298485058014,-1.3176628579248884
19.17,5.160848115523273,-0.0202790319145233,-1.3461191251886084
19.180000000000007,5.02416687396123,-0.044574431753757,-1.3683563839077288
19.19,4.851505178974088,-0.0574052716908823,-1.3526512697304922
19.200000000000003,4.623818581601429,-0.0802951979147739,-1.3259549135773276
19.209999999999997,4.414622003234057,-0.1160016921236129,-1.284536428503441
19.22,4.182657934682165,-0.1345616130944358,-1.2383427721442046
19.230000000000004,3.996435108790244,-0.1609820023846156,-1.1835294794166218
19.239999999999995,3.8479891134466846,-0.1669535766075359,-1.147882530939342
19.25,3.718243352982842,-0.1825709730406148,-1.0856637927999937
19.260000000000005,3.594332388499084,-0.1806285945952186,-1.0268593408146418
19.27,3.475129992915853,-0.1749970570959175,-0.940857161845582
19.28,3.353493728922418,-0.1703254405940893,-0.8547114084422814
19.290000000000006,3.2160133714826027,-0.162211953311871,-0.7698988054546564
19.3,3.0777252391358467,-0.1379645582509538,-0.6887495402744414
19.31,2.9563287593414658,-0.1010071095989618,-0.6091532374318084
19.320000000000007,2.8278698975027274,-0.0912326211258175,-0.5518130182979385
19.33,2.685251816495257,-0.0679478038685154,-0.4694745732070533
19.340000000000003,2.5477246442553776,-0.0396945196207573,-0.3843691660400922
19.349999999999994,2.3591871234477884,-0.0344414830241395,-0.2867186865885039
19.36,2.1595589657295675,-0.0145517978880415,-0.166455520797975
19.370000000000005,1.8931391952200225,-0.0036789292314759,-0.0462663521173893
19.379999999999995,1.6225153828406125,0.040208384243306,0.0376748967709777
19.39,1.3427571899087756,0.0462611904277748,0.1310784125263156
19.40000000000001,1.0444949761710574,0.0877920609171665,0.2024481888324786
19.41,0.7505477648042249,0.113895379529599,0.263526813831089
19.42,0.3630391181878572,0.1621324601949864,0.3398424032697253
19.430000000000007,-0.0108013006034095,0.1697511701761665,0.4122157841489631
19.44,-0.4223001665307461,0.2003239100674167,0.4606888060193868
19.450000000000003,-0.8508759682385988,0.2265859678326152,0.4842409560023281
19.459999999999997,-1.2821040686023852,0.249307475301046,0.5022151882583931
19.47,-1.6896923487416988,0.2592911309996218,0.5179503367307933
19.480000000000004,-2.080781831874684,0.2541980783338257,0.4944660988363382
19.489999999999995,-2.414351328965264,0.2498208077061021,0.5049184289058353
19.5,-2.727485463462177,0.2628775650603218,0.515726581209133
19.510000000000005,-3.016519941421118,0.2563685321424723,0.5188764981580789
19.52,-3.2720541415836357,0.2533823265321208,0.5171389289784508
19.53,-3.5496349524377924,0.2347204243562256,0.5221986386980021
19.540000000000006,-3.793506381864851,0.2125128119984326,0.5426400063083283
19.55,-4.034399175853768,0.1967240898287793,0.5384546522496167
19.56,-4.293648126085816,0.1501675944749122,0.5493924871901139
19.570000000000007,-4.532779898879625,0.1202530123640368,0.5722722955770785
19.58,-4.737624225829436,0.0772207114397184,0.5898648503968262
19.590000000000003,-4.933227289571465,0.0620382844269612,0.6209958168782201
19.599999999999994,-5.120369964614623,0.0234601375649551,0.6729733434679608
19.61,-5.281147995976007,-0.0115368513095858,0.7131529256844991
19.620000000000005,-5.401439759111375,-0.040900789663171,0.7558493985502732
19.629999999999995,-5.504259722432157,-0.0690239583917934,0.7868960520482916
19.64,-5.579475006909171,-0.118772302733212,0.8196682088530682
19.65000000000001,-5.656942469245784,-0.179289090021533,0.8382091315662995
19.66,-5.73557757159951,-0.2274715816935164,0.8666514294677253
19.67,-5.813024092845182,-0.2837415224151473,0.8775398338133745
19.680000000000007,-5.892968612680318,-0.3333892224061742,0.898561000945755
19.69,-5.982199591924919,-0.3997992651293524,0.9433925451249612
19.700000000000003,-6.038056650876859,-0.4285713329456453,0.9907610149441812
19.709999999999997,-6.1290478346598825,-0.4602690096120369,1.0371335009382032
19.72,-6.186365754709867,-0.5192084996155163,1.0624521884790177
19.730000000000004,-6.262065413646636,-0.5554090975095748,1.099478595729008
19.739999999999995,-6.321357344849261,-0.5951681331269387,1.1316713149423672
19.75,-6.3663237155061205,-0.6347957915690529,1.149896871009363
19.760000000000005,-6.429625348855075,-0.6773904843803373,1.153779619711274
19.77,-6.46270082199522,-0.7020047239141679,1.178860748005919
19.78,-6.476776628446611,-0.7355172866060075,1.2041917492912806
19.790000000000006,-6.442168985459858,-0.7467208912332693,1.230621656484052
19.8,-6.419785770692008,-0.7562637487071914,1.2723623264367423
19.81,-6.353847227682911,-0.7655006253231261,1.3209197978515783
19.820000000000007,-6.304699736864363,-0.7665525723315452,1.3873121512009932
19.83,-6.243204552565698,-0.8051760046738736,1.416252798454004
19.840000000000003,-6.169167410480409,-0.8380942544107276,1.452099425814591
19.849999999999994,-6.0290025528344655,-0.8800934959664706,1.4775063840078155
19.86,-5.8619974490418665,-0.918469179633529,1.4675168382527095
19.870000000000005,-5.612888555345475,-0.9549557630316288,1.4163842866684957
19.879999999999995,-5.398179277169077,-1.004282070297292,1.3924600544465122
19.89,-5.115873244598656,-1.039569532446513,1.3533964587792444
19.90000000000001,-4.785428131673393,-1.0678431281449106,1.3222934624237568
19.91,-4.428885801158315,-1.0950870595856814,1.3095674051876076
19.92,-4.048737665135749,-1.101469081434828,1.2909661208364858
19.930000000000007,-3.670194455357301,-1.1028041863681457,1.2771641637287807
19.94,-3.29181963795423,-1.079327268689278,1.267900381682884
19.950000000000003,-2.919746248099229,-1.070646318135724,1.2356883068226698
19.959999999999997,-2.533771885196048,-1.0390919999858546,1.178702169096982
19.97,-2.1333449565381173,-1.005827300338361,1.1280988767150189
19.980000000000004,-1.713211574177978,-0.9491582129443596,1.0743734512762684
19.989999999999995,-1.2765732730126662,-0.9108826935288584,1.015175729509778
20.0,-0.8935121974390265,-0.8456457543785377,0.9707717351430908
20.010000000000005,-0.5417990396042474,-0.7846577878330132,0.916418431320477
20.02,-0.2400012353841294,-0.7074262344511653,0.8721079142673713
20.03,0.0473641843588292,-0.6510600693714995,0.8278576753136373
20.040000000000006,0.3618163237079358,-0.6026349568116333,0.7853917759465902
20.05,0.646654241914274,-0.5395114066275809,0.7018666444266315
20.06,0.9495395726667794,-0.4822969138778196,0.6613419005926459
20.070000000000007,1.2809400765149053,-0.4044827803785851,0.60133413066345
20.08,1.6118181959852496,-0.3663808384728028,0.5641077856835499
20.090000000000003,1.9596522911882317,-0.3001613783182204,0.5055145452551522
20.099999999999994,2.254917553670209,-0.2589343228965559,0.4368031466900567
20.11,2.571833273381351,-0.2066238862823636,0.3330877046974988
20.120000000000005,2.8401493945863505,-0.1648414701428591,0.2183880314492303
20.129999999999995,3.136461019410343,-0.1161953486117612,0.1025981745129402
20.14,3.433083005299474,-0.07805870784452,-0.0043352206934068
20.15000000000001,3.734567668379548,-0.0592742483133327,-0.1166383982265602
20.16,3.983519762353024,-0.022686409118918,-0.2350798406017365
20.17,4.21857949761738,0.0003723178310196,-0.3418141166095481
20.180000000000007,4.419920589597411,0.0032946886772345,-0.4306653431661523
20.19,4.608069444207755,0.0018873265219326,-0.5386233410837973
20.200000000000003,4.811798114062081,0.0083202381945598,-0.6304308461211753
20.209999999999997,4.982669296407169,0.0132090638707738,-0.7336559511710514
20.22,5.177013142282215,-0.0105793541349712,-0.8142851407110323
20.230000000000004,5.3083904823611805,-0.0356643706956174,-0.9014957459531444
20.239999999999995,5.461881646715888,-0.0801839910337994,-0.9933015956943811
20.25,5.541257349145541,-0.12910040853505,-1.0862364588066495
20.260000000000005,5.602555391911704,-0.1931773813225251,-1.182294077496538
20.27,5.654103861395432,-0.2566667631862985,-1.285080531294652
20.28,5.725794304031614,-0.3281646512161192,-1.3895790526439915
20.290000000000006,5.772660663953802,-0.4092614436192801,-1.466946317619858
20.3,5.804693119621538,-0.4894897344078421,-1.5425179777181823
20.31,5.815549615814236,-0.5636105918332406,-1.593047084472881
20.320000000000007,5.819822148724041,-0.6516140242970133,-1.6207839964706376
20.33,5.791732378989453,-0.7185312288706449,-1.64944082029009
20.340000000000003,5.7716329656980525,-0.7665457669156311,-1.6840272597556734
20.349999999999994,5.747863366521678,-0.8195495663631318,-1.7059733718074226
20.36,5.713870644049011,-0.8411328170115232,-1.737091020036439
20.370000000000005,5.682823283822477,-0.8565843737069888,-1.7750002929899
20.379999999999995,5.593982690008405,-0.8993681643211161,-1.8051134423714867
20.39,5.510267674309887,-0.9134751889975006,-1.8219511636512336
20.40000000000001,5.426856154046844,-0.9279335162017316,-1.83769570504853
20.41,5.314619915913339,-0.9594761713478164,-1.8570974048592448
20.42,5.222997526321387,-0.9804794122735202,-1.869352982074884
20.430000000000007,5.112684501714018,-0.9975298996311132,-1.8615557240003344
20.44,5.029771804457567,-1.0115037331490255,-1.879470245893657
20.450000000000003,4.921500622290174,-1.0468952906251427,-1.9025461541066009
20.459999999999997,4.737625940960274,-1.071169052593277,-1.9177534911607224
20.47,4.487784301175964,-1.1151974302063257,-1.956264990868977
20.480000000000004,4.219218133294223,-1.1434240428365463,-1.962662208661624
20.489999999999995,3.938591938104712,-1.167558065270031,-1.9641612464586429
20.5,3.657404184526914,-1.1763975316774062,-1.970205327094766
20.510000000000005,3.423449379183113,-1.182542613262964,-1.9770229739183127
20.52,3.233102479729355,-1.1873783668857798,-1.9888916786281867
20.53,3.019480457258491,-1.199724539712063,-2.004355561802217
20.540000000000006,2.8487596278264906,-1.1835068582039976,-1.9837755298922048
20.55,2.6480475678145656,-1.1778775659331402,-1.9465410511433745
20.56,2.4378449581274406,-1.1539681618609543,-1.877036813422944
20.570000000000007,2.220563936983557,-1.151137805395899,-1.76804595759719
20.58,2.001847260141551,-1.1279185967112615,-1.6631425393608474
20.590000000000003,1.7959616320730727,-1.105337237755989,-1.5411777122133483
20.599999999999994,1.5799125617368233,-1.092977535787022,-1.4334187183019482
20.61,1.362439762401975,-1.0486166710852003,-1.3235520655616289
20.620000000000005,1.0699116618523152,-1.0083163518670295,-1.213463640971299
20.629999999999995,0.7542901901390175,-0.9649254443432356,-1.0898834044007295
20.64,0.3892699411031073,-0.9291839249947136,-0.9630213892270068
20.65000000000001,-0.0132827707089037,-0.8657458893525299,-0.8274435962267317
20.66,-0.4423073387734252,-0.7980589128766067,-0.6618200962150794
20.67,-0.8712646976298436,-0.7169586161619478,-0.5332591840757928
20.680000000000007,-1.2772077636868102,-0.6347496897918866,-0.3958938217631283
20.69,-1.6332628569516,-0.5647565599178545,-0.2742528626541244
20.700000000000003,-1.9829768412279745,-0.508117387682495,-0.1433072932745829
20.709999999999997,-2.288907393721611,-0.435572043906317,-0.0465797488591581
20.72,-2.596296384766253,-0.3925815272458948,0.0846830135746646
20.730000000000004,-2.892151314053326,-0.3492969005480432,0.1816754207238864
20.739999999999995,-3.18110406509924,-0.3218709035991748,0.2722498479712351
20.75,-3.4468898686461715,-0.2774737107155084,0.3656490886428565
20.760000000000005,-3.729944381591728,-0.2445759131587307,0.4756672434059386
20.77,-3.994639962545044,-0.2295075987102103,0.5880897384383832
20.78,-4.28775823617907,-0.2276657686548035,0.7233753363035146
20.790000000000006,-4.5689746656011865,-0.2147405484469629,0.8588079985709076
20.8,-4.80519994216191,-0.2119838128165615,1.003170596843578
20.81,-5.027802744279822,-0.2234676999994705,1.1406294835254114
20.820000000000007,-5.212327656799476,-0.2154777226212257,1.2539985098474224
20.83,-5.343427486115469,-0.2235782380067958,1.353344939671677
20.840000000000003,-5.461666298014785,-0.2173023859555899,1.4662459332653472
20.849999999999994,-5.574721558988986,-0.2308101841642821,1.592617067563315
20.86,-5.673501003239166,-0.2291107944109174,1.716351416352112
20.870000000000005,-5.722834728545831,-0.2576477718376989,1.815210742912852
20.879999999999995,-5.696366300473225,-0.2717578132999215,1.9439499418971395
20.89,-5.605990266337124,-0.3018961580760962,2.004136439360188
20.90000000000001,-5.377139037781481,-0.3084372240105386,2.060533753118501
20.91,-5.059364466359244,-0.3181819569867974,2.095472179724008
20.92,-4.666766875425952,-0.3108336230539085,2.134410299545112
20.930000000000007,-4.206973211371772,-0.2955676504979961,2.177297764962872
20.94,-3.704458980934842,-0.2784594268776024,2.2035265624682743
20.950000000000003,-3.163164284393257,-0.2493840473489881,2.234214134444348
20.959999999999997,-2.6457206256774164,-0.2318115769995596,2.271912238549044
20.97,-2.1353000829630693,-0.2195111277490901,2.267222377046171
20.980000000000004,-1.6391725045182364,-0.2325728946343137,2.2355976765725667
20.989999999999995,-1.180538223504587,-0.2447919950718694,2.1718114665064623
21.0,-0.7259495708635524,-0.2777281469573107,2.074194850399365
21.010000000000005,-0.3297435572372859,-0.3101340672613923,1.9680053764831096
21.02,0.0193575122748464,-0.3271605488499751,1.821401992281499
21.03,0.2984487093910461,-0.364188359217123,1.7020768638227706
21.040000000000006,0.5582899807590133,-0.4040945180579168,1.5449899068093378
21.05,0.7327834068787131,-0.4676141533449486,1.3965697722271788
21.06,0.80522872074678,-0.5316035128514945,1.2442326638545522
21.070000000000007,0.8022741677446901,-0.5817128814845913,1.1096586284791443
21.08,0.7077039594222873,-0.632497340717205,0.963567293396373
21.090000000000003,0.6119782556368464,-0.6881638688252861,0.8054781636756292
21.099999999999994,0.4883285050252497,-0.700612272137919,0.635954740537041
21.11,0.3630315046554548,-0.7225557518292381,0.5027715289369833
21.120000000000005,0.2270936488317618,-0.7300207423124262,0.3604278085317862
21.129999999999995,0.1005599951117391,-0.7381321477524878,0.2374651793867345
21.14,-0.007560503365636,-0.7355317115186165,0.10802176440406
21.15000000000001,-0.0555443277400501,-0.7166188106521226,0.0123132449245051
21.16,-0.0960301821617512,-0.6750521010396514,-0.1019147177539492
21.17,-0.1638882518395821,-0.6372312421967653,-0.1854875364491028
21.180000000000007,-0.236956805907967,-0.5788730317356168,-0.2455926723327934
21.19,-0.286895,-0.484614,-0.312035
21.200000000000003,-0.311741,-0.385238,-0.343776
21.209999999999997,-0.324274,-0.288388,-0.367682
21.22,-0.315763,-0.198354,-0.377624
21.230000000000004,-0.2860807333420131,-0.108399716251253,-0.3905839474602778
21.239999999999995,-0.2565775194812974,-0.0088655240976571,-0.3884877481164677
21.25,-0.1826212342210413,0.0624307624842357,-0.3830474594754892
21.260000000000005,-0.1421344746398612,0.1223130131497797,-0.3852164025762114
21.27,-0.0973246674351607,0.1658428574126352,-0.3776509992507161
21.28,-0.0524426133935179,0.2110629914359491,-0.3646938089748788
21.290000000000006,-0.0434315647404722,0.2526122039958481,-0.382398781584783
21.3,-0.0258589669151578,0.3028406262543544,-0.3808599143757342
21.31,-0.0269302302073961,0.3452554215165892,-0.3774112158264244
21.320000000000007,0.002075507018101,0.3808278109100005,-0.3688608621046535
21.33,0.025099332988458,0.4129079432217883,-0.37535644181912
21.340000000000003,0.0513310069963836,0.4434000645373783,-0.3685233404988435
21.349999999999994,0.1035129041654364,0.4557988157872853,-0.3723961523332134
21.36,0.1608514921235583,0.4647075276645552,-0.3525768010765948
21.370000000000005,0.2034112335699168,0.4554088377359601,-0.3519261084537175
21.379999999999995,0.2559370113347539,0.413267338681191,-0.344240909251998
21.39,0.2519885118875999,0.3630425380483375,-0.356315962163913
21.40000000000001,0.2825964029027805,0.3078065368308982,-0.3696099169845627
21.41,0.2762571855530135,0.2170320436297959,-0.3762732639120237
21.42,0.245126852117199,0.1087879450507152,-0.3818820048491931
21.430000000000007,0.203048754268298,-0.0261249609745055,-0.3635181974724164
21.44,0.1999390590074607,-0.199089786953822,-0.3347536069454322
21.450000000000003,0.1868345578885981,-0.3928978681829219,-0.3287984478793937
21.459999999999997,0.15599148705548,-0.6472943819481435,-0.3140449043054658
21.47,0.1245530756000494,-0.9275521882978546,-0.2671967513030696
21.480000000000004,0.1072653235711852,-1.252775170876259,-0.2556994343094499
21.489999999999995,0.0704729715590282,-1.6111408334695754,-0.2255374851295536
21.5,0.0576831192787196,-1.9719300086760996,-0.2067768017638419
21.510000000000005,0.0572925200915725,-2.34650295963232,-0.1820021500820184
21.52,0.0535337869965806,-2.7013826778378034,-0.1633793504267867
