time,Gyr_X,Gyr_Y,Gyr_Z
0.0,-0.0130843545015603,0.0045772928190461,-0.0254400165841124
0.0100000000000193,-0.0104528105167246,-0.0005288466001784,-0.0280863569265801
0.0200000000000102,-0.0194924471104596,0.0024785958977354,-0.0230090423843267
0.0300000000000011,-0.0061256790225392,-0.0068485473505078,-0.0273623408815566
0.039999999999992,-0.0123006062567032,-0.0093938050795872,-0.0285627878113008
0.0500000000000113,-0.0032607628442119,-0.0145921484832751,-0.0271488299294557
0.0600000000000022,0.0081098657847422,-0.0148727420983184,-0.0267449843651021
0.0699999999999931,0.0072754930731698,-0.0097945174265108,-0.0312557987374352
0.0800000000000125,0.008492457893255,-0.0126641708941351,-0.0256276310694467
0.0900000000000034,0.0098941891349938,-0.0043419675752138,-0.0227799466528117
0.0999999999999943,0.0135427353431332,-0.0131289605188326,-0.0142682599256059
0.1100000000000136,0.0085571459097683,-0.0133994330610629,-0.014753911056258
0.1200000000000045,0.0146931325707611,-0.0149925129418588,-0.0150117883383644
0.1299999999999954,0.029476713914814,-0.0174678544188779,-0.014113701214792
0.1400000000000147,0.0229244401240202,-0.0165419751668212,-0.0123877630432191
0.1500000000000056,0.0232509998830822,-0.0179427386609655,-0.0028331909195471
0.1599999999999966,0.0198701765272793,-0.0125062960229428,-0.0018179643294991
0.1700000000000159,0.0169939815508861,-0.0075393899064599,-0.003562653804718
0.1800000000000068,0.0130291838245497,-0.0037778583145531,-0.0049199055003275
0.1899999999999977,0.0117384463109284,0.0012145697382275,-0.0047522949291362
0.200000000000017,0.0091946812733137,0.0004152990994597,-0.0031402365002865
0.2100000000000079,0.0068262535139145,0.0028465851709922,-0.0077289953181459
0.2199999999999988,0.0047692187092919,0.0059886407293637,-0.0072528714814134
0.2300000000000182,-0.009362441528335,0.0026144326181016,-0.0096586100288231
0.2400000000000091,-0.0184352590506898,0.0027614714498927,-0.0078920838579276
0.25,-0.0373787077029831,0.0028292734634615,-0.0055716593978189
0.2600000000000193,-0.0408970768927416,0.0086061211632771,-0.0088014160459029
0.2700000000000102,-0.0396065227682383,0.0027542059755149,-0.0106401823184775
0.2800000000000011,-0.0448819743067428,0.0079733660984517,-0.0107439966484584
0.289999999999992,-0.0407601641983583,-0.0096070820010637,-0.0095935654422973
0.3000000000000113,-0.0375598461287925,-0.0148837909125334,-0.015007398657948
0.3100000000000023,-0.0357600817262049,-0.0118068858126397,-0.0128017421939538
0.3199999999999932,-0.0281129078443822,-0.0145769669662265,-0.0143369984077077
0.3300000000000125,-0.022419819631878,-0.0115297289706261,-0.01656746686697
0.3400000000000034,-0.010132891436632,-0.0162165182417989,-0.0091595980288094
0.3499999999999943,0.001594585345117,-0.0063608216885346,-0.0076005333836791
0.3600000000000136,0.0057363732174146,-0.0046975247372972,-0.0084958142317911
0.3700000000000045,0.0096377372176762,-0.008649176748576,-0.0069317572432375
0.3799999999999954,0.0298745445334814,-0.0003365661170239,-0.0043039218422624
0.3900000000000148,0.0337083811681031,-0.0047543176268889,-0.0082961093955117
0.4000000000000057,0.029200369629537,0.0027624859407984,-0.0081543361895801
0.4099999999999966,0.0298171829900771,-0.0018063944919038,0.0002923909278242
0.4200000000000159,0.0134328082020807,0.0018069799689484,0.0088779583835433
0.4300000000000068,0.0009941188177345,-0.0003897120669222,0.0091523557507389
0.4399999999999977,-0.0056240479822749,0.0008739170039007,0.0179996426532628
0.450000000000017,-0.0007751829979463,0.0118541660490851,0.0220428985393655
0.4600000000000079,0.0110423671362175,0.0113364201186319,0.024042647485702
0.4699999999999988,0.0068509458209726,0.0164071779234148,0.0251692129232354
0.4800000000000182,0.0107071355739264,0.0202456094404087,0.0223694650239337
0.4900000000000091,-0.0026523451529776,0.0136182266617641,0.0216508832126278
0.5,-0.0153815753678734,0.0233176364303781,0.0261320232898221
0.5100000000000193,-0.0107285289444003,0.0218547043135369,0.0358674843886126
0.5200000000000102,-0.0028532104145804,0.0196290399380539,0.0387790369209226
0.5300000000000011,0.0209859038592294,0.0249288985969116,0.0439574194622989
0.539999999999992,0.0296798464747128,0.0270819938310302,0.0474098680420912
0.5500000000000114,0.0405094453016649,0.0289819188282733,0.0485862901604866
0.5600000000000023,0.0348518484742321,0.0328332668439318,0.0477613816443377
0.5699999999999932,0.0327839056649155,0.0320362761369124,0.0549956066687196
0.5800000000000125,0.0303188250027776,0.0328955725673345,0.0627641656797399
0.5900000000000034,0.0078578306174101,0.0290659316607523,0.0654643282540638
0.5999999999999943,0.0128160381466729,0.0242709241264268,0.0713867182556925
0.6100000000000136,0.0105240378687734,0.0254676407496867,0.0721221529274127
0.6200000000000045,0.0208185026787867,0.0265933722460773,0.064868576283966
0.6299999999999955,0.0372866523319144,0.0282243433244615,0.0553914414088336
0.6400000000000148,0.0343129101372967,0.0181588770279589,0.0489849739290562
0.6500000000000057,0.0380018873767173,0.0114099554278512,0.0394240356041002
0.6599999999999966,0.0362384087466346,0.0153878309561604,0.0332758310654467
0.6700000000000159,0.0404935257817879,0.0150548291777258,0.0358976678013181
0.6800000000000068,0.0543708650614296,0.0153158893161715,0.0311863252877257
0.6899999999999977,0.0639164111158798,0.014732636660833,0.035161829389679
0.700000000000017,0.0810212476661943,0.0153116969892869,0.0331511415529907
0.710000000000008,0.0931985155335457,0.0230360169651382,0.0306667862994474
0.7199999999999989,0.1077096693149635,0.0192658483624399,0.027841426072804
0.7300000000000182,0.1129175857077956,0.0230721323510136,0.0242971176016582
0.7400000000000091,0.1107529264476145,0.0199552861192323,0.0145927889895444
0.75,0.1156125508050125,0.0250840424643751,0.0099865438552526
0.7600000000000193,0.1151268220793572,0.0278507842077809,0.0073001191190771
0.7700000000000102,0.1130458634893118,0.0289787182161339,-2.2318626278222094e-05
0.7800000000000011,0.1028421078516387,0.027238451280131,-0.0067120020061373
0.789999999999992,0.0872537100509342,0.0199687231471796,-0.0157131380348455
0.8000000000000114,0.0833898500290941,0.0215413563036012,-0.0171661480225007
0.8100000000000023,0.0654305750267333,0.0240810455854161,-0.0210972757343066
0.8199999999999932,0.0443851646521648,0.0155847712366607,-0.0237479598365038
0.8300000000000125,0.028139125911452,0.0122883956158999,-0.0208563497640202
0.8400000000000034,0.0131510331974196,0.0073083392005082,-0.0265929609466014
0.8499999999999943,-0.0100157399608207,0.0033225867075205,-0.0247254457679175
0.8600000000000136,-0.0192299741100276,0.0064590122559949,-0.0303405511204663
0.8700000000000045,-0.0312517932852596,0.0039415148992343,-0.0314252897673781
0.8799999999999955,-0.0595884195870195,-0.0011719817854441,-0.0322839956567086
0.8900000000000148,-0.0663598051834379,0.0071004491168263,-0.0321726963429576
0.9000000000000057,-0.0678176190928577,0.0028177028220083,-0.0327105173273312
0.9099999999999966,-0.0756233506929466,0.0030930206434563,-0.0324454912889093
0.920000000000016,-0.0756509644487166,0.0071254166229484,-0.0348677834820786
0.9300000000000068,-0.0705410203885902,0.0011933893394653,-0.037766545541549
0.9399999999999976,-0.0732701844017761,0.0039634777559569,-0.0410645575320531
0.950000000000017,-0.0777267055512121,-5.691365188729237e-05,-0.0466109972847785
0.960000000000008,-0.0857088459690747,0.0041603581250266,-0.0560249607151546
0.9699999999999988,-0.0917530906277188,-0.0023101287649567,-0.0589022527351033
0.9800000000000182,-0.0937593865900928,-0.0065876777439612,-0.0541759239173509
0.9900000000000092,-0.0934014633986376,-0.0085223313856873,-0.0559419382768033
1.0,-0.0936549124100159,-0.0256552447106102,-0.0545481583560382
1.010000000000019,-0.0928047480847878,-0.0131865471089844,-0.0484465758303382
1.0200000000000102,-0.0777401755122485,0.0006466809497013,-0.0505251193426231
1.0300000000000011,-0.0578202943641802,0.0021093632849122,-0.0441611214773591
1.039999999999992,-0.0415188251376531,0.0031598609817467,-0.0425643845572482
1.0500000000000114,-0.0203256798803594,0.008681261598203,-0.0367277208458341
1.0600000000000025,-0.011485003737444,0.0087557357022904,-0.0298144741618567
1.0699999999999932,0.0053925847675429,0.0057822105174275,-0.0306702564807
1.0800000000000125,0.0074039287364097,0.0010640640895981,-0.0171533904019822
1.0900000000000034,0.0121821578346262,-0.0010711642048248,-0.008322323000721
1.0999999999999943,0.0080202357935378,0.0034711555242241,-0.0066024569778719
1.1100000000000136,0.0124712043469,0.0034139447530278,-0.0025194753879843
1.1200000000000043,0.0073460712250133,0.0011819693159529,0.0072344063187924
1.1299999999999957,-0.0064258083993553,-0.0050261947717736,0.0062730161948354
1.1400000000000148,-0.012766896805955,-0.0147027513744621,0.0085192707708135
1.1500000000000057,-0.0228864124639306,-0.0082359446102968,0.000271630584102
1.1599999999999966,-0.0407545454984298,-0.003191850362628,-0.0032980491629702
1.170000000000016,-0.0435928047179386,-0.0078237939720509,-0.0111793850774869
1.1800000000000068,-0.0636571907844696,-0.0027370133804,-0.0122942448763308
1.1899999999999975,-0.0684233911074547,-0.0046452785826159,-0.0082152769958106
1.200000000000017,-0.0682777731855712,0.0025565835794678,-0.0154496788388491
1.210000000000008,-0.0678623699439678,0.0019242804588867,-0.0239588725388518
1.2199999999999989,-0.0651195724171276,0.0118149408865315,-0.0249109862637341
1.2300000000000182,-0.0634797628397816,0.0128777255836447,-0.0221938656822934
1.240000000000009,-0.0544736481058838,0.0157166077407455,-0.0167335359556035
1.25,-0.0479638761445573,0.0127984853101575,-0.0183443101710592
1.260000000000019,-0.0412418294060941,0.0137710607731675,-0.0123670171956086
1.2700000000000102,-0.0443647308950751,0.0068997658802103,-0.0076150650435595
1.2800000000000011,-0.0344213513358894,-0.0023921775496897,-0.0019264468130638
1.289999999999992,-0.0259142991037922,0.0015144478891301,0.0046932839375752
1.3000000000000114,-0.0113627409596795,0.0023301584142201,0.0020559171680449
1.3100000000000025,-0.0081271445589716,0.0017780422791057,-0.0031486619790546
1.3199999999999932,0.0051982073606327,0.0055055447697424,-0.0058585653138429
1.3300000000000125,0.0106635599836146,0.0023600044863756,-0.0078231342297833
1.3400000000000034,0.0103662274424518,-0.0005664707947401,-0.0062912891852427
1.3499999999999943,0.0126096163925416,-0.0023457680834772,0.0008117895208396
1.3600000000000136,0.010274345010753,0.0017017338746341,0.0076210317854931
1.3700000000000043,0.0131427493874217,0.0018087271983468,0.0114722262290746
1.3799999999999957,0.0098649170600747,0.0025397290618626,0.0043016734223567
1.3900000000000148,0.0107990951441008,0.0060276596212512,0.004529005400633
1.4000000000000057,0.0143416364377187,0.0075330931526207,-0.0017609671089205
1.4099999999999966,0.0068486000104821,0.0044177399349773,-0.0060574279355211
1.420000000000016,-0.0131021965807214,0.0064714121854211,-0.0076399134423899
1.4300000000000068,-0.0408760557490361,0.0109205970078341,-0.015579300799422
1.4399999999999975,-0.0455252135733566,0.0047128611893478,-0.0100117551823369
1.450000000000017,-0.0585733140582515,0.0043873199866641,-0.0102620921091527
1.460000000000008,-0.0626730501324663,-0.0045601953632201,-0.0183452938685972
1.4699999999999989,-0.0576397749575006,0.0028440541176974,-0.017340785484333
1.4800000000000182,-0.0420206880148774,0.0018991945840654,-0.0266642162010539
1.490000000000009,-0.0339755340376528,-0.0028611309035153,-0.0312886220007472
1.5,-0.0294844481182922,-0.0085672628246713,-0.0322145626038433
1.510000000000019,-0.0282965252364698,-0.0110565819155305,-0.026806711956823
1.5200000000000102,-0.0259279717203585,-0.0052102550598835,-0.0199307622981727
1.5300000000000011,-0.0255000064150789,-0.0061621503005044,-0.0215952269947382
1.539999999999992,-0.0279950851117341,-0.0098471098201158,-0.019948205086023
1.5500000000000114,-0.0237426284111151,-0.0008628904551824,-0.0203597162764982
1.5600000000000025,-0.0218293054296671,-0.0047927289692723,-0.0163310786695678
1.5699999999999932,-0.0308126044885383,-0.0097089305190969,-0.0217993492926384
1.5800000000000125,-0.0409628397318464,-0.0118672093438445,-0.0207365412705269
1.5900000000000034,-0.0429660048987222,-0.0138499233932115,-0.0218585916643398
1.5999999999999943,-0.0442352221050575,-0.0147926182877072,-0.0200874394788746
1.6100000000000136,-0.0490378325346659,-0.0034984655227214,-0.0205353688708638
1.6200000000000043,-0.0485447986105337,-0.0102714335959116,-0.0237363629796289
1.6299999999999957,-0.0305682780729227,-0.0035287309969884,-0.015697148236758
1.6400000000000148,-0.0259661870968987,0.0069338494992791,-0.0124343120853006
