time,Gyr_X,Gyr_Y,Gyr_Z
0.0,-0.036347,-0.015298,0.012935
0.0100000000000051,-0.038051,-0.009913,0.018458
0.0200000000000102,-0.041866,-0.011709,0.000115
0.0300000000000011,-0.050933,-0.009982,0.007323
0.0400000000000062,-0.049125,-0.012684,0.010965
0.0500000000000113,-0.054543,-0.010002,0.015497
0.0600000000000022,-0.060206,-0.016334,0.005296
0.0700000000000073,-0.056565,-0.022657,0.016222
0.0799999999999983,-0.07838,-0.013798,0.014201
0.0900000000000034,-0.073961,-0.023692,0.01414
0.1000000000000085,-0.074703,-0.01378,0.016074
0.1099999999999994,-0.074854,-0.017348,0.003241
0.1200000000000045,-0.062847,-0.013671,0.01258
0.1300000000000096,-0.062995,-0.019973,0.00611
0.1400000000000005,-0.065547,-0.010087,0.010756
0.1500000000000056,-0.043801,-0.023481,0.011787
0.1600000000000108,-0.034497,-0.009906,0.004753
0.1700000000000017,-0.018234,-0.020601,0.000267
0.1800000000000068,-0.016519,-0.031413,0.007456
0.1900000000000119,-0.021852,-0.024236,0.012944
0.2000000000000028,-0.012552,-0.009732,0.002278
0.2100000000000079,0.003915,-0.013249,0.009759
0.2199999999999988,0.002234,-0.004255,0.01076
0.2300000000000039,0.001933,-0.019566,0.002355
0.2400000000000091,0.018715,-0.00236,0.01193
0.25,0.005668,-0.013231,0.002498
0.2600000000000051,-0.00352,-0.017781,0.007811
0.2700000000000102,-0.008115,-0.013286,-0.003153
0.2800000000000011,-0.012895,-0.018716,-0.019719
0.2900000000000062,-0.009232,-0.020512,-0.016041
0.3000000000000113,-0.004598,-0.022317,-0.005049
0.3100000000000023,-0.016433,-0.016983,-0.010625
0.3200000000000074,-0.023852,-0.03145,0.005546
0.3299999999999983,-0.018254,-0.022385,0.002071
0.3400000000000034,-0.024005,-0.03593,-0.004553
0.3500000000000085,-0.022127,-0.033212,-0.003577
0.3599999999999994,-0.03322,-0.034173,-0.018353
0.3700000000000045,-0.029586,-0.036829,-0.016504
0.3800000000000096,-0.015132,-0.045704,-0.021886
0.3900000000000005,-0.000274,-0.031169,-0.021511
0.4000000000000057,-0.004099,-0.043806,-0.018063
0.4100000000000108,-0.000543,-0.043758,-0.03263
0.4200000000000017,-0.007597,-0.029431,-0.027995
0.4300000000000068,0.002525,-0.03844,0.000348
0.4400000000000119,0.010942,-0.023963,-0.004847
0.4500000000000028,0.020758,-0.034679,-0.01397
0.4600000000000079,0.001802,-0.02942,0.00959
0.4699999999999988,0.020812,-0.031037,-0.012094
0.480000000000004,0.001516,-0.034755,-0.01604
0.4900000000000091,-0.007947,-0.049227,-0.029129
0.5,-0.016973,-0.038473,-0.035514
0.5100000000000051,-0.015125,-0.041223,-0.028226
0.5200000000000102,-0.022955,-0.024185,-0.010773
0.5300000000000011,-0.009529,-0.042119,-0.012637
0.5400000000000063,-0.027876,-0.04404,-0.016558
0.5500000000000114,-0.031336,-0.038673,-8.9e-05
0.5600000000000023,-0.025825,-0.035003,-0.003622
0.5700000000000074,-0.016959,-0.049355,-0.010977
0.5799999999999983,-0.020751,-0.054772,-0.018401
0.5900000000000034,-0.028073,-0.055732,-0.01852
0.6000000000000085,-0.026081,-0.044012,-0.022018
0.6099999999999994,-0.023375,-0.049428,-0.016573
0.6200000000000045,-0.022508,-0.05121,-0.02024
0.6300000000000097,-0.011208,-0.036732,-0.007134
0.6400000000000006,0.007042,-0.038385,-0.008736
0.6500000000000057,0.01627,-0.03111,-0.012176
0.6600000000000108,0.050888,-0.047139,0.004534
0.6700000000000017,0.049063,-0.041723,-0.006384
0.6800000000000068,0.060011,-0.037144,-0.018976
0.6900000000000119,0.082095,-0.03072,-0.013123
0.7000000000000028,0.061827,-0.038048,-0.018949
0.710000000000008,0.08391,-0.036137,-0.004008
0.7199999999999989,0.097445,-0.046871,-0.004866
0.730000000000004,0.089387,-0.037922,0.001536
0.7400000000000091,0.085634,-0.040644,-0.00402
0.75,0.089241,-0.046944,0.003261
0.7600000000000051,0.056534,-0.032714,0.002093
0.7700000000000102,0.046125,-0.050777,-0.007391
0.7800000000000011,0.038153,-0.036433,-0.002761
0.7900000000000063,0.018006,-0.036566,-0.006683
0.8000000000000114,-0.016939,-0.049424,-0.007305
0.8100000000000023,-0.020172,-0.024222,-0.003396
0.8200000000000074,-0.044975,-0.03429,0.000715
0.8299999999999983,-0.0532,-0.029781,-0.009386
0.8400000000000034,-0.06333,-0.03887,-0.000505
0.8500000000000085,-0.053113,-0.030699,0.00338
0.8599999999999994,-0.036347,-0.013477,0.008371
0.8700000000000045,-0.044236,-0.0369,-0.020322
0.8800000000000097,-0.031293,-0.037769,0.001766
0.8900000000000006,-0.036737,-0.029697,-0.009169
0.9000000000000057,-0.041475,-0.031512,-0.027519
0.9100000000000108,-0.029396,-0.027877,-0.009964
0.9200000000000016,-0.038682,-0.029715,-0.025639
0.9300000000000068,-0.040347,-0.029768,-0.00283
0.940000000000012,-0.035144,-0.042334,-0.014784
0.9500000000000028,-0.038917,-0.051374,-0.011291
0.960000000000008,-0.028125,-0.0621,-0.013108
0.9699999999999988,-0.026227,-0.062097,-0.003957
0.980000000000004,-0.013398,-0.052953,-0.019202
0.9900000000000092,-0.016964,-0.042152,-0.029169
1.0,-0.01325,-0.042154,-0.021816
1.0100000000000051,-0.013298,-0.045766,-0.020947
1.0200000000000102,-0.02264,-0.060235,-0.017587
1.0300000000000011,-0.027952,-0.045835,-0.024791
1.0400000000000065,-0.042504,-0.042342,-0.022206
1.0500000000000114,-0.045853,-0.027966,-0.010205
1.0600000000000025,-0.029253,-0.017027,-0.014413
1.0700000000000074,-0.027342,-0.015228,-0.007052
1.0799999999999983,-0.033484,-0.000863,-0.001478
1.0900000000000034,-0.029041,-0.013464,0.007566
1.1000000000000083,-0.016303,-0.007937,-0.012293
1.1099999999999994,-0.021431,0.00822,0.00244
1.1200000000000043,-0.038784,0.006269,0.009485
1.1300000000000097,-0.052573,0.002558,0.007428
1.1400000000000006,-0.078312,-0.009355,0.014248
1.1500000000000057,-0.081795,0.002317,0.012506
1.1600000000000108,-0.09671,-0.017592,0.015723
1.1700000000000017,-0.096718,-0.01938,0.017519
1.1800000000000068,-0.094876,-0.014831,0.008459
1.190000000000012,-0.089348,-0.008457,0.00038
1.2000000000000028,-0.062025,-0.023604,0.017916
1.210000000000008,-0.065777,-0.023602,0.005071
1.2199999999999989,-0.06559,-0.010077,0.003415
1.230000000000004,-0.06101,-0.010063,0.005297
1.240000000000009,-0.058283,-0.010061,0.004414
1.25,-0.067459,-0.008294,-0.002991
1.2600000000000051,-0.060829,0.005258,-7e-06
1.2700000000000102,-0.056074,0.013367,0.007453
1.2800000000000011,-0.054395,-0.001065,0.017351
1.2900000000000065,-0.040503,0.006248,0.026765
1.3000000000000114,-0.039725,-1.5e-05,0.02214
1.3100000000000025,-0.031555,-0.006282,0.029478
1.3200000000000074,-0.032183,0.008128,0.03877
1.3299999999999983,-0.028499,0.007236,0.044279
1.3400000000000034,-0.032121,0.01626,0.029727
1.3500000000000083,-0.046638,0.019779,0.0378
1.3599999999999994,-0.051266,0.016162,0.036791
1.3700000000000043,-0.031875,0.026207,0.040832
1.3800000000000097,-0.052003,0.026075,0.038744
1.3900000000000006,-0.038346,0.018973,0.045249
1.4000000000000057,-0.039205,0.022565,0.044373
1.4100000000000108,-0.035584,0.018981,0.046201
1.4200000000000017,-0.018329,0.013723,0.040879
1.4300000000000068,-0.001231,0.006682,0.016358
1.440000000000012,0.008022,0.01936,0.002932
1.4500000000000028,0.051557,-0.000198,-0.00494
1.460000000000008,0.060603,-0.003758,-0.011251
1.4699999999999989,0.086071,-0.008995,-0.01645
1.480000000000004,0.078364,-0.033388,-0.016852
1.490000000000009,0.054478,-0.029914,-0.038144
1.5,0.05458,-0.029035,-0.026266
1.5100000000000051,0.021411,-0.038233,-0.041433
1.5200000000000102,0.012265,-0.038285,-0.041562
1.5300000000000011,-0.016397,-0.051981,-0.054893
1.5400000000000065,-0.039296,-0.053019,-0.057026
1.5500000000000114,-0.048198,-0.044969,-0.040603
1.5600000000000025,-0.057353,-0.037757,-0.05799
1.5700000000000074,-0.073817,-0.036974,-0.062781
1.5799999999999983,-0.079159,-0.029848,-0.05912
1.5900000000000034,-0.089901,-0.019166,-0.049995
1.6000000000000083,-0.106229,-0.019335,-0.030109
1.6099999999999994,-0.128034,-0.010463,-0.028466
1.6200000000000043,-0.146087,-0.003366,-0.011276
1.6300000000000097,-0.15503,0.011011,-0.017641
1.6400000000000006,-0.132828,0.021038,-0.008129
1.6500000000000057,-0.088098,0.018641,-0.014872
1.6600000000000108,-0.037865,0.011716,-0.009741
1.6700000000000017,0.069914,0.005189,-0.012959
1.6800000000000068,0.139543,0.011039,-0.007398
1.690000000000012,0.240016,0.009964,-0.017933
1.7000000000000028,0.303964,0.014029,-0.031629
1.710000000000008,0.357693,0.009038,-0.045558
1.7199999999999989,0.405168,0.012082,-0.057661
1.730000000000004,0.406111,0.02382,-0.076676
1.740000000000009,0.401459,0.029231,-0.09951
1.75,0.40418,0.025647,-0.094031
1.7600000000000051,0.369518,0.029003,-0.088954
1.7700000000000102,0.349502,0.037001,-0.089095
1.7800000000000011,0.311274,0.04576,-0.082172
1.7900000000000065,0.254949,0.062497,-0.066258
1.8000000000000114,0.194887,0.072897,-0.048643
1.8100000000000025,0.128997,0.074261,-0.059535
1.8200000000000076,0.041338,0.079064,-0.054247
1.8299999999999983,-0.022773,0.065994,-0.042466
1.8400000000000036,-0.082433,0.054793,-0.052526
1.8500000000000083,-0.128763,0.067089,-0.039296
1.8599999999999997,-0.168977,0.056898,-0.015292
1.8700000000000043,-0.207198,0.067487,-0.011118
1.8800000000000097,-0.256275,0.078869,0.006626
1.8900000000000008,-0.297938,0.105672,0.005475
1.9000000000000057,-0.336288,0.104569,0.01226
1.9100000000000108,-0.357674,0.134193,0.021459
1.9200000000000017,-0.344708,0.143309,0.021736
1.9300000000000068,-0.32461,0.144323,0.01469
1.940000000000012,-0.267659,0.155478,0.024706
1.9500000000000028,-0.210645,0.169304,0.038407
1.960000000000008,-0.136701,0.159852,0.044753
1.9699999999999989,-0.095645,0.15195,0.052509
1.980000000000004,-0.074438,0.162849,0.054742
1.990000000000009,-0.029854,0.141495,0.069702
2.0,0.004763,0.141752,0.05099
2.010000000000005,0.0054,0.123741,0.051706
2.0200000000000102,0.033331,0.110465,0.022692
2.030000000000001,0.052831,0.081804,-0.002043
2.0400000000000063,0.063501,0.068367,-0.015743
2.050000000000012,0.109863,0.056078,-0.028041
2.0600000000000023,0.127377,0.014826,-0.044735
2.0700000000000074,0.161379,0.034979,-0.062301
2.0799999999999983,0.188239,0.006369,-0.07781
2.0900000000000034,0.180682,-0.00447,-0.087174
2.1000000000000085,0.175162,-0.011756,-0.076367
2.1099999999999994,0.154903,-0.020943,-0.076763
2.1200000000000045,0.107121,-0.042903,-0.062149
2.1300000000000097,0.038965,-0.070363,-0.072512
2.140000000000001,-0.010278,-0.063533,-0.065778
2.1500000000000057,-0.037719,-0.066413,-0.058846
2.160000000000011,-0.107097,-0.060558,-0.052385
2.1700000000000017,-0.13596,-0.039079,-0.04338
2.180000000000007,-0.164065,-0.022966,-0.048123
2.190000000000012,-0.177298,0.011219,-0.052426
2.200000000000003,-0.194344,0.03281,-0.059668
2.210000000000008,-0.213782,0.022809,-0.071
2.219999999999999,-0.236051,0.00922,-0.091553
2.230000000000004,-0.250989,-0.014264,-0.088396
2.240000000000009,-0.212511,-0.012232,-0.086069
2.25,-0.161246,-0.004735,-0.092623
2.260000000000005,-0.102084,0.029754,-0.069524
2.2700000000000102,-0.069671,0.052381,-0.056067
2.280000000000001,-0.064905,0.058627,-0.039519
2.2900000000000063,-0.082508,0.092746,-0.016519
2.300000000000012,-0.089782,0.092704,-0.013898
2.3100000000000023,-0.078158,0.127962,-0.004179
2.3200000000000074,-0.009338,0.143848,-0.00762
2.3299999999999983,0.033608,0.142423,-0.011602
2.3400000000000034,0.104986,0.151991,-0.0233
2.3500000000000085,0.141419,0.157718,-0.050112
2.3599999999999994,0.159688,0.165053,-0.062552
2.3700000000000045,0.157725,0.150541,-0.044481
2.3800000000000097,0.137768,0.159368,-0.039147
2.390000000000001,0.121284,0.157432,-0.037548
2.4000000000000057,0.128868,0.169188,-0.024508
2.410000000000011,0.142045,0.195468,-0.023998
2.4200000000000017,0.153418,0.21899,-0.018984
2.430000000000007,0.163785,0.237066,-0.017738
2.440000000000012,0.141533,0.266619,0.000573
2.450000000000003,0.114286,0.269131,0.022169
2.460000000000008,0.083698,0.297782,0.031245
2.469999999999999,0.047405,0.308379,0.04642
2.480000000000004,0.036885,0.331736,0.05479
2.490000000000009,0.039548,0.373214,0.079095
2.5,0.056312,0.387692,0.086795
2.510000000000005,0.068022,0.427359,0.102037
2.5200000000000102,0.088536,0.44817,0.111675
2.530000000000001,0.107589,0.48883,0.127003
2.5400000000000063,0.139078,0.507085,0.140426
2.550000000000012,0.183616,0.547124,0.141521
2.5600000000000023,0.240428,0.607032,0.159453
2.5700000000000074,0.253231,0.661147,0.17304
2.5799999999999983,0.215654,0.703144,0.198629
2.5900000000000034,0.162284,0.730685,0.223894
2.6000000000000085,0.116172,0.756461,0.242829
2.6099999999999994,0.060221,0.787532,0.278102
2.6200000000000045,0.017285,0.781806,0.297583
2.6300000000000097,-0.008715,0.801414,0.32578
2.640000000000001,-0.051362,0.80468,0.360837
2.6500000000000057,-0.046162,0.833611,0.38314
2.660000000000011,-0.066095,0.83896,0.395721
2.6700000000000017,-0.070876,0.871367,0.423478
2.680000000000007,-0.079811,0.884872,0.425379
2.690000000000012,-0.068589,0.889432,0.452996
2.700000000000003,-0.097684,0.890988,0.474531
2.710000000000008,-0.123026,0.883526,0.525245
2.719999999999999,-0.150634,0.919448,0.547253
2.730000000000004,-0.141887,0.944856,0.564133
2.740000000000009,-0.101068,0.974976,0.578748
2.75,-0.053229,0.997899,0.569597
2.760000000000005,-0.076696,1.013969,0.579508
2.7700000000000102,-0.087665,1.015673,0.579401
2.780000000000001,-0.145128,1.017082,0.597862
2.7900000000000063,-0.152506,1.015278,0.595935
2.800000000000012,-0.179055,1.009781,0.600074
2.8100000000000023,-0.156397,1.00022,0.575673
2.8200000000000074,-0.084713,1.001909,0.509044
2.8299999999999983,-0.152409,1.073593,0.497935
2.8400000000000034,-0.260173,1.132362,0.508193
2.8500000000000085,-0.33295,1.149865,0.512976
2.8599999999999994,-0.372688,1.183846,0.508311
2.8700000000000045,-0.421558,1.200525,0.543454
2.8800000000000097,-0.472205,1.23269,0.550473
2.890000000000001,-0.464217,1.269818,0.563832
2.9000000000000057,-0.459728,1.320379,0.569985
2.910000000000011,-0.429946,1.354895,0.565292
2.9200000000000017,-0.429713,1.387442,0.527295
2.930000000000007,-0.430893,1.430712,0.527786
2.940000000000012,-0.428702,1.454169,0.528081
2.950000000000003,-0.443147,1.475803,0.506224
2.960000000000008,-0.426125,1.524718,0.481478
2.969999999999999,-0.392967,1.546696,0.468511
2.980000000000004,-0.332362,1.567063,0.462299
2.990000000000009,-0.267969,1.596453,0.452541
3.0,-0.255031,1.609253,0.449235
3.010000000000005,-0.242175,1.614822,0.448587
3.0200000000000102,-0.251166,1.625619,0.446786
3.030000000000001,-0.245779,1.622129,0.438601
3.0400000000000063,-0.265039,1.627622,0.415576
3.050000000000012,-0.237542,1.645965,0.38144
3.0600000000000023,-0.180257,1.639255,0.351984
3.0700000000000074,-0.142173,1.636919,0.315031
3.0799999999999983,-0.123988,1.626267,0.326141
3.0900000000000034,-0.096983,1.602181,0.318021
3.1000000000000085,-0.065933,1.593419,0.328395
3.1099999999999994,-0.032508,1.568506,0.32308
3.1200000000000045,0.021305,1.552696,0.336392
3.1300000000000097,0.073815,1.518862,0.336689
3.140000000000001,0.131694,1.480592,0.333366
3.1500000000000057,0.225221,1.448,0.315971
3.160000000000011,0.290988,1.396314,0.28884
3.1700000000000017,0.33049,1.35883,0.264252
3.180000000000007,0.366874,1.355542,0.241879
3.190000000000012,0.38113,1.346705,0.207282
3.200000000000003,0.368369,1.352064,0.20175
3.210000000000008,0.357785,1.321319,0.194901
3.219999999999999,0.343476,1.279721,0.203395
3.230000000000004,0.346752,1.254538,0.20774
3.240000000000009,0.335552,1.236465,0.216512
3.25,0.326883,1.223941,0.182454
3.260000000000005,0.323526,1.191626,0.168342
3.2700000000000102,0.299687,1.193388,0.153478
3.280000000000001,0.284821,1.19341,0.117735
3.2900000000000063,0.262862,1.184238,0.132917
3.300000000000012,0.252191,1.208513,0.123051
3.3100000000000023,0.243082,1.208419,0.12933
3.3200000000000074,0.206263,1.192787,0.128622
3.3299999999999983,0.175438,1.154731,0.120422
3.3400000000000034,0.131086,1.129275,0.106739
3.3500000000000085,0.105873,1.104001,0.084209
3.3599999999999994,0.091475,1.114914,0.091503
3.3700000000000045,0.07967,1.121208,0.08415
3.3800000000000097,0.067785,1.122889,0.07492
3.390000000000001,0.104485,1.127636,0.077258
3.4000000000000057,0.104631,1.145712,0.063765
3.410000000000011,0.12646,1.142204,0.050272
3.4200000000000017,0.105949,1.122414,0.044299
3.430000000000007,0.093312,1.132408,0.044288
3.440000000000012,0.054813,1.116733,0.052707
3.450000000000003,0.069654,1.134971,0.04401
3.460000000000008,0.10257,1.130538,0.04804
3.469999999999999,0.109391,1.108126,0.0351
3.480000000000004,0.140041,1.081326,0.033372
3.490000000000009,0.148694,1.041626,0.043959
3.5,0.157108,0.9932,0.05085
3.510000000000005,0.173377,0.981669,0.040885
3.5200000000000102,0.167124,0.932254,0.042993
3.530000000000001,0.159485,0.910548,0.037184
3.5400000000000063,0.167945,0.880146,0.015033
3.550000000000012,0.177597,0.84767,0.026646
3.5600000000000023,0.139017,0.77601,0.026142
3.5700000000000074,0.110445,0.697609,0.044054
3.5799999999999983,0.1002,0.630971,0.035813
3.5900000000000034,0.069802,0.555043,0.037261
3.6000000000000085,0.077521,0.468711,0.025404
3.61,0.090748,0.390546,0.002756
3.620000000000005,0.110044,0.294345,-0.028263
3.6300000000000097,0.09209,0.19875,-0.028718
3.640000000000001,0.068043,0.124755,-0.035386
3.6500000000000057,0.033997,0.048826,-0.031275
3.660000000000011,-0.007691,-0.036127,-0.052964
3.6700000000000017,-0.029854,-0.107441,-0.05776
3.680000000000007,-0.040173,-0.180475,-0.065162
3.690000000000012,-0.037558,-0.239855,-0.083179
3.700000000000003,-0.002759,-0.300867,-0.071555
3.710000000000008,0.012767,-0.362027,-0.06935
3.719999999999999,0.050553,-0.405965,-0.062102
3.730000000000004,0.076272,-0.460791,-0.055142
3.740000000000009,0.120128,-0.517255,-0.063464
3.75,0.152255,-0.566605,-0.067277
3.760000000000005,0.19837,-0.600558,-0.066152
3.77000000000001,0.226732,-0.656243,-0.07009
3.780000000000001,0.26567,-0.678548,-0.071676
3.7900000000000063,0.257613,-0.720966,-0.079603
3.8000000000000114,0.254163,-0.764281,-0.081996
3.8100000000000014,0.230675,-0.802316,-0.084604
3.820000000000008,0.201805,-0.835015,-0.085397
3.8299999999999983,0.185289,-0.894657,-0.091818
3.8400000000000034,0.159933,-0.935439,-0.098117
3.850000000000009,0.154823,-0.976103,-0.086788
3.86,0.168721,-1.025593,-0.080794
3.870000000000005,0.188195,-1.06965,-0.071927
3.8800000000000097,0.181726,-1.134569,-0.065486
3.890000000000001,0.186207,-1.197634,-0.066181
3.9000000000000057,0.146921,-1.256514,-0.060115
3.910000000000011,0.109524,-1.30995,-0.055775
3.9200000000000017,0.080551,-1.355281,-0.043936
3.930000000000007,0.074719,-1.425603,-0.066788
3.940000000000012,0.089582,-1.459727,-0.087081
3.950000000000003,0.093457,-1.497527,-0.10208
3.960000000000008,0.09661,-1.535418,-0.089709
3.969999999999999,0.064668,-1.59699,-0.074458
3.980000000000004,0.033884,-1.644164,-0.056287
3.990000000000009,-0.026221,-1.687877,-0.053056
4.0,-0.074641,-1.734174,-0.069786
4.010000000000005,-0.079228,-1.785633,-0.086032
4.02000000000001,-0.069054,-1.831584,-0.099282
4.030000000000001,-0.049618,-1.871134,-0.112307
4.040000000000006,-0.002576,-1.904202,-0.112087
4.050000000000011,0.026135,-1.941899,-0.106676
4.060000000000002,0.055215,-1.961621,-0.086421
4.070000000000007,0.069944,-2.006616,-0.095878
4.079999999999998,0.073273,-2.013795,-0.117819
4.090000000000003,0.051817,-2.042878,-0.107509
4.1000000000000085,0.029349,-2.061119,-0.139154
4.109999999999999,0.015794,-2.100903,-0.158137
4.1200000000000045,-0.030325,-2.119249,-0.176354
4.13000000000001,-0.047225,-2.14463,-0.184212
4.140000000000001,-0.062349,-2.170885,-0.192018
4.150000000000006,-0.075277,-2.17377,-0.200422
4.160000000000011,-0.064372,-2.178333,-0.200337
4.170000000000002,-0.047937,-2.182769,-0.194736
4.180000000000007,-0.05379,-2.199966,-0.207886
4.190000000000012,-0.052049,-2.203693,-0.213473
4.200000000000003,-0.069173,-2.188655,-0.215415
4.210000000000008,-0.059554,-2.215715,-0.22112
4.219999999999999,-0.057628,-2.212208,-0.214667
4.230000000000004,-0.026175,-2.189575,-0.21123
4.240000000000009,0.005348,-2.164293,-0.203187
4.25,0.029598,-2.142633,-0.182526
4.260000000000005,0.061387,-2.103656,-0.170746
4.27000000000001,0.063252,-2.091817,-0.188905
4.280000000000001,0.068549,-2.042296,-0.199287
4.290000000000006,0.069984,-2.010074,-0.200772
4.300000000000011,0.068577,-1.979643,-0.211417
4.310000000000002,0.083461,-1.965316,-0.207371
4.320000000000007,0.142601,-1.938056,-0.178811
4.329999999999998,0.200696,-1.90896,-0.172186
4.340000000000003,0.255335,-1.874481,-0.147306
4.3500000000000085,0.302603,-1.84902,-0.111688
4.359999999999999,0.349826,-1.814523,-0.102467
4.3700000000000045,0.343097,-1.785834,-0.084905
4.38000000000001,0.338129,-1.762587,-0.067377
4.390000000000001,0.331095,-1.742873,-0.073628
4.400000000000006,0.329623,-1.723157,-0.066092
4.410000000000011,0.341685,-1.711476,-0.063951
4.420000000000002,0.357462,-1.702478,-0.049912
4.430000000000007,0.368656,-1.69077,-0.042301
4.440000000000012,0.363938,-1.649444,-0.022686
4.450000000000003,0.343868,-1.660525,0.007956
4.460000000000008,0.322002,-1.660822,0.016759
4.469999999999999,0.290737,-1.679221,0.030732
4.480000000000004,0.266864,-1.685771,0.032192
4.490000000000009,0.226429,-1.694129,0.024286
4.5,0.196927,-1.706926,0.017338
4.510000000000005,0.161737,-1.730613,0.006492
4.52000000000001,0.129863,-1.765111,-0.030929
4.530000000000001,0.107719,-1.777951,-0.035055
4.540000000000006,0.091931,-1.790714,-0.04456
4.550000000000011,0.066813,-1.808961,-0.068857
4.560000000000002,0.037395,-1.813678,-0.083898
4.570000000000007,0.03271,-1.817309,-0.095875
4.579999999999998,0.01791,-1.823705,-0.108054
4.590000000000003,0.003854,-1.836401,-0.129451
4.6000000000000085,-0.007331,-1.845516,-0.141622
4.609999999999999,-0.02186,-1.830367,-0.162647
4.6200000000000045,-0.016817,-1.853938,-0.178399
4.63000000000001,0.001621,-1.839546,-0.194457
4.640000000000001,0.01248,-1.853133,-0.184464
4.650000000000006,0.019741,-1.854931,-0.190819
4.660000000000011,0.027932,-1.861179,-0.183506
4.670000000000002,0.049535,-1.874511,-0.201653
4.680000000000007,0.081354,-1.877926,-0.221381
4.690000000000012,0.082739,-1.892381,-0.252599
4.700000000000003,0.078967,-1.896146,-0.259993
4.710000000000008,0.089864,-1.899867,-0.26356
4.719999999999999,0.058845,-1.894773,-0.269401
4.730000000000004,0.03167,-1.882397,-0.264152
4.740000000000009,-0.013913,-1.887286,-0.239265
4.75,-0.045797,-1.888453,-0.226938
4.760000000000005,-0.081183,-1.883369,-0.205431
4.77000000000001,-0.080865,-1.863603,-0.206992
4.780000000000001,-0.086,-1.844814,-0.200426
4.790000000000006,-0.072844,-1.820454,-0.204532
4.800000000000011,-0.050677,-1.811407,-0.192273
4.810000000000002,-0.057826,-1.800776,-0.195016
4.820000000000007,-0.07414,-1.807361,-0.164293
4.829999999999998,-0.079358,-1.795729,-0.155119
4.840000000000003,-0.080261,-1.794805,-0.159715
4.8500000000000085,-0.093556,-1.775142,-0.14782
4.859999999999999,-0.083505,-1.777867,-0.147748
4.8700000000000045,-0.071571,-1.776051,-0.149406
4.88000000000001,-0.040401,-1.774165,-0.144426
4.890000000000001,-0.013255,-1.790354,-0.151605
4.900000000000006,0.004699,-1.810185,-0.157104
4.910000000000011,0.022876,-1.819171,-0.157902
4.920000000000002,0.057392,-1.835251,-0.161318
4.930000000000007,0.064803,-1.837108,-0.148464
4.940000000000012,0.11042,-1.844042,-0.149764
4.950000000000003,0.145717,-1.809564,-0.150717
4.960000000000008,0.186171,-1.801241,-0.140051
4.969999999999999,0.204604,-1.796679,-0.129721
4.980000000000004,0.210327,-1.783223,-0.125833
4.990000000000009,0.221721,-1.76798,-0.103587
5.0,0.225475,-1.764435,-0.101682
5.010000000000005,0.234686,-1.773505,-0.075181
5.02000000000001,0.22091,-1.731393,-0.051101
5.030000000000001,0.221239,-1.712581,-0.048124
5.040000000000006,0.244567,-1.680036,-0.052896
5.050000000000011,0.263424,-1.649323,-0.040407
5.060000000000002,0.270296,-1.618645,-0.042703
5.070000000000007,0.26177,-1.58994,-0.024218
5.079999999999998,0.234905,-1.566775,-0.000551
5.090000000000003,0.202789,-1.527421,0.023252
5.1000000000000085,0.168786,-1.497119,0.059708
5.109999999999999,0.13818,-1.463986,0.05515
5.1200000000000045,0.104444,-1.410151,0.078186
5.13000000000001,0.103323,-1.367802,0.082329
5.140000000000001,0.082093,-1.3301,0.096208
5.150000000000006,0.086444,-1.286834,0.095863
5.160000000000011,0.070574,-1.245512,0.087003
5.170000000000002,0.073164,-1.202302,0.097585
5.180000000000007,0.045446,-1.171908,0.115829
5.190000000000012,0.047355,-1.114263,0.126575
5.200000000000003,0.015201,-1.076705,0.149416
5.210000000000008,-0.009689,-1.033713,0.15233
5.219999999999999,-0.045346,-0.972752,0.145279
5.230000000000004,-0.06279,-0.912459,0.131181
5.240000000000009,-0.091386,-0.853111,0.095907
5.25,-0.117299,-0.805535,0.076965
5.260000000000005,-0.135899,-0.764258,0.069879
5.27000000000001,-0.141443,-0.705768,0.059498
5.280000000000001,-0.166742,-0.683433,0.049341
5.290000000000006,-0.181489,-0.636701,0.056994
5.300000000000011,-0.201151,-0.60077,0.041628
5.310000000000002,-0.189519,-0.559259,0.042273
5.320000000000007,-0.19346,-0.512396,0.028175
5.329999999999998,-0.210036,-0.449403,0.003127
5.340000000000003,-0.206118,-0.382747,0.022219
5.3500000000000085,-0.206664,-0.356638,0.015183
5.359999999999999,-0.183617,-0.290773,0.02356
5.3700000000000045,-0.201558,-0.258467,-5.5e-05
5.38000000000001,-0.198879,-0.200796,-0.007549
5.390000000000001,-0.20711,-0.135996,-0.020591
5.400000000000006,-0.206289,-0.094604,0.003654
5.410000000000011,-0.192945,-0.049418,-0.019383
5.420000000000002,-0.172019,-0.007838,0.001488
5.430000000000007,-0.147242,0.057246,-0.001066
5.440000000000012,-0.120769,0.104311,0.019949
5.450000000000003,-0.090891,0.153213,0.001733
5.460000000000008,-0.095401,0.214427,0.005129
5.469999999999999,-0.065325,0.265061,0.009796
5.480000000000004,-0.037215,0.312988,0.001612
5.490000000000009,-0.01792,0.379762,-0.000988
5.5,0.008395,0.424068,0.002639
5.510000000000005,0.020514,0.488983,0.021846
5.52000000000001,0.042277,0.545061,0.003625
5.530000000000001,0.047872,0.61004,0.008129
5.540000000000006,0.043282,0.67316,0.001515
5.550000000000011,0.048611,0.730048,-0.010504
5.560000000000002,0.053961,0.776034,0.000165
5.570000000000007,0.0455,0.830043,-0.020299
5.579999999999998,0.054564,0.875071,-0.001356
5.590000000000003,0.061846,0.933627,-0.006035
5.6000000000000085,0.063695,0.992169,-0.001659
5.609999999999999,0.082101,1.058981,-0.000626
5.6200000000000045,0.073767,1.123032,-0.021901
5.63000000000001,0.060014,1.190658,-0.036806
5.640000000000001,0.053077,1.224131,-0.053849
5.650000000000006,0.021613,1.27177,-0.079264
5.660000000000011,0.00385,1.307733,-0.082699
5.670000000000002,0.032817,1.356615,-0.099051
5.680000000000007,0.010681,1.410541,-0.112385
5.690000000000012,0.023046,1.446633,-0.122753
5.700000000000003,0.023,1.504309,-0.123899
5.710000000000008,-0.00942,1.538361,-0.125761
5.719999999999999,-0.013014,1.602381,-0.125028
5.730000000000004,-0.040118,1.623934,-0.121448
5.740000000000009,-0.034244,1.650228,-0.120101
5.75,-0.01363,1.677519,-0.105766
5.760000000000005,0.005216,1.710174,-0.094132
5.77000000000001,0.026562,1.731983,-0.092653
5.780000000000001,0.03136,1.742813,-0.083325
5.790000000000006,0.020887,1.767938,-0.065808
5.800000000000011,0.023212,1.787788,-0.036294
5.810000000000002,0.038326,1.81403,-0.021168
5.820000000000007,0.025026,1.840163,-0.011882
5.829999999999998,0.020416,1.834836,0.000799
5.840000000000003,0.022298,1.838581,0.008197
5.8500000000000085,-0.006855,1.856581,-0.009316
5.859999999999999,-0.040934,1.843806,-0.014489
5.8700000000000045,-0.091508,1.825469,-0.013546
5.88000000000001,-0.131683,1.830611,-0.014912
5.890000000000001,-0.154715,1.829612,-0.032549
5.900000000000006,-0.170389,1.814225,-0.011889
5.910000000000011,-0.186949,1.803387,0.000553
5.920000000000002,-0.20563,1.775451,0.008184
5.930000000000007,-0.259605,1.77159,0.014709
5.940000000000012,-0.302882,1.748895,0.022987
5.950000000000003,-0.331377,1.737983,0.026127
5.960000000000008,-0.354368,1.727924,0.029353
5.969999999999999,-0.347346,1.712686,0.023813
5.980000000000004,-0.338456,1.694721,0.031061
5.990000000000009,-0.302081,1.674233,0.05051
6.0,-0.240073,1.65933,0.061195
6.010000000000005,-0.19631,1.649743,0.06621
6.02000000000001,-0.182875,1.630989,0.069805
6.030000000000001,-0.160698,1.64658,0.073029
6.040000000000006,-0.137334,1.62432,0.065769
6.050000000000011,-0.094362,1.626463,0.062726
6.060000000000002,-0.086867,1.639151,0.062991
6.070000000000007,-0.082946,1.653551,0.070531
6.079999999999998,-0.087439,1.653479,0.083268
6.090000000000003,-0.100733,1.676818,0.09251
6.1000000000000085,-0.104988,1.680408,0.130883
6.109999999999999,-0.094014,1.676072,0.143789
6.1200000000000045,-0.079398,1.720421,0.175591
6.13000000000001,-0.066588,1.726063,0.168538
6.140000000000001,-0.057204,1.737003,0.181594
6.150000000000006,-0.069631,1.762228,0.181742
6.160000000000011,-0.069546,1.760429,0.196328
6.170000000000002,-0.078749,1.754948,0.199778
6.180000000000007,-0.087735,1.758504,0.214331
6.190000000000012,-0.111077,1.783658,0.220742
6.200000000000003,-0.101935,1.777491,0.235436
6.210000000000008,-0.112595,1.794639,0.243758
6.219999999999999,-0.108733,1.794712,0.273988
6.230000000000004,-0.117529,1.814554,0.281439
6.240000000000009,-0.110082,1.820972,0.288018
6.25,-0.12447,1.836258,0.289845
6.260000000000005,-0.106233,1.831046,0.296439
6.27000000000001,-0.108165,1.825734,0.293636
6.280000000000001,-0.102958,1.806031,0.29898
6.290000000000006,-0.09661,1.795349,0.318155
6.300000000000011,-0.108692,1.782769,0.320611
6.310000000000002,-0.139876,1.770042,0.334676
6.320000000000007,-0.147176,1.768307,0.340069
6.329999999999998,-0.147201,1.764789,0.343708
6.340000000000003,-0.154724,1.753126,0.341682
6.3500000000000085,-0.135323,1.761427,0.351192
6.359999999999999,-0.123704,1.739961,0.360225
6.3700000000000045,-0.12037,1.722096,0.353666
6.38000000000001,-0.129625,1.705921,0.372565
6.390000000000001,-0.138885,1.698752,0.372388
6.400000000000006,-0.140688,1.696996,0.380573
6.410000000000011,-0.147891,1.701542,0.388769
6.420000000000002,-0.135027,1.700793,0.401752
6.430000000000007,-0.125042,1.700947,0.392791
6.440000000000012,-0.099492,1.696667,0.39584
6.450000000000003,-0.109478,1.703875,0.393069
6.460000000000008,-0.120554,1.70121,0.385612
6.469999999999999,-0.155358,1.708301,0.36149
6.480000000000004,-0.190386,1.688292,0.364419
6.490000000000009,-0.221849,1.670142,0.352816
6.5,-0.262195,1.660947,0.357665
6.510000000000005,-0.278884,1.657336,0.335504
6.52000000000001,-0.322935,1.653486,0.321198
6.530000000000001,-0.33946,1.658828,0.300053
6.540000000000006,-0.35405,1.656957,0.308976
6.550000000000011,-0.378952,1.645132,0.303935
6.560000000000002,-0.37804,1.633444,0.328469
6.570000000000007,-0.372462,1.63535,0.335868
6.579999999999998,-0.341804,1.6122,0.326891
6.590000000000003,-0.319684,1.625032,0.3237
6.6000000000000085,-0.266815,1.614632,0.324296
6.609999999999999,-0.252447,1.600412,0.320664
6.6200000000000045,-0.229138,1.580894,0.300663
6.63000000000001,-0.246027,1.553849,0.298296
6.640000000000001,-0.224667,1.520755,0.28725
6.650000000000006,-0.222985,1.51638,0.276282
6.660000000000011,-0.220274,1.51376,0.274468
6.670000000000002,-0.215891,1.512985,0.248068
6.680000000000007,-0.190499,1.495179,0.258244
6.690000000000012,-0.207331,1.478073,0.245032
6.700000000000003,-0.205795,1.470081,0.222125
6.710000000000008,-0.235214,1.468161,0.202549
6.719999999999999,-0.267523,1.458984,0.177343
6.730000000000004,-0.282305,1.448081,0.177942
6.740000000000009,-0.307215,1.430802,0.182898
6.75,-0.312642,1.440769,0.168338
6.760000000000005,-0.289196,1.426628,0.153882
6.77000000000001,-0.258316,1.412508,0.156902
6.780000000000001,-0.207191,1.416539,0.13482
6.790000000000006,-0.174087,1.43216,0.128175
6.800000000000011,-0.163443,1.472868,0.119679
6.810000000000002,-0.180479,1.496214,0.114239
6.820000000000007,-0.220652,1.494127,0.121854
6.829999999999998,-0.255803,1.525465,0.128151
6.840000000000003,-0.301717,1.517991,0.115561
6.8500000000000085,-0.353881,1.496898,0.15025
6.859999999999999,-0.365057,1.477047,0.158115
6.8700000000000045,-0.357765,1.470021,0.168219
6.88000000000001,-0.324728,1.463962,0.195083
6.890000000000001,-0.268002,1.456246,0.214936
6.900000000000006,-0.206674,1.455725,0.22122
6.910000000000011,-0.13342,1.458958,0.23319
6.920000000000002,-0.084998,1.460149,0.222883
6.930000000000007,-0.057603,1.455878,0.228699
6.940000000000012,-0.012227,1.44367,0.205481
6.950000000000003,-0.0066,1.4438,0.229357
6.960000000000008,-0.011817,1.454672,0.244108
6.969999999999999,-0.028193,1.456427,0.253025
6.980000000000004,-0.03828,1.44556,0.279305
6.990000000000009,-0.042466,1.411224,0.277899
7.0,-0.049857,1.349949,0.277057
7.010000000000005,-0.060079,1.275139,0.283352
7.02000000000001,-0.069236,1.265127,0.283102
7.030000000000001,-0.048548,1.236549,0.305069
7.040000000000006,-0.021888,1.234904,0.316323
7.050000000000011,0.012107,1.184662,0.332687
7.060000000000002,0.060957,1.143615,0.349306
7.070000000000007,0.060115,1.086859,0.346725
7.079999999999998,0.068613,1.046424,0.351893
7.090000000000003,0.065358,1.013915,0.340503
7.1000000000000085,0.054722,0.97974,0.333575
7.109999999999999,0.03036,0.949175,0.324699
7.1200000000000045,0.022464,0.923842,0.293214
7.13000000000001,-0.013128,0.884936,0.258459
7.140000000000001,-0.025902,0.835182,0.238527
7.150000000000006,-0.045869,0.79379,0.219529
7.160000000000011,-0.068682,0.735951,0.220382
7.170000000000002,-0.054726,0.692732,0.214571
7.180000000000007,-0.050771,0.651358,0.21598
7.190000000000012,-0.02222,0.615593,0.194025
7.200000000000003,0.00251,0.569876,0.174636
7.210000000000008,0.024557,0.529451,0.147964
7.219999999999999,0.022015,0.489938,0.138335
7.230000000000004,0.012088,0.447457,0.11941
7.240000000000009,-0.009138,0.377885,0.109149
7.25,-0.033799,0.320047,0.108126
7.260000000000005,-0.021594,0.235477,0.081716
7.27000000000001,-0.02388,0.148943,0.078834
7.280000000000001,0.009191,0.053668,0.051643
7.290000000000006,0.037714,-0.054256,0.055311
7.300000000000011,0.056742,-0.174793,0.038622
7.310000000000002,0.082027,-0.31155,0.038265
7.320000000000007,0.107537,-0.426622,0.022654
7.329999999999998,0.133307,-0.534492,0.027234
7.340000000000003,0.16074,-0.654969,0.035342
7.350000000000008,0.187992,-0.77177,0.012421
7.359999999999999,0.191542,-0.888806,0.000109
7.370000000000003,0.211455,-1.016612,-0.004829
7.38000000000001,0.201926,-1.150004,-0.024842
7.390000000000001,0.188927,-1.270822,-0.046584
7.400000000000006,0.182283,-1.394316,-0.070099
7.410000000000011,0.159441,-1.499895,-0.093593
7.420000000000002,0.148268,-1.615287,-0.124345
7.430000000000007,0.153664,-1.72157,-0.157501
7.440000000000012,0.168154,-1.835936,-0.181526
7.450000000000003,0.186668,-1.925951,-0.207969
7.460000000000008,0.155778,-2.020759,-0.229662
7.469999999999999,0.112179,-2.107507,-0.255085
7.480000000000004,0.051621,-2.216021,-0.301092
7.490000000000009,-0.009443,-2.310182,-0.320402
7.5,-0.05946,-2.397103,-0.347699
7.510000000000005,-0.077338,-2.479345,-0.369958
7.52000000000001,-0.07486,-2.552431,-0.378134
7.530000000000001,-0.048856,-2.633419,-0.400676
7.540000000000006,-0.00499,-2.685339,-0.419006
7.550000000000011,0.034862,-2.753561,-0.449451
7.560000000000002,0.054116,-2.796683,-0.472557
7.570000000000007,0.057865,-2.843577,-0.480403
7.579999999999998,0.054582,-2.864395,-0.506319
7.590000000000003,0.063769,-2.856383,-0.513482
7.600000000000008,0.04514,-2.87834,-0.514074
7.609999999999999,0.034807,-2.883959,-0.541725
7.620000000000003,0.045662,-2.887644,-0.550764
7.63000000000001,0.073889,-2.896622,-0.548689
7.640000000000001,0.103374,-2.894833,-0.520895
7.650000000000006,0.131071,-2.896613,-0.480404
7.660000000000011,0.158793,-2.883794,-0.467166
7.670000000000002,0.201294,-2.858279,-0.459061
7.680000000000007,0.230948,-2.829301,-0.467502
7.690000000000012,0.271674,-2.794902,-0.475714
7.700000000000003,0.304524,-2.742641,-0.47102
7.710000000000008,0.355434,-2.705689,-0.463527
7.719999999999999,0.400303,-2.665253,-0.415893
7.730000000000004,0.434737,-2.645518,-0.376887
7.740000000000009,0.439876,-2.633029,-0.325586
7.75,0.438537,-2.613234,-0.297085
7.760000000000005,0.441033,-2.584419,-0.264747
7.77000000000001,0.409033,-2.536044,-0.240837
7.780000000000001,0.43821,-2.493641,-0.216176
7.790000000000006,0.442187,-2.425392,-0.191556
7.800000000000011,0.470162,-2.397592,-0.178086
7.810000000000002,0.447134,-2.36381,-0.15062
7.820000000000007,0.433228,-2.33886,-0.103951
7.829999999999998,0.42464,-2.311912,-0.083659
7.840000000000003,0.386485,-2.304961,-0.063079
7.850000000000008,0.405484,-2.265222,-0.049568
7.859999999999999,0.414706,-2.200323,-0.050476
7.870000000000003,0.447386,-2.164196,-0.033137
7.88000000000001,0.464676,-2.120173,-0.012288
7.890000000000001,0.435668,-2.107092,-0.007961
7.900000000000006,0.397235,-2.109329,-0.010356
7.910000000000011,0.355312,-2.099734,-0.009902
7.920000000000002,0.28943,-2.101058,-0.010791
7.930000000000007,0.241958,-2.089678,-0.02407
7.940000000000012,0.199239,-2.072909,-0.025347
7.950000000000003,0.1286,-2.081556,-0.041917
7.960000000000008,0.054006,-2.063273,-0.033583
7.969999999999999,-0.00645,-2.069218,-0.041806
7.980000000000004,-0.028709,-2.083877,-0.056935
7.990000000000009,-0.066074,-2.071601,-0.067365
8.0,-0.073418,-2.068112,-0.082044
8.010000000000005,-0.044134,-2.053533,-0.113444
8.02000000000001,-0.01014,-2.037109,-0.129222
8.030000000000001,0.057533,-2.030388,-0.146524
8.040000000000006,0.11771,-2.032684,-0.169525
8.050000000000011,0.139697,-2.034381,-0.164737
8.060000000000002,0.170357,-2.055818,-0.18109
8.070000000000007,0.175637,-2.066689,-0.187595
8.079999999999998,0.158987,-2.072383,-0.198859
8.090000000000003,0.134872,-2.092579,-0.203099
8.100000000000009,0.105078,-2.118091,-0.223911
8.11,0.086552,-2.129061,-0.237073
8.120000000000005,0.066594,-2.114805,-0.249937
8.13000000000001,0.05751,-2.122156,-0.230038
8.14,0.049998,-2.133055,-0.237576
8.150000000000006,0.033602,-2.133189,-0.230514
8.16000000000001,0.027427,-2.122419,-0.228687
8.170000000000002,-0.006939,-2.146969,-0.253213
8.180000000000007,-0.012577,-2.148919,-0.271587
8.190000000000012,-0.038354,-2.168209,-0.255729
8.200000000000003,-0.056637,-2.169366,-0.256006
8.210000000000008,-0.084204,-2.180411,-0.254673
8.219999999999999,-0.109725,-2.184204,-0.240434
8.230000000000004,-0.115697,-2.163523,-0.231131
8.240000000000009,-0.10722,-2.15085,-0.227219
8.25,-0.11621,-2.141945,-0.227242
8.260000000000005,-0.099373,-2.123925,-0.21402
8.27000000000001,-0.095338,-2.097858,-0.219155
8.280000000000001,-0.134976,-2.066669,-0.206547
8.290000000000006,-0.13841,-2.06407,-0.184663
8.300000000000011,-0.154423,-2.038078,-0.183675
8.310000000000002,-0.190772,-2.035747,-0.161328
8.320000000000007,-0.243628,-2.030831,-0.151045
8.329999999999998,-0.283639,-2.022198,-0.140533
8.340000000000003,-0.323697,-2.016273,-0.130031
8.350000000000009,-0.323405,-1.992053,-0.14253
8.36,-0.322985,-1.973259,-0.131356
8.370000000000005,-0.320042,-1.953486,-0.14936
8.38000000000001,-0.302292,-1.944469,-0.119812
8.39,-0.307868,-1.945428,-0.134556
8.400000000000006,-0.296836,-1.942714,-0.136239
8.41000000000001,-0.303766,-1.923007,-0.128802
8.420000000000002,-0.308983,-1.906891,-0.128667
8.430000000000007,-0.299203,-1.862694,-0.138964
8.440000000000012,-0.294781,-1.814944,-0.138321
8.450000000000003,-0.299584,-1.772677,-0.138787
8.460000000000008,-0.315507,-1.746836,-0.125021
8.469999999999999,-0.313185,-1.720886,-0.117413
8.480000000000004,-0.329748,-1.683307,-0.089803
8.490000000000009,-0.353232,-1.612344,-0.078315
8.5,-0.359776,-1.563754,-0.076911
8.510000000000005,-0.375094,-1.497228,-0.062623
8.52000000000001,-0.366204,-1.399894,-0.055868
8.530000000000001,-0.346388,-1.304299,-0.054491
8.540000000000006,-0.344602,-1.245748,-0.066588
8.550000000000011,-0.33281,-1.151161,-0.036103
8.560000000000002,-0.331016,-1.043121,-0.021107
8.570000000000007,-0.335059,-0.952221,-0.013681
8.579999999999998,-0.342683,-0.845068,-0.031684
8.590000000000003,-0.352217,-0.75691,-0.020723
8.600000000000009,-0.362255,-0.68852,-0.040171
8.61,-0.392949,-0.614892,-0.023296
8.620000000000005,-0.36532,-0.542627,-0.03122
8.63000000000001,-0.354989,-0.470498,-0.026579
8.64,-0.345597,-0.396592,-0.025582
8.650000000000006,-0.303896,-0.300815,-0.025708
8.66000000000001,-0.279889,-0.224971,-0.028156
8.670000000000002,-0.268587,-0.140178,-0.037977
8.680000000000007,-0.243005,-0.080567,-0.042418
8.690000000000012,-0.222434,0.007865,-0.042923
8.700000000000003,-0.209511,0.076477,-0.045584
8.710000000000008,-0.186453,0.152383,-0.053513
8.719999999999999,-0.176166,0.2354,-0.071581
8.730000000000004,-0.158599,0.305789,-0.067778
8.740000000000009,-0.146683,0.357148,-0.048738
8.75,-0.132959,0.415758,-0.048756
8.760000000000005,-0.080471,0.484517,-0.018909
8.77000000000001,-0.049013,0.556795,0.003374
8.780000000000001,0.01886,0.62397,0.016033
8.790000000000006,0.070828,0.678479,0.007331
8.800000000000011,0.104688,0.733721,0.021228
8.810000000000002,0.148679,0.796227,0.02987
8.820000000000007,0.1797,0.857727,0.018233
8.829999999999998,0.21166,0.911061,0.026624
8.840000000000003,0.249189,0.969858,0.033328
8.850000000000009,0.258318,1.025804,0.039612
8.86,0.26759,1.094429,0.040565
8.870000000000005,0.272065,1.141349,0.05672
8.88000000000001,0.28191,1.186509,0.061974
8.89,0.276993,1.229835,0.051494
8.900000000000006,0.286745,1.276874,0.037614
8.91000000000001,0.307404,1.31586,0.032915
8.920000000000002,0.333432,1.358476,0.004567
8.930000000000007,0.350118,1.384811,-0.014966
8.940000000000012,0.327798,1.433401,-0.038428
8.950000000000003,0.282318,1.463849,-0.066067
8.960000000000008,0.225027,1.498729,-0.09472
8.969999999999999,0.163124,1.527238,-0.116187
8.980000000000004,0.108801,1.564773,-0.120072
8.990000000000009,0.07274,1.602446,-0.127369
9.0,0.054762,1.628552,-0.136391
9.010000000000003,0.033274,1.653701,-0.12174
9.02000000000001,0.016961,1.675351,-0.143614
9.03,-0.00805,1.721201,-0.158037
9.040000000000006,-0.025946,1.753572,-0.172529
9.050000000000011,-0.045525,1.780429,-0.156026
9.060000000000002,-0.068783,1.818148,-0.164075
9.070000000000007,-0.073445,1.864976,-0.148033
9.079999999999998,-0.083919,1.891998,-0.133218
9.090000000000003,-0.074624,1.899384,-0.122017
9.100000000000009,-0.128897,1.935252,-0.111302
9.11,-0.146183,1.940691,-0.1078
9.120000000000005,-0.181609,1.954947,-0.102646
9.13000000000001,-0.200015,1.947667,-0.101177
9.14,-0.238134,1.962795,-0.092364
9.150000000000006,-0.237986,1.97822,-0.103126
9.16000000000001,-0.239766,1.983684,-0.105816
9.170000000000002,-0.248721,1.990842,-0.092128
9.180000000000009,-0.262748,2.024994,-0.079088
9.190000000000012,-0.287385,2.026673,-0.072052
9.200000000000005,-0.305479,2.033792,-0.056659
9.210000000000008,-0.313513,2.028336,-0.015731
9.22,-0.313487,2.026617,-0.006625
9.230000000000004,-0.306286,2.014157,0.006108
9.240000000000007,-0.295265,2.010728,0.022651
9.25,-0.294116,2.021601,0.033762
9.260000000000003,-0.293914,2.034234,0.037594
9.27000000000001,-0.291334,2.01978,0.048461
9.28,-0.256408,2.010865,0.094526
9.290000000000006,-0.198616,2.002174,0.139044
9.300000000000011,-0.137214,1.993621,0.17813
9.310000000000002,-0.054515,2.000529,0.223141
9.320000000000007,-0.003384,1.988356,0.243747
9.329999999999998,0.027846,1.991392,0.26247
9.340000000000003,0.030906,1.953739,0.265737
9.350000000000009,0.015153,1.935766,0.278143
9.36,0.013927,1.918788,0.27249
9.370000000000005,0.009983,1.90354,0.266804
9.38000000000001,0.024607,1.901015,0.272466
9.39,0.033696,1.904803,0.258034
9.400000000000006,0.011237,1.882279,0.238302
9.41000000000001,0.006743,1.890485,0.234705
9.420000000000002,-0.035804,1.860567,0.234719
9.430000000000009,-0.095505,1.851288,0.219245
9.440000000000012,-0.112743,1.849414,0.240955
9.450000000000005,-0.127583,1.836733,0.236964
9.460000000000008,-0.147474,1.841999,0.258703
9.47,-0.146557,1.840225,0.266946
9.480000000000004,-0.170688,1.86529,0.293428
9.490000000000007,-0.213691,1.8578,0.309215
9.5,-0.257633,1.848537,0.326808
9.510000000000003,-0.322205,1.86802,0.33535
9.52000000000001,-0.403454,1.869348,0.348928
9.53,-0.476984,1.836521,0.361264
9.540000000000006,-0.546636,1.812726,0.38564
9.550000000000011,-0.581759,1.769297,0.423952
9.560000000000002,-0.583649,1.754948,0.44846
9.570000000000007,-0.569197,1.738877,0.462198
9.579999999999998,-0.541745,1.743572,0.458961
9.590000000000003,-0.512585,1.724759,0.488325
9.600000000000009,-0.49369,1.710515,0.47743
9.61,-0.492953,1.700709,0.471842
9.620000000000005,-0.471188,1.680264,0.488346
9.63000000000001,-0.428565,1.661808,0.475926
9.64,-0.367419,1.652453,0.478474
9.650000000000006,-0.318597,1.629509,0.452377
9.66000000000001,-0.256371,1.637183,0.443245
9.670000000000002,-0.20163,1.641201,0.420261
9.680000000000009,-0.178199,1.634234,0.389436
9.690000000000012,-0.164979,1.610981,0.371078
9.700000000000005,-0.15519,1.598535,0.359196
9.710000000000008,-0.128121,1.577248,0.352935
9.72,-0.107523,1.611758,0.344512
9.730000000000004,-0.073202,1.60131,0.308316
9.740000000000007,-0.039309,1.616071,0.287026
9.75,-0.015041,1.600097,0.263425
9.760000000000003,-0.009619,1.607411,0.238029
9.77000000000001,0.025009,1.602277,0.230234
9.78,0.039706,1.615994,0.208706
9.790000000000006,0.065337,1.618969,0.210037
9.800000000000011,0.084279,1.592016,0.220055
9.810000000000002,0.20804,1.55154,0.216714
9.820000000000007,0.389402,1.518631,0.216942
9.829999999999998,0.52492,1.542976,0.203483
9.840000000000003,0.57636,1.564968,0.199838
9.850000000000009,0.571477,1.602864,0.205737
9.86,0.549466,1.599214,0.205452
9.870000000000005,0.494683,1.611599,0.190301
9.88000000000001,0.40643,1.589507,0.168796
9.89,0.338396,1.56752,0.161275
9.900000000000006,0.249705,1.529271,0.118595
9.91000000000001,0.168688,1.510861,0.082613
9.920000000000002,0.080766,1.519478,0.048725
9.930000000000009,0.010985,1.516469,0.013068
9.940000000000012,-0.072911,1.551142,-0.036917
9.950000000000005,-0.102001,1.565531,-0.04166
9.960000000000008,-0.143815,1.58681,-0.068508
9.97,-0.167431,1.601015,-0.076001
9.980000000000004,-0.167689,1.586677,-0.079821
9.990000000000007,-0.171378,1.584114,-0.076211
10.0,-0.169919,1.572677,-0.096397
10.010000000000003,-0.169975,1.572673,-0.112858
10.02000000000001,-0.16973,1.588862,-0.122742
10.03,-0.159138,1.5674,-0.127458
10.040000000000006,-0.141091,1.565848,-0.158269
10.050000000000011,-0.125287,1.526341,-0.167676
10.060000000000002,-0.120182,1.49768,-0.155134
10.070000000000007,-0.111272,1.481542,-0.157018
10.079999999999998,-0.09598,1.458241,-0.142519
10.090000000000003,-0.084378,1.427695,-0.11347
10.100000000000009,-0.078873,1.429567,-0.12067
10.11,-0.048285,1.392017,-0.106044
10.120000000000005,-0.037709,1.35604,-0.083442
10.13000000000001,-0.019071,1.309415,-0.055401
10.14,-0.009311,1.284229,-0.043696
10.150000000000006,-0.002976,1.269722,-0.026426
10.16000000000001,-0.00796,1.237286,-0.01598
10.170000000000002,-0.022897,1.221003,-0.018206
10.180000000000009,-0.032419,1.195691,-0.023221
10.190000000000012,-0.065443,1.189278,-0.023732
10.200000000000005,-0.10039,1.17823,-0.034402
10.210000000000008,-0.110639,1.157302,-0.024775
10.22,-0.137195,1.146288,-0.015201
10.230000000000004,-0.138676,1.157109,0.0069
10.240000000000007,-0.092995,1.15025,0.018436
10.25,-0.052085,1.182934,0.042233
10.260000000000003,0.001432,1.19957,0.06961
10.27000000000001,0.010895,1.21127,0.082626
10.28,-0.005182,1.230032,0.091746
10.290000000000006,-0.01984,1.224578,0.104276
10.300000000000011,-0.039403,1.204737,0.103798
10.310000000000002,-0.033833,1.163278,0.077798
10.320000000000007,-0.014976,1.130979,0.099619
10.329999999999998,0.014624,1.095247,0.099629
10.340000000000003,-0.008852,1.052758,0.104302
10.350000000000009,-0.035875,1.011925,0.118051
10.36,-0.056734,0.956846,0.133553
10.370000000000005,-0.102989,0.917791,0.143446
10.38000000000001,-0.136291,0.832875,0.143834
10.39,-0.156706,0.739005,0.17353
10.400000000000006,-0.163075,0.668729,0.200054
10.41000000000001,-0.161056,0.557065,0.206042
10.420000000000002,-0.138455,0.474317,0.218133
10.430000000000009,-0.098606,0.39179,0.214923
10.440000000000012,-0.044361,0.312963,0.169953
10.450000000000005,0.026954,0.21443,0.129564
10.460000000000008,0.090917,0.112216,0.093602
10.47,0.125902,0.019651,0.071962
10.480000000000004,0.139249,-0.062292,0.068419
10.490000000000007,0.141711,-0.141607,0.072987
10.5,0.123705,-0.239018,0.068874
10.510000000000003,0.122425,-0.325557,0.076963
10.52000000000001,0.124128,-0.449733,0.079207
10.53,0.144402,-0.557708,0.080918
10.540000000000006,0.157377,-0.662111,0.073445
10.550000000000011,0.185177,-0.751986,0.06362
10.560000000000002,0.198265,-0.843818,0.046245
10.570000000000007,0.23358,-0.921166,0.0348
10.579999999999998,0.259522,-1.009335,0.021293
10.590000000000003,0.296732,-1.090191,0.035435
10.600000000000009,0.315276,-1.183751,0.022688
10.61,0.317922,-1.246844,0.021042
10.620000000000005,0.332971,-1.333304,0.01107
10.63000000000001,0.348785,-1.378312,0.018044
10.64,0.360433,-1.453993,0.022767
10.650000000000006,0.377654,-1.533263,0.04945
10.66000000000001,0.381909,-1.616211,0.063142
10.670000000000002,0.388208,-1.68745,0.080622
10.680000000000009,0.379644,-1.760545,0.068641
10.690000000000012,0.356937,-1.820246,0.095005
10.700000000000005,0.355769,-1.886964,0.075907
10.710000000000008,0.364448,-1.962471,0.047721
10.72,0.351506,-2.023851,0.033995
10.730000000000004,0.341403,-2.079881,0.023104
10.740000000000007,0.343271,-2.132245,0.018837
10.75,0.315461,-2.21726,0.028412
10.760000000000003,0.276266,-2.271689,0.040953
10.77000000000001,0.223541,-2.318892,0.059784
10.78,0.16351,-2.349906,0.043983
10.790000000000006,0.111193,-2.3557,0.030425
10.800000000000011,0.062374,-2.361437,-0.003159
10.810000000000002,0.017385,-2.413945,-0.037224
10.820000000000007,-0.010715,-2.451977,-0.045329
10.829999999999998,-0.026021,-2.488172,-0.064267
10.840000000000003,-0.035485,-2.51363,-0.055632
10.850000000000009,-0.028523,-2.533573,-0.061335
10.86,-0.02725,-2.5625,-0.074497
10.870000000000005,-0.034802,-2.569856,-0.089321
10.88000000000001,-0.033604,-2.58884,-0.136151
10.89,-0.024746,-2.595109,-0.160791
10.900000000000006,-0.041287,-2.595258,-0.167401
10.91000000000001,-0.056833,-2.593714,-0.1722
10.920000000000002,-0.078812,-2.59404,-0.181716
10.930000000000009,-0.100754,-2.590718,-0.190249
10.940000000000012,-0.125594,-2.590966,-0.207958
10.950000000000005,-0.14471,-2.580317,-0.217234
10.960000000000008,-0.145138,-2.542479,-0.229582
10.97,-0.140687,-2.486496,-0.237979
10.980000000000004,-0.123861,-2.457633,-0.24839
10.990000000000007,-0.079427,-2.417913,-0.260178
11.0,-0.047607,-2.370173,-0.266567
11.010000000000003,-0.001263,-2.331284,-0.265528
11.02000000000001,0.025272,-2.282623,-0.239939
11.03,0.054094,-2.261911,-0.214655
11.040000000000006,0.085083,-2.221177,-0.184512
11.050000000000011,0.100055,-2.15445,-0.152494
11.060000000000002,0.118063,-2.114756,-0.150016
11.070000000000007,0.117033,-2.064409,-0.145812
11.079999999999998,0.134228,-2.020314,-0.139627
11.090000000000003,0.132073,-1.991693,-0.124746
11.100000000000009,0.153704,-1.961989,-0.109516
11.11,0.155509,-1.917087,-0.085217
11.120000000000005,0.143154,-1.912774,-0.03417
11.13000000000001,0.124666,-1.881368,0.000683
11.14,0.11814,-1.839983,0.024838
11.150000000000006,0.093045,-1.809597,0.030315
11.16000000000001,0.062689,-1.764877,0.037718
11.170000000000002,0.020552,-1.766183,0.029785
11.180000000000009,0.005217,-1.751078,0.02241
11.190000000000012,0.021449,-1.762735,0.013359
11.200000000000005,0.049947,-1.75269,0.011144
11.210000000000008,0.081004,-1.763347,0.026973
11.22,0.121392,-1.768535,0.059428
11.230000000000004,0.156353,-1.766538,0.085471
11.240000000000007,0.18847,-1.760937,0.088674
11.25,0.220504,-1.759018,0.089108
11.260000000000003,0.245713,-1.778832,0.078222
11.27000000000001,0.258162,-1.782414,0.036287
11.28,0.254396,-1.786111,0.028883
11.290000000000006,0.290678,-1.803962,0.027348
11.300000000000011,0.294933,-1.819282,0.012604
11.310000000000002,0.304326,-1.861597,0.006715
11.320000000000007,0.293254,-1.865273,-0.004462
11.329999999999998,0.30402,-1.877864,-0.00905
11.340000000000003,0.302264,-1.867128,-0.022625
11.350000000000009,0.304215,-1.860037,-0.018841
11.36,0.309906,-1.8439,-0.025885
11.370000000000005,0.313448,-1.834951,-0.060443
11.38000000000001,0.296011,-1.838786,-0.059824
11.39,0.275702,-1.844337,-0.077543
11.400000000000006,0.231018,-1.84647,-0.063559
11.41000000000001,0.197923,-1.859368,-0.065061
11.420000000000002,0.151453,-1.859865,-0.04468
11.430000000000009,0.105093,-1.851365,-0.026933
11.440000000000012,0.092512,-1.848055,-0.005176
11.450000000000005,0.089903,-1.839229,-0.005124
11.460000000000008,0.098794,-1.848221,-0.02525
11.47,0.087077,-1.832028,-0.041716
11.480000000000004,0.117923,-1.837159,-0.070635
11.490000000000007,0.111835,-1.860633,-0.109395
11.5,0.105152,-1.878799,-0.117016
11.510000000000003,0.097795,-1.884427,-0.113507
11.519999999999996,0.096926,-1.884603,-0.108021
11.530000000000015,0.111663,-1.877449,-0.105881
11.540000000000006,0.147573,-1.861939,-0.10888
11.549999999999995,0.172573,-1.841076,-0.113802
11.560000000000016,0.178358,-1.826609,-0.109024
11.570000000000007,0.211489,-1.813817,-0.113032
11.579999999999998,0.227375,-1.846223,-0.126003
11.590000000000018,0.240228,-1.850756,-0.115833
11.600000000000009,0.245938,-1.842746,-0.101046
11.61,0.233226,-1.832084,-0.111121
11.62000000000002,0.206106,-1.81791,-0.098518
11.63000000000001,0.189866,-1.807248,-0.094035
11.64,0.160906,-1.80034,-0.069681
11.649999999999991,0.121917,-1.780879,-0.068146
11.66000000000001,0.075796,-1.756064,-0.052046
11.670000000000002,0.019419,-1.742085,-0.041699
11.679999999999993,-0.045904,-1.710141,-0.042199
11.690000000000012,-0.073037,-1.694131,-0.038714
11.700000000000005,-0.120322,-1.676414,-0.042776
11.709999999999994,-0.144058,-1.673894,-0.046722
11.720000000000011,-0.142878,-1.656812,-0.051994
11.730000000000004,-0.147411,-1.662348,-0.041168
11.739999999999997,-0.15776,-1.628259,-0.031763
11.750000000000014,-0.164454,-1.595942,-0.016849
11.760000000000003,-0.1839,-1.556487,-0.00934
11.769999999999996,-0.219896,-1.519795,-0.008485
11.780000000000015,-0.259747,-1.502971,0.003033
11.790000000000006,-0.27915,-1.46891,0.023259
11.799999999999995,-0.291355,-1.436593,0.032594
11.810000000000016,-0.281494,-1.401436,0.053217
11.820000000000007,-0.266245,-1.362641,0.053868
11.829999999999998,-0.267278,-1.308639,0.047181
11.840000000000018,-0.264886,-1.267198,0.034898
11.850000000000009,-0.262602,-1.24558,0.049779
11.86,-0.289648,-1.225927,0.056934
11.87000000000002,-0.2956,-1.202541,0.062593
11.88000000000001,-0.301722,-1.191858,0.071748
11.89,-0.288399,-1.160323,0.072304
11.899999999999991,-0.267951,-1.135954,0.066495
11.91000000000001,-0.230993,-1.115977,0.077296
11.920000000000002,-0.197438,-1.076147,0.080976
11.929999999999993,-0.16577,-1.036272,0.073661
11.940000000000012,-0.122916,-0.978297,0.05757
11.950000000000005,-0.10364,-0.929565,0.088553
11.959999999999994,-0.101394,-0.904361,0.090673
11.970000000000011,-0.110233,-0.885515,0.09075
11.980000000000004,-0.138591,-0.834388,0.10557
11.989999999999997,-0.160902,-0.795768,0.100252
12.000000000000014,-0.159302,-0.746178,0.089011
12.010000000000003,-0.171642,-0.706593,0.070174
12.019999999999996,-0.170901,-0.648859,0.048985
12.030000000000015,-0.139196,-0.605348,0.038965
12.040000000000006,-0.13325,-0.569241,0.022999
12.049999999999995,-0.125229,-0.513304,0.000915
12.060000000000016,-0.142791,-0.457597,-0.018766
12.070000000000007,-0.162241,-0.409158,-0.030322
12.079999999999998,-0.175082,-0.340819,-0.05708
12.090000000000018,-0.19418,-0.274344,-0.056536
12.100000000000009,-0.203946,-0.187872,-0.075717
12.11,-0.239943,-0.137604,-0.10484
12.12000000000002,-0.256328,-0.07194,-0.109783
12.13000000000001,-0.284587,-0.004566,-0.118517
12.14,-0.312961,0.051968,-0.121903
12.149999999999991,-0.330578,0.094131,-0.123476
12.16000000000001,-0.351183,0.173215,-0.110019
12.170000000000002,-0.355749,0.230818,-0.107571
12.179999999999993,-0.349094,0.302946,-0.101155
12.190000000000012,-0.327975,0.356244,-0.076506
12.200000000000005,-0.327008,0.413059,-0.064874
12.209999999999994,-0.300751,0.450211,-0.054973
12.220000000000011,-0.287016,0.503483,-0.041387
12.230000000000004,-0.244404,0.538022,-0.040406
12.239999999999997,-0.183168,0.599694,-0.048881
12.250000000000014,-0.125789,0.63786,-0.032104
12.260000000000003,-0.08842,0.681311,-0.011884
12.269999999999996,-0.02367,0.733107,-0.015881
12.280000000000015,0.005437,0.777479,-0.003099
12.290000000000006,0.010989,0.83885,0.003177
12.299999999999995,0.02425,0.868738,0.00552
12.310000000000016,0.034214,0.922019,0.006279
12.320000000000007,0.044104,0.97261,0.001544
12.329999999999998,0.057169,1.047531,0.006292
12.340000000000018,0.057229,1.107018,0.018
12.350000000000009,0.078134,1.153099,0.03348
12.36,0.070049,1.226974,0.024225
12.37000000000002,0.087177,1.270359,0.026809
12.38000000000001,0.102893,1.332592,0.045122
12.39,0.107166,1.382195,0.025683
12.399999999999991,0.089126,1.457789,0.028186
12.41000000000001,0.088908,1.510128,0.017866
12.420000000000002,0.060405,1.558672,0.02448
12.429999999999993,0.063176,1.623692,0.017998
12.440000000000012,0.039978,1.666956,0.008169
12.450000000000005,0.029633,1.711205,0.00309
12.459999999999994,0.016114,1.739217,-0.027803
12.470000000000011,0.021185,1.778983,-0.041858
12.480000000000004,-0.00745,1.826568,-0.054427
12.489999999999997,-0.029737,1.870553,-0.066943
12.500000000000014,-0.031605,1.920953,-0.04988
12.510000000000003,-0.058239,1.963118,-0.025953
12.519999999999996,-0.082293,2.002717,-0.018484
12.530000000000015,-0.110109,2.038726,-0.016599
12.540000000000006,-0.149987,2.062969,-0.013176
12.549999999999995,-0.142497,2.081242,-0.021987
12.560000000000016,-0.188393,2.078386,-0.035415
12.570000000000007,-0.243336,2.081706,-0.048866
12.579999999999998,-0.27622,2.091411,-0.061948
12.590000000000018,-0.282535,2.096727,-0.060139
12.600000000000009,-0.315358,2.098297,-0.047774
12.61,-0.323066,2.130767,-0.042015
12.62000000000002,-0.34271,2.155991,-0.027356
12.63000000000001,-0.340414,2.186808,-0.025125
12.64,-0.340786,2.212157,-0.001066
12.649999999999991,-0.366538,2.255367,0.015564
12.66000000000001,-0.384181,2.284137,0.041252
12.670000000000002,-0.409546,2.293885,0.05014
12.679999999999993,-0.416954,2.333472,0.077909
12.690000000000012,-0.380746,2.354422,0.109719
12.700000000000005,-0.367477,2.366203,0.150243
12.709999999999994,-0.363736,2.410391,0.200179
12.720000000000011,-0.307414,2.441526,0.21777
12.730000000000004,-0.307169,2.456086,0.227094
12.739999999999997,-0.291728,2.495906,0.257012
12.750000000000014,-0.287771,2.514957,0.259137
12.760000000000003,-0.294679,2.536581,0.268432
12.769999999999996,-0.279537,2.56826,0.27268
12.780000000000015,-0.264775,2.568373,0.292997
12.790000000000006,-0.260643,2.586433,0.324357
12.799999999999995,-0.256887,2.591913,0.329964
12.810000000000016,-0.251311,2.579369,0.371916
12.820000000000007,-0.264112,2.572183,0.388122
12.829999999999998,-0.256946,2.550723,0.41357
12.840000000000018,-0.242254,2.547325,0.430201
12.850000000000009,-0.195932,2.520677,0.446974
12.86,-0.171389,2.508248,0.457215
12.87000000000002,-0.177054,2.497425,0.457902
12.88000000000001,-0.175592,2.466873,0.474906
12.89,-0.227472,2.41077,0.502797
12.899999999999991,-0.256617,2.3458,0.52998
12.91000000000001,-0.296771,2.276291,0.561539
12.920000000000002,-0.269952,2.22888,0.575968
12.929999999999993,-0.234138,2.184237,0.566793
12.940000000000012,-0.18053,2.118105,0.539338
12.950000000000005,-0.136849,2.055454,0.522755
12.959999999999994,-0.075848,1.999223,0.484573
12.970000000000011,-0.038934,1.967991,0.472871
12.980000000000004,0.015288,1.927851,0.470423
12.989999999999997,0.042984,1.939826,0.481936
13.000000000000014,0.039524,1.896651,0.474081
13.010000000000003,0.051126,1.86975,0.492176
13.019999999999996,0.049062,1.817663,0.447677
13.030000000000015,0.0234,1.767184,0.422983
13.040000000000006,-0.000954,1.741922,0.39862
13.049999999999995,-0.023696,1.700454,0.376865
13.060000000000016,-0.016281,1.709589,0.369815
13.070000000000007,-0.019012,1.718646,0.348921
13.079999999999998,-0.008875,1.727783,0.338227
13.090000000000018,-0.007136,1.726095,0.329105
13.100000000000009,-0.028023,1.748683,0.30355
13.11,-0.032706,1.751522,0.283451
13.12000000000002,-0.045912,1.735382,0.263019
13.13000000000001,-0.045301,1.739139,0.215608
13.14,-0.088272,1.751519,0.192363
13.149999999999991,-0.073503,1.77237,0.166313
13.16000000000001,-0.097453,1.780411,0.124076
13.170000000000002,-0.11572,1.782159,0.122042
13.179999999999993,-0.149459,1.787408,0.123501
13.190000000000012,-0.15982,1.77484,0.112301
13.200000000000005,-0.173343,1.792891,0.101405
13.209999999999994,-0.192536,1.79285,0.099311
13.220000000000011,-0.205546,1.777538,0.102618
13.230000000000004,-0.205946,1.767799,0.06779
13.239999999999997,-0.225793,1.73352,0.050663
13.250000000000014,-0.226638,1.740773,0.041601
13.260000000000003,-0.241001,1.704731,0.02638
13.269999999999996,-0.255167,1.679515,0.016781
13.280000000000015,-0.254563,1.659755,0.016584
13.290000000000006,-0.239902,1.659884,0.022283
13.299999999999995,-0.2057,1.627719,0.016891
13.310000000000016,-0.181678,1.581096,0.025824
13.320000000000007,-0.14098,1.55814,0.016105
13.329999999999998,-0.095022,1.508075,0.027083
13.340000000000018,-0.046224,1.480567,0.001801
13.350000000000009,-0.050485,1.452693,-0.023293
13.36,-0.037674,1.411406,-0.056512
13.37000000000002,-0.005138,1.33945,-0.104404
13.38000000000001,0.124413,1.280271,-0.134387
13.39,0.193939,1.238489,-0.163205
13.399999999999991,0.257947,1.238839,-0.167896
13.41000000000001,0.258477,1.271336,-0.167485
13.420000000000002,0.248314,1.321796,-0.166975
13.429999999999993,0.225196,1.347679,-0.135919
13.440000000000012,0.164973,1.357135,-0.145751
13.450000000000005,0.137606,1.351575,-0.122391
13.459999999999994,0.096377,1.34418,-0.110173
13.470000000000011,0.051929,1.363716,-0.103207
13.480000000000004,0.004311,1.350821,-0.089408
13.489999999999997,-0.032497,1.330801,-0.083786
13.500000000000014,-0.060463,1.353068,-0.091232
13.510000000000003,-0.031925,1.321885,-0.119523
13.519999999999996,0.011079,1.322188,-0.109809
13.530000000000015,0.051745,1.289984,-0.10781
13.540000000000006,0.069683,1.254985,-0.082354
13.549999999999995,0.09263,1.248895,-0.06014
13.560000000000016,0.0908,1.236306,-0.034723
13.570000000000007,0.06218,1.20094,0.001007
13.579999999999998,0.044761,1.192825,0.014387
13.590000000000018,0.027959,1.167519,0.022084
13.600000000000009,0.014466,1.122375,0.019558
13.61,0.029532,1.045285,-0.005778
13.62000000000002,0.035977,0.994902,-0.020918
13.63000000000001,0.009582,0.943363,-0.022814
13.64,-0.051433,0.898804,-0.020538
13.649999999999991,-0.119007,0.838769,-0.003877
13.66000000000001,-0.181588,0.753698,0.001646
13.670000000000002,-0.224396,0.699432,0.01694
13.679999999999993,-0.232734,0.625562,0.032433
13.690000000000012,-0.213616,0.555472,0.041903
13.700000000000005,-0.207559,0.47446,0.036421
13.709999999999994,-0.177609,0.39531,0.041301
13.720000000000011,-0.178959,0.312341,0.027449
13.730000000000004,-0.18211,0.227582,0.026361
13.739999999999997,-0.170771,0.132126,0.032665
13.750000000000014,-0.155763,0.045774,0.020893
13.760000000000003,-0.135511,-0.060331,0.016284
13.769999999999996,-0.086493,-0.137464,0.005089
13.780000000000015,-0.033808,-0.221823,0.008468
13.790000000000006,0.034726,-0.288043,0.017734
13.799999999999995,0.067481,-0.363508,0.032795
13.810000000000016,0.10926,-0.442537,0.040612
13.820000000000007,0.142199,-0.550422,0.025128
13.829999999999998,0.151651,-0.642238,0.01319
13.840000000000018,0.168499,-0.730461,0.003208
13.850000000000009,0.16661,-0.836813,-0.029161
13.86,0.170879,-0.910713,-0.037303
13.87000000000002,0.151259,-0.994697,-0.039481
13.88000000000001,0.150719,-1.083923,-0.046927
13.89,0.147248,-1.130843,-0.044789
13.899999999999991,0.167947,-1.208243,-0.050014
13.91000000000001,0.184196,-1.278452,-0.054309
13.920000000000002,0.211529,-1.347734,-0.047496
13.929999999999993,0.245452,-1.413418,-0.022284
13.940000000000012,0.237995,-1.482925,-0.019593
13.950000000000005,0.245153,-1.555041,-0.009428
13.959999999999994,0.271622,-1.626149,0.015629
13.970000000000011,0.266957,-1.683896,0.004822
13.980000000000004,0.280819,-1.745196,0.032589
13.989999999999997,0.26902,-1.800308,0.035417
14.000000000000014,0.281778,-1.864242,0.036623
14.010000000000003,0.293859,-1.909232,0.031671
14.019999999999996,0.297273,-1.97229,0.007219
14.030000000000015,0.294695,-2.022831,0.015717
14.040000000000006,0.26094,-2.077177,0.022852
14.049999999999995,0.241833,-2.132376,0.032884
14.060000000000016,0.204731,-2.166066,0.034698
14.070000000000007,0.158671,-2.180835,0.018324
14.079999999999998,0.133188,-2.22066,-0.006281
14.090000000000018,0.116647,-2.269371,-0.036296
14.100000000000009,0.145347,-2.296152,-0.054462
14.11,0.195713,-2.337252,-0.077996
14.12000000000002,0.266729,-2.347601,-0.09451
14.13000000000001,0.330076,-2.384176,-0.107831
14.14,0.374448,-2.412796,-0.105802
14.149999999999991,0.389719,-2.420862,-0.124003
14.16000000000001,0.366238,-2.458971,-0.123875
14.170000000000002,0.330079,-2.488168,-0.121973
14.179999999999993,0.278528,-2.506707,-0.124746
14.190000000000012,0.221294,-2.551482,-0.104181
14.200000000000005,0.157282,-2.55476,-0.102371
14.209999999999994,0.129615,-2.573833,-0.098393
14.220000000000011,0.13704,-2.5628,-0.107244
14.230000000000004,0.171748,-2.550725,-0.138575
14.239999999999997,0.221555,-2.507142,-0.173943
14.250000000000014,0.288943,-2.506773,-0.212358
14.260000000000003,0.296562,-2.475341,-0.23475
14.269999999999996,0.296909,-2.451241,-0.235406
14.280000000000015,0.277812,-2.451629,-0.217438
14.290000000000006,0.236638,-2.451963,-0.220776
14.299999999999995,0.205312,-2.470228,-0.214132
14.310000000000016,0.196302,-2.461373,-0.215079
14.320000000000007,0.163431,-2.458136,-0.215485
14.329999999999998,0.132532,-2.445883,-0.213925
14.340000000000018,0.085673,-2.412146,-0.190425
14.350000000000009,0.029976,-2.409083,-0.186613
14.36,-0.008761,-2.385226,-0.158572
14.37000000000002,-0.045265,-2.386493,-0.149083
14.38000000000001,-0.0787,-2.370569,-0.132036
14.39,-0.063972,-2.365155,-0.135478
14.399999999999991,-0.031431,-2.343467,-0.113804
14.41000000000001,0.014497,-2.338802,-0.098538
14.420000000000002,0.086344,-2.309602,-0.089034
14.429999999999993,0.139893,-2.281422,-0.077062
14.440000000000012,0.162256,-2.247145,-0.089177
14.450000000000005,0.156938,-2.240142,-0.07823
14.459999999999994,0.138584,-2.245772,-0.078596
14.470000000000011,0.121201,-2.24054,-0.097092
14.480000000000004,0.127868,-2.226258,-0.095038
14.489999999999997,0.120677,-2.221124,-0.092344
14.500000000000014,0.132801,-2.210383,-0.08383
14.510000000000003,0.163098,-2.18767,-0.114212
14.519999999999996,0.198056,-2.168588,-0.124495
14.530000000000015,0.219925,-2.165793,-0.140632
14.540000000000006,0.207146,-2.159667,-0.151713
14.549999999999995,0.205712,-2.134524,-0.153269
14.560000000000016,0.196271,-2.151713,-0.160907
14.570000000000007,0.216285,-2.160648,-0.163529
14.579999999999998,0.247324,-2.151477,-0.194995
14.590000000000018,0.266011,-2.125342,-0.19809
14.600000000000009,0.266166,-2.11823,-0.190692
14.61,0.260986,-2.103942,-0.179649
14.62000000000002,0.23204,-2.080784,-0.187997
14.63000000000001,0.199957,-2.041456,-0.162393
14.64,0.169997,-2.034509,-0.150833
14.649999999999991,0.16202,-2.027439,-0.134401
14.66000000000001,0.173195,-2.012997,-0.141386
14.670000000000002,0.182869,-1.989633,-0.119066
14.679999999999993,0.21441,-1.95074,-0.136438
14.690000000000012,0.220445,-1.908404,-0.148635
14.700000000000005,0.20466,-1.859917,-0.161067
14.709999999999994,0.181727,-1.80699,-0.162586
14.720000000000011,0.14902,-1.792857,-0.166509
14.730000000000004,0.124795,-1.776057,-0.142903
14.739999999999997,0.135411,-1.799501,-0.146717
14.750000000000014,0.134565,-1.795997,-0.146696
14.760000000000003,0.143834,-1.785217,-0.155595
14.769999999999996,0.138378,-1.788951,-0.146591
14.780000000000015,0.096854,-1.754135,-0.148582
14.790000000000006,0.051345,-1.74454,-0.143616
14.799999999999995,0.014657,-1.753806,-0.144227
14.810000000000016,-0.027167,-1.737909,-0.150982
14.820000000000007,-0.043576,-1.738164,-0.146629
14.829999999999998,-0.041733,-1.740113,-0.142975
14.840000000000018,-0.051433,-1.717773,-0.144657
14.850000000000009,-0.046472,-1.701662,-0.127968
14.86,-0.045859,-1.67925,-0.094823
14.87000000000002,-0.03374,-1.665661,-0.096331
14.88000000000001,-0.024773,-1.629633,-0.075697
14.89,-0.002415,-1.616109,-0.049685
14.899999999999991,0.006714,-1.619806,-0.044155
14.91000000000001,0.010474,-1.627144,-0.014056
14.920000000000002,0.016213,-1.612735,-0.009227
14.929999999999993,0.018678,-1.580289,0.008562
14.940000000000012,0.025502,-1.553137,0.00623
14.950000000000005,0.039,-1.520575,0.026863
14.959999999999994,0.032012,-1.504394,0.030579
14.970000000000011,0.016786,-1.491935,0.041456
14.980000000000004,0.032671,-1.473026,0.043691
14.989999999999997,0.035642,-1.459643,0.045701
15.000000000000014,0.015712,-1.449075,0.049214
15.010000000000003,0.005051,-1.434817,0.061119
15.019999999999996,0.008963,-1.421308,0.064052
15.030000000000015,-0.005462,-1.410596,0.063953
15.040000000000006,-0.009087,-1.409711,0.062076
15.049999999999995,0.006078,-1.387154,0.081725
15.060000000000016,0.041328,-1.359069,0.087107
15.070000000000007,0.070936,-1.339077,0.089581
15.079999999999998,0.119021,-1.309978,0.100603
15.090000000000018,0.142264,-1.282808,0.097557
15.100000000000009,0.143442,-1.264811,0.095019
15.11,0.141794,-1.250427,0.087847
15.12000000000002,0.121764,-1.245185,0.085816
15.13000000000001,0.125473,-1.23977,0.078627
15.14,0.124028,-1.215477,0.077085
15.149999999999991,0.115132,-1.194841,0.066265
15.16000000000001,0.109925,-1.16604,0.041894
15.170000000000002,0.100395,-1.140867,0.055756
15.179999999999993,0.089431,-1.078769,0.047216
15.190000000000012,0.117629,-1.030873,0.044487
15.200000000000005,0.116389,-0.991263,0.037633
15.209999999999994,0.128704,-0.973229,0.057212
15.220000000000011,0.177874,-0.926079,0.053896
15.230000000000004,0.209618,-0.878984,0.043963
15.239999999999997,0.254511,-0.810201,0.034433
15.250000000000014,0.283201,-0.723533,0.024895
15.260000000000003,0.269443,-0.665949,0.023579
15.269999999999996,0.250541,-0.592195,0.030573
15.280000000000015,0.210962,-0.551877,0.03324
15.290000000000006,0.15115,-0.513496,0.022842
15.299999999999995,0.110332,-0.438092,0.033257
15.310000000000016,0.090762,-0.400358,0.027988
15.320000000000007,0.042507,-0.323174,0.016407
15.329999999999998,0.043275,-0.263679,-0.005704
15.340000000000018,0.035284,-0.191667,-0.004045
15.350000000000009,0.027925,-0.135892,-0.008074
15.36,0.0154,-0.065744,0.003544
15.37000000000002,-0.009524,-0.027188,0.01463
15.38000000000001,-0.044272,0.025727,0.027593
15.39,-0.047876,0.088789,0.02648
15.399999999999991,-0.041698,0.133888,0.025274
15.41000000000001,-0.048191,0.195153,0.007652
15.420000000000002,-0.05126,0.236539,-0.000141
15.429999999999993,-0.072537,0.283169,-0.00994
15.440000000000012,-0.09224,0.357686,0.012599
15.450000000000005,-0.108967,0.407086,-0.00531
15.459999999999994,-0.124439,0.475477,-0.016572
15.470000000000011,-0.128666,0.558379,-0.016536
15.480000000000004,-0.12478,0.639549,-0.028294
15.489999999999997,-0.124697,0.708054,-0.034782
15.500000000000014,-0.147237,0.79082,-0.041407
15.510000000000003,-0.156133,0.864665,-0.038815
15.519999999999996,-0.185253,0.923914,-0.020226
15.530000000000015,-0.17288,1.00506,-0.000825
15.540000000000006,-0.173094,1.109589,0.00042
15.549999999999995,-0.195613,1.183325,0.019252
15.560000000000016,-0.232757,1.269668,0.013387
15.570000000000007,-0.279448,1.327103,0.014363
15.579999999999998,-0.309389,1.402657,0.015781
15.590000000000018,-0.307263,1.427988,0.006069
15.600000000000009,-0.300862,1.487572,0.006878
15.61,-0.270946,1.534684,0.00055
15.62000000000002,-0.240981,1.581753,0.001533
15.63000000000001,-0.204712,1.61896,0.009783
15.64,-0.175607,1.669683,0.008954
15.649999999999991,-0.141009,1.723166,0.000885
15.66000000000001,-0.114081,1.750485,0.001539
15.670000000000002,-0.086475,1.781458,-0.037005
15.679999999999993,-0.077484,1.832022,-0.035349
15.690000000000012,-0.06144,1.870029,-0.041958
15.700000000000005,-0.055494,1.906174,-0.04872
15.709999999999994,-0.049895,1.914383,-0.0467
15.720000000000011,-0.047001,1.917162,-0.030192
15.730000000000004,-0.01826,1.942696,-0.029508
15.739999999999997,0.018368,1.943083,-0.021694
15.750000000000014,0.045803,1.950574,-0.034026
15.760000000000003,0.087863,1.956293,-0.042518
15.769999999999996,0.108264,1.976204,-0.040144
15.780000000000015,0.106645,1.986955,-0.027181
15.790000000000006,0.121686,2.006844,-0.008419
15.799999999999995,0.129627,2.030281,0.030353
15.810000000000016,0.155803,2.052188,0.063855
15.820000000000007,0.153471,2.068515,0.0896
15.829999999999998,0.193116,2.083364,0.108586
15.840000000000018,0.214978,2.080066,0.110657
15.850000000000009,0.251572,2.088514,0.102103
15.86,0.244261,2.105665,0.073003
15.87000000000002,0.224233,2.129907,0.038354
15.88000000000001,0.20638,2.157692,0.042131
15.89,0.181182,2.180992,0.051228
15.899999999999991,0.129326,2.19879,0.050762
15.91000000000001,0.112304,2.209609,0.078088
15.920000000000002,0.106986,2.213301,0.09635
15.929999999999993,0.08679,2.20244,0.110592
15.940000000000012,0.070387,2.200593,0.12318
15.950000000000005,0.078085,2.225918,0.125442
15.959999999999994,0.06354,2.23485,0.121725
15.970000000000011,0.043863,2.253641,0.145442
15.980000000000004,0.040227,2.250082,0.159976
15.989999999999997,0.018661,2.276195,0.16002
16.000000000000014,-0.017447,2.307609,0.161754
16.010000000000005,-0.048444,2.30481,0.185083
16.019999999999996,-0.064565,2.331881,0.177008
16.030000000000015,-0.078956,2.344484,0.185237
16.040000000000006,-0.080383,2.360723,0.205552
16.049999999999997,-0.074672,2.369817,0.214898
16.060000000000016,-0.065029,2.389731,0.23902
16.070000000000007,-0.06268,2.416857,0.252172
16.08,-0.058451,2.442199,0.278097
16.090000000000018,-0.04024,2.429792,0.297355
16.10000000000001,-0.040226,2.429945,0.303767
16.11,-0.049812,2.406626,0.296095
16.12000000000002,-0.065281,2.406632,0.306895
16.13000000000001,-0.061043,2.385117,0.303979
16.14,-0.06281,2.376134,0.328522
16.14999999999999,-0.04655,2.36192,0.329481
16.16000000000001,-0.035626,2.355804,0.335954
16.17,-0.005114,2.320099,0.33597
16.179999999999993,-0.003484,2.303073,0.347696
16.190000000000012,0.001697,2.2716,0.373901
16.200000000000003,0.004753,2.235674,0.369892
16.209999999999994,-0.010409,2.186038,0.402004
16.220000000000013,0.007659,2.160984,0.425714
16.230000000000004,0.001686,2.123219,0.439824
16.239999999999995,0.013872,2.096443,0.412275
16.250000000000014,0.023039,2.04618,0.399914
16.260000000000005,0.033954,2.003197,0.362114
16.269999999999996,0.005869,1.970691,0.343126
16.280000000000015,-0.009464,1.928318,0.336073
16.290000000000006,-0.016268,1.907615,0.323905
16.299999999999997,-0.019625,1.87614,0.306174
16.310000000000016,-0.018101,1.863664,0.29237
16.320000000000007,-0.005768,1.844966,0.270402
16.33,-0.013645,1.823427,0.239898
16.340000000000018,-0.012433,1.794697,0.216734
16.35000000000001,-0.02228,1.759572,0.194264
16.36,-0.035421,1.741515,0.183833
16.37000000000002,-0.052084,1.727914,0.180725
16.38000000000001,-0.05768,1.715304,0.18966
16.39,-0.070718,1.709942,0.167537
16.39999999999999,-0.059586,1.722709,0.161464
16.41000000000001,-0.054328,1.722862,0.129591
16.42,-0.067596,1.709386,0.096392
16.429999999999993,-0.074863,1.719404,0.083673
16.440000000000012,-0.06506,1.719601,0.047312
16.450000000000003,-0.056896,1.728766,0.020182
16.459999999999994,-0.051441,1.739736,-0.00606
16.470000000000013,-0.069413,1.773925,-0.032358
16.480000000000004,-0.074959,1.770324,-0.026973
16.489999999999995,-0.119792,1.77551,-0.038467
16.500000000000014,-0.174477,1.737357,-0.05977
16.510000000000005,-0.227268,1.695619,-0.068314
16.519999999999996,-0.271906,1.700802,-0.061549
16.530000000000015,-0.32018,1.662813,-0.083619
16.540000000000006,-0.318909,1.628759,-0.087599
16.549999999999997,-0.317796,1.594721,-0.110787
16.560000000000016,-0.305566,1.567928,-0.128277
16.570000000000007,-0.280634,1.548412,-0.176595
16.58,-0.262509,1.544982,-0.192843
16.590000000000018,-0.276179,1.4999,-0.222813
16.60000000000001,-0.280001,1.494561,-0.243043
16.61,-0.294795,1.4765,-0.23615
16.62000000000002,-0.310919,1.498122,-0.243417
16.63000000000001,-0.292293,1.516352,-0.236546
16.64,-0.244281,1.545471,-0.244675
16.64999999999999,-0.12411,1.515769,-0.247967
16.66000000000001,-0.003242,1.536461,-0.26626
16.67,0.069495,1.571999,-0.27591
16.679999999999993,0.104469,1.636121,-0.260087
16.690000000000012,0.10553,1.693806,-0.244727
16.700000000000003,0.073929,1.762083,-0.213214
16.709999999999994,0.020197,1.819361,-0.178527
16.720000000000013,-0.069541,1.804375,-0.157987
16.730000000000004,-0.164614,1.801088,-0.137363
16.739999999999995,-0.257946,1.799652,-0.140449
16.750000000000014,-0.350617,1.775647,-0.140166
16.760000000000005,-0.411751,1.780716,-0.14273
16.769999999999996,-0.43086,1.777047,-0.130192
16.780000000000015,-0.411281,1.789771,-0.111479
16.790000000000006,-0.355784,1.815318,-0.078452
16.799999999999997,-0.287703,1.768895,-0.042481
16.810000000000016,-0.210644,1.719045,-0.020121
16.820000000000007,-0.136493,1.66012,-0.003375
16.83,-0.058795,1.596652,0.000564
16.840000000000018,-0.006763,1.531309,0.000502
16.85000000000001,0.014136,1.47566,-0.026348
16.86,0.008056,1.423326,-0.002385
16.87000000000002,-0.022331,1.352758,-0.007255
16.88000000000001,-0.043709,1.251754,0.0333
16.89,-0.05691,1.165179,0.04674
16.89999999999999,-0.07965,1.058941,0.043347
16.91000000000001,-0.095037,0.947279,0.056503
16.92,-0.123514,0.831896,0.025524
16.929999999999993,-0.163703,0.721657,0.007216
16.940000000000012,-0.227269,0.636522,-0.005618
16.950000000000003,-0.278318,0.537154,-0.023891
16.959999999999994,-0.31116,0.43076,-0.036504
16.970000000000013,-0.322137,0.31726,-0.048047
16.980000000000004,-0.303908,0.201241,-0.064726
16.989999999999995,-0.252683,0.087207,-0.075465
17.000000000000014,-0.202398,-0.03142,-0.078974
17.010000000000005,-0.135484,-0.146402,-0.06489
17.019999999999996,-0.069567,-0.259551,-0.063582
17.030000000000015,-0.00337,-0.356485,-0.058408
17.040000000000006,0.076854,-0.489351,-0.059857
17.049999999999997,0.152021,-0.598841,-0.051959
17.060000000000016,0.21502,-0.722808,-0.052627
17.070000000000007,0.255609,-0.873965,-0.059403
17.08,0.283336,-0.967506,-0.068368
17.090000000000018,0.309588,-1.050282,-0.048888
17.10000000000001,0.311447,-1.169248,-0.035642
17.11,0.320901,-1.270163,-0.02117
17.12000000000002,0.326601,-1.371082,-0.025944
17.13000000000001,0.334129,-1.477337,-0.016155
17.14,0.361975,-1.575463,-0.00238
17.14999999999999,0.364262,-1.680989,0.032884
17.16000000000001,0.373944,-1.780138,0.066493
17.17,0.381876,-1.868457,0.089259
17.179999999999993,0.375068,-1.956799,0.099084
17.190000000000012,0.357596,-2.026316,0.114493
17.200000000000003,0.363213,-2.123616,0.096983
17.209999999999994,0.342669,-2.207624,0.098449
17.220000000000013,0.34487,-2.299556,0.098296
17.230000000000004,0.348268,-2.387909,0.124677
17.239999999999995,0.338836,-2.479984,0.154485
17.250000000000014,0.357018,-2.562907,0.192065
17.260000000000005,0.35962,-2.649631,0.234836
17.269999999999996,0.380238,-2.747912,0.268602
17.280000000000015,0.371872,-2.822878,0.293186
17.290000000000006,0.364987,-2.918493,0.310267
17.299999999999997,0.3735,-2.958088,0.31178
17.310000000000016,0.38313,-3.05543,0.33632
17.320000000000007,0.385629,-3.129419,0.333567
17.33,0.3955,-3.201599,0.336412
17.340000000000018,0.41506,-3.289897,0.324603
17.35000000000001,0.438706,-3.347554,0.307758
17.36,0.423168,-3.397372,0.292312
17.37000000000002,0.419073,-3.425522,0.291892
17.38000000000001,0.342809,-3.447746,0.283271
17.39,0.305136,-3.447778,0.255398
17.39999999999999,0.269704,-3.462169,0.194539
17.41000000000001,0.280138,-3.478364,0.151542
17.42,0.310906,-3.48926,0.122522
17.429999999999993,0.354069,-3.482155,0.12857
17.440000000000012,0.346344,-3.4555,0.142415
17.450000000000003,0.333814,-3.428751,0.126081
17.459999999999994,0.280603,-3.386019,0.138651
17.470000000000013,0.215334,-3.344961,0.12917
17.480000000000004,0.167573,-3.291084,0.107287
17.489999999999995,0.173757,-3.240604,0.091532
17.500000000000014,0.172549,-3.204834,0.098315
17.510000000000005,0.206774,-3.127482,0.108769
17.519999999999996,0.208271,-3.044943,0.138051
17.530000000000015,0.220448,-2.97482,0.156371
17.540000000000006,0.174392,-2.89423,0.194124
17.549999999999997,0.123584,-2.817226,0.211651
17.560000000000016,0.05065,-2.74385,0.21157
17.570000000000007,-0.021458,-2.675806,0.210567
17.58,-0.039497,-2.602103,0.211217
17.590000000000018,-0.056202,-2.556448,0.202344
17.60000000000001,-0.086445,-2.503719,0.198791
17.61,-0.115472,-2.486068,0.185695
17.62000000000002,-0.187235,-2.446941,0.166873
17.63000000000001,-0.263069,-2.429388,0.136822
17.64,-0.301535,-2.417005,0.099947
17.64999999999999,-0.335918,-2.395648,0.103469
17.66000000000001,-0.31402,-2.391917,0.083751
17.67,-0.273375,-2.362879,0.07277
17.679999999999993,-0.221728,-2.334734,0.07103
17.690000000000012,-0.170181,-2.313835,0.070044
17.700000000000003,-0.153534,-2.288659,0.039388
17.709999999999994,-0.181203,-2.283602,-0.006691
17.720000000000013,-0.226808,-2.269663,-0.0218
17.730000000000004,-0.298365,-2.267487,-0.057417
17.739999999999995,-0.354959,-2.270691,-0.038094
17.750000000000014,-0.395278,-2.282737,-0.036045
17.760000000000005,-0.376209,-2.298022,-0.031407
17.769999999999996,-0.324271,-2.315759,-0.027294
17.780000000000015,-0.256353,-2.300969,-0.028066
17.790000000000006,-0.193382,-2.306962,-0.030977
17.799999999999997,-0.135418,-2.285052,-0.026337
17.810000000000016,-0.1003,-2.265089,-0.016549
17.820000000000007,-0.11478,-2.260746,-0.00943
17.83,-0.109074,-2.249053,-0.011067
17.840000000000018,-0.096454,-2.262543,-0.011972
17.85000000000001,-0.092636,-2.257229,-0.003623
17.86,-0.072789,-2.27891,0.007363
17.87000000000002,-0.045482,-2.287928,0.009449
17.88000000000001,-0.026806,-2.284466,0.054471
17.89,-0.035439,-2.25759,0.062887
17.89999999999999,-0.059402,-2.227228,0.092149
17.91000000000001,-0.098277,-2.213172,0.113697
17.92,-0.084608,-2.178973,0.152631
17.929999999999993,-0.108592,-2.145912,0.176445
17.940000000000012,-0.103329,-2.110812,0.197027
17.950000000000003,-0.086351,-2.069283,0.18038
17.959999999999994,-0.085107,-2.047794,0.179714
17.970000000000013,-0.096498,-2.011997,0.173564
17.980000000000004,-0.158239,-1.987309,0.177587
17.989999999999995,-0.17236,-1.950541,0.165029
18.000000000000014,-0.218375,-1.903135,0.146725
18.010000000000005,-0.233233,-1.865448,0.15611
18.02,-0.237727,-1.798861,0.144948
18.030000000000012,-0.243874,-1.728699,0.15025
18.040000000000006,-0.251028,-1.667567,0.163656
18.05,-0.269487,-1.622686,0.163929
18.060000000000016,-0.261319,-1.572212,0.166446
18.070000000000007,-0.24324,-1.530645,0.168991
18.08,-0.228608,-1.474694,0.173498
18.090000000000018,-0.189539,-1.4312,0.172696
18.10000000000001,-0.194638,-1.395211,0.150199
18.11,-0.214237,-1.353935,0.133052
18.12000000000002,-0.237425,-1.323542,0.14678
18.13000000000001,-0.271542,-1.282336,0.143133
18.14,-0.289251,-1.244571,0.140582
18.14999999999999,-0.301517,-1.217585,0.153518
18.16000000000001,-0.275348,-1.174074,0.136129
18.17,-0.242075,-1.156714,0.145007
18.179999999999996,-0.191783,-1.099591,0.146364
18.19000000000001,-0.162245,-1.086796,0.153282
18.200000000000003,-0.147444,-1.084951,0.16808
18.209999999999997,-0.116131,-1.079414,0.183141
18.220000000000013,-0.112276,-1.073182,0.194199
18.230000000000004,-0.111971,-1.070634,0.228012
18.239999999999995,-0.096789,-1.044529,0.246783
18.25000000000001,-0.067393,-1.030881,0.23547
18.260000000000005,-0.048705,-1.001991,0.228762
18.27,-0.02608,-0.960477,0.23232
18.280000000000012,-0.004959,-0.899138,0.237901
18.290000000000006,0.023097,-0.855718,0.229658
18.3,0.038322,-0.812347,0.220333
18.310000000000016,0.07216,-0.748987,0.213319
18.320000000000007,0.078102,-0.707418,0.186457
18.33,0.073194,-0.655161,0.154098
18.340000000000018,0.061088,-0.593931,0.117228
18.35000000000001,0.056189,-0.549846,0.09851
18.36,0.051515,-0.496751,0.093607
18.37000000000002,0.048789,-0.422855,0.061565
18.38000000000001,0.04224,-0.369701,0.052068
18.39,0.025016,-0.300429,0.050843
18.39999999999999,0.033345,-0.23368,0.049015
18.41000000000001,0.021389,-0.171559,0.031322
18.42,0.00415,-0.103208,0.028237
18.429999999999996,-0.004333,-0.048231,-0.000457
18.44000000000001,-0.032039,-0.002521,-0.011266
18.450000000000003,-0.049698,0.043261,-0.023751
18.459999999999997,-0.082707,0.095229,-0.021737
18.470000000000013,-0.085433,0.160996,-0.031926
18.480000000000004,-0.075626,0.212497,-0.049416
18.489999999999995,-0.072719,0.295503,-0.077619
18.50000000000001,-0.07716,0.37848,-0.109583
18.510000000000005,-0.076364,0.438026,-0.126243
18.52,-0.106313,0.511753,-0.12669
18.530000000000012,-0.126575,0.566629,-0.139081
18.540000000000006,-0.122832,0.634229,-0.145513
18.55,-0.123755,0.693671,-0.146627
18.560000000000016,-0.124447,0.760312,-0.131223
18.570000000000007,-0.105241,0.818091,-0.125718
18.58,-0.117918,0.879267,-0.111472
18.590000000000018,-0.122378,0.954954,-0.128917
18.60000000000001,-0.128207,0.987357,-0.116743
18.61,-0.143769,1.044928,-0.113524
18.62000000000002,-0.150147,1.102573,-0.101948
18.63000000000001,-0.168542,1.15106,-0.094299
18.64,-0.192612,1.181514,-0.075974
18.64999999999999,-0.191319,1.259085,-0.059471
18.66000000000001,-0.193274,1.307813,-0.0516
18.67,-0.166128,1.355896,-0.066195
18.679999999999996,-0.130937,1.387812,-0.070819
18.69000000000001,-0.094261,1.417066,-0.113812
18.700000000000003,-0.060949,1.454324,-0.131159
18.709999999999997,-0.053358,1.489542,-0.159821
18.720000000000013,-0.038337,1.52201,-0.17201
18.730000000000004,-0.056505,1.536267,-0.184888
18.739999999999995,-0.080655,1.568532,-0.178444
18.75000000000001,-0.114398,1.575651,-0.176066
18.760000000000005,-0.134084,1.609868,-0.186892
18.77,-0.167374,1.583642,-0.182175
18.780000000000012,-0.170453,1.579361,-0.215116
18.790000000000006,-0.167893,1.584049,-0.242379
18.8,-0.180759,1.592982,-0.268016
18.810000000000016,-0.21494,1.575633,-0.275959
18.820000000000007,-0.252065,1.600619,-0.276118
18.83,-0.281089,1.622127,-0.285339
18.840000000000018,-0.298906,1.647298,-0.268796
18.85000000000001,-0.308223,1.640103,-0.27448
18.86,-0.310056,1.638327,-0.268143
18.87000000000002,-0.331924,1.640045,-0.260209
18.88000000000001,-0.32905,1.645511,-0.252809
18.89,-0.351666,1.662514,-0.253817
18.89999999999999,-0.380814,1.665009,-0.239547
18.91000000000001,-0.439387,1.65833,-0.228514
18.92,-0.459313,1.653677,-0.188633
18.929999999999996,-0.492338,1.642726,-0.176398
18.94000000000001,-0.503164,1.640011,-0.14916
18.950000000000003,-0.481353,1.630347,-0.145322
18.959999999999997,-0.455733,1.628752,-0.135862
18.970000000000013,-0.461422,1.612502,-0.127
18.980000000000004,-0.472398,1.610628,-0.120767
18.989999999999995,-0.481687,1.600675,-0.11643
19.00000000000001,-0.490025,1.58711,-0.099351
19.010000000000005,-0.50179,1.588918,-0.084876
19.02,-0.500756,1.57821,-0.045713
19.030000000000012,-0.45427,1.573306,-0.056111
19.040000000000006,-0.437898,1.566353,-0.049575
19.05,-0.37796,1.538015,-0.040898
19.060000000000016,-0.350823,1.520223,-0.039844
19.070000000000007,-0.322036,1.493374,-0.046169
19.08,-0.318457,1.47892,-0.02618
19.090000000000018,-0.278688,1.443969,-0.015116
19.10000000000001,-0.255944,1.430639,-0.000359
19.11,-0.227716,1.414659,0.023589
19.12000000000002,-0.210809,1.384263,0.029862
19.13000000000001,-0.181094,1.359332,0.024473
19.14,-0.151241,1.330719,0.047352
19.14999999999999,-0.133506,1.297522,0.047195
19.16000000000001,-0.136543,1.276777,0.053309
19.17,-0.151603,1.251453,0.048256
19.179999999999996,-0.15748,1.222587,0.056974
19.19000000000001,-0.126333,1.222874,0.066544
19.200000000000003,-0.12449,1.223002,0.072984
19.209999999999997,-0.101136,1.201654,0.066665
19.220000000000013,-0.079332,1.19285,0.070516
19.230000000000004,-0.068537,1.187557,0.059635
19.239999999999995,-0.050409,1.167831,0.081558
19.25000000000001,-0.061836,1.142597,0.073809
19.260000000000005,-0.051213,1.115682,0.080929
19.27,-0.045097,1.097793,0.077132
19.280000000000012,-0.055475,1.06352,0.103978
19.290000000000006,-0.038701,1.032225,0.089223
19.3,-0.020099,0.994586,0.087211
19.310000000000016,-0.003508,0.946977,0.082302
19.320000000000007,0.000201,0.891134,0.08443
19.33,0.010199,0.833545,0.074757
19.340000000000018,0.004018,0.790277,0.072355
19.35000000000001,-0.007725,0.730721,0.092506
19.36,-0.021409,0.68204,0.074404
19.37000000000002,-0.042332,0.640538,0.052633
19.38000000000001,-0.075754,0.609741,0.050925
19.39,-0.100353,0.567306,0.028175
19.39999999999999,-0.136049,0.506743,0.026992
19.41000000000001,-0.184528,0.45064,0.02023
19.42,-0.21665,0.397372,-0.007308
19.429999999999996,-0.243386,0.342321,-0.047604
19.44000000000001,-0.274853,0.317811,-0.04831
19.450000000000003,-0.288595,0.27188,-0.07824
19.459999999999997,-0.32134,0.244745,-0.122817
19.470000000000013,-0.363907,0.228248,-0.154652
19.480000000000004,-0.416588,0.199096,-0.169416
19.489999999999995,-0.485548,0.172507,-0.167899
19.50000000000001,-0.552123,0.135185,-0.192974
19.510000000000005,-0.610384,0.102419,-0.214234
19.52,-0.674714,0.082219,-0.217154
19.530000000000012,-0.703702,0.053275,-0.24528
19.540000000000006,-0.728621,0.049524,-0.267586
19.55,-0.719948,0.026163,-0.284206
19.560000000000016,-0.711065,0.015429,-0.300663
19.570000000000007,-0.728048,-0.016217,-0.30768
19.58,-0.74099,-0.015357,-0.330691
19.590000000000018,-0.763963,-0.028133,-0.32019
19.60000000000001,-0.781372,-0.038192,-0.305933
19.61,-0.79937,-0.031142,-0.283253
19.62000000000002,-0.795606,-0.032025,-0.269535
19.63000000000001,-0.799071,-0.02117,-0.266723
19.64,-0.744822,-0.004582,-0.259438
19.64999999999999,-0.696459,-0.018707,-0.242568
19.66000000000001,-0.640544,-0.016571,-0.229057
19.67,-0.58281,-0.01535,-0.213686
19.679999999999996,-0.547824,-0.010709,-0.191272
19.69000000000001,-0.503582,-0.004206,-0.157742
19.700000000000003,-0.453982,-0.004857,-0.126981
19.709999999999997,-0.418891,-0.006509,-0.077245
19.720000000000013,-0.350804,0.020987,-0.076978
19.730000000000004,-0.299531,0.014108,-0.052676
19.739999999999995,-0.216165,0.01826,-0.038769
19.75000000000001,-0.12741,0.029666,-0.054834
19.760000000000005,-0.042949,0.039135,-0.028957
19.77,0.048178,0.023482,-0.038882
19.780000000000012,0.106063,0.036407,-0.025146
19.790000000000006,0.176471,0.026008,0.001273
19.8,0.242521,0.037251,0.009621
19.810000000000016,0.312957,0.044057,0.001509
19.820000000000007,0.377445,0.015657,0.005681
19.83,0.421214,0.011424,0.000732
19.840000000000018,0.456736,0.004395,-0.000692
19.85000000000001,0.482836,-0.01437,-0.015146
19.86,0.495525,-0.018805,-0.017728
19.87000000000002,0.48068,-0.033339,-0.011668
19.88000000000001,0.466133,-0.035283,0.008245
19.89,0.415017,-0.028421,0.009508
19.89999999999999,0.363653,-0.045001,0.025092
19.91000000000001,0.29891,-0.034617,0.028028
19.92,0.237554,-0.036797,0.018982
19.929999999999996,0.174262,-0.047981,0.015286
19.94000000000001,0.101984,-0.051147,0.017957
19.950000000000003,0.027144,-0.045304,0.024354
19.959999999999997,-0.046193,-0.054801,0.018698
19.970000000000013,-0.113755,-0.049868,0.022423
19.980000000000004,-0.166398,-0.028625,0.027442
19.989999999999995,-0.216514,-0.016347,0.021416
20.00000000000001,-0.231711,0.005195,0.01962
20.010000000000005,-0.238179,-0.002021,0.021264
20.02,-0.234318,0.007955,0.025091
20.030000000000012,-0.222287,0.015275,0.027175
20.040000000000006,-0.19257,0.033469,0.050639
20.05,-0.146724,0.038252,0.057713
20.060000000000016,-0.108206,0.038469,0.074678
20.070000000000007,-0.05874,0.03154,0.102655
20.08,-0.013657,0.04807,0.107114
20.090000000000018,0.02214,0.050072,0.123142
20.10000000000001,0.047732,0.050214,0.122566
20.11,0.073407,0.05031,0.133865
20.12000000000002,0.090674,0.041383,0.139471
20.13000000000001,0.089019,0.054031,0.135962
20.14,0.091902,0.057698,0.145182
20.14999999999999,0.100865,0.05333,0.126973
20.16000000000001,0.108716,0.031797,0.116761
20.17,0.094927,0.029028,0.108309
20.179999999999996,0.099054,0.003849,0.101665
20.19000000000001,0.089019,0.005586,0.104307
20.200000000000003,0.059403,-0.018046,0.109122
20.209999999999997,0.048359,-0.018118,0.103505
20.220000000000013,0.013787,-0.009373,0.112295
20.230000000000004,0.013841,-0.00942,0.122348
20.239999999999995,-0.028275,-0.014229,0.126292
20.25000000000001,-0.04279,-0.017063,0.149802
20.260000000000005,-0.062003,-0.017175,0.149532
20.27,-0.083193,-0.02995,0.154553
20.280000000000012,-0.088818,-0.037205,0.150715
20.290000000000006,-0.118417,-0.057206,0.149169
20.3,-0.123718,-0.049163,0.15924
20.310000000000016,-0.123787,-0.050065,0.152839
20.320000000000007,-0.125627,-0.053684,0.161002
20.33,-0.108894,-0.042754,0.175057
20.340000000000018,-0.095063,-0.03361,0.168941
20.35000000000001,-0.086904,-0.038921,0.16716
20.36,-0.059788,-0.054938,0.156359
20.37000000000002,-0.042293,-0.047625,0.15485
20.38000000000001,-0.019489,-0.049276,0.148745
20.39,-0.014131,-0.055517,0.144189
20.39999999999999,0.015064,-0.05979,0.144536
20.41000000000001,0.031502,-0.05965,0.141093
20.42,0.048023,-0.055912,0.141354
20.429999999999996,0.055274,-0.056769,0.133212
20.44000000000001,0.051788,-0.04782,0.136005
20.450000000000003,0.05911,-0.057728,0.156077
20.459999999999997,0.059061,-0.059532,0.152398
20.470000000000013,0.062737,-0.057672,0.149734
20.480000000000004,0.075671,-0.044943,0.14002
20.489999999999995,0.087619,-0.037649,0.132968
20.50000000000001,0.110544,-0.037559,0.142407
20.510000000000005,0.114189,-0.028526,0.122476
20.52,0.125309,-0.013156,0.11184
20.530000000000012,0.140023,-0.008595,0.113909
20.540000000000006,0.134805,0.009373,0.112221
20.55,0.140284,0.00667,0.117747
20.560000000000016,0.115308,0.002012,0.089969
20.570000000000007,0.115059,-0.012427,0.087972
20.58,0.088472,-0.011684,0.076663
20.590000000000018,0.073745,-0.016272,0.072758
20.60000000000001,0.044188,-0.032669,0.064858
20.61,0.021122,-0.045444,0.062573
20.62000000000002,-0.000154,-0.056409,0.051202
20.63000000000001,-0.015986,-0.074562,0.050776
20.64,-0.024279,-0.072799,0.039737
20.64999999999999,-0.037229,-0.088193,0.052175
20.66000000000001,-0.049263,-0.096339,0.048266
20.67,-0.042057,-0.099833,0.039189
20.679999999999996,-0.033836,-0.096134,0.028377
20.69000000000001,-0.01563,-0.102308,0.028541
20.700000000000003,-0.02483,-0.103262,0.021999
20.709999999999997,-0.004826,-0.108526,0.017626
20.720000000000013,-0.023208,-0.10864,0.005505
20.730000000000004,-0.008599,-0.110379,0.0075
20.739999999999995,-0.020512,-0.1096,0.002767
20.75000000000001,-0.038778,-0.108864,0.003431
20.760000000000005,-0.053428,-0.100834,-0.017684
20.77,-0.066932,-0.092847,-0.006818
20.780000000000012,-0.078005,-0.100129,-0.005233
20.790000000000006,-0.077875,-0.087518,-0.015141
20.8,-0.068586,-0.073937,-0.024911
20.810000000000016,-0.074274,-0.084821,-0.030617
20.820000000000007,-0.085061,-0.075027,-0.026089
20.83,-0.090576,-0.073277,-0.034364
20.840000000000018,-0.079455,-0.06604,-0.028653
20.85000000000001,-0.071099,-0.056995,-0.028427
20.86,-0.077394,-0.04894,-0.030243
20.87000000000002,-0.060823,-0.040727,-0.031759
20.88000000000001,-0.056266,-0.042475,-0.029897
20.89,-0.058558,-0.006388,-0.045947
20.89999999999999,-0.044066,-0.022516,-0.031336
20.91000000000001,-0.026856,-0.029601,-0.039421
20.92,-0.017617,-0.023255,-0.038318
20.929999999999996,-0.029796,-0.044062,-0.033251
20.94000000000001,-0.011678,-0.05293,-0.036759
20.950000000000003,-0.009616,-0.042099,-0.027459
20.959999999999997,0.008983,-0.020321,-0.030598
20.970000000000013,0.031999,-0.012949,-0.024711
20.980000000000004,0.058662,-0.010989,-0.008801
20.989999999999995,0.073388,-0.003665,-0.011251
21.00000000000001,0.094379,-0.010727,-0.001914
21.010000000000005,0.115663,0.001148,0.007661
21.02,0.10995,-0.012362,0.006529
21.030000000000012,0.121104,-0.006883,0.021367
21.040000000000006,0.113895,-0.000596,0.024088
21.05,0.099504,0.010106,0.034985
21.060000000000016,0.097523,0.001986,0.032114
21.070000000000007,0.084141,0.021717,0.035828
21.08,0.05923,0.008024,0.034415
21.090000000000018,0.042795,0.012429,0.027861
21.10000000000001,0.022768,0.019531,0.023116
21.11,0.018974,0.008703,0.026595
21.12000000000002,0.018974,0.010529,0.021137
21.13000000000001,0.033532,0.01064,0.010375
21.14,0.033488,0.006123,0.013982
21.14999999999999,0.022613,0.005122,0.030266
21.16000000000001,0.018019,0.005084,0.02837
21.17,0.031451,-0.007421,0.017435
21.179999999999996,0.042452,0.003505,-0.00055
21.19000000000001,0.044243,-8.1e-05,0.00126
21.200000000000003,0.034945,-0.004614,-0.0117
21.209999999999997,0.040369,-0.016314,0.002851
21.220000000000013,0.051362,-0.013542,-0.002451
21.230000000000004,0.042964,-0.021707,-0.009046
21.239999999999995,0.041902,-0.040667,0.011725
21.25000000000001,0.046447,-0.045152,0.019042
21.260000000000005,0.056716,-0.027053,0.011183
21.27,0.049274,-0.032509,0.006456
21.280000000000012,0.051213,-0.027989,0.012936
21.290000000000006,0.033115,-0.01276,0.006493
21.3,0.055177,-0.01173,0.019588
21.310000000000016,0.067901,-0.010696,0.005159
21.320000000000007,0.055197,-0.003565,0.002334
21.33,0.058869,-0.008945,0.016036
21.340000000000018,0.058541,-0.026956,0.010338
21.35000000000001,0.057723,-0.021551,0.01314
21.36,0.036686,-0.026212,0.022851
21.37000000000002,0.039492,-0.018077,0.01568
21.38000000000001,0.035152,-0.011837,0.034875
21.39,0.035111,-0.007302,0.02032
21.39999999999999,0.020393,-0.01098,0.016434
21.41000000000001,0.018439,-0.021812,0.022669
21.42,-0.000211,-0.037237,0.005784
21.429999999999996,-0.00931,-0.038229,0.014779
21.44000000000001,-0.034256,-0.045589,-0.004824
21.450000000000003,-0.071736,-0.044042,-0.006222
21.459999999999997,-0.088028,-0.038768,0.00641
21.470000000000013,-0.110046,-0.04249,0.004249
21.480000000000004,-0.097521,-0.056812,-0.004906
21.489999999999995,-0.102703,-0.038817,-0.002943
21.50000000000001,-0.110106,-0.042455,-0.008584
21.510000000000005,-0.101094,-0.055926,0.000498
21.52,-0.094103,-0.063963,-0.028748
21.530000000000012,-0.075848,-0.062942,-0.035804
21.540000000000006,-0.068624,-0.074654,-0.023066
21.55,-0.066859,-0.071936,-0.037629
21.560000000000016,-0.050162,-0.058327,-0.033593
21.570000000000007,-0.005469,-0.058016,-0.049438
21.58,0.006418,-0.057951,-0.050199
21.590000000000018,0.013813,-0.057942,-0.039141
21.60000000000001,0.044991,-0.051455,-0.041397
21.61,0.045683,-0.065873,-0.041559
21.62000000000002,0.053976,-0.066741,-0.031407
21.63000000000001,0.075395,-0.047697,-0.019017
21.64,0.096168,-0.057454,-0.033471
21.64999999999999,0.097775,-0.071874,-0.033625
21.66000000000001,0.10889,-0.064604,-0.029731
21.67,0.114514,-0.054672,-0.032277
21.679999999999996,0.121971,-0.043797,-0.034774
21.69000000000001,0.116475,-0.040194,-0.04209
21.700000000000003,0.105765,-0.026753,-0.033842
21.709999999999997,0.105281,-0.050154,-0.050567
21.720000000000013,0.091164,-0.03048,-0.022206
21.730000000000004,0.079733,-0.055775,-0.031794
21.739999999999995,0.056252,-0.041556,-0.022807
21.75000000000001,0.043422,-0.039832,-0.030258
21.760000000000005,0.025111,-0.043554,-0.025054
21.77,0.012372,-0.041829,-0.01972
21.780000000000012,0.005078,-0.040948,-0.017976
21.790000000000006,-0.00933,-0.022105,-0.027083
21.8,-0.019412,-0.026687,-0.019966
21.810000000000016,-0.016723,-0.036611,-0.006354
21.820000000000007,-0.029415,-0.027679,-0.010993
21.83,-0.051512,-0.035008,-0.01685
21.840000000000018,-0.038563,-0.024085,-0.020204
21.85000000000001,-0.022039,-0.020363,-0.019936
21.86,-0.014558,-0.016736,-0.005179
21.87000000000002,0.001643,-0.020194,-0.032407
21.88000000000001,0.003708,-0.016645,-0.006766
21.89,0.008841,-0.03735,-0.010606
21.89999999999999,0.01106,-0.01934,0.006074
21.91000000000001,0.002432,-0.03466,-0.016151
21.92,0.00625,-0.030144,-0.005095
21.929999999999996,0.005281,-0.032825,-0.006957
21.94000000000001,0.018178,-0.020099,-0.021242
21.950000000000003,0.030879,-0.025431,-0.023878
21.959999999999997,0.029015,-0.025432,-0.028465
21.970000000000013,0.028428,-0.00833,-0.020049
21.980000000000004,0.031929,-0.02182,-0.012854
21.989999999999995,0.031251,-0.005606,-0.015408
22.00000000000001,0.042069,-0.023585,0.000962
22.010000000000005,0.040241,-0.019982,-0.006325
22.02,0.053003,-0.023505,-0.004368
22.030000000000012,0.0731,-0.017948,-0.018648
22.040000000000006,0.07131,-0.021587,-0.005011
22.05,0.079025,0.005483,-0.007331
22.060000000000016,0.065369,0.003559,0.005248
22.070000000000007,0.069836,-0.00363,0.005216
22.08,0.057018,-0.015452,0.026825
22.090000000000018,0.062549,-0.016308,0.035122
22.10000000000001,0.042293,-0.014603,0.012044
22.11,0.065036,-0.025273,0.019535
22.12000000000002,0.076931,-0.02701,0.025155
22.13000000000001,0.080811,-0.014383,0.029927
22.14,0.064163,-0.018985,0.014124
22.14999999999999,0.076281,-0.00361,0.012646
22.16000000000001,0.071755,-0.010885,0.034421
22.17,0.073368,-0.022546,0.028834
22.179999999999996,0.084461,-0.010705,0.019998
22.19000000000001,0.07349,-0.016172,0.032584
22.200000000000003,0.086328,-0.013383,0.031881
22.209999999999997,0.084617,-0.001677,0.023783
22.220000000000013,0.062541,-0.01627,0.037937
22.230000000000004,0.06284,-0.003685,0.052712
22.239999999999995,0.059166,-0.001883,0.047211
22.25000000000001,0.06558,0.001797,0.04095
22.260000000000005,0.051724,-0.007279,0.03974
22.27,0.048291,0.003519,0.047135
22.280000000000012,0.035111,-0.016359,0.037599
22.290000000000006,0.035429,0.005281,0.036042
22.3,0.049992,0.006284,0.025287
22.310000000000016,0.029768,-0.00198,0.028579
22.320000000000007,0.022609,-0.000275,0.046773
22.33,0.032741,0.005208,0.04515
22.340000000000018,0.015224,-0.00573,0.048437
22.35000000000001,0.007118,0.005933,0.040241
22.36,0.000365,-0.01846,0.044422
22.37000000000002,-0.001718,-0.029285,0.033296
22.38000000000001,-0.007006,-0.013094,0.02611
22.39,-0.007283,-0.029308,0.022257
22.39999999999999,0.007219,-0.030983,0.007813
22.41000000000001,-0.011847,-0.022073,0.007675
22.42,8.6e-05,-0.016579,0.00241
22.429999999999996,0.001637,-0.030978,-0.005051
22.44000000000001,0.012764,-0.021912,-0.002976
22.450000000000003,0.016338,-0.027299,-0.002996
22.459999999999997,0.005233,-0.030955,-0.014146
22.470000000000013,0.003364,-0.034571,-0.01239
22.480000000000004,-0.002311,-0.04361,-0.019887
22.489999999999995,0.018056,-0.027257,-0.021252
22.50000000000001,-0.000209,-0.031009,-0.010583
22.510000000000005,-0.009373,-0.032887,-0.008895
22.52,0.008831,-0.037279,-0.010534
22.530000000000012,0.005172,-0.033683,-0.017841
22.540000000000006,0.001493,-0.034603,-0.019727
22.55,0.013346,-0.036318,-0.021416
22.560000000000016,0.035521,-0.025368,-0.013685
22.570000000000007,0.043885,-0.015396,-0.017107
22.58,0.060112,-0.02699,-0.024338
22.590000000000018,0.043602,-0.034326,-0.015512
22.60000000000001,0.034477,-0.032567,-0.015599
22.61,0.036526,-0.019937,-0.011764
22.62000000000002,0.051002,-0.028834,-0.012581
22.63000000000001,0.036487,-0.019905,-0.016315
22.64,0.025647,-0.010961,-0.017265
22.64999999999999,0.029066,-0.023538,-0.022851
22.66000000000001,0.036328,-0.023467,-0.030058
22.67,0.028176,-0.026238,-0.013754
22.679999999999996,0.036073,-0.041475,-0.026618
22.69000000000001,0.017095,-0.029886,-0.02033
22.700000000000003,0.015989,-0.036184,-0.032287
22.709999999999997,0.011631,-0.02904,-0.01764
22.720000000000013,0.014325,-0.030825,-0.020356
22.730000000000004,0.005314,-0.026422,-0.012209
22.739999999999995,0.001729,-0.020148,-0.015841
22.75000000000001,-0.010937,-0.023878,0.009513
22.760000000000005,-0.011256,-0.041876,0.003805
22.77,-0.034182,-0.052841,0.01798
22.780000000000012,-0.030341,-0.038369,0.012722
22.790000000000006,-0.045835,-0.033064,0.008919
22.8,-0.036534,-0.022206,0.007337
22.810000000000016,-0.069837,-0.038617,-0.011574
22.820000000000007,-0.05501,-0.038583,0.014193
22.83,-0.056881,-0.034977,-0.000399
22.840000000000018,-0.059452,-0.027827,0.006953
22.85000000000001,-0.036718,-0.036718,0.008971
22.86,-0.049449,-0.03412,0.014324
22.87000000000002,-0.031003,-0.027717,0.023781
22.88000000000001,-0.040051,-0.022362,0.026464
22.89,-0.018185,-0.02037,0.01125
22.89999999999999,-0.009065,-0.020277,0.007723
22.91000000000001,0.005757,-0.016597,0.026232
22.92,0.005669,-0.019288,0.020716
22.929999999999996,0.0075,-0.012975,0.008021
