time,Gyr_X,Gyr_Y,Gyr_Z
0.0,0.0117181405978899,-0.0010646508437165,-0.0063913957208032
0.0034999999999953,0.0095870935812048,-0.002131047016685,-0.002131047016685
0.0069999999999978,0.0095870935812048,-0.0042603487041181,-0.0042603487041181
0.0105000000000003,0.0095870935812048,-0.0053267448770866,-0.0063913957208032
0.0139999999999957,0.0117181405978899,-0.0053267448770866,-0.0042603487041181
0.0174999999999982,0.0117181405978899,-0.0063913957208032,-0.0010646508437165
0.0210000000000007,0.0095870935812048,-0.0042603487041181,-0.0031956978604016
0.0244999999999961,0.0095870935812048,-0.002131047016685,-0.0042603487041181
0.0279999999999986,0.0095870935812048,-0.002131047016685,-0.0053267448770866
0.0315000000000011,0.0074577918937717,-0.0010646508437165,-0.002131047016685
0.0349999999999965,0.0106534897541733,-0.002131047016685,0.0
0.038499999999999,0.0085224427374883,-0.0053267448770866,-0.0063913957208032
0.0419999999999944,0.0106534897541733,-0.002131047016685,0.0
0.0454999999999969,0.0106534897541733,-0.0085224427374883,-0.002131047016685
0.0489999999999994,0.0085224427374883,0.0,-0.0053267448770866
0.0524999999999948,0.0117181405978899,-0.0053267448770866,-0.0042603487041181
0.0559999999999973,0.0074577918937717,-0.0031956978604016,-0.0031956978604016
0.0594999999999998,0.0117181405978899,-0.0042603487041181,-0.0042603487041181
0.0629999999999952,0.0085224427374883,0.0,-0.002131047016685
0.0664999999999977,0.0095870935812048,-0.0042603487041181,-0.0031956978604016
0.0700000000000002,0.0063913957208032,-0.0031956978604016,-0.0042603487041181
0.0734999999999956,0.0085224427374883,-0.002131047016685,-0.0117181405978899
0.0769999999999981,0.0042603487041181,-0.0063913957208032,-0.0074577918937717
0.0805000000000006,0.0031956978604016,-0.0042603487041181,-0.0053267448770866
0.083999999999996,0.0063913957208032,-0.0010646508437165,-0.0063913957208032
0.0874999999999985,0.0085224427374883,-0.0042603487041181,-0.0053267448770866
0.091000000000001,0.0063913957208032,-0.0031956978604016,-0.0074577918937717
0.0944999999999964,0.0063913957208032,-0.0031956978604016,-0.0031956978604016
0.0979999999999989,0.0095870935812048,-0.0042603487041181,-0.0063913957208032
0.1014999999999943,0.0106534897541733,-0.0042603487041181,-0.0031956978604016
0.1049999999999968,0.0106534897541733,-0.0031956978604016,-0.0031956978604016
0.1084999999999993,0.0095870935812048,-0.0010646508437165,-0.0053267448770866
0.1119999999999947,0.0106534897541733,0.0,-0.0010646508437165
0.1154999999999972,0.0127827914416064,-0.002131047016685,-0.0053267448770866
0.1189999999999997,0.0074577918937717,-0.0042603487041181,-0.0053267448770866
0.1224999999999951,0.0074577918937717,-0.0031956978604016,-0.0031956978604016
0.1259999999999976,0.0063913957208032,-0.0042603487041181,-0.002131047016685
0.1295000000000001,0.0106534897541733,-0.0031956978604016,-0.0053267448770866
0.1329999999999955,0.0074577918937717,-0.0031956978604016,-0.0042603487041181
0.136499999999998,0.0074577918937717,-0.0042603487041181,-0.0010646508437165
0.1400000000000005,0.0127827914416064,-0.0010646508437165,-0.002131047016685
0.1434999999999959,0.0042603487041181,-0.0010646508437165,-0.002131047016685
0.1469999999999984,0.0117181405978899,-0.0031956978604016,-0.0053267448770866
0.1505000000000009,0.0117181405978899,-0.0031956978604016,-0.0042603487041181
0.1539999999999963,0.0127827914416064,-0.0031956978604016,-0.002131047016685
0.1574999999999988,0.0085224427374883,-0.0042603487041181,-0.0053267448770866
0.1610000000000013,0.0074577918937717,-0.002131047016685,0.0
0.1644999999999967,0.0085224427374883,-0.0031956978604016,-0.0085224427374883
0.1679999999999992,0.0063913957208032,-0.002131047016685,-0.0063913957208032
0.1714999999999946,0.0085224427374883,-0.0053267448770866,-0.0053267448770866
0.1749999999999971,0.0053267448770866,-0.0031956978604016,-0.0042603487041181
0.1784999999999996,0.0074577918937717,-0.0042603487041181,-0.0063913957208032
0.181999999999995,0.0085224427374883,-0.0042603487041181,-0.0063913957208032
0.1854999999999975,0.0085224427374883,-0.0010646508437165,-0.0074577918937717
0.189,0.0074577918937717,-0.0042603487041181,-0.0042603487041181
0.1924999999999954,0.0106534897541733,-0.0042603487041181,-0.0063913957208032
0.1959999999999979,0.0095870935812048,-0.0010646508437165,-0.0042603487041181
0.1995000000000004,0.0106534897541733,-0.0053267448770866,-0.0063913957208032
0.2029999999999958,0.0095870935812048,0.0,-0.0053267448770866
0.2064999999999983,0.0063913957208032,-0.0031956978604016,-0.002131047016685
0.2100000000000008,0.0063913957208032,-0.0010646508437165,-0.0042603487041181
0.2134999999999962,0.0074577918937717,-0.0063913957208032,-0.0074577918937717
0.2169999999999987,0.0063913957208032,-0.002131047016685,-0.002131047016685
0.2205000000000012,0.0074577918937717,-0.0042603487041181,-0.0074577918937717
0.2239999999999966,0.0085224427374883,-0.0053267448770866,-0.0031956978604016
0.2274999999999991,0.0074577918937717,-0.0053267448770866,-0.0042603487041181
0.2309999999999945,0.0095870935812048,-0.0053267448770866,-0.0042603487041181
0.234499999999997,0.0117181405978899,-0.0042603487041181,-0.0063913957208032
0.2379999999999995,0.0074577918937717,-0.002131047016685,-0.0053267448770866
0.2414999999999949,0.0095870935812048,-0.0063913957208032,-0.0010646508437165
0.2449999999999974,0.0095870935812048,-0.0042603487041181,-0.0031956978604016
0.2484999999999999,0.0085224427374883,-0.0042603487041181,-0.0031956978604016
0.2519999999999953,0.0085224427374883,-0.002131047016685,-0.002131047016685
0.2554999999999978,0.0095870935812048,-0.002131047016685,0.0
0.2590000000000003,0.0074577918937717,-0.0042603487041181,-0.0042603487041181
0.2624999999999957,0.0074577918937717,-0.002131047016685,-0.0042603487041181
0.2659999999999982,0.0074577918937717,-0.0031956978604016,-0.0031956978604016
0.2695000000000007,0.0074577918937717,-0.0031956978604016,-0.0053267448770866
0.2729999999999961,0.0095870935812048,-0.002131047016685,-0.0042603487041181
0.2764999999999986,0.0074577918937717,-0.0042603487041181,-0.0042603487041181
0.2800000000000011,0.0074577918937717,0.0,-0.0042603487041181
0.2834999999999965,0.0074577918937717,-0.0063913957208032,-0.0053267448770866
0.286999999999999,0.0085224427374883,-0.0031956978604016,-0.0063913957208032
0.2904999999999944,0.0063913957208032,-0.0053267448770866,-0.0053267448770866
0.2939999999999969,0.0063913957208032,-0.0053267448770866,-0.0085224427374883
0.2974999999999994,0.0063913957208032,-0.0053267448770866,-0.0053267448770866
0.3009999999999948,0.0053267448770866,-0.0010646508437165,-0.0053267448770866
0.3044999999999973,0.0085224427374883,-0.002131047016685,-0.0042603487041181
0.3079999999999998,0.0074577918937717,-0.002131047016685,-0.0053267448770866
0.3114999999999952,0.0095870935812048,-0.0042603487041181,-0.0074577918937717
0.3149999999999977,0.0074577918937717,0.0,-0.0053267448770866
0.3185000000000002,0.0117181405978899,-0.0010646508437165,-0.0074577918937717
0.3219999999999956,0.0085224427374883,-0.002131047016685,-0.0063913957208032
0.3254999999999981,0.0074577918937717,-0.0063913957208032,-0.0031956978604016
0.3290000000000006,0.0074577918937717,-0.0042603487041181,-0.002131047016685
0.332499999999996,0.0106534897541733,-0.0042603487041181,-0.0031956978604016
0.3359999999999985,0.0106534897541733,-0.002131047016685,-0.0042603487041181
0.339500000000001,0.0117181405978899,-0.0042603487041181,-0.002131047016685
0.3429999999999964,0.0085224427374883,-0.002131047016685,-0.0053267448770866
0.3464999999999989,0.0095870935812048,-0.0031956978604016,-0.0042603487041181
0.3499999999999943,0.0106534897541733,-0.0031956978604016,-0.0042603487041181
0.3534999999999968,0.0127827914416064,-0.0031956978604016,-0.0010646508437165
0.3569999999999993,0.0063913957208032,-0.0042603487041181,-0.0042603487041181
0.3604999999999947,0.0095870935812048,-0.0053267448770866,-0.0053267448770866
0.3639999999999972,0.0106534897541733,-0.0053267448770866,-0.0074577918937717
0.3674999999999997,0.0095870935812048,-0.0031956978604016,-0.0053267448770866
0.3709999999999951,0.0063913957208032,-0.0031956978604016,-0.0053267448770866
0.3744999999999976,0.0106534897541733,-0.0042603487041181,-0.0042603487041181
0.3780000000000001,0.0063913957208032,-0.0031956978604016,-0.0031956978604016
0.3814999999999955,0.0074577918937717,-0.0053267448770866,-0.0053267448770866
0.384999999999998,0.0074577918937717,-0.0031956978604016,-0.0042603487041181
0.3885000000000005,0.0063913957208032,-0.002131047016685,-0.0042603487041181
0.3919999999999959,0.0053267448770866,-0.0053267448770866,-0.0053267448770866
0.3954999999999984,0.0106534897541733,-0.0010646508437165,-0.0042603487041181
0.3990000000000009,0.0095870935812048,-0.0063913957208032,-0.0053267448770866
0.4024999999999963,0.0053267448770866,-0.0053267448770866,-0.0063913957208032
0.4059999999999988,0.0074577918937717,-0.0031956978604016,-0.0053267448770866
0.4095000000000013,0.0074577918937717,-0.002131047016685,-0.0042603487041181
0.4129999999999967,0.0074577918937717,-0.0053267448770866,-0.002131047016685
0.4164999999999992,0.0085224427374883,-0.0031956978604016,-0.0042603487041181
0.4199999999999946,0.0074577918937717,-0.002131047016685,-0.0042603487041181
0.4234999999999971,0.0074577918937717,-0.0031956978604016,-0.0042603487041181
0.4269999999999996,0.0095870935812048,-0.0053267448770866,-0.0042603487041181
0.430499999999995,0.0085224427374883,-0.0031956978604016,-0.0042603487041181
0.4339999999999975,0.0085224427374883,-0.0031956978604016,-0.0031956978604016
0.4375,0.0117181405978899,-0.002131047016685,-0.002131047016685
0.4409999999999954,0.0063913957208032,-0.002131047016685,-0.0063913957208032
0.4444999999999979,0.0085224427374883,-0.0042603487041181,-0.0010646508437165
0.4480000000000004,0.0053267448770866,0.0,0.0
0.4514999999999958,0.0074577918937717,-0.0010646508437165,-0.0063913957208032
0.4549999999999983,0.0117181405978899,-0.0031956978604016,0.0
0.4585000000000008,0.0106534897541733,-0.002131047016685,-0.0063913957208032
0.4619999999999962,0.0085224427374883,-0.0042603487041181,-0.002131047016685
0.4654999999999987,0.0095870935812048,-0.0053267448770866,-0.002131047016685
0.4690000000000012,0.0106534897541733,-0.0031956978604016,-0.0031956978604016
0.4724999999999966,0.0074577918937717,-0.0010646508437165,-0.0053267448770866
0.4759999999999991,0.0085224427374883,-0.0042603487041181,-0.0063913957208032
0.4794999999999945,0.0106534897541733,-0.0063913957208032,-0.0095870935812048
0.482999999999997,0.0106534897541733,-0.0053267448770866,-0.0042603487041181
0.4864999999999995,0.0095870935812048,-0.0042603487041181,-0.0063913957208032
0.4899999999999949,0.0085224427374883,-0.0042603487041181,-0.0042603487041181
0.4934999999999974,0.0085224427374883,-0.0031956978604016,-0.0063913957208032
0.4969999999999999,0.0053267448770866,0.0,-0.0074577918937717
0.5004999999999953,0.0085224427374883,-0.0042603487041181,-0.0031956978604016
0.5039999999999978,0.0085224427374883,-0.0042603487041181,-0.0031956978604016
0.5075000000000003,0.0085224427374883,-0.002131047016685,-0.0042603487041181
0.5109999999999957,0.0074577918937717,-0.002131047016685,-0.0063913957208032
0.5144999999999982,0.0085224427374883,-0.0031956978604016,-0.0042603487041181
0.5180000000000007,0.0106534897541733,-0.0031956978604016,-0.0053267448770866
0.5214999999999961,0.0117181405978899,-0.0031956978604016,-0.0042603487041181
0.5249999999999986,0.0085224427374883,-0.0042603487041181,-0.0053267448770866
0.5285000000000011,0.0085224427374883,-0.0042603487041181,-0.0042603487041181
0.5319999999999965,0.0095870935812048,-0.002131047016685,-0.0042603487041181
0.535499999999999,0.0074577918937717,-0.0063913957208032,-0.002131047016685
0.5389999999999944,0.0095870935812048,-0.0042603487041181,-0.0042603487041181
0.5424999999999969,0.0063913957208032,-0.0031956978604016,-0.0042603487041181
0.5459999999999994,0.0085224427374883,-0.0042603487041181,-0.0074577918937717
0.5494999999999948,0.0085224427374883,-0.0031956978604016,-0.0010646508437165
0.5529999999999973,0.0095870935812048,-0.0010646508437165,-0.0042603487041181
0.5564999999999998,0.0127827914416064,-0.0053267448770866,-0.0053267448770866
0.5599999999999952,0.0085224427374883,-0.0063913957208032,-0.0053267448770866
0.5634999999999977,0.0117181405978899,-0.0031956978604016,-0.0042603487041181
0.5670000000000002,0.0095870935812048,-0.0042603487041181,-0.0042603487041181
0.5704999999999956,0.0031956978604016,-0.0074577918937717,-0.0053267448770866
0.5739999999999981,0.0085224427374883,-0.0053267448770866,-0.0042603487041181
0.5775000000000006,0.0074577918937717,-0.002131047016685,-0.0031956978604016
0.580999999999996,0.0074577918937717,-0.0010646508437165,-0.002131047016685
0.5844999999999985,0.0117181405978899,-0.0042603487041181,-0.0031956978604016
0.588000000000001,0.0074577918937717,-0.0042603487041181,-0.0042603487041181
0.5914999999999964,0.0095870935812048,-0.0053267448770866,-0.0085224427374883
0.5949999999999989,0.0085224427374883,-0.002131047016685,-0.0042603487041181
0.5985000000000014,0.0095870935812048,-0.0042603487041181,-0.0053267448770866
0.6019999999999968,0.0063913957208032,-0.0031956978604016,-0.0063913957208032
0.6054999999999993,0.0074577918937717,-0.0031956978604016,-0.0074577918937717
0.6089999999999947,0.0095870935812048,-0.002131047016685,-0.0063913957208032
0.6124999999999972,0.0063913957208032,0.0,-0.0042603487041181
0.6159999999999997,0.0053267448770866,-0.0042603487041181,-0.0063913957208032
0.619499999999995,0.0085224427374883,-0.002131047016685,-0.002131047016685
0.6229999999999976,0.0085224427374883,-0.0074577918937717,-0.0053267448770866
0.6265000000000001,0.0127827914416064,-0.002131047016685,-0.0010646508437165
0.6299999999999955,0.0095870935812048,-0.0053267448770866,-0.0053267448770866
0.633499999999998,0.0063913957208032,-0.0031956978604016,-0.0053267448770866
0.6370000000000005,0.0031956978604016,-0.013849187614575,-0.002131047016685
0.6404999999999959,-0.002131047016685,-0.029827676916583,0.0
0.6439999999999984,0.0,-0.0426122136874415,-0.0085224427374883
0.6475000000000009,0.0010646508437165,-0.0383501196540714,-0.0085224427374883
0.6509999999999962,0.0010646508437165,-0.0170448854749766,-0.0085224427374883
0.6544999999999987,0.0063913957208032,0.0074577918937717,-0.0085224427374883
0.6580000000000013,0.0106534897541733,0.0436768645311581,0.0
0.6614999999999966,0.0202405833353782,0.0585907029894496,0.0063913957208032
0.6649999999999991,0.0287630260728665,0.0607217500061347,0.0
0.6684999999999945,0.0340897709499532,0.0436768645311581,-0.0053267448770866
0.671999999999997,0.0213052341790947,0.0,-0.0074577918937717
0.6754999999999995,0.0053267448770866,-0.0245026773687483,-0.0063913957208032
0.6789999999999949,-0.0191759324916617,-0.0447432607041266,-0.0010646508437165
0.6824999999999974,-0.0213052341790947,-0.0458079115478431,-0.0010646508437165
0.6859999999999999,-0.0074577918937717,-0.0458079115478431,-0.0074577918937717
0.6894999999999953,0.0106534897541733,-0.0255673282124649,-0.0095870935812048
0.6929999999999978,0.0234362811957798,-0.0042603487041181,-0.0074577918937717
0.6965000000000003,0.0245026773687483,0.0095870935812048,-0.002131047016685
0.6999999999999957,0.0223716303520633,0.0255673282124649,0.0010646508437165
0.7034999999999982,0.0181095363186931,0.0383501196540714,0.0010646508437165
0.7070000000000007,0.013849187614575,0.0319587239332681,-0.0042603487041181
0.7104999999999961,0.0074577918937717,0.0202405833353782,-0.0170448854749766
0.7139999999999986,0.0,-0.0074577918937717,-0.0234362811957798
0.7175000000000011,-0.0063913957208032,-0.02769837522915,-0.0031956978604016
0.7209999999999965,-0.013849187614575,-0.0436768645311581,0.02769837522915
0.724499999999999,-0.0095870935812048,-0.0330233747769847,0.0063913957208032
0.7279999999999944,0.0149138384582915,-0.0191759324916617,-0.0447432607041266
0.7314999999999969,0.0308940730895516,-0.0170448854749766,-0.0063913957208032
0.7349999999999994,0.0074577918937717,0.0031956978604016,0.0106534897541733
0.7384999999999948,0.0117181405978899,0.0191759324916617,-0.0287630260728665
0.7419999999999973,0.0106534897541733,0.0181095363186931,0.0234362811957798
0.7454999999999998,0.0,0.0170448854749766,-0.0106534897541733
0.7489999999999952,0.0330233747769847,0.0095870935812048,0.013849187614575
0.7524999999999977,0.0031956978604016,0.0042603487041181,-0.013849187614575
0.7560000000000002,0.0213052341790947,-0.0170448854749766,0.002131047016685
0.7594999999999956,-0.02769837522915,-0.0085224427374883,-0.0053267448770866
0.7629999999999981,0.0074577918937717,-0.0266319790561814,0.0255673282124649
0.7665000000000006,-0.0330233747769847,-0.0181095363186931,-0.0127827914416064
0.769999999999996,0.0181095363186931,-0.0149138384582915,0.0181095363186931
0.7734999999999985,0.0074577918937717,-0.002131047016685,-0.0436768645311581
0.777000000000001,0.0042603487041181,0.0074577918937717,0.0095870935812048
0.7804999999999964,0.041545817514473,0.0085224427374883,-0.0074577918937717
0.7839999999999989,-0.0042603487041181,0.0063913957208032,-0.0255673282124649
0.7874999999999943,0.02769837522915,0.0085224427374883,0.0202405833353782
0.7909999999999968,0.0351544217936697,-0.0063913957208032,-0.0202405833353782
0.7944999999999993,-0.01598023463126,-0.0010646508437165,-0.002131047016685
0.7979999999999947,0.0106534897541733,-0.0085224427374883,0.0191759324916617
0.8014999999999972,0.0031956978604016,-0.0181095363186931,-0.0319587239332681
0.8049999999999997,-0.0340897709499532,-0.01598023463126,-0.0191759324916617
0.8084999999999951,0.0181095363186931,-0.0095870935812048,0.0245026773687483
0.8119999999999976,0.0383501196540714,-0.0085224427374883,-0.0117181405978899
0.8155000000000001,-0.01598023463126,0.0,-0.0245026773687483
0.8189999999999955,-0.0085224427374883,0.0095870935812048,0.0074577918937717
0.822499999999998,0.0468725623915597,0.0042603487041181,-0.0010646508437165
0.8260000000000005,0.0202405833353782,-0.002131047016685,-0.0202405833353782
0.8294999999999959,-0.0181095363186931,0.0063913957208032,-0.0042603487041181
0.8329999999999984,0.002131047016685,0.0053267448770866,0.0149138384582915
0.8365000000000009,0.0436768645311581,-0.013849187614575,-0.0063913957208032
0.8399999999999963,0.0181095363186931,-0.0181095363186931,-0.0266319790561814
0.8434999999999988,-0.0255673282124649,-0.0063913957208032,-0.0031956978604016
0.8470000000000013,-0.0053267448770866,-0.0010646508437165,0.0149138384582915
0.8504999999999967,0.0351544217936697,-0.0127827914416064,0.0010646508437165
0.8539999999999992,0.0202405833353782,-0.0074577918937717,-0.0223716303520633
0.8574999999999946,-0.0234362811957798,0.0042603487041181,-0.01598023463126
0.8609999999999971,-0.0127827914416064,0.0127827914416064,0.0063913957208032
0.8644999999999996,0.0426122136874415,0.0063913957208032,0.0149138384582915
0.867999999999995,0.0426122136874415,-0.0010646508437165,0.0
0.8714999999999975,-0.0117181405978899,-0.0085224427374883,-0.0287630260728665
0.875,-0.0223716303520633,-0.0074577918937717,-0.0234362811957798
0.8784999999999954,-0.01598023463126,-0.0106534897541733,-0.0031956978604016
0.8819999999999979,0.0340897709499532,-0.0053267448770866,0.0191759324916617
0.8855000000000004,0.0202405833353782,-0.0181095363186931,-0.0234362811957798
0.8889999999999958,0.0010646508437165,-0.0127827914416064,-0.0330233747769847
0.8924999999999983,-0.0266319790561814,0.0042603487041181,-0.0010646508437165
0.8960000000000008,-0.0085224427374883,0.0085224427374883,0.0095870935812048
0.8994999999999962,0.0436768645311581,0.0053267448770866,0.0106534897541733
0.9029999999999988,0.041545817514473,-0.0010646508437165,-0.0042603487041181
0.9065000000000012,-0.013849187614575,-0.0085224427374883,-0.0330233747769847
0.9099999999999966,-0.0255673282124649,-0.0042603487041181,-0.0245026773687483
0.9134999999999992,0.0042603487041181,0.0074577918937717,0.0223716303520633
0.9169999999999944,0.0191759324916617,0.0031956978604016,0.01598023463126
0.920499999999997,0.041545817514473,-0.0181095363186931,-0.01598023463126
0.9239999999999996,0.0255673282124649,-0.0213052341790947,-0.0170448854749766
0.9274999999999948,-0.0234362811957798,-0.0117181405978899,-0.0245026773687483
0.9309999999999974,-0.0245026773687483,-0.0063913957208032,-0.013849187614575
0.9345,0.0234362811957798,0.0095870935812048,0.0213052341790947
0.9379999999999952,0.0362208179666383,0.0106534897541733,0.0213052341790947
0.9414999999999978,0.0319587239332681,-0.0106534897541733,-0.0191759324916617
0.9450000000000004,0.01598023463126,-0.0149138384582915,-0.0266319790561814
0.9484999999999956,-0.029827676916583,0.0010646508437165,-0.0127827914416064
0.9519999999999982,-0.02769837522915,0.0031956978604016,-0.0063913957208032
0.9555000000000008,0.02769837522915,0.0074577918937717,0.0213052341790947
0.958999999999996,0.0383501196540714,0.0,0.0181095363186931
0.9624999999999986,0.0202405833353782,-0.0181095363186931,-0.0223716303520633
0.9660000000000012,0.0127827914416064,-0.0202405833353782,-0.0245026773687483
0.9694999999999964,-0.0234362811957798,-0.0031956978604016,-0.0106534897541733
0.972999999999999,-0.0202405833353782,0.0053267448770866,-0.0042603487041181
0.9764999999999944,0.0372854688103548,0.0085224427374883,0.0245026773687483
0.9799999999999968,0.0394165158270399,0.0085224427374883,0.0170448854749766
0.9834999999999994,0.0426122136874415,0.002131047016685,0.0117181405978899
0.9869999999999948,0.0117181405978899,-0.0170448854749766,-0.0255673282124649
0.9904999999999972,0.0,-0.0149138384582915,-0.0308940730895516
0.9939999999999998,-0.029827676916583,0.0031956978604016,-0.0074577918937717
0.9974999999999952,-0.0223716303520633,0.0010646508437165,-0.0010646508437165
1.0009999999999977,0.0362208179666383,0.0031956978604016,0.0213052341790947
1.0045000000000002,0.0372854688103548,0.002131047016685,0.0170448854749766
1.0079999999999956,0.0127827914416064,-0.0191759324916617,-0.0245026773687483
1.011499999999998,0.0063913957208032,-0.0170448854749766,-0.029827676916583
1.0150000000000006,-0.0255673282124649,0.002131047016685,-0.0095870935812048
1.018499999999996,-0.0170448854749766,0.0063913957208032,-0.0010646508437165
1.0219999999999985,0.0372854688103548,0.0085224427374883,0.0191759324916617
1.025500000000001,0.0447432607041266,0.0095870935812048,0.0181095363186931
1.0289999999999964,0.0245026773687483,-0.0149138384582915,-0.0255673282124649
1.0324999999999989,0.0085224427374883,-0.0223716303520633,-0.0255673282124649
1.0360000000000014,-0.02769837522915,-0.0010646508437165,-0.0149138384582915
1.0394999999999968,-0.0234362811957798,-0.0010646508437165,-0.0042603487041181
1.0429999999999993,0.0266319790561814,0.0063913957208032,0.0213052341790947
1.0464999999999949,0.0351544217936697,0.0063913957208032,0.0213052341790947
1.0499999999999972,0.0245026773687483,-0.0170448854749766,-0.0202405833353782
1.0534999999999997,0.01598023463126,-0.0181095363186931,-0.0234362811957798
1.056999999999995,-0.0245026773687483,-0.0031956978604016,-0.0170448854749766
1.0604999999999976,-0.0223716303520633,0.0,-0.0127827914416064
1.064,0.0266319790561814,0.0117181405978899,0.0223716303520633
1.0674999999999957,0.0319587239332681,0.0085224427374883,0.0202405833353782
1.070999999999998,0.0340897709499532,-0.0181095363186931,-0.0149138384582915
1.0745000000000005,0.0213052341790947,-0.0191759324916617,-0.0213052341790947
1.077999999999996,-0.0245026773687483,-0.0106534897541733,-0.0223716303520633
1.0814999999999984,-0.0287630260728665,-0.002131047016685,-0.0181095363186931
1.0850000000000009,0.0181095363186931,0.0127827914416064,0.0202405833353782
1.0884999999999962,0.0202405833353782,0.0074577918937717,0.0202405833353782
1.0919999999999987,0.0362208179666383,-0.0095870935812048,-0.0095870935812048
1.0955000000000013,0.0287630260728665,-0.013849187614575,-0.0127827914416064
1.0989999999999966,-0.0213052341790947,-0.0074577918937717,-0.0287630260728665
1.1024999999999991,-0.0223716303520633,-0.0095870935812048,-0.0202405833353782
1.1059999999999943,0.0063913957208032,0.013849187614575,0.0181095363186931
1.109499999999997,0.013849187614575,0.013849187614575,0.0191759324916617
1.1129999999999995,0.0394165158270399,-0.0063913957208032,-0.002131047016685
1.116499999999995,0.0394165158270399,-0.0085224427374883,-0.0085224427374883
1.1199999999999974,-0.0149138384582915,-0.0202405833353782,-0.029827676916583
1.1235,-0.0213052341790947,-0.0149138384582915,-0.0266319790561814
1.1269999999999951,-0.0031956978604016,0.0127827914416064,0.0117181405978899
1.1304999999999978,0.0053267448770866,0.013849187614575,0.013849187614575
1.1340000000000003,0.0436768645311581,0.0,0.0053267448770866
1.1374999999999955,0.0394165158270399,-0.0063913957208032,0.0
1.1409999999999982,-0.0063913957208032,-0.0191759324916617,-0.0319587239332681
1.1445000000000007,-0.013849187614575,-0.0191759324916617,-0.0287630260728665
1.147999999999996,-0.0117181405978899,0.0063913957208032,0.002131047016685
1.1514999999999986,-0.002131047016685,0.0095870935812048,0.0074577918937717
1.1550000000000011,0.0426122136874415,0.0,0.013849187614575
1.1584999999999963,0.0426122136874415,-0.0053267448770866,0.0095870935812048
1.161999999999999,0.0053267448770866,-0.0234362811957798,-0.0287630260728665
1.1654999999999944,-0.002131047016685,-0.0213052341790947,-0.02769837522915
1.168999999999997,-0.0191759324916617,0.0031956978604016,-0.0053267448770866
1.1724999999999994,-0.0170448854749766,0.0095870935812048,0.002131047016685
1.1759999999999948,0.0351544217936697,0.0053267448770866,0.0181095363186931
1.179499999999997,0.0404811666707564,0.0010646508437165,0.0191759324916617
1.1829999999999998,0.0170448854749766,-0.0213052341790947,-0.0234362811957798
1.1864999999999952,0.0053267448770866,-0.0213052341790947,-0.02769837522915
1.1899999999999975,-0.0266319790561814,0.0,-0.0149138384582915
1.1935000000000002,-0.0223716303520633,0.002131047016685,-0.0063913957208032
1.1969999999999956,0.02769837522915,0.0095870935812048,0.0255673282124649
1.200499999999998,0.0351544217936697,0.0031956978604016,0.0127827914416064
1.2040000000000006,0.0266319790561814,-0.0191759324916617,-0.0191759324916617
1.207499999999996,0.0213052341790947,-0.0191759324916617,-0.0223716303520633
1.2109999999999983,-0.0266319790561814,-0.0085224427374883,-0.0234362811957798
1.214500000000001,-0.0234362811957798,-0.0042603487041181,-0.0181095363186931
1.2179999999999964,0.0181095363186931,0.0149138384582915,0.0170448854749766
1.221499999999999,0.0255673282124649,0.013849187614575,0.0202405833353782
1.2249999999999943,0.0362208179666383,-0.0170448854749766,-0.0063913957208032
1.2284999999999968,0.0319587239332681,-0.013849187614575,-0.0117181405978899
1.231999999999999,-0.0213052341790947,-0.013849187614575,-0.0255673282124649
1.2354999999999947,-0.029827676916583,-0.0085224427374883,-0.0245026773687483
1.2389999999999972,0.0063913957208032,0.0149138384582915,0.0170448854749766
1.2424999999999995,0.0106534897541733,0.01598023463126,0.0181095363186931
1.2459999999999951,0.0436768645311581,-0.0042603487041181,0.002131047016685
1.2494999999999976,0.0436768645311581,-0.0106534897541733,0.0
1.253,-0.0106534897541733,-0.0181095363186931,-0.0308940730895516
1.2564999999999955,-0.0170448854749766,-0.013849187614575,-0.0287630260728665
1.259999999999998,-0.0063913957208032,0.0095870935812048,0.0085224427374883
1.2635000000000003,-0.0010646508437165,0.0117181405978899,0.0127827914416064
1.266999999999996,0.0436768645311581,0.002131047016685,0.0106534897541733
1.2704999999999984,0.041545817514473,-0.0042603487041181,0.0063913957208032
1.274000000000001,0.0010646508437165,-0.0223716303520633,-0.0287630260728665
1.2774999999999963,-0.0085224427374883,-0.0191759324916617,-0.0308940730895516
1.2809999999999988,-0.0234362811957798,0.0063913957208032,-0.0010646508437165
1.2845000000000013,-0.0149138384582915,0.0074577918937717,0.0031956978604016
1.2879999999999967,0.041545817514473,0.0074577918937717,0.0202405833353782
1.2914999999999992,0.041545817514473,0.0053267448770866,0.0127827914416064
1.2949999999999946,0.0149138384582915,-0.0213052341790947,-0.0234362811957798
1.298499999999997,0.0085224427374883,-0.0234362811957798,-0.0287630260728665
1.3019999999999996,-0.0223716303520633,-0.002131047016685,-0.0095870935812048
1.305499999999995,-0.0213052341790947,0.002131047016685,-0.0074577918937717
1.3089999999999975,0.0287630260728665,0.0127827914416064,0.0234362811957798
1.3125,0.0340897709499532,0.0085224427374883,0.0202405833353782
1.3159999999999954,0.02769837522915,-0.0202405833353782,-0.0170448854749766
1.319499999999998,0.0213052341790947,-0.0223716303520633,-0.0223716303520633
1.3230000000000004,-0.02769837522915,-0.0074577918937717,-0.0191759324916617
1.3264999999999958,-0.02769837522915,-0.0063913957208032,-0.0213052341790947
1.3299999999999983,0.0127827914416064,0.0170448854749766,0.0170448854749766
1.3335000000000008,0.0213052341790947,0.0127827914416064,0.0170448854749766
1.3369999999999962,0.0372854688103548,-0.0117181405978899,-0.0063913957208032
1.3404999999999987,0.0340897709499532,-0.0149138384582915,-0.0085224427374883
1.3440000000000012,-0.0202405833353782,-0.01598023463126,-0.0266319790561814
1.3474999999999966,-0.0202405833353782,-0.0095870935812048,-0.029827676916583
1.350999999999999,-0.0031956978604016,0.0127827914416064,0.0106534897541733
1.3544999999999945,0.0042603487041181,0.0149138384582915,0.01598023463126
1.357999999999997,0.041545817514473,-0.0010646508437165,0.0063913957208032
1.3614999999999997,0.0436768645311581,-0.0063913957208032,0.0010646508437165
1.3649999999999949,0.0426122136874415,-0.0117181405978899,-0.0063913957208032
1.3684999999999974,-0.0106534897541733,-0.0181095363186931,-0.0287630260728665
1.372,-0.0181095363186931,-0.013849187614575,-0.0287630260728665
1.3754999999999953,-0.0074577918937717,0.0095870935812048,0.0085224427374883
1.3789999999999978,0.0,0.0149138384582915,0.0127827914416064
1.3825000000000005,0.0426122136874415,0.0031956978604016,0.0149138384582915
1.3859999999999957,0.0426122136874415,-0.0031956978604016,0.0074577918937717
1.3894999999999982,0.002131047016685,-0.0245026773687483,-0.0308940730895516
1.393000000000001,-0.0042603487041181,-0.0202405833353782,-0.0308940730895516
1.396499999999996,-0.0191759324916617,0.0031956978604016,-0.0031956978604016
1.3999999999999986,-0.0149138384582915,0.0074577918937717,0.0
1.403500000000001,0.0372854688103548,0.0053267448770866,0.0191759324916617
1.4069999999999965,0.0426122136874415,0.0042603487041181,0.01598023463126
1.410499999999999,0.013849187614575,-0.0245026773687483,-0.0255673282124649
1.4139999999999944,0.0106534897541733,-0.0245026773687483,-0.02769837522915
1.4174999999999969,-0.0234362811957798,0.0,-0.013849187614575
1.4209999999999994,-0.0255673282124649,0.0031956978604016,-0.0117181405978899
1.4244999999999948,0.0223716303520633,0.01598023463126,0.0213052341790947
1.4279999999999973,0.029827676916583,0.0106534897541733,0.0191759324916617
1.4314999999999998,0.0319587239332681,-0.0170448854749766,-0.013849187614575
1.4349999999999952,0.0287630260728665,-0.01598023463126,-0.0127827914416064
1.4384999999999977,-0.0245026773687483,-0.0095870935812048,-0.0202405833353782
1.4420000000000002,-0.0223716303520633,0.002131047016685,-0.0234362811957798
1.4454999999999956,0.0053267448770866,0.0383501196540714,0.0202405833353782
1.448999999999998,0.013849187614575,0.0756355884644262,0.0213052341790947
1.4525000000000006,0.0394165158270399,0.0862890782185996,-0.0010646508437165
1.455999999999996,0.0287630260728665,0.1214435000122694,-0.0085224427374883
1.4594999999999985,-0.0266319790561814,0.1299659427497577,-0.0362208179666383
1.463000000000001,-0.0426122136874415,0.1225098961852379,-0.0319587239332681
1.4664999999999964,-0.0394165158270399,0.124639197872671,0.0053267448770866
1.4699999999999989,-0.0372854688103548,0.0703088435873395,0.0095870935812048
1.4735000000000014,0.01598023463126,0.013849187614575,0.013849187614575
1.4769999999999968,0.0255673282124649,-0.0426122136874415,0.0117181405978899
1.4804999999999993,-0.0063913957208032,-0.0948115209560879,-0.029827676916583
1.4839999999999949,0.0,-0.1139874534477496,-0.0308940730895516
1.4874999999999972,-0.0095870935812048,-0.0905494269227178,-0.0053267448770866
1.4909999999999997,0.0117181405978899,-0.0607217500061347,0.0010646508437165
1.494499999999995,0.0777666354811113,-0.0340897709499532,0.0213052341790947
1.4979999999999976,0.0852244273748831,0.0010646508437165,0.0202405833353782
1.5015,0.0649838440395048,-0.0042603487041181,-0.0234362811957798
1.5049999999999957,0.0468725623915597,0.01598023463126,-0.029827676916583
1.508499999999998,-0.01598023463126,0.0394165158270399,-0.0255673282124649
1.5120000000000005,-0.0383501196540714,0.0340897709499532,-0.013849187614575
1.515499999999996,-0.0117181405978899,0.0308940730895516,0.0181095363186931
1.5189999999999984,-0.0181095363186931,-0.002131047016685,0.0191759324916617
1.5225000000000009,-0.0085224427374883,-0.0511346564249298,-0.0085224427374883
1.5259999999999962,-0.002131047016685,-0.0671131457269379,-0.013849187614575
1.5294999999999987,-0.0479389585645282,-0.0713752397603081,-0.029827676916583
1.5330000000000013,-0.0319587239332681,-0.0607217500061347,-0.0308940730895516
1.5364999999999966,0.002131047016685,-0.0191759324916617,0.0085224427374883
1.5399999999999991,0.029827676916583,-0.0042603487041181,0.0085224427374883
1.5434999999999943,0.083093380358198,-0.0074577918937717,0.0063913957208032
1.546999999999997,0.0862890782185996,0.0,0.0031956978604016
1.5504999999999995,0.0362208179666383,-0.0181095363186931,-0.0308940730895516
1.553999999999995,0.0245026773687483,-0.0234362811957798,-0.0255673282124649
1.5574999999999974,-0.0010646508437165,-0.0010646508437165,0.0063913957208032
1.561,-0.0149138384582915,-0.01598023463126,0.0085224427374883
1.5644999999999951,0.0266319790561814,-0.0308940730895516,0.02769837522915
1.5679999999999978,0.0223716303520633,-0.0479389585645282,0.0213052341790947
1.5715000000000003,-0.0010646508437165,-0.0767019846373948,-0.0149138384582915
1.5749999999999955,-0.0085224427374883,-0.0703088435873395,-0.01598023463126
1.5784999999999982,-0.0383501196540714,-0.0436768645311581,-0.0095870935812048
1.5820000000000007,-0.0245026773687483,-0.0181095363186931,-0.0063913957208032
1.585499999999996,0.0319587239332681,0.0117181405978899,0.0191759324916617
1.5889999999999986,0.0479389585645282,0.0340897709499532,0.0181095363186931
1.5925000000000011,0.0543303542853314,0.01598023463126,-0.0095870935812048
1.5959999999999963,0.0500682602519613,0.01598023463126,-0.01598023463126
1.599499999999999,-0.0106534897541733,0.0181095363186931,-0.0330233747769847
1.6029999999999944,-0.0191759324916617,0.0063913957208032,-0.0308940730895516
1.606499999999997,-0.0053267448770866,0.0181095363186931,0.0106534897541733
1.6099999999999994,-0.0063913957208032,0.002131047016685,0.01598023463126
1.6134999999999948,0.0234362811957798,-0.02769837522915,0.002131047016685
1.616999999999997,0.0191759324916617,-0.0351544217936697,0.0
1.6204999999999998,-0.0245026773687483,-0.0490036094082447,-0.0287630260728665
1.6239999999999952,-0.0213052341790947,-0.029827676916583,-0.029827676916583
1.6274999999999975,-0.0149138384582915,0.0042603487041181,0.0010646508437165
1.6310000000000002,0.0,0.0266319790561814,0.0042603487041181
1.6344999999999956,0.0596570991624181,0.0181095363186931,0.0127827914416064
1.637999999999998,0.0671131457269379,0.0202405833353782,0.0127827914416064
1.6415000000000006,0.0330233747769847,-0.0063913957208032,-0.0287630260728665
1.644999999999996,0.0191759324916617,-0.0181095363186931,-0.0287630260728665
1.6484999999999983,-0.0191759324916617,0.0010646508437165,-0.0127827914416064
1.652000000000001,-0.02769837522915,-0.0063913957208032,-0.0117181405978899
1.6554999999999964,0.013849187614575,0.0,0.0234362811957798
1.658999999999999,0.0127827914416064,0.002131047016685,0.0213052341790947
1.6624999999999943,0.0127827914416064,-0.0170448854749766,-0.013849187614575
1.6659999999999968,0.0085224427374883,-0.0010646508437165,-0.0149138384582915
1.669499999999999,-0.0383501196540714,0.0223716303520633,-0.0266319790561814
1.6729999999999947,-0.0362208179666383,0.0362208179666383,-0.0234362811957798
1.6764999999999972,-0.0031956978604016,0.0596570991624181,0.0191759324916617
1.6799999999999995,0.0085224427374883,0.0543303542853314,0.0202405833353782
1.6834999999999951,0.0479389585645282,0.02769837522915,0.0010646508437165
1.6869999999999976,0.0532657034416149,0.0042603487041181,-0.002131047016685
1.6905,0.0,-0.0117181405978899,-0.0308940730895516
1.6939999999999955,-0.0095870935812048,-0.0330233747769847,-0.0287630260728665
1.697499999999998,-0.0095870935812048,-0.02769837522915,0.0031956978604016
1.7010000000000003,-0.0074577918937717,-0.0351544217936697,0.0074577918937717
1.704499999999996,0.0447432607041266,-0.0479389585645282,0.01598023463126
1.7079999999999984,0.0543303542853314,-0.0351544217936697,0.0106534897541733
1.711500000000001,0.0564614013020165,-0.0234362811957798,0.0053267448770866
1.7149999999999963,0.01598023463126,-0.0245026773687483,-0.0287630260728665
1.7184999999999988,0.0063913957208032,-0.0117181405978899,-0.0340897709499532
1.7220000000000013,-0.0202405833353782,0.0181095363186931,-0.0095870935812048
1.7254999999999967,-0.0255673282124649,0.0213052341790947,-0.0053267448770866
1.7289999999999992,0.0245026773687483,0.0181095363186931,0.0191759324916617
1.7324999999999946,0.0255673282124649,0.0106534897541733,0.0191759324916617
1.735999999999997,0.0149138384582915,-0.0149138384582915,-0.0191759324916617
1.7394999999999996,0.0095870935812048,-0.0213052341790947,-0.0170448854749766
1.742999999999995,-0.041545817514473,-0.0031956978604016,-0.0191759324916617
1.7464999999999975,-0.0383501196540714,0.0095870935812048,-0.0149138384582915
1.75,0.0010646508437165,0.0362208179666383,0.0266319790561814
1.7534999999999954,0.01598023463126,0.0521993072686464,0.0266319790561814
1.756999999999998,0.0436768645311581,0.0479389585645282,0.0053267448770866
1.7605000000000004,0.0436768645311581,0.0681795418999064,0.0010646508437165
1.7639999999999958,-0.0074577918937717,0.0724398906040246,-0.0181095363186931
1.7674999999999983,-0.0127827914416064,0.0756355884644262,-0.0181095363186931
1.7710000000000008,-0.013849187614575,0.0745709376207097,0.01598023463126
1.7744999999999962,-0.0127827914416064,0.0607217500061347,0.0181095363186931
1.7779999999999987,0.0362208179666383,0.0319587239332681,0.0202405833353782
1.7815000000000012,0.0383501196540714,-0.0010646508437165,0.0106534897541733
1.7849999999999966,0.0074577918937717,-0.0287630260728665,-0.0266319790561814
1.788499999999999,0.0031956978604016,-0.0500682602519613,-0.0287630260728665
1.7919999999999945,-0.0234362811957798,-0.0458079115478431,-0.013849187614575
1.795499999999997,-0.0181095363186931,-0.0479389585645282,-0.0106534897541733
1.7989999999999997,0.0372854688103548,-0.0447432607041266,0.0117181405978899
1.8024999999999949,0.0511346564249298,-0.0372854688103548,0.0085224427374883
1.8059999999999972,0.0564614013020165,-0.0479389585645282,-0.0191759324916617
1.8095,0.0500682602519613,-0.0383501196540714,-0.029827676916583
1.8129999999999955,0.0,-0.0308940730895516,-0.0319587239332681
1.8164999999999976,-0.0149138384582915,-0.0308940730895516,-0.02769837522915
1.8200000000000005,0.0063913957208032,-0.0181095363186931,0.0095870935812048
1.823499999999996,0.0,-0.0213052341790947,0.0095870935812048
1.8269999999999984,0.0234362811957798,-0.0383501196540714,-0.0010646508437165
1.830500000000001,0.0234362811957798,-0.041545817514473,-0.0053267448770866
1.833999999999996,-0.0287630260728665,-0.0330233747769847,-0.0372854688103548
1.8374999999999984,-0.0308940730895516,-0.029827676916583,-0.0372854688103548
1.841000000000001,-0.029827676916583,-0.0031956978604016,-0.0053267448770866
1.8444999999999965,-0.0181095363186931,0.0085224427374883,0.002131047016685
1.847999999999999,0.0372854688103548,0.0063913957208032,0.0181095363186931
1.8514999999999944,0.0500682602519613,0.0117181405978899,0.0181095363186931
1.8549999999999969,0.0330233747769847,0.0063913957208032,-0.0181095363186931
1.8584999999999996,0.0287630260728665,0.0095870935812048,-0.0234362811957798
1.8619999999999948,-0.0117181405978899,0.029827676916583,-0.0117181405978899
1.8654999999999973,-0.013849187614575,0.0383501196540714,-0.0053267448770866
1.869,0.0255673282124649,0.0447432607041266,0.0255673282124649
1.8724999999999952,0.0308940730895516,0.0426122136874415,0.0266319790561814
1.8759999999999977,0.0447432607041266,0.0308940730895516,-0.002131047016685
1.8795,0.0394165158270399,0.0255673282124649,-0.0042603487041181
1.882999999999996,-0.01598023463126,0.0223716303520633,-0.0213052341790947
1.886499999999998,-0.0213052341790947,0.01598023463126,-0.0245026773687483
1.8900000000000008,-0.0127827914416064,0.01598023463126,0.01598023463126
1.893499999999996,-0.0031956978604016,0.0,0.01598023463126
1.8969999999999985,0.0436768645311581,-0.0213052341790947,0.0106534897541733
1.900500000000001,0.0490036094082447,-0.0330233747769847,0.0053267448770866
1.9039999999999964,0.0117181405978899,-0.0458079115478431,-0.0255673282124649
1.9074999999999989,0.0106534897541733,-0.0426122136874415,-0.0287630260728665
1.9110000000000011,-0.0127827914416064,-0.0213052341790947,-0.0063913957208032
1.9144999999999968,-0.0095870935812048,-0.0042603487041181,-0.0074577918937717
1.9179999999999997,0.0404811666707564,0.0010646508437165,0.0127827914416064
1.9214999999999949,0.0330233747769847,0.0106534897541733,0.0074577918937717
1.9249999999999967,0.0245026773687483,-0.0010646508437165,-0.0245026773687483
1.9285,0.0095870935812048,-0.0074577918937717,-0.0255673282124649
1.931999999999995,-0.0447432607041266,-0.0031956978604016,-0.0287630260728665
1.9354999999999976,-0.0479389585645282,-0.0063913957208032,-0.0234362811957798
1.939,-0.013849187614575,-0.002131047016685,0.0117181405978899
1.9424999999999957,-0.0053267448770866,0.0,0.013849187614575
1.945999999999998,0.0340897709499532,-0.0063913957208032,-0.002131047016685
1.9495000000000005,0.0362208179666383,0.0,-0.0053267448770866
1.952999999999996,-0.0074577918937717,0.0031956978604016,-0.0287630260728665
1.9564999999999984,-0.0074577918937717,0.013849187614575,-0.0266319790561814
1.9600000000000009,-0.0085224427374883,0.02769837522915,0.0010646508437165
1.963499999999996,-0.0010646508437165,0.0213052341790947,0.0031956978604016
1.9669999999999987,0.0468725623915597,0.0042603487041181,0.01598023463126
1.9705000000000013,0.0447432607041266,-0.01598023463126,0.0202405833353782
1.9739999999999969,0.0213052341790947,-0.0447432607041266,-0.0181095363186931
1.9774999999999991,0.0106534897541733,-0.055395005129048,-0.0181095363186931
1.9809999999999943,-0.0394165158270399,-0.0500682602519613,-0.0149138384582915
1.984499999999997,-0.0351544217936697,-0.0490036094082447,-0.0106534897541733
1.9879999999999995,0.0095870935812048,-0.0308940730895516,0.0245026773687483
1.991499999999995,0.0213052341790947,-0.0266319790561814,0.0223716303520633
1.9949999999999972,0.0468725623915597,-0.0404811666707564,-0.0031956978604016
1.9985,0.0458079115478431,-0.0287630260728665,-0.0031956978604016
2.001999999999996,-0.0063913957208032,-0.0266319790561814,-0.0319587239332681
2.005499999999998,-0.0063913957208032,-0.0223716303520633,-0.0404811666707564
2.0090000000000003,0.0,-0.0063913957208032,-0.002131047016685
2.012499999999996,-0.0074577918937717,-0.002131047016685,0.0
2.0159999999999982,0.0372854688103548,-0.013849187614575,0.002131047016685
2.0195000000000007,0.0340897709499532,-0.0127827914416064,0.0031956978604016
2.022999999999996,0.0,-0.0255673282124649,-0.0308940730895516
2.026499999999998,-0.0095870935812048,-0.0181095363186931,-0.0319587239332681
2.030000000000001,-0.0436768645311581,0.0063913957208032,-0.0170448854749766
2.0334999999999965,-0.0362208179666383,0.0074577918937717,-0.0095870935812048
2.036999999999999,0.0181095363186931,0.0106534897541733,0.0170448854749766
2.0404999999999944,0.0234362811957798,0.0042603487041181,0.01598023463126
2.043999999999997,0.0330233747769847,-0.0234362811957798,-0.0085224427374883
2.0474999999999994,0.0372854688103548,-0.0213052341790947,-0.0117181405978899
2.050999999999995,-0.013849187614575,-0.0149138384582915,-0.0245026773687483
2.0544999999999973,-0.0181095363186931,-0.0149138384582915,-0.0234362811957798
2.058,-0.0181095363186931,-0.0149138384582915,-0.0234362811957798
2.0614999999999952,-0.0181095363186931,-0.0149138384582915,-0.0234362811957798
2.0649999999999977,-0.0181095363186931,-0.0149138384582915,-0.0234362811957798
2.0685,0.0511346564249298,0.0074577918937717,0.01598023463126
2.071999999999996,0.0074577918937717,0.0031956978604016,-0.0202405833353782
2.075499999999998,-0.0042603487041181,0.0117181405978899,-0.0234362811957798
2.0790000000000006,-0.0095870935812048,0.0170448854749766,-0.0223716303520633
2.082499999999996,-0.029827676916583,0.0426122136874415,0.0010646508437165
2.0859999999999985,0.0223716303520633,0.0436768645311581,0.0255673282124649
2.089500000000001,0.0340897709499532,0.0532657034416149,0.0223716303520633
2.0929999999999964,0.0479389585645282,0.0639174478665363,0.0213052341790947
2.096499999999999,0.0532657034416149,0.0521993072686464,-0.0181095363186931
2.0999999999999943,0.0564614013020165,0.0575260521457331,-0.0245026773687483
2.103499999999997,0.0095870935812048,0.0628527970228197,-0.0287630260728665
2.1069999999999998,0.0095870935812048,0.0500682602519613,-0.02769837522915
2.1104999999999947,0.0404811666707564,0.0458079115478431,0.0106534897541733
2.113999999999997,0.0394165158270399,0.0202405833353782,0.0074577918937717
2.1175,0.0713752397603081,-0.01598023463126,-0.0053267448770866
2.120999999999995,0.0617864008498512,-0.0308940730895516,-0.0074577918937717
2.1244999999999976,0.0117181405978899,-0.041545817514473,-0.0362208179666383
2.128,0.0095870935812048,-0.0436768645311581,-0.0308940730895516
2.1314999999999955,0.002131047016685,-0.0266319790561814,-0.0074577918937717
2.134999999999998,0.0149138384582915,-0.0266319790561814,-0.0127827914416064
2.1385000000000005,0.0660484948832214,-0.0266319790561814,0.0063913957208032
2.141999999999996,0.0649838440395048,-0.0266319790561814,0.002131047016685
2.1454999999999984,0.0447432607041266,-0.0351544217936697,-0.029827676916583
2.149000000000001,0.0245026773687483,-0.0223716303520633,-0.0245026773687483
2.1524999999999963,-0.0223716303520633,0.0053267448770866,-0.0213052341790947
2.155999999999999,-0.0319587239332681,0.0149138384582915,-0.013849187614575
2.1595000000000013,0.002131047016685,0.029827676916583,0.0191759324916617
2.1629999999999967,0.0042603487041181,0.0319587239332681,0.0234362811957798
2.166499999999999,0.0351544217936697,0.0117181405978899,0.0063913957208032
2.1699999999999946,0.0245026773687483,0.0063913957208032,0.0085224427374883
2.173499999999997,-0.0330233747769847,0.002131047016685,-0.0170448854749766
2.177,-0.0383501196540714,-0.0053267448770866,-0.0149138384582915
2.180499999999995,-0.0458079115478431,0.0042603487041181,0.013849187614575
2.183999999999997,-0.0340897709499532,-0.013849187614575,0.0202405833353782
2.1875,0.0213052341790947,-0.0308940730895516,0.0330233747769847
2.1909999999999954,0.0308940730895516,-0.0436768645311581,0.0340897709499532
2.194499999999998,0.0266319790561814,-0.0681795418999064,0.0
2.1980000000000004,0.0266319790561814,-0.0660484948832214,-0.0095870935812048
2.201499999999996,-0.0191759324916617,-0.0511346564249298,-0.0127827914416064
2.2049999999999983,-0.0191759324916617,-0.0404811666707564,-0.01598023463126
2.208500000000001,0.0095870935812048,-0.0223716303520633,0.0117181405978899
2.211999999999996,0.0085224427374883,-0.0170448854749766,0.0085224427374883
2.2154999999999987,0.0266319790561814,-0.0266319790561814,-0.0074577918937717
2.219000000000001,0.013849187614575,-0.029827676916583,-0.0170448854749766
2.2224999999999966,-0.0383501196540714,-0.0330233747769847,-0.0436768645311581
2.225999999999999,-0.0490036094082447,-0.0436768645311581,-0.0500682602519613
2.2294999999999945,-0.0607217500061347,-0.0287630260728665,-0.0223716303520633
2.232999999999997,-0.0607217500061347,-0.0287630260728665,-0.02769837522915
2.2364999999999995,-0.0063913957208032,-0.0234362811957798,-0.0245026773687483
2.239999999999995,0.0,-0.0095870935812048,-0.0319587239332681
2.2434999999999974,-0.0117181405978899,-0.002131047016685,-0.0713752397603081
2.247,-0.0095870935812048,0.0234362811957798,-0.0767019846373948
2.2504999999999957,-0.0521993072686464,0.0479389585645282,-0.0703088435873395
2.253999999999998,-0.0511346564249298,0.0490036094082447,-0.0617864008498512
2.2575000000000003,-0.0170448854749766,0.0458079115478431,-0.0213052341790947
2.260999999999996,-0.0117181405978899,0.0202405833353782,-0.002131047016685
2.264499999999998,0.0223716303520633,-0.0181095363186931,-0.0063913957208032
2.2680000000000007,0.0372854688103548,-0.0404811666707564,0.0085224427374883
2.271499999999996,-0.0031956978604016,-0.0617864008498512,-0.0095870935812048
2.2749999999999986,0.01598023463126,-0.0724398906040246,-0.0063913957208032
2.278500000000001,0.01598023463126,-0.0479389585645282,0.0191759324916617
2.2819999999999965,0.0223716303520633,-0.0170448854749766,0.0213052341790947
2.285499999999999,0.0671131457269379,0.0042603487041181,0.0330233747769847
2.2889999999999944,0.0564614013020165,0.0426122136874415,0.02769837522915
2.292499999999997,0.0266319790561814,0.0447432607041266,-0.0042603487041181
2.296,0.0074577918937717,0.0617864008498512,-0.002131047016685
2.2994999999999948,-0.0447432607041266,0.0713752397603081,0.002131047016685
2.3029999999999973,-0.0458079115478431,0.0511346564249298,0.0149138384582915
2.3065,-0.0127827914416064,0.0330233747769847,0.0543303542853314
2.309999999999995,0.0010646508437165,-0.0010646508437165,0.0521993072686464
2.3134999999999977,0.0426122136874415,-0.0372854688103548,0.0372854688103548
2.317,0.0521993072686464,-0.0511346564249298,0.02769837522915
2.320499999999996,0.0106534897541733,-0.055395005129048,-0.0010646508437165
2.323999999999998,0.01598023463126,-0.0362208179666383,-0.0149138384582915
2.327500000000001,0.013849187614575,0.0,0.0042603487041181
2.330999999999996,0.0213052341790947,0.0287630260728665,-0.0010646508437165
2.3344999999999985,0.0745709376207097,0.0436768645311581,0.0117181405978899
2.338000000000001,0.0777666354811113,0.0511346564249298,0.0085224427374883
2.3414999999999964,0.0617864008498512,0.0362208179666383,-0.0255673282124649
2.344999999999999,0.0372854688103548,0.0202405833353782,-0.0266319790561814
2.3484999999999943,-0.0287630260728665,0.0106534897541733,-0.0319587239332681
2.3519999999999968,-0.0575260521457331,-0.0117181405978899,-0.0340897709499532
2.3554999999999997,-0.0447432607041266,-0.0181095363186931,0.002131047016685
2.3589999999999947,-0.0532657034416149,-0.02769837522915,0.0031956978604016
2.362499999999997,-0.013849187614575,-0.0394165158270399,-0.0149138384582915
2.366,0.0,-0.0319587239332681,-0.0170448854749766
2.369499999999995,-0.0245026773687483,-0.0170448854749766,-0.0436768645311581
2.3729999999999976,-0.0042603487041181,0.0,-0.0340897709499532
2.3765,0.0,0.0266319790561814,-0.0063913957208032
2.3799999999999955,0.0181095363186931,0.0330233747769847,-0.0010646508437165
2.383499999999998,0.0798976824977964,0.0330233747769847,0.0213052341790947
2.3870000000000005,0.0735062867769931,0.0266319790561814,0.0223716303520633
2.390499999999996,0.0607217500061347,0.0010646508437165,-0.0074577918937717
2.3939999999999984,0.0362208179666383,-0.002131047016685,-0.0127827914416064
2.397500000000001,-0.0287630260728665,0.0031956978604016,-0.0245026773687483
2.400999999999996,-0.0500682602519613,0.0053267448770866,-0.0213052341790947
2.4044999999999987,-0.0330233747769847,0.0191759324916617,0.01598023463126
2.4080000000000013,-0.0351544217936697,0.0234362811957798,0.0202405833353782
2.4114999999999966,0.013849187614575,0.0074577918937717,0.01598023463126
2.414999999999999,0.0202405833353782,-0.0010646508437165,0.0181095363186931
2.4184999999999945,-0.0074577918937717,-0.0255673282124649,-0.013849187614575
2.421999999999997,0.0,-0.0447432607041266,-0.0170448854749766
2.4254999999999995,-0.0170448854749766,-0.0468725623915597,-0.0031956978604016
2.428999999999995,0.0031956978604016,-0.0543303542853314,-0.0063913957208032
2.432499999999997,0.0596570991624181,-0.055395005129048,0.0234362811957798
2.436,0.069244192743623,-0.0521993072686464,0.0202405833353782
2.439499999999996,0.0809623333415129,-0.0564614013020165,-0.0042603487041181
2.442999999999998,0.0703088435873395,-0.0351544217936697,-0.0063913957208032
2.4465000000000003,0.002131047016685,-0.0095870935812048,-0.029827676916583
2.449999999999996,-0.0202405833353782,0.0181095363186931,-0.0330233747769847
2.4534999999999982,-0.0447432607041266,0.0394165158270399,-0.0330233747769847
2.4570000000000007,-0.0426122136874415,0.0671131457269379,0.0010646508437165
2.460499999999996,-0.0575260521457331,0.069244192743623,0.0053267448770866
2.463999999999998,-0.01598023463126,0.0543303542853314,0.0074577918937717
2.467500000000001,-0.01598023463126,0.0372854688103548,0.0095870935812048
2.4709999999999965,-0.0426122136874415,0.0202405833353782,-0.0255673282124649
2.474499999999999,-0.029827676916583,0.0117181405978899,-0.0287630260728665
2.4779999999999944,-0.0511346564249298,0.0170448854749766,-0.0181095363186931
2.481499999999997,-0.0308940730895516,0.0127827914416064,-0.0117181405978899
2.4849999999999994,0.0330233747769847,0.0181095363186931,0.0223716303520633
2.488499999999995,0.0511346564249298,0.0181095363186931,0.0223716303520633
2.4919999999999973,0.0788312863248278,0.0053267448770866,0.0031956978604016
2.4955,0.0809623333415129,0.0074577918937717,-0.0010646508437165
2.4989999999999952,0.0245026773687483,0.0063913957208032,-0.0213052341790947
2.5024999999999977,0.0127827914416064,0.013849187614575,-0.0191759324916617
2.506,0.0042603487041181,0.0330233747769847,0.01598023463126
2.509499999999996,-0.0117181405978899,0.0308940730895516,0.013849187614575
2.512999999999998,0.0319587239332681,-0.0031956978604016,0.0170448854749766
2.5165000000000006,0.0362208179666383,-0.0671131457269379,0.0117181405978899
2.519999999999996,0.0234362811957798,-0.1406194325039311,-0.0287630260728665
2.5234999999999985,0.0149138384582915,-0.1960144376329791,-0.0213052341790947
2.527000000000001,-0.0202405833353782,-0.2119946722642392,-0.0127827914416064
2.5304999999999964,0.0031956978604016,-0.2077325782308691,-0.0117181405978899
2.533999999999999,0.069244192743623,-0.1683160624038291,0.0149138384582915
2.5374999999999943,0.1065296615539778,-0.1086607085706629,-0.0010646508437165
2.540999999999997,0.1608600158393093,-0.0617864008498512,-0.0213052341790947
2.5444999999999998,0.1544686201185061,0.0095870935812048,-0.0234362811957798
2.5479999999999947,0.096942567972773,0.041545817514473,-0.0394165158270399
2.551499999999997,0.0543303542853314,0.069244192743623,-0.0191759324916617
2.555,-0.013849187614575,0.0820287295144815,0.002131047016685
2.558499999999995,-0.0479389585645282,0.0724398906040246,-0.0031956978604016
2.5619999999999976,-0.0191759324916617,0.0543303542853314,0.0042603487041181
2.5655,-0.029827676916583,0.0213052341790947,-0.0042603487041181
2.5689999999999955,-0.0191759324916617,-0.0213052341790947,-0.0255673282124649
2.572499999999998,-0.0053267448770866,-0.0596570991624181,-0.0234362811957798
2.5760000000000005,-0.0532657034416149,-0.0735062867769931,-0.0351544217936697
2.579499999999996,-0.0213052341790947,-0.0724398906040246,-0.0394165158270399
2.5829999999999984,0.0106534897541733,-0.0479389585645282,-0.01598023463126
2.586500000000001,0.055395005129048,-0.0266319790561814,-0.0095870935812048
2.5899999999999963,0.1459461773810178,-0.013849187614575,-0.0031956978604016
2.593499999999999,0.1576643179789077,0.0053267448770866,0.0031956978604016
2.5970000000000013,0.138488385487246,0.0010646508437165,-0.0191759324916617
2.6004999999999967,0.124639197872671,0.0031956978604016,-0.0117181405978899
2.603999999999999,0.0468725623915597,0.013849187614575,0.0053267448770866
2.6074999999999946,0.0234362811957798,0.0340897709499532,0.002131047016685
2.610999999999997,0.0404811666707564,0.0649838440395048,0.0234362811957798
2.6145,0.0085224427374883,0.1001382658331746,0.0213052341790947
2.617999999999995,0.0255673282124649,0.1225098961852379,0.0127827914416064
2.621499999999997,-0.0202405833353782,0.1565979218059392,0.0095870935812048
2.625,-0.1075943123976944,0.1704471094205142,-0.0117181405978899
2.6284999999999954,-0.1576643179789077,0.1725781564371993,-0.0191759324916617
2.631999999999998,-0.1981454846496642,0.1640557136997109,-0.0095870935812048
2.6355000000000004,-0.1874919948954908,0.1129210572747811,-0.0127827914416064
2.638999999999996,-0.083093380358198,0.0809623333415129,0.0
2.6424999999999983,-0.0085224427374883,0.0319587239332681,0.0
2.646000000000001,0.0383501196540714,-0.01598023463126,-0.0255673282124649
2.649499999999996,0.0884201252352847,-0.0362208179666383,-0.02769837522915
2.6529999999999987,0.0319587239332681,-0.0351544217936697,-0.0383501196540714
2.656500000000001,0.0266319790561814,-0.0372854688103548,-0.0362208179666383
2.6599999999999966,0.0585907029894496,-0.0191759324916617,-0.0223716303520633
2.663499999999999,0.069244192743623,-0.0053267448770866,-0.0351544217936697
2.6669999999999945,0.138488385487246,-0.0053267448770866,-0.0383501196540714
2.670499999999997,0.1470108282247343,0.0063913957208032,-0.0521993072686464
2.6739999999999995,0.1022693128498597,0.0085224427374883,-0.0809623333415129
2.677499999999995,0.0862890782185996,0.0191759324916617,-0.0809623333415129
2.6809999999999974,0.0213052341790947,0.0490036094082447,-0.0756355884644262
2.6845,-0.0063913957208032,0.0660484948832214,-0.0735062867769931
2.6879999999999957,0.0319587239332681,0.0873537290623162,-0.0564614013020165
2.691499999999998,0.0074577918937717,0.1012029166768912,-0.0490036094082447
2.6950000000000003,0.01598023463126,0.0948115209560879,-0.0639174478665363
2.698499999999996,-0.0010646508437165,0.0916158230956863,-0.0596570991624181
2.701999999999998,-0.0703088435873395,0.0820287295144815,-0.0756355884644262
2.7055000000000007,-0.0617864008498512,0.069244192743623,-0.0617864008498512
2.708999999999996,-0.0447432607041266,0.0671131457269379,-0.0394165158270399
2.7124999999999986,-0.0106534897541733,0.0521993072686464,-0.0319587239332681
2.716000000000001,0.0756355884644262,0.0330233747769847,-0.0213052341790947
2.7194999999999965,0.0990718696602061,0.0149138384582915,-0.0117181405978899
2.722999999999999,0.0862890782185996,-0.0085224427374883,-0.02769837522915
2.7264999999999944,0.0820287295144815,-0.01598023463126,-0.0223716303520633
2.729999999999997,0.0117181405978899,-0.0149138384582915,-0.0085224427374883
2.7335,-0.0031956978604016,-0.0053267448770866,0.0053267448770866
2.7369999999999948,0.0245026773687483,0.013849187614575,0.0319587239332681
2.7404999999999973,0.0085224427374883,0.0181095363186931,0.0362208179666383
2.744,0.041545817514473,0.0053267448770866,0.0287630260728665
2.747499999999995,0.0149138384582915,0.0031956978604016,0.02769837522915
2.7509999999999977,-0.0543303542853314,-0.002131047016685,0.0063913957208032
2.7545,-0.0724398906040246,0.0010646508437165,0.0031956978604016
2.757999999999996,-0.1118564064310645,0.0106534897541733,0.0191759324916617
2.761499999999998,-0.1075943123976944,0.0149138384582915,0.0170448854749766
2.765000000000001,-0.02769837522915,0.0106534897541733,0.0340897709499532
2.768499999999996,-0.002131047016685,0.0010646508437165,0.0308940730895516
2.7719999999999985,0.0213052341790947,-0.0245026773687483,0.0085224427374883
2.775500000000001,0.0511346564249298,-0.0266319790561814,0.0042603487041181
2.7789999999999964,0.002131047016685,-0.0245026773687483,-0.0031956978604016
2.782499999999999,0.0234362811957798,-0.0191759324916617,-0.0063913957208032
2.7859999999999943,0.0468725623915597,0.0,0.0170448854749766
2.7894999999999968,0.0585907029894496,0.01598023463126,0.0213052341790947
2.7929999999999997,0.1267702448893561,0.0149138384582915,0.0234362811957798
2.7964999999999947,0.1278348957330726,0.0181095363186931,0.0245026773687483
2.799999999999997,0.0862890782185996,0.0085224427374883,-0.0042603487041181
2.8035,0.0745709376207097,0.0181095363186931,-0.0095870935812048
2.806999999999995,0.0660484948832214,0.0149138384582915,-0.0170448854749766
2.8104999999999976,0.0053267448770866,0.02769837522915,-0.0117181405978899
2.814,0.0,0.0213052341790947,-0.013849187614575
2.8174999999999955,0.0639174478665363,0.0223716303520633,0.0053267448770866
2.820999999999998,0.0703088435873395,0.0127827914416064,0.002131047016685
2.8245000000000005,0.1075943123976944,-0.0031956978604016,-0.0181095363186931
2.827999999999996,0.1171831513081512,-0.0095870935812048,-0.01598023463126
2.8314999999999984,0.0575260521457331,-0.0117181405978899,-0.0372854688103548
2.835000000000001,0.0660484948832214,-0.01598023463126,-0.0426122136874415
2.838499999999996,0.0703088435873395,-0.0085224427374883,-0.0223716303520633
2.8419999999999987,0.0745709376207097,-0.0191759324916617,-0.0202405833353782
2.8455000000000013,0.1416840833476476,-0.0308940730895516,-0.0095870935812048
2.8489999999999966,0.1289012919060412,-0.0372854688103548,-0.0053267448770866
2.852499999999999,0.0905494269227178,-0.0511346564249298,-0.0213052341790947
2.8559999999999945,0.055395005129048,-0.041545817514473,-0.0085224427374883
2.859499999999997,-0.0372854688103548,-0.0223716303520633,0.0042603487041181
2.8629999999999995,-0.0681795418999064,-0.0074577918937717,0.0202405833353782
2.866499999999995,-0.0447432607041266,0.0127827914416064,0.0532657034416149
2.869999999999997,-0.0585907029894496,0.0362208179666383,0.069244192743623
2.8735,-0.0117181405978899,0.0404811666707564,0.0681795418999064
2.876999999999996,-0.0234362811957798,0.0617864008498512,0.0628527970228197
2.880499999999998,-0.0862890782185996,0.0735062867769931,0.0372854688103548
2.8840000000000003,-0.0894847760790012,0.0873537290623162,0.0213052341790947
2.887499999999996,-0.1203788491685528,0.1065296615539778,0.0266319790561814
2.8909999999999982,-0.1033339636935762,0.1150521042914662,0.0095870935812048
2.8945000000000007,-0.0170448854749766,0.1214435000122694,0.0191759324916617
2.897999999999996,0.0245026773687483,0.1289012919060412,0.0085224427374883
2.901499999999998,0.0713752397603081,0.1225098961852379,-0.0191759324916617
2.905000000000001,0.096942567972773,0.1352926876268444,-0.0255673282124649
2.9084999999999965,0.0458079115478431,0.1459461773810178,-0.0447432607041266
2.911999999999999,0.0660484948832214,0.1491418752414194,-0.0532657034416149
2.9154999999999944,0.0916158230956863,0.1736428072809158,-0.0372854688103548
2.918999999999997,0.1139874534477496,0.1715135055934827,-0.0490036094082447
2.9224999999999994,0.1970790884766957,0.152337573101821,-0.0479389585645282
2.925999999999995,0.2087989744038376,0.1289012919060412,-0.0490036094082447
2.9294999999999973,0.1896230419121759,0.0894847760790012,-0.0521993072686464
2.933,0.1970790884766957,0.069244192743623,-0.0404811666707564
2.9364999999999952,0.136357338470561,0.0596570991624181,-0.02769837522915
2.9399999999999977,0.1619246666830259,0.0351544217936697,-0.01598023463126
2.9435,0.2151903701246408,0.0266319790561814,0.0063913957208032
2.946999999999996,0.2343645572870505,-0.013849187614575,0.0053267448770866
2.950499999999998,0.2918906094327836,-0.0564614013020165,0.0
2.9540000000000006,0.2940216564494687,-0.0798976824977964,-0.0010646508437165
2.957499999999996,0.2343645572870505,-0.0948115209560879,-0.0223716303520633
2.9609999999999985,0.2311688594266489,-0.0916158230956863,-0.0181095363186931
2.964500000000001,0.2098636252475541,-0.0639174478665363,0.0
2.9679999999999964,0.2034722295267509,-0.0404811666707564,0.0053267448770866
2.971499999999999,0.2599318854995155,-0.0255673282124649,0.0287630260728665
2.9749999999999943,0.2375620004767041,-0.0074577918937717,0.02769837522915
2.978499999999997,0.2034722295267509,-0.0106534897541733,0.0063913957208032
2.9819999999999998,0.1725781564371993,0.0042603487041181,0.0042603487041181
2.9854999999999947,0.0820287295144815,0.01598023463126,-0.002131047016685
2.988999999999997,0.069244192743623,0.0394165158270399,0.0031956978604016
2.9925,0.1012029166768912,0.0585907029894496,0.0351544217936697
2.995999999999995,0.1086607085706629,0.0660484948832214,0.0330233747769847
2.9994999999999976,0.177904901314286,0.0607217500061347,0.0287630260728665
3.003,0.2002765316663493,0.0447432607041266,0.02769837522915
3.0064999999999955,0.166186760716396,0.01598023463126,0.0
3.009999999999998,0.1853609478788057,-0.0063913957208032,0.0
3.0135000000000005,0.1704471094205142,-0.0127827914416064,0.0053267448770866
3.016999999999996,0.2151903701246408,-0.0308940730895516,0.0063913957208032
3.0204999999999984,0.3121311927681619,-0.0287630260728665,0.0266319790561814
3.024000000000001,0.3526141047681703,-0.0308940730895516,0.0213052341790947
3.0274999999999963,0.3984202709867616,-0.0521993072686464,0.002131047016685
3.030999999999999,0.4154651564617382,-0.0575260521457331,0.0
3.0345000000000013,0.3547434064556034,-0.0511346564249298,-0.0213052341790947
3.0379999999999967,0.3547434064556034,-0.0404811666707564,-0.029827676916583
3.041499999999999,0.3472873598910836,-0.0106534897541733,-0.0117181405978899
3.0449999999999946,0.3345028231202252,0.0085224427374883,-0.0085224427374883
3.048499999999997,0.3781796876513833,0.0191759324916617,0.0095870935812048
3.052,0.3451563128743986,0.0351544217936697,0.0213052341790947
3.055499999999995,0.2897613077453506,0.0394165158270399,0.0053267448770866
3.058999999999997,0.233299906443334,0.0500682602519613,0.0149138384582915
3.0625,0.1225098961852379,0.0585907029894496,0.0213052341790947
3.0659999999999954,0.0585907029894496,0.0713752397603081,0.0319587239332681
3.069499999999998,0.0426122136874415,0.1012029166768912,0.0607217500061347
3.0730000000000004,-0.0202405833353782,0.1171831513081512,0.0671131457269379
3.076499999999996,-0.0223716303520633,0.1267702448893561,0.0703088435873395
3.0799999999999983,-0.0852244273748831,0.1427504795206162,0.0724398906040246
3.083500000000001,-0.191754088928861,0.136357338470561,0.041545817514473
3.086999999999996,-0.2652586303766022,0.1406194325039311,0.0095870935812048
3.0904999999999987,-0.3281114273994219,0.1416840833476476,-0.0010646508437165
3.094000000000001,-0.3792460838243518,0.110790010258096,-0.0287630260728665
3.0974999999999966,-0.3568744534722885,0.069244192743623,-0.0319587239332681
3.100999999999999,-0.3867021303888716,-0.002131047016685,-0.0703088435873395
3.1044999999999945,-0.4303807402492817,-0.0724398906040246,-0.0948115209560879
3.107999999999997,-0.3984202709867616,-0.1214435000122694,-0.1065296615539778
3.1114999999999995,-0.4175962034784233,-0.1225098961852379,-0.0862890782185996
3.114999999999995,-0.3600701513326901,-0.138488385487246,-0.0266319790561814
3.1184999999999974,-0.3494166615785167,-0.2492801410745941,-0.0202405833353782
3.122,-0.3760503859639502,-0.3526141047681703,-0.0223716303520633
3.1254999999999957,-0.3728546881035486,-0.4761869064678729,-0.0500682602519613
3.128999999999998,-0.4186608543221398,-0.6317219227593476,-0.0948115209560879
3.1325000000000003,-0.5166698184678814,-0.7467722817215618,-0.1427504795206162
3.135999999999996,-0.5454328445407479,-0.8692821779067997,-0.1864273440517743
3.139499999999998,-0.6189373859884891,-0.9395927668233912,-0.2087989744038376
3.1430000000000007,-0.6466357612176391,-1.0344025424502272,-0.2364956043037356
3.146499999999996,-0.600827849669796,-1.0983217356460158,-0.2418223491808223
3.1499999999999986,-0.6477004120613556,-1.1846108138646152,-0.2801724688348938
3.153500000000001,-0.6508961099217573,-1.25705070446864,-0.3291760782431385
3.1569999999999965,-0.7105532090841755,-1.3209681523351764,-0.3813771308410369
3.160499999999999,-0.8043000791965469,-1.3635803660226178,-0.4399678338304866
3.1639999999999944,-0.8437148496943347,-1.4061925797100594,-0.4911024902554164
3.167499999999997,-0.8714132249234848,-1.409388277570461,-0.5113430735907947
3.171,-0.8703468287505163,-1.411517579257894,-0.561411333842756
3.1744999999999948,-0.8074957770569485,-1.397670136972571,-0.5837829641948193
3.1779999999999973,-0.7840577505319166,-1.3603846681622165,-0.6338512244467807
3.1815,-0.7510343757549319,-1.3135103604414045,-0.6828548338550254
3.184999999999995,-0.7510343757549319,-1.2815516365081363,-0.7361205372966404
3.1884999999999977,-0.6956393706258839,-1.208047095060395,-0.7776663548111135
3.192,-0.7062911150508053,-1.1430632510208902,-0.7989733343194602
3.195499999999996,-0.6359822714634658,-1.0503827770814873,-0.8138871727777518
3.198999999999998,-0.5347793547865746,-0.9662247458795729,-0.7936465894423735
3.202500000000001,-0.4708619069200382,-0.8554329902922247,-0.7819284488444836
3.205999999999996,-0.3813771308410369,-0.7766017039673969,-0.7702103082465936
3.2094999999999985,-0.3376985209806268,-0.6690056462404504,-0.7371851881403569
3.213000000000001,-0.3579391043160051,-0.6040235475301975,-0.7212066988383489
3.2164999999999964,-0.3100018910807288,-0.5124077244345112,-0.6722030894301041
3.219999999999999,-0.2791078179911772,-0.4346410889533998,-0.6114795940947174
3.2234999999999943,-0.2119946722642392,-0.3568744534722885,-0.5454328445407479
3.2269999999999968,-0.1043986145372928,-0.302544099186957,-0.4740576047804398
3.2304999999999997,-0.0383501196540714,-0.2269085107225308,-0.4037470158638482
3.2339999999999947,-0.002131047016685,-0.1842962970350892,-0.3685925940701784
3.237499999999997,0.055395005129048,-0.0980072188164895,-0.2993484013265554
3.241,0.0394165158270399,-0.0266319790561814,-0.260998281672484
3.244499999999995,0.0926804739394028,0.069244192743623,-0.2024058333537824
3.2479999999999976,0.1757738542976009,0.152337573101821,-0.138488385487246
3.2515,0.2205171150017275,0.2503447919183106,-0.0948115209560879
3.2549999999999955,0.302544099186957,0.316393286801532,-0.0607217500061347
3.258499999999998,0.3345028231202252,0.4069427137242498,-0.0362208179666383
3.2620000000000005,0.2897613077453506,0.4687308599033531,-0.0436768645311581
3.265499999999996,0.3078708440640437,0.5731294744406459,-0.0223716303520633
3.2689999999999984,0.2940216564494687,0.6647452975363323,-0.0117181405978899
3.272500000000001,0.3281114273994219,0.7893844954090034,-0.0074577918937717
3.275999999999996,0.425053995372195,0.8884581103984615,0.0085224427374883
3.2794999999999987,0.4719265577637547,0.9949877719524394,-0.0042603487041181
3.2830000000000013,0.5028206308533064,1.051447427925204,-0.0330233747769847
3.2864999999999966,0.5454328445407479,1.1260183655459135,-0.0585907029894496
3.289999999999999,0.5006895838366213,1.167565928389639,-0.0905494269227178
3.2934999999999945,0.5219948180157161,1.2027203501833084,-0.1129210572747811
3.296999999999997,0.5603466829990394,1.2325480270998914,-0.1075943123976944
3.3004999999999995,0.5635423808594411,1.2218962826749702,-0.1257055940456395
3.303999999999995,0.6178727351447726,1.1931332566021038,-0.1331616406101593
3.307499999999997,0.5965657556364258,1.134540808283402,-0.1480754790684509
3.311,0.5294526099094878,1.0610362668356608,-0.177904901314286
3.314499999999996,0.4847093492053612,0.9672893967232892,-0.1896230419121759
3.317999999999998,0.4069427137242498,0.8948495061192646,-0.1874919948954908
3.3215000000000003,0.3515477085952018,0.7787327509840819,-0.1832316461913727
3.324999999999996,0.3664615470534934,0.7009661155029706,-0.1480754790684509
3.3284999999999982,0.3068061932203272,0.5720648235969293,-0.1395530363309626
3.3320000000000007,0.2727164222703739,0.4676662090596366,-0.1352926876268444
3.335499999999996,0.1842962970350892,0.3376985209806268,-0.1203788491685528
3.338999999999998,0.0532657034416149,0.2354309534600191,-0.1320969897664428
3.342500000000001,-0.0340897709499532,0.1022693128498597,-0.1203788491685528
3.3459999999999965,-0.0937468701123714,0.013849187614575,-0.0948115209560879
3.349499999999999,-0.1747092034538843,-0.1065296615539778,-0.0756355884644262
3.3529999999999944,-0.1693824585767977,-0.1938833906162941,-0.0521993072686464
3.356499999999997,-0.2482137449016255,-0.2982837504828389,-0.041545817514473
3.3599999999999994,-0.3302424744161071,-0.3898978282492732,-0.0596570991624181
3.363499999999995,-0.3962909692993285,-0.4783179534845579,-0.0575260521457331
3.3669999999999973,-0.4911024902554164,-0.5369104018032596,-0.069244192743623
3.3705,-0.5347793547865746,-0.600827849669796,-0.0745709376207097
3.3739999999999952,-0.5092120265741096,-0.6242641308655758,-0.0639174478665363
3.3774999999999977,-0.5273215628928027,-0.6636806466926157,-0.0841580312019145
3.381,-0.4932317919428495,-0.6945729744529154,-0.1022693128498597
3.384499999999996,-0.4942981881158181,-0.7105532090841755,-0.1342280367831279
3.387999999999998,-0.5507578440885826,-0.7307937924195538,-0.1789695521580025
3.3915000000000006,-0.5326483077698895,-0.7435765838611602,-0.2109282760912707
3.394999999999996,-0.5209301671719996,-0.7339894902799553,-0.2226464166891606
3.3984999999999985,-0.480449000501243,-0.7339894902799553,-0.247149094057909
3.402000000000001,-0.3760503859639502,-0.727598094559152,-0.247149094057909
3.4054999999999964,-0.3270467765557054,-0.7190756518216638,-0.260998281672484
3.408999999999999,-0.2929570056057522,-0.723336000525782,-0.288694911572382
3.4124999999999943,-0.247149094057909,-0.7020307663466872,-0.2961527034661538
3.415999999999997,-0.2727164222703739,-0.6881815787321122,-0.3078708440640437
3.4194999999999998,-0.2311688594266489,-0.6626142505196473,-0.3100018910807288
3.4229999999999947,-0.1715135055934827,-0.6231994800218592,-0.2833681666952953
3.426499999999997,-0.1289012919060412,-0.5805872663344177,-0.2673896773932873
3.43,-0.0596570991624181,-0.5518242402615512,-0.2439533961975074
3.433499999999995,-0.0468725623915597,-0.4964292351325031,-0.2269085107225308
3.4369999999999976,-0.1043986145372928,-0.464468765869983,-0.2247774637058457
3.4405,-0.1139874534477496,-0.4026823650201317,-0.1981454846496642
3.4439999999999955,-0.1608600158393093,-0.3408942188410284,-0.1640557136997109
3.447499999999998,-0.1715135055934827,-0.2716500260974054,-0.1225098961852379
3.4510000000000005,-0.1086607085706629,-0.2205171150017275,-0.0660484948832214
3.454499999999996,-0.1012029166768912,-0.1555332709622227,-0.0213052341790947
3.4579999999999984,-0.0788312863248278,-0.1289012919060412,0.0
3.461500000000001,-0.0596570991624181,-0.0852244273748831,0.0426122136874415
3.4649999999999963,-0.1012029166768912,-0.0607217500061347,0.0575260521457331
3.468499999999999,-0.0532657034416149,-0.0191759324916617,0.0809623333415129
3.4720000000000013,0.0,0.02769837522915,0.1139874534477496
3.4754999999999967,0.0724398906040246,0.0639174478665363,0.1342280367831279
3.478999999999999,0.1811005991746876,0.0862890782185996,0.1491418752414194
3.4824999999999946,0.2354309534600191,0.1043986145372928,0.1512729222581045
3.485999999999997,0.2258421145495622,0.1012029166768912,0.1374237346435295
3.4895,0.2524758389349957,0.110790010258096,0.138488385487246
3.492999999999995,0.219450718828759,0.1182478021518678,0.1459461773810178
3.496499999999997,0.2205171150017275,0.1235745470289545,0.1544686201185061
3.5,0.274847469287059,0.1395530363309626,0.1864273440517743
3.5034999999999954,0.2599318854995155,0.1491418752414194,0.1906876927558924
3.506999999999998,0.2663250265495707,0.1395530363309626,0.1896230419121759
3.5105000000000004,0.2290395577392158,0.1534022239455376,0.1970790884766957
3.513999999999996,0.1320969897664428,0.1534022239455376,0.1725781564371993
3.5174999999999983,0.0937468701123714,0.1725781564371993,0.1747092034538843
3.521000000000001,0.0745709376207097,0.1981454846496642,0.1960144376329791
3.524499999999996,0.0575260521457331,0.2141239739516723,0.1992101354933808
3.5279999999999987,0.1150521042914662,0.2247774637058457,0.2141239739516723
3.531500000000001,0.1161167551351827,0.2311688594266489,0.2226464166891606
3.5349999999999966,0.136357338470561,0.2290395577392158,0.2279731615662473
3.538499999999999,0.1150521042914662,0.2066679273871525,0.2002765316663493
3.5419999999999945,0.152337573101821,0.1970790884766957,0.1970790884766957
3.545499999999997,0.1267702448893561,0.1928187397725775,0.1896230419121759
3.5489999999999995,0.1651203645434275,0.1629910628559944,0.1811005991746876
3.552499999999995,0.2535404897787122,0.1470108282247343,0.2013411825100658
3.5559999999999974,0.3014794483432405,0.1043986145372928,0.1928187397725775
3.5595,0.3611348021764067,0.0639174478665363,0.180035948330971
3.5629999999999957,0.3994866671597301,0.013849187614575,0.1672514115601126
3.566499999999998,0.3526141047681703,-0.0266319790561814,0.1480754790684509
3.5700000000000003,0.3717882919305801,-0.0820287295144815,0.1459461773810178
3.573499999999996,0.3792460838243518,-0.110790010258096,0.1597953649955928
3.576999999999998,0.3824417816847534,-0.166186760716396,0.166186760716396
3.5805000000000007,0.4516859744283765,-0.2066679273871525,0.1832316461913727
3.583999999999996,0.4442281825346047,-0.2535404897787122,0.1896230419121759
3.5874999999999986,0.3984202709867616,-0.2961527034661538,0.1747092034538843
3.591000000000001,0.3653968962097769,-0.314262239784847,0.1928187397725775
3.5944999999999965,0.2791078179911772,-0.3121311927681619,0.1970790884766957
3.597999999999999,0.2364956043037356,-0.3078708440640437,0.2205171150017275
3.6014999999999944,0.2524758389349957,-0.2705853752536888,0.2599318854995155
3.604999999999997,0.2034722295267509,-0.2279731615662473,0.2854992137119804
3.6085,0.2162550209683574,-0.1853609478788057,0.3100018910807288
3.6119999999999943,0.1789695521580025,-0.1065296615539778,0.3366338701369103
3.615499999999997,0.1043986145372928,-0.0596570991624181,0.3345028231202252
3.619,0.0937468701123714,0.0085224427374883,0.3643322453660603
3.622499999999995,0.0788312863248278,0.0639174478665363,0.3962909692993285
3.6259999999999977,0.1075943123976944,0.1171831513081512,0.4207919013388249
3.6295,0.2087989744038376,0.152337573101821,0.4442281825346047
3.632999999999996,0.2599318854995155,0.1906876927558924,0.4516859744283765
3.636499999999998,0.2950880526224372,0.2034722295267509,0.4399678338304866
3.640000000000001,0.3451563128743986,0.2396913021641372,0.4314453910929982
3.643499999999996,0.3131975889411305,0.2695207244099723,0.4282496932325966
3.6469999999999994,0.3526141047681703,0.3078708440640437,0.4271832970596281
3.650500000000001,0.4165315526347067,0.3472873598910836,0.4516859744283765
3.653999999999997,0.4495549274116914,0.3622011983493752,0.4602084171658648
3.657499999999999,0.5230612141886847,0.3526141047681703,0.4612730680095813
3.660999999999994,0.5454328445407479,0.3217200316786187,0.4772533026408414
3.6644999999999968,0.5070809795574245,0.2780431671474606,0.4623394641825499
3.6679999999999993,0.5187991201553145,0.2237128128621291,0.4697955107470696
3.671499999999994,0.4932317919428495,0.1938833906162941,0.4847093492053612
3.674999999999997,0.4889714432387313,0.136357338470561,0.4942981881158181
3.6785,0.5443664483677794,0.0937468701123714,0.5166698184678814
3.681999999999995,0.5113430735907947,0.02769837522915,0.5241258650324012
3.6854999999999976,0.4772533026408414,-0.0319587239332681,0.5187991201553145
3.689,0.4080091098972184,-0.0916158230956863,0.5187991201553145
3.692499999999996,0.274847469287059,-0.1374237346435295,0.508147375730393
3.695999999999998,0.1853609478788057,-0.1906876927558924,0.4996249329929048
3.699500000000001,0.136357338470561,-0.2162550209683574,0.508147375730393
3.702999999999996,0.0383501196540714,-0.2535404897787122,0.4868403962220463
3.7064999999999984,0.013849187614575,-0.274847469287059,0.4719265577637547
3.710000000000001,-0.1043986145372928,-0.2876302607286655,0.43890318298677
3.713499999999996,-0.247149094057909,-0.2950880526224372,0.3952245731263599
3.716999999999999,-0.3920288752659583,-0.286565609884949,0.3653968962097769
3.720500000000001,-0.5369104018032596,-0.2599318854995155,0.3579391043160051
3.7239999999999966,-0.6690056462404504,-0.2279731615662473,0.3536787556118869
3.727499999999999,-0.7041618133633722,-0.1906876927558924,0.3771150368076668
3.7309999999999945,-0.8128207766047831,-0.152337573101821,0.3920288752659583
3.734499999999997,-0.863955433029713,-0.138488385487246,0.3920288752659583
3.738,-0.9395927668233912,-0.1086607085706629,0.4165315526347067
3.741499999999995,-1.0407956835002825,-0.1033339636935762,0.4101401569139035
3.744999999999997,-1.0663630117127476,-0.1097253594143795,0.4239875991992265
3.7485,-1.0599698706626923,-0.1182478021518678,0.4495549274116914
3.7519999999999953,-1.030142193746109,-0.1672514115601126,0.4431635316908882
3.755499999999998,-0.9257435792088164,-0.2151903701246408,0.4357057397971164
3.759,-0.8511726415881066,-0.2854992137119804,0.4016177141764152
3.762499999999996,-0.8128207766047831,-0.369657244913895,0.3494166615785167
3.7659999999999982,-0.7222713496820654,-0.4623394641825499,0.302544099186957
3.7695000000000007,-0.7041618133633722,-0.5294526099094878,0.2684543282370038
3.772999999999996,-0.6104149432510009,-0.6231994800218592,0.2258421145495622
3.776499999999999,-0.4996249329929048,-0.6903126257487973,0.2226464166891606
3.780000000000001,-0.4144005056180216,-0.780862052671515,0.1928187397725775
3.783499999999997,-0.3281114273994219,-0.863955433029713,0.1619246666830259
3.786999999999999,-0.2556715367953973,-0.9651583497066044,0.1342280367831279
3.7904999999999935,-0.2695207244099723,-1.0461224283773694,0.1012029166768912
3.793999999999997,-0.2024058333537824,-1.1409322040042051,0.0745709376207097
3.7975,-0.1576643179789077,-1.203785001027025,0.0735062867769931
3.800999999999995,-0.0873537290623162,-1.2996629181560817,0.0479389585645282
3.804499999999997,0.0255673282124649,-1.3657114130393029,0.041545817514473
3.808,0.1086607085706629,-1.453065142101619,0.0042603487041181
3.8114999999999952,0.1470108282247343,-1.5191136369848404,-0.0490036094082447
3.8149999999999977,0.2226464166891606,-1.57770433997429,-0.096942567972773
3.8185,0.2215817658454441,-1.603271668186755,-0.1352926876268444
3.821999999999996,0.2982837504828389,-1.6288389963992198,-0.1768385051413174
3.825499999999998,0.3941599222826434,-1.6181855066450466,-0.1864273440517743
3.8290000000000006,0.4634041150262664,-1.606467366047157,-0.2269085107225308
3.832499999999996,0.5411707505073777,-1.6000759703263534,-0.2641939795328856
3.8359999999999994,0.5720648235969293,-1.5702482934097703,-0.3014794483432405
3.839500000000001,0.5209301671719996,-1.5542680587785105,-0.3440916620306821
3.842999999999997,0.5006895838366213,-1.5287007305660454,-0.369657244913895
3.846499999999999,0.4602084171658648,-1.4956773557890606,-0.3643322453660603
3.8499999999999934,0.4080091098972184,-1.4658479335432255,-0.3792460838243518
3.853499999999997,0.4218582975117934,-1.4381513036433275,-0.3664615470534934
3.8569999999999993,0.3366338701369103,-1.3966037407996024,-0.369657244913895
3.8604999999999943,0.2503447919183106,-1.3710364125871377,-0.3909642244222418
3.863999999999997,0.1235745470289545,-1.314576756614373,-0.38350643252847
3.8675,-0.0372854688103548,-1.2666377980498449,-0.3824417816847534
3.870999999999995,-0.1821652500184041,-1.2112427929207967,-0.3590055004889736
3.8744999999999976,-0.260998281672484,-1.1633038343562685,-0.314262239784847
3.878,-0.3856374795451551,-1.131345110423,-0.2876302607286655
3.881499999999996,-0.4239875991992265,-1.1292140634063152,-0.274847469287059
3.884999999999998,-0.5166698184678814,-1.1398675531604887,-0.258867234655799
3.888500000000001,-0.6157416881280875,-1.1590434856521503,-0.2812388650078622
3.891999999999996,-0.6540918077821589,-1.196328954462505,-0.2876302607286655
3.8954999999999984,-0.6743323911175372,-1.2091117459041116,-0.2823035158515788
3.899000000000001,-0.6594185526592456,-1.2506593087478366,-0.2961527034661538
3.902499999999996,-0.6200020368322057,-1.2943361732789946,-0.3153286359578155
3.905999999999999,-0.5156034222949128,-1.3305552459163812,-0.3174579376452486
3.909500000000001,-0.4825800475179281,-1.3752985066205077,-0.3579391043160051
3.9129999999999967,-0.4154651564617382,-1.427497813889154,-0.3867021303888716
3.916499999999999,-0.42292294835551,-1.464783282699509,-0.4175962034784233
3.9199999999999946,-0.3483520107348002,-1.518048986141124,-0.4431635316908882
3.923499999999997,-0.2695207244099723,-1.569181897236802,-0.4665998128866681
3.927,-0.1832316461913727,-1.6022070173430385,-0.4634041150262664
3.930499999999995,-0.1203788491685528,-1.6512106267512834,-0.4932317919428495
3.9339999999999975,-0.041545817514473,-1.706605631880331,-0.5124077244345112
3.9375,-0.0117181405978899,-1.769458428903151,-0.5326483077698895
3.9409999999999954,-0.0458079115478431,-1.8355069237863724,-0.5635423808594411
3.944499999999998,-0.0490036094082447,-1.9281873977257755,-0.5603466829990394
3.948,-0.0735062867769931,-1.9953005434527131,-0.5443664483677794
3.951499999999996,-0.083093380358198,-2.121006137498353,-0.5262569120490862
3.9549999999999983,-0.0330233747769847,-2.220078007158559,-0.5028206308533064
3.958500000000001,-0.0426122136874415,-2.366024184539577,-0.4868403962220463
3.961999999999996,-0.069244192743623,-2.4917297785852166,-0.5028206308533064
3.965499999999999,-0.1022693128498597,-2.647263049547439,-0.4868403962220463
3.969000000000001,-0.191754088928861,-2.758053059805535,-0.4815136513449596
3.9724999999999966,-0.2418223491808223,-2.8954767944490647,-0.4538170214450616
3.975999999999999,-0.247149094057909,-2.973243429930176,-0.4037470158638482
3.9794999999999945,-0.302544099186957,-3.087230883377926,-0.3664615470534934
3.982999999999997,-0.3014794483432405,-3.1639328680153205,-0.3483520107348002
3.9865,-0.3707236410868635,-3.244895201356833,-0.316393286801532
3.989999999999995,-0.4729912086074713,-3.3034859043462834,-0.3249157295390203
3.993499999999997,-0.547562146228181,-3.361011956492016,-0.3100018910807288
3.997,-0.626395177882261,-3.379121492810709,-0.2876302607286655
4.000499999999995,-0.697768672313317,-3.394035331269001,-0.2844345628682639
4.003999999999998,-0.7052264642070888,-3.392970680425284,-0.2599318854995155
4.0075,-0.8021690321798618,-3.375925794950308,-0.2695207244099723
4.010999999999996,-0.8831313655213747,-3.3631430035087018,-0.2993484013265554
4.014499999999998,-1.016293006131534,-3.3034859043462834,-0.3217200316786187
4.018000000000001,-1.18247976684793,-3.243828805183865,-0.341960615013997
4.021499999999996,-1.3188371053184913,-3.1458215863673757,-0.3685925940701784
4.024999999999999,-1.390212345078799,-3.049945414567571,-0.3675279432264619
4.028500000000001,-1.5148515429514704,-2.927435518382333,-0.4016177141764152
4.0319999999999965,-1.5563991057951954,-2.849668882901222,-0.4325100419367148
4.035499999999999,-1.6671891160532917,-2.76018410682222,-0.4761869064678729
4.038999999999994,-1.7960904079593327,-2.715442591447346,-0.5369104018032596
4.042499999999997,-1.8930329759321056,-2.680286424324424,-0.5816519171781342
4.045999999999999,-1.984648799027792,-2.6696346798995023,-0.6114795940947174
4.049499999999995,-2.0560222934588483,-2.707984799553574,-0.6572875056425604
4.052999999999997,-2.04004380415684,-2.761248757665937,-0.6722030894301041
4.0565,-2.069871481073423,-2.87417156026997,-0.7169446048049787
4.059999999999995,-2.0688068302297067,-2.99561506028224,-0.7723396099340267
4.063499999999998,-2.062415434508903,-3.156475076121549,-0.8138871727777518
4.067,-2.1124836947608645,-3.2821806701671887,-0.8490415945714216
4.070499999999996,-2.09117846058177,-3.4483656855543323,-0.8724778757672014
4.073999999999998,-2.05176194475473,-3.557026394124996,-0.8564993864651933
4.077500000000001,-2.008085080223572,-3.7210821078247065,-0.8533036886047917
4.080999999999996,-1.920729605832004,-3.844656654853661,-0.8469105475547365
4.084499999999999,-1.8610742519988372,-3.998058878799199,-0.8415838026776498
4.088000000000001,-1.8461604135405456,-4.120568774984436,-0.8650218292026817
4.091499999999996,-1.781176569501041,-4.237751926292588,-0.8735442719401699
4.094999999999999,-1.7620006370093797,-4.309125420723644,-0.8714132249234848
4.098499999999994,-1.6831693506845515,-4.386892056204755,-0.8852624125380599
4.101999999999997,-1.575575038286857,-4.417786129294306,-0.8692821779067997
4.105499999999999,-1.5233739856889583,-4.434831014769284,-0.8607597351693115
4.108999999999995,-1.4754367724536823,-4.445484504523457,-0.8767399698005716
4.112499999999997,-1.4573254908057371,-4.415655082277622,-0.8650218292026817
4.116,-1.506329100213982,-4.386892056204755,-0.8586286881526264
4.119499999999995,-1.506329100213982,-4.338954842969479,-0.8298656620797599
4.1229999999999976,-1.5010041006661472,-4.277166696790376,-0.7840577505319166
4.1265,-1.5191136369848404,-4.205793202359319,-0.7563611206320187
4.129999999999996,-1.4935463087723757,-4.153592149761422,-0.7286627454028686
4.133499999999998,-1.5414852673369035,-4.077956561296995,-0.6913772765925138
4.1370000000000005,-1.624578647695102,-4.027888301045034,-0.6903126257487973
4.140499999999996,-1.6874296993886695,-3.951186316407639,-0.6391779693238674
4.143999999999998,-1.7566738921322929,-3.888333519384819,-0.605088198373914
4.147500000000001,-1.7854369182051593,-3.81802467579748,-0.5763251723010476
4.150999999999996,-1.7332376109365126,-3.763694321512148,-0.5486285424011496
4.154499999999999,-1.7108677259137015,-3.6901880347351543,-0.5454328445407479
4.158000000000001,-1.6853003977012364,-3.631597331745705,-0.5635423808594411
4.161499999999997,-1.6725158609303783,-3.524003019348011,-0.5518242402615512
4.164999999999999,-1.727910866059426,-3.431320800079356,-0.5496931932448661
4.1684999999999945,-1.7332376109365126,-3.2864410188713067,-0.5134723752782278
4.171999999999997,-1.7161927254615363,-3.162866471842352,-0.4591437663221482
4.1755,-1.7044745848636462,-3.020115992321736,-0.4175962034784233
4.178999999999995,-1.629903647242937,-2.917848424801128,-0.3867021303888716
4.182499999999997,-1.573443991270172,-2.7878824820513706,-0.3611348021764067
4.186,-1.555332709622227,-2.714376195274377,-0.355809802628572
4.189499999999995,-1.464783282699509,-2.628087117055778,-0.3281114273994219
4.192999999999998,-1.4264331630454377,-2.5748231589434147,-0.2961527034661538
4.1965,-1.3497311784080428,-2.5311462944122565,-0.2652586303766022
4.199999999999996,-1.254919657451955,-2.5077082678872245,-0.2247774637058457
4.203499999999998,-1.22935232923949,-2.49812117430602,-0.2002765316663493
4.207000000000001,-1.2240255843624033,-2.530079898239288,-0.2066679273871525
4.210499999999996,-1.2272212822228048,-2.581214554664218,-0.1928187397725775
4.213999999999999,-1.282618032681105,-2.634478512776581,-0.1970790884766957
4.217500000000001,-1.2762248916310497,-2.706920148709857,-0.1949497867892626
4.2209999999999965,-1.2346790741165767,-2.759119455978504,-0.1768385051413174
4.224499999999999,-1.21017814207708,-2.8390171384763003,-0.1874919948954908
4.227999999999994,-1.1526520899313473,-2.901868190169868,-0.2045368803704674
4.231499999999997,-1.1526520899313473,-2.9657873833656563,-0.233299906443334
4.234999999999999,-1.208047095060395,-3.012659945757216,-0.2716500260974054
4.238499999999995,-1.2368101211332618,-3.051010065411288,-0.2961527034661538
4.241999999999997,-1.2836826835248214,-3.0574014611320908,-0.2918906094327836
4.2455,-1.2911404754185931,-3.0648592530258623,-0.302544099186957
4.248999999999995,-1.215503141624915,-3.059532508148776,-0.2929570056057522
4.252499999999998,-1.1515856937583784,-3.0605989043217443,-0.2982837504828389
4.256,-1.0897992929085274,-3.072317044919634,-0.3249157295390203
4.259499999999996,-0.9896610270753528,-3.0627282060091776,-0.3334381722765087
4.262999999999998,-0.9768764903044942,-3.0382272739696807,-0.3504830577514853
4.266500000000001,-0.8959141569629812,-2.9764391277905777,-0.3526141047681703
4.269999999999996,-0.847976943727705,-2.893347492761632,-0.3494166615785167
4.273499999999999,-0.7861887975486017,-2.8070584145430324,-0.3217200316786187
4.277000000000001,-0.7606214693361367,-2.706920148709857,-0.3057397970473587
4.280499999999996,-0.7126842561008605,-2.648327700391156,-0.3057397970473587
4.283999999999999,-0.7073575112237738,-2.567365367049643,-0.3014794483432405
4.287499999999994,-0.7563611206320187,-2.532210945255973,-0.3259803803827369
4.290999999999997,-0.7393162351570419,-2.5034479191831065,-0.3376985209806268
4.294499999999999,-0.7435765838611602,-2.4778805909706416,-0.3387649171535954
4.297999999999995,-0.7190756518216638,-2.4778805909706416,-0.3579391043160051
4.301499999999997,-0.6466357612176391,-2.4757495439539565,-0.3685925940701784
4.305,-0.6189373859884891,-2.483207335847728,-0.3867021303888716
4.308499999999995,-0.616806338971804,-2.50238326833939,-0.4207919013388249
4.311999999999998,-0.5997614534968274,-2.4917297785852166,-0.4282496932325966
4.3155,-0.6477004120613556,-2.476815940126925,-0.4303807402492817
4.318999999999996,-0.642373667184269,-2.444857216193657,-0.4175962034784233
4.322499999999998,-0.5933700577760241,-2.4075717473833023,-0.3824417816847534
4.3260000000000005,-0.5635423808594411,-2.378808721310436,-0.3643322453660603
4.329499999999996,-0.4964292351325031,-2.371350929416664,-0.3579391043160051
4.332999999999998,-0.4463592295512898,-2.3777423251374668,-0.3504830577514853
4.336500000000001,-0.452750625272093,-2.402245002506215,-0.3632658491930918
4.339999999999996,-0.3930952714389268,-2.441661518333255,-0.3675279432264619
4.343499999999999,-0.3536787556118869,-2.4597710546519487,-0.3504830577514853
4.346999999999994,-0.2812388650078622,-2.505578966199792,-0.3579391043160051
4.350499999999997,-0.1811005991746876,-2.5194281538143666,-0.3494166615785167
4.353999999999999,-0.1448797812080492,-2.530079898239288,-0.3483520107348002
4.357499999999995,-0.1438151303643327,-2.5258195495351696,-0.369657244913895
4.360999999999997,-0.1459461773810178,-2.4885340807248157,-0.3685925940701784
4.3645,-0.2087989744038376,-2.440595122160287,-0.3600701513326901
4.367999999999995,-0.219450718828759,-2.374546627277065,-0.3611348021764067
4.3714999999999975,-0.1842962970350892,-2.320216272991734,-0.3430252658577135
4.375,-0.1619246666830259,-2.292519643091836,-0.3771150368076668
4.378499999999995,-0.1182478021518678,-2.294648944779269,-0.4186608543221398
4.381999999999998,-0.1235745470289545,-2.2882575490584656,-0.4559463231324946
4.3855,-0.1874919948954908,-2.283997200354348,-0.4996249329929048
4.388999999999996,-0.2066679273871525,-2.262690220846,-0.5401060996636612
4.392499999999998,-0.2279731615662473,-2.2264711482086144,-0.5443664483677794
4.396000000000001,-0.2631275833599171,-2.18918567939826,-0.5699337765802444
4.399499999999996,-0.2354309534600191,-2.152964861431621,-0.5709984274239609
4.402999999999999,-0.2737810731140905,-2.105025902867093,-0.5805872663344177
4.406500000000001,-0.3249157295390203,-2.072002528090108,-0.6040235475301975
4.409999999999997,-0.355809802628572,-2.017672173804777,-0.5933700577760241
4.413499999999999,-0.4197272504951083,-1.9580150746423584,-0.5752605214573311
4.4169999999999945,-0.4314453910929982,-1.881314835334216,-0.5528888911052677
4.420499999999997,-0.3909642244222418,-1.7982214549760178,-0.5113430735907947
4.424,-0.38350643252847,-1.6746469079470632,-0.4942981881158181
4.427499999999995,-0.3515477085952018,-1.5798353869909751,-0.4974938859762197
4.430999999999997,-0.3302424744161071,-1.4243021160287526,-0.4932317919428495
4.4345,-0.3600701513326901,-1.3071189647206012,-0.5006895838366213
4.437999999999995,-0.3068061932203272,-1.1430632510208902,-0.5070809795574245
4.441499999999998,-0.2450180470412239,-1.009901610410731,-0.4964292351325031
4.445,-0.138488385487246,-0.84584589671102,-0.5251905158761178
4.448499999999996,0.0106534897541733,-0.7116178599278921,-0.5443664483677794
4.451999999999998,0.136357338470561,-0.5358440056302911,-0.5955011047927092
4.455500000000001,0.2151903701246408,-0.41120480775762,-0.6594185526592456
4.458999999999996,0.3291760782431385,-0.2301042085829324,-0.7169446048049787
4.462499999999999,0.3707236410868635,-0.0873537290623162,-0.7446429800341288
4.466000000000001,0.4740576047804398,0.0713752397603081,-0.7840577505319166
4.4694999999999965,0.5891097090719061,0.1896230419121759,-0.7840577505319166
4.472999999999999,0.6668763445530174,0.3110665419244454,-0.8245406625319252
4.476499999999994,0.7403808860007585,0.3771150368076668,-0.8682175270630832
4.479999999999997,0.7702103082465936,0.4793843496575265,-0.9065676467171546
4.483499999999999,0.7244023966987505,0.5539552872782363,-0.947048813387911
4.486999999999995,0.7084221620674903,0.6477004120613556,-0.9651583497066044
4.490499999999997,0.6903126257487973,0.727598094559152,-0.9513109074212812
4.494,0.6540918077821589,0.8043000791965469,-0.960898001002486
4.497499999999995,0.6775280889779387,0.8415838026776498,-0.952375558264998
4.500999999999998,0.6455693650446706,0.8660864800463982,-0.9630290480191712
4.5045,0.5965657556364258,0.8543683394485082,-0.9949877719524394
4.507999999999996,0.5741958706136145,0.8351924069568466,-1.009901610410731
4.511499999999998,0.5187991201553145,0.8181475214818699,-1.014161959114849
4.515000000000001,0.5166698184678814,0.780862052671515,-1.0194887039919358
4.518499999999996,0.5763251723010476,0.7691439120736251,-0.9949877719524394
4.521999999999999,0.6157416881280875,0.7595568184924202,-0.9853989330419826
4.525500000000001,0.6817901830113089,0.7520990265986485,-0.9811385843378644
4.528999999999996,0.7563611206320187,0.7659482142132235,-0.9555712561253994
4.532499999999999,0.7638171671965385,0.780862052671515,-0.9395927668233912
4.535999999999994,0.863955433029713,0.8319967090964449,-0.901240901840068
4.539499999999997,0.9385263706504228,0.9044365997004696,-0.8415838026776498
4.542999999999999,1.039729287327314,0.9992481206565574,-0.7979069381464917
4.546499999999995,1.1505210429146622,1.0802104539980706,-0.7499697249112154
4.549999999999997,1.1931332566021038,1.203785001027025,-0.6956393706258839
4.5535,1.167565928389639,1.2932697771060262,-0.6817901830113089
4.556999999999995,1.132411506595969,1.421106418168351,-0.6253287817092923
4.5604999999999976,1.0461224283773694,1.520178287828557,-0.5859140112115044
4.564,0.9651583497066044,1.6320346942596218,-0.5358440056302911
4.567499999999996,0.9363953236337376,1.7225858665115914,-0.4857757453783297
4.570999999999998,0.8224096155152401,1.825918084875916,-0.4506213235846599
4.5745000000000005,0.7446429800341288,1.894097626775822,-0.4293143440763132
4.577999999999996,0.600827849669796,1.9931712417652805,-0.38350643252847
4.581499999999998,0.4367721359700849,2.0613490383359347,-0.355809802628572
4.585000000000001,0.2918906094327836,2.1710743977503144,-0.2844345628682639
4.588499999999996,0.1960144376329791,2.2658859187064024,-0.2098636252475541
4.591999999999999,0.0884201252352847,2.382004419170837,-0.138488385487246
4.595500000000001,0.0916158230956863,2.4778805909706416,-0.0884201252352847
4.598999999999997,0.0809623333415129,2.613173278597486,-0.0532657034416149
4.602499999999999,0.1193124529955843,2.6962666589556843,-0.0543303542853314
4.6059999999999945,0.2972173543098703,2.804927367526347,-0.0191759324916617
4.609499999999997,0.4516859744283765,2.8901500495719783,0.0149138384582915
4.613,0.780862052671515,2.974309826103145,0.055395005129048
4.616499999999995,1.1132355741043072,3.0329005290925943,0.1043986145372928
4.619999999999997,1.5159179391244388,3.0637946021821456,0.1225098961852379
4.6235,1.9100778614070824,3.055272159444658,0.1352926876268444
4.626999999999995,2.2040995178565512,3.020115992321736,0.1225098961852379
4.630499999999998,2.5215574555018,2.979634825650979,0.124639197872671
4.634,2.641936304670353,2.9402200551531914,0.1214435000122694
4.637499999999996,2.8177101589679534,2.88588970086786,0.1406194325039311
4.640999999999998,2.8944121436053485,2.861387023499112,0.1864273440517743
4.644500000000001,2.8826940030074586,2.8177101589679534,0.2364956043037356
4.647999999999996,2.84647318504082,2.7996006226492605,0.2876302607286655
4.651499999999999,2.597194789295478,2.802796320509662,0.3717882919305801
4.655000000000001,2.2903885960751507,2.8081230653867486,0.4207919013388249
4.6584999999999965,1.826984481048884,2.8379507423033314,0.5219948180157161
4.661999999999999,1.399799438660004,2.860322372655395,0.605088198373914
4.665499999999994,0.8383881048172481,2.8901500495719783,0.7041618133633722
4.668999999999997,0.4442281825346047,2.9263708675386164,0.7915155424256883
4.672499999999999,-0.1278348957330726,2.9892236645614365,0.8703468287505163
4.675999999999995,-0.4985585368199362,3.042487622673799,0.9097633445775564
4.679499999999997,-0.9300039279129344,3.137299143629887,0.9694204437399744
4.683,-1.2282876783957732,3.21080543040688,1.0045748655336442
4.686499999999995,-1.4285624647328707,3.336509279123268,1.0546431257856057
4.689999999999998,-1.4882195638952889,3.4579545244647893,1.1185623189813938
4.6935,-1.4615875848391076,3.6145524462707286,1.164370230529237
4.696999999999996,-1.3028586160164832,3.7274735035455095,1.1984582561499384
4.700499999999998,-1.067427662556464,3.861701540328637,1.2165695377978836
4.704000000000001,-0.8447812458673034,3.9352060817763785,1.1931332566021038
4.707499999999996,-0.4420988808471717,4.031083998905436,1.1728926732667255
4.710999999999999,-0.136357338470561,4.090741098067854,1.1547813916187804
4.714500000000001,0.3590055004889736,4.141874009163532,1.1217580168417955
4.717999999999996,0.7797974018277984,4.177030176286453,1.1164312719647087
4.721499999999999,1.2740955899436164,4.195139712605147,1.0748854544502358
4.724999999999994,1.6384260899804248,4.181290524990572,1.0344025424502272
4.728499999999997,2.0251299656985484,4.178094827130169,0.9949877719524394
4.731999999999999,2.1966417259627797,4.161049941655193,0.947048813387911
4.735499999999995,2.4203545388249084,4.13122226473861,0.9140254386109264
4.738999999999997,2.518361757641398,4.106719587369861,0.9182857873150446
4.7425,2.583345601680903,4.036410743782522,0.9044365997004696
4.745999999999995,2.638740606809951,3.969295852726332,0.912959042437958
4.749499999999998,2.578018856803816,3.8574394462952672,0.9044365997004696
4.753,2.481076288831044,3.757302925791345,0.8703468287505163
4.756499999999996,2.3436525541875133,3.62946628472902,0.8437148496943347
4.759999999999998,2.1710743977503144,3.5367858107896173,0.8170828706381533
4.7635000000000005,1.9867781007152248,3.413211263760662,0.780862052671515
4.766999999999996,1.873857043440444,3.3492938158941263,0.7829930996882002
4.770499999999998,1.654406324611685,3.2821806701671887,0.7616878655091054
4.774000000000001,1.5105911942473522,3.2385020603067787,0.7457076308778453
4.777499999999996,1.267704194222813,3.2022829876693923,0.7552947244590501
4.780999999999999,1.030142193746109,3.182042404334014,0.7563611206320187
4.784499999999994,0.8043000791965469,3.164997518859037,0.7893844954090034
4.787999999999997,0.6508961099217573,3.162866471842352,0.8298656620797599
4.791499999999999,0.4932317919428495,3.1458215863673757,0.8682175270630832
4.794999999999995,0.464468765869983,3.130907747909084,0.9044365997004696
4.798499999999997,0.3675279432264619,3.113862862434108,0.9300039279129344
4.802,0.3057397970473587,3.093622279098729,0.9236125321921312
4.805499999999995,0.2396913021641372,3.1000136748195324,0.940657417667108
4.8089999999999975,0.1459461773810178,3.113862862434108,0.944917766371226
4.8125,0.0937468701123714,3.160735424825667,0.9651583497066044
4.815999999999995,0.0926804739394028,3.2161321752839678,1.0035102146899275
4.819499999999998,0.0617864008498512,3.2896367167317084,1.0280111467294242
4.823,0.0820287295144815,3.358880909475331,1.0333378916065108
4.826499999999996,0.0564614013020165,3.479259758643884,1.0482517300648024
4.829999999999998,0.002131047016685,3.576202326616657,1.037599985639881
4.833500000000001,0.0042603487041181,3.7381269932996832,1.0695587095731491
4.836999999999996,-0.002131047016685,3.8798110766473295,1.1196269698251105
4.840499999999999,0.0649838440395048,4.060911675822019,1.1910022095854185
4.844000000000001,0.2002765316663493,4.191944014744744,1.2708998920832149
4.847499999999997,0.3430252658577135,4.335759145109078,1.3550579232851294
4.850999999999999,0.4761869064678729,4.4050033378527,1.390212345078799
4.8544999999999945,0.6711366932571355,4.489161369054615,1.4615875848391076
4.857999999999997,0.7638171671965385,4.523251140004569,1.4999377044931788
4.8615,0.9481134642316276,4.550949515233718,1.5436145690243368
4.864999999999995,1.0983217356460158,4.56160125965864,1.6022070173430385
4.868499999999997,1.2485282617311515,4.533904629758742,1.6394924861533935
4.872,1.3923433920954844,4.478507879300442,1.6661244652095748
4.875499999999995,1.4914152617556906,4.370913566902747,1.6927564442657563
4.878999999999998,1.502068751509864,4.256926113454997,1.6895607464053546
4.8825,1.5350921262868489,4.079021212140711,1.695952142126158
4.885999999999996,1.5031334023535805,3.921358639491056,1.706605631880331
4.889499999999998,1.4594565378224222,3.66888280055606,1.693822840438725
4.893000000000001,1.4413470015037293,3.4696726650626792,1.695952142126158
4.896499999999996,1.3049879177039163,3.186302753038132,1.6639934181928897
4.899999999999999,1.1718262770937566,2.974309826103145,1.614989808784645
4.903500000000001,0.9353306727900212,2.738878872643125,1.5627905015159986
4.9069999999999965,0.6913772765925138,2.578018856803816,1.5010041006661472
4.910499999999999,0.4495549274116914,2.3990493046458137,1.4434780485204144
4.913999999999994,0.2950880526224372,2.2903885960751507,1.4264331630454377
4.917499999999997,0.1043986145372928,2.1636183511857947,1.383820949357996
4.920999999999999,0.0404811666707564,2.0730671789338246,1.3593182719892478
4.924499999999995,-0.1065296615539778,1.9761263562903035,1.338013037810153
4.927999999999997,-0.2524758389349957,1.903686465686279,1.3092500117372865
4.9315,-0.4282496932325966,1.8610742519988372,1.328425944228948
4.934999999999995,-0.6125459902676859,1.8685302985633567,1.3635803660226178
4.938499999999998,-0.8277363603923268,1.9079468143903973,1.4168443241349806
4.942,-0.9555712561253994,1.9676039135528156,1.486088516878604
4.945499999999996,-1.167565928389639,2.0506972939110133,1.5393542203202186
4.948999999999998,-1.2932697771060262,2.1103526477441794,1.5670525955493688
4.952500000000001,-1.4413470015037293,2.1795968404878026,1.6075337622201251
4.955999999999996,-1.5702482934097703,2.2115573097503227,1.61285876176796
4.959499999999999,-1.6309700434159051,2.2168823092981573,1.6362967882929915
4.963000000000001,-1.65653737162837,2.2062305648732363,1.64481923103048
4.966499999999996,-1.677842605807465,2.142311371677448,1.626707949382535
4.969999999999999,-1.648014928890882,2.0762646221234786,1.60114062117007
4.973499999999994,-1.7012788870032447,1.97719100713402,1.545745616041022
4.976999999999997,-1.7865033143781277,1.8791837883175309,1.4775660741411154
4.980499999999999,-1.9111425122507988,1.7620006370093797,1.4243021160287526
4.983999999999995,-2.0688068302297067,1.6810383036678664,1.3912769959225155
4.987499999999997,-2.222209054175244,1.5532034079347938,1.361449319005933
4.991,-2.2871928982147494,1.460522933995391,1.3689071108997044
4.994499999999995,-2.3990493046458137,1.3039232668601997,1.340144084826838
4.9979999999999976,-2.4299416324061136,1.1622391835125518,1.3060543138768848
5.0015,-2.49812117430602,0.9875299800586675,1.2559843082956712
5.004999999999996,-2.5567118772954696,0.8181475214818699,1.208047095060395
5.008499999999998,-2.658981190145329,0.7126842561008605,1.16649953221667
5.0120000000000005,-2.731421080749353,0.6178727351447726,1.1611727873395834
5.015499999999996,-2.803860971353379,0.5752605214573311,1.2005893031666235
5.018999999999998,-2.8699094662366,0.5241258650324012,1.2410704698373798
5.022500000000001,-2.84647318504082,0.4825800475179281,1.2911404754185931
5.025999999999996,-2.84647318504082,0.4175962034784233,1.3081853608935698
5.029499999999999,-2.835819695286647,0.3408942188410284,1.2794223348207032
5.033000000000001,-2.7964049247888583,0.2524758389349957,1.2272212822228048
5.036499999999997,-2.8198412059846385,0.2013411825100658,1.1633038343562685
5.039999999999999,-2.8166455081242368,0.1427504795206162,1.051447427925204
5.0434999999999945,-2.8091877162304653,0.1171831513081512,0.9811385843378644
5.046999999999997,-2.868844815392884,0.0756355884644262,0.8341277561131301
5.0505,-2.901868190169868,0.0362208179666383,0.7158799539612621
5.053999999999995,-3.0115952949135,-0.0074577918937717,0.5528888911052677
5.057499999999997,-3.14369053935069,-0.055395005129048,0.4037470158638482
5.061,-3.278983226977535,-0.110790010258096,0.2439533961975074
5.064499999999995,-3.4100155659002613,-0.1459461773810178,0.1374237346435295
5.067999999999998,-3.557026394124996,-0.1928187397725775,-0.0149138384582915
5.0715,-3.637988727466509,-0.2109282760912707,-0.1054650107102613
5.074999999999996,-3.807371186043306,-0.2183860679850424,-0.2375620004767041
5.078499999999998,-3.9330767800889457,-0.2226464166891606,-0.3366338701369103
5.082000000000001,-4.101392842492775,-0.1821652500184041,-0.4197272504951083
5.085499999999996,-4.270775301069572,-0.138488385487246,-0.4708619069200382
5.088999999999999,-4.410330082729787,-0.0681795418999064,-0.4697955107470696
5.092500000000001,-4.491292416071301,0.0223716303520633,-0.397355620143045
5.0959999999999965,-4.5956910306085925,0.1555332709622227,-0.2769767709744921
5.099499999999999,-4.597822077625278,0.2769767709744921,-0.1352926876268444
5.102999999999994,-4.629780801558547,0.4665998128866681,0.1150521042914662
5.106499999999997,-4.631910103245979,0.600827849669796,0.3195889846619337
5.109999999999999,-4.527511488708687,0.7893844954090034,0.6349176206197492
5.113499999999995,-4.423112874171394,0.921481485175446,0.8788692714880046
5.116999999999997,-4.152527498917705,1.0642319646960623,1.1728926732667255
5.1205,-3.856374795451551,1.1494546467416935,1.3859519963746811
5.123999999999995,-3.487782201381372,1.2112427929207967,1.60540271520344
5.127499999999998,-3.1841734513506985,1.21017814207708,1.723650517355308
5.131,-2.8517999299179064,1.1771530219708437,1.8568121579654675
5.134499999999996,-2.706920148709857,1.1185623189813938,1.897293324636224
5.137999999999998,-2.530079898239288,1.0205551001649042,1.944167632357036
5.141500000000001,-2.47468489311024,0.9481134642316276,1.972930658429902
5.144999999999996,-2.464031403356066,0.8074957770569485,1.956950423798642
5.148499999999999,-2.45124861191446,0.6871169278883955,1.944167632357036
5.152000000000001,-2.5567118772954696,0.5145387714511963,1.8834458823509008
5.155499999999996,-2.668568283726534,0.3653968962097769,1.790763663082246
5.158999999999999,-2.8390171384763003,0.1949497867892626,1.6810383036678664
5.162499999999994,-3.036096226952996,0.0862890782185996,1.5851621318680618
5.165999999999997,-3.25767799279844,-0.055395005129048,1.4658479335432255
5.169499999999999,-3.424929404358553,-0.1320969897664428,1.3966037407996024
5.172999999999995,-3.705103618522698,-0.2386266513204207,1.2815516365081363
5.176499999999997,-3.890464566401504,-0.3068061932203272,1.201655699339592
5.18,-4.185552619023942,-0.3632658491930918,1.122822667685512
5.183499999999995,-4.434831014769284,-0.3771150368076668,1.0716880112605822
5.186999999999998,-4.668130921212618,-0.3366338701369103,1.073819058277267
5.1905,-4.824728843018557,-0.2716500260974054,1.1132355741043072
5.193999999999996,-4.901430827655951,-0.1747092034538843,1.1728926732667255
5.197499999999998,-4.860949660985195,-0.0958761717998045,1.2304187254124583
5.2010000000000005,-4.808750353716548,-0.002131047016685,1.2858137305415065
5.204499999999996,-4.7309837182354375,0.0585907029894496,1.3081853608935698
5.207999999999998,-4.627649754541861,0.1352926876268444,1.3603846681622165
5.211500000000001,-4.593559983591907,0.1811005991746876,1.379558855324626
5.214999999999996,-4.4870303220379295,0.2311688594266489,1.397670136972571
5.218499999999999,-4.402872290836015,0.2695207244099723,1.4104529284141776
5.221999999999994,-4.335759145109078,0.2972173543098703,1.3593182719892478
5.225499999999997,-4.270775301069572,0.314262239784847,1.314576756614373
5.228999999999999,-4.318714259634101,0.341960615013997,1.2165695377978836
5.232499999999995,-4.425243921188079,0.3600701513326901,1.1153666211209925
5.235999999999997,-4.599953124641964,0.3888331774055567,1.0152283552878176
5.2395,-4.817272796454038,0.4165315526347067,0.9459841625441944
5.242999999999995,-5.063355494338977,0.425053995372195,0.8692821779067997
5.2464999999999975,-5.214628416597082,0.4303807402492817,0.8256053133756417
5.25,-5.436210182442526,0.4048134120368167,0.727598094559152
5.253499999999995,-5.556589031611079,0.3685925940701784,0.6317219227593476
5.256999999999998,-5.734493932925365,0.3153286359578155,0.5092120265741096
5.2605,-5.895353948764675,0.2705853752536888,0.3941599222826434
5.263999999999996,-6.056213964603984,0.2151903701246408,0.2695207244099723
5.267499999999998,-6.187244558197458,0.1768385051413174,0.2119946722642392
5.271000000000001,-6.34277782915968,0.1033339636935762,0.150206526085136
5.274499999999996,-6.415217719763706,0.0511346564249298,0.1565979218059392
5.277999999999999,-6.583535527496786,0.0010646508437165,0.2024058333537824
5.281500000000001,-6.697521235615285,-0.0319587239332681,0.2524758389349957
5.284999999999997,-6.838140668119215,-0.0149138384582915,0.3760503859639502
5.288499999999999,-6.973433355746059,0.0319587239332681,0.4783179534845579
5.2919999999999945,-7.051199991227172,0.1289012919060412,0.6210684330051742
5.295499999999997,-7.054395689087572,0.2396913021641372,0.7435765838611602
5.299,-7.056526736104257,0.3813771308410369,0.8341277561131301
5.302499999999995,-6.9926092882377215,0.4900360940824479,0.8660864800463982
5.305999999999997,-6.940409980969076,0.6317219227593476,0.8671511308901148
5.3095,-6.923365095494098,0.725467047542467,0.8096250787443816
5.312999999999995,-6.848794157873389,0.84584589671102,0.725467047542467
5.316499999999998,-6.826422527521325,0.9310703240859032,0.6477004120613556
5.32,-6.784876710006852,1.0418603343439992,0.5092120265741096
5.323499999999996,-6.72735065786112,1.132411506595969,0.41120480775762
5.326999999999998,-6.745460194179812,1.2410704698373798,0.2578025838120824
5.330500000000001,-6.752917986073585,1.3156414074580896,0.1278348957330726
5.333999999999996,-6.782745662990168,1.4083218813974925,-0.0106534897541733
5.337499999999999,-6.844532063840019,1.4541297929453356,-0.1139874534477496
5.341000000000001,-6.849858808717106,1.494610959616092,-0.2396913021641372
5.3444999999999965,-6.848794157873389,1.5137868921077535,-0.3100018910807288
5.347999999999999,-6.862643345487963,1.492481657928659,-0.4335764381096833
5.351499999999994,-6.842402762152585,1.4349556057829258,-0.5209301671719996
5.354999999999997,-6.90312451215872,1.314576756614373,-0.6210684330051742
5.358499999999999,-6.995804986098124,1.1696952300770718,-0.7073575112237738
5.361999999999995,-7.100203600635416,0.9438531155275096,-0.7776663548111135
5.365499999999997,-7.217386751943567,0.6945729744529154,-0.8394545009902167
5.369,-7.33776560111212,0.5294526099094878,-0.8607597351693115
5.372499999999995,-7.462404798984791,0.3291760782431385,-0.8905874120858945
5.375999999999998,-7.532715387901383,0.2301042085829324,-0.8884581103984615
5.3795,-7.726598778517677,0.138488385487246,-0.917221136471328
5.382999999999996,-7.893850190077789,0.0990718696602061,-0.9598333501587696
5.386499999999998,-8.16017521662736,0.1022693128498597,-1.0013791676732426
5.390000000000001,-8.396670820931096,0.1203788491685528,-1.045056032204401
5.393499999999996,-8.608663747866082,0.1629910628559944,-1.0759501052939522
5.396999999999999,-8.709868409872227,0.219450718828759,-1.0695587095731491
5.400500000000001,-8.73969608678881,0.2844345628682639,-1.0748854544502358
5.403999999999996,-8.637428519268202,0.3302424744161071,-1.0716880112605822
5.407499999999999,-8.463783966658033,0.397355620143045,-1.0546431257856057
5.410999999999994,-8.294401508081236,0.4271832970596281,-1.0546431257856057
5.414499999999997,-7.982270315313074,0.4783179534845579,-1.022684401852337
5.417999999999999,-7.758557502450945,0.5145387714511963,-0.9917920740920376
5.421499999999995,-7.403814095995341,0.547562146228181,-0.972616141600376
5.424999999999997,-7.106594996356219,0.5656734278761262,-0.9491798604045962
5.4285,-6.773158569408962,0.5656734278761262,-0.9513109074212812
5.431999999999995,-6.522813777490652,0.5454328445407479,-0.972616141600376
5.4354999999999976,-6.223465376164096,0.5145387714511963,-0.9630290480191712
5.439,-6.054082917587299,0.4783179534845579,-0.9555712561253994
5.442499999999996,-5.776039750439838,0.4058780628805333,-0.9193504381587612
5.445999999999998,-5.5512622867339925,0.3387649171535954,-0.8628907821859965
5.4495000000000005,-5.299852843971965,0.1960144376329791,-0.8085604279006651
5.452999999999996,-5.0953159636014975,0.0639174478665363,-0.7755353077944284
5.456499999999998,-4.92167141099133,-0.1139874534477496,-0.7329248394362388
5.460000000000001,-4.86308070800188,-0.2503447919183106,-0.7297291415758372
5.463499999999996,-4.767204536202075,-0.4207919013388249,-0.6903126257487973
5.466999999999999,-4.7309837182354375,-0.547562146228181,-0.6391779693238674
5.470500000000001,-4.701156041318854,-0.7339894902799553,-0.5923054069323076
5.473999999999997,-4.6638705725085,-0.8831313655213747,-0.5486285424011496
5.477499999999999,-4.732048369079154,-1.0759501052939522,-0.5187991201553145
5.4809999999999945,-4.837513379789415,-1.2176341886416,-0.5230612141886847
5.484499999999997,-4.989850952891237,-1.3550579232851294,-0.5092120265741096
5.488,-5.145384223853459,-1.4243021160287526,-0.5028206308533064
5.491499999999995,-5.279612260636587,-1.4733057254369972,-0.5145387714511963
5.494999999999997,-5.32115807815106,-1.4626522356828238,-0.5092120265741096
5.4985,-5.369097036715588,-1.432824558766241,-0.5262569120490862
5.501999999999995,-5.369097036715588,-1.4061925797100594,-0.5496931932448661
5.505499999999998,-5.347790057207241,-1.3497311784080428,-0.5326483077698895
5.509,-5.356312499944729,-1.298596521983113,-0.508147375730393
5.512499999999996,-5.270023421726131,-1.2325480270998914,-0.4271832970596281
5.515999999999998,-5.168820505049238,-1.1707616262500404,-0.3334381722765087
5.519500000000001,-5.012222583243299,-1.1015174335064173,-0.2396913021641372
5.522999999999996,-4.852427218247707,-1.0429249851877156,-0.1768385051413174
5.526499999999999,-4.655348129771012,-0.9385263706504228,-0.1001382658331746
5.530000000000001,-4.538164978462859,-0.8660864800463982,-0.0767019846373948
5.5334999999999965,-4.3155185617737,-0.7403808860007585,-0.013849187614575
5.536999999999999,-4.155723196778107,-0.6477004120613556,0.0500682602519613
5.540499999999994,-3.926685384368142,-0.5464974953844645,0.110790010258096
5.543999999999997,-3.714690712103903,-0.4879067923950148,0.1672514115601126
5.547499999999999,-3.532525462085499,-0.4378367868138015,0.2226464166891606
5.550999999999995,-3.4323871962523245,-0.4282496932325966,0.2279731615662473
5.554499999999997,-3.3002902064858817,-0.3962909692993285,0.258867234655799
5.558,-3.2427641543401484,-0.3728546881035486,0.274847469287059
5.561499999999995,-3.114927513277824,-0.355809802628572,0.2727164222703739
5.564999999999998,-2.9625899401760027,-0.3345028231202252,0.2812388650078622
5.5685,-2.81131876324715,-0.3238510786953038,0.2567361876391139
5.571999999999996,-2.6888088670619124,-0.3387649171535954,0.2119946722642392
5.575499999999998,-2.566300716205926,-0.3622011983493752,0.1704471094205142
5.579000000000001,-2.5375376901330595,-0.3930952714389268,0.1289012919060412
5.582499999999996,-2.453379658931145,-0.4399678338304866,0.0990718696602061
5.585999999999999,-2.3809380229978685,-0.4697955107470696,0.1054650107102613
5.589500000000001,-2.306367085377159,-0.5411707505073777,0.096942567972773
5.592999999999996,-2.21262196059404,-0.6018925005135125,0.0905494269227178
5.596499999999999,-2.146573465710818,-0.683921230027994,0.0905494269227178
5.599999999999994,-2.1455088148671013,-0.7574257714757352,0.0756355884644262
5.603499999999997,-2.07946031998388,-0.8405191518339332,0.0937468701123714
5.606999999999999,-2.04749985072136,-0.8905874120858945,0.1352926876268444
5.610499999999995,-1.972930658429902,-0.9555712561253994,0.1640557136997109
5.613999999999997,-1.871725996423759,-1.002443818516959,0.1981454846496642
