time,Gyr_X,Gyr_Y,Gyr_Z
0.0,0.002131047016685,0.0042603487041181,-0.0053267448770866
0.0035000000000025,0.002131047016685,0.0053267448770866,-0.0031956978604016
0.007000000000005,0.002131047016685,0.0031956978604016,-0.0010646508437165
0.0105000000000075,0.002131047016685,0.0031956978604016,-0.0031956978604016
0.0139999999999957,0.0053267448770866,0.0031956978604016,-0.002131047016685
0.0174999999999982,0.0031956978604016,0.0042603487041181,-0.0063913957208032
0.0210000000000007,0.0042603487041181,0.0010646508437165,-0.0053267448770866
0.0245000000000032,0.0031956978604016,0.0031956978604016,-0.0053267448770866
0.0280000000000057,0.0010646508437165,0.0042603487041181,-0.002131047016685
0.031499999999994,0.002131047016685,0.0031956978604016,-0.0042603487041181
0.0349999999999965,6.523381063598781e-19,0.0053267448770866,-0.0031956978604016
0.038499999999999,0.0042603487041181,0.0010646508437165,-0.0031956978604016
0.0420000000000015,0.002131047016685,0.0010646508437165,-0.002131047016685
0.045500000000004,5.217422403749877e-19,0.0042603487041181,-0.002131047016685
0.0490000000000065,0.0031956978604016,0.0031956978604016,-0.0031956978604016
0.0524999999999948,0.0042603487041181,-5.217422403749877e-19,-0.002131047016685
0.0559999999999973,0.0031956978604016,0.002131047016685,-0.002131047016685
0.0594999999999998,0.0042603487041181,0.0010646508437165,-0.0053267448770866
0.0630000000000023,0.0031956978604016,-3.913601155782886e-19,-0.0031956978604016
0.0665000000000048,0.0031956978604016,0.0010646508437165,-0.0042603487041181
0.0700000000000073,0.002131047016685,0.002131047016685,-0.002131047016685
0.0734999999999956,0.0042603487041181,-5.217422403749877e-19,-0.0042603487041181
0.0769999999999981,-0.0,0.0,-0.0010646508437165
0.0805000000000006,0.0042603487041181,0.0031956978604016,-0.0031956978604016
0.0840000000000031,0.002131047016685,0.0010646508437165,-0.0053267448770866
0.0875000000000056,0.002131047016685,0.002131047016685,-0.0053267448770866
0.0909999999999939,2.6097799078158957e-19,0.002131047016685,-0.0095870935812048
0.0944999999999964,0.0031956978604016,-0.0010646508437165,-0.0063913957208032
0.0979999999999989,0.002131047016685,0.002131047016685,-0.0042603487041181
0.1015000000000014,0.0042603487041181,0.002131047016685,-0.0031956978604016
0.1050000000000039,0.0053267448770866,0.002131047016685,-0.002131047016685
0.1085000000000064,3.913601155782886e-19,0.0031956978604016,-0.002131047016685
0.1119999999999947,3.913601155782886e-19,0.0031956978604016,-0.0031956978604016
0.1154999999999972,0.0010646508437165,0.002131047016685,-0.0010646508437165
0.1189999999999997,0.0031956978604016,0.0053267448770866,-0.0074577918937717
0.1225000000000022,2.6097799078158957e-19,0.002131047016685,-0.0010646508437165
0.1260000000000047,0.0042603487041181,0.0010646508437165,-0.0031956978604016
0.1295000000000072,0.0042603487041181,0.0010646508437165,-0.0042603487041181
0.1329999999999955,0.002131047016685,0.0010646508437165,-0.0042603487041181
0.136499999999998,0.0031956978604016,0.002131047016685,-0.0031956978604016
0.1400000000000005,0.002131047016685,0.0010646508437165,-0.002131047016685
0.143500000000003,0.0042603487041181,0.0053267448770866,-0.002131047016685
0.1470000000000055,0.0042603487041181,0.002131047016685,-0.0031956978604016
0.150500000000008,0.0010646508437165,0.0042603487041181,-0.0031956978604016
0.1539999999999963,0.0042603487041181,0.002131047016685,-0.0085224427374883
0.1574999999999988,-0.0,0.0,-0.002131047016685
0.1610000000000013,0.0010646508437165,0.0010646508437165,-0.002131047016685
0.1645000000000038,0.0053267448770866,0.0031956978604016,-0.0063913957208032
0.1680000000000063,0.002131047016685,0.0053267448770866,-0.0010646508437165
0.1714999999999946,0.0042603487041181,0.0010646508437165,-0.0031956978604016
0.1749999999999971,0.002131047016685,0.0010646508437165,-0.0010646508437165
0.1784999999999996,0.002131047016685,0.0010646508437165,-0.002131047016685
0.1820000000000021,0.0010646508437165,0.0042603487041181,-0.002131047016685
0.1855000000000046,0.0031956978604016,0.0010646508437165,-0.0031956978604016
0.1890000000000071,0.0053267448770866,-6.523381063598781e-19,-0.002131047016685
0.1924999999999954,0.002131047016685,0.0042603487041181,-0.0074577918937717
0.1959999999999979,0.002131047016685,0.002131047016685,-0.0042603487041181
0.1995000000000004,-0.0,0.0,-0.0042603487041181
0.2030000000000029,0.0074577918937717,0.0010646508437165,-0.0010646508437165
0.2065000000000054,0.002131047016685,0.0042603487041181,-0.0031956978604016
0.2100000000000079,0.0031956978604016,-3.913601155782886e-19,-0.0031956978604016
0.2134999999999962,5.217422403749877e-19,0.0042603487041181,-0.0053267448770866
0.2169999999999987,0.0010646508437165,0.0042603487041181,-0.0053267448770866
0.2205000000000012,0.0031956978604016,0.0010646508437165,-0.0053267448770866
0.2240000000000037,5.217422403749877e-19,0.0042603487041181,-0.0053267448770866
0.2275000000000062,0.0042603487041181,-5.217422403749877e-19,-0.0031956978604016
0.2309999999999945,6.523381063598781e-19,0.0053267448770866,-0.0031956978604016
0.234499999999997,0.0042603487041181,0.0031956978604016,-0.002131047016685
0.2379999999999995,0.0010646508437165,0.0042603487041181,-0.0053267448770866
0.241500000000002,0.0031956978604016,-3.913601155782886e-19,-0.002131047016685
0.2450000000000045,0.0042603487041181,0.0010646508437165,-0.0010646508437165
0.248500000000007,0.0010646508437165,-1.3038212479669908e-19,-0.002131047016685
0.2519999999999953,0.0042603487041181,-5.217422403749877e-19,-0.0042603487041181
0.2554999999999978,0.0063913957208032,-7.827202311565772e-19,-0.0031956978604016
0.2590000000000003,0.0042603487041181,0.0010646508437165,-0.0031956978604016
0.2625000000000028,0.002131047016685,0.002131047016685,-0.0063913957208032
0.2660000000000053,0.002131047016685,0.002131047016685,-0.0074577918937717
0.2695000000000078,0.002131047016685,0.0010646508437165,-0.0031956978604016
0.2729999999999961,0.002131047016685,-2.6097799078158957e-19,-0.0010646508437165
0.2764999999999986,0.002131047016685,0.0042603487041181,-0.002131047016685
0.2800000000000011,0.0031956978604016,0.0031956978604016,-0.0031956978604016
0.2835000000000036,0.002131047016685,0.0031956978604016,-0.002131047016685
0.2870000000000061,0.002131047016685,0.0010646508437165,-0.0074577918937717
0.2904999999999944,0.0031956978604016,0.0010646508437165,-0.0053267448770866
0.2939999999999969,0.0010646508437165,0.0042603487041181,-0.0042603487041181
0.2974999999999994,0.0042603487041181,0.0010646508437165,-0.0053267448770866
0.3010000000000019,2.6097799078158957e-19,0.002131047016685,-0.0031956978604016
0.3045000000000044,0.0053267448770866,0.002131047016685,-0.0031956978604016
0.3080000000000069,1.3038212479669908e-19,0.0010646508437165,-0.0031956978604016
0.3114999999999952,0.0063913957208032,0.0031956978604016,-0.0031956978604016
0.3149999999999977,0.0042603487041181,0.0053267448770866,-0.0042603487041181
0.3185000000000002,0.0010646508437165,-1.3038212479669908e-19,-0.0042603487041181
0.3220000000000027,0.0031956978604016,0.0031956978604016,-0.0010646508437165
0.3255000000000052,0.0010646508437165,0.002131047016685,-0.0010646508437165
0.3290000000000077,0.0053267448770866,0.002131047016685,-0.0074577918937717
0.332499999999996,0.002131047016685,0.0053267448770866,-0.0042603487041181
0.3359999999999985,0.002131047016685,0.0010646508437165,-0.0042603487041181
0.339500000000001,0.002131047016685,0.002131047016685,-0.0042603487041181
0.3430000000000035,0.002131047016685,0.0031956978604016,-0.0042603487041181
0.346500000000006,2.6097799078158957e-19,0.002131047016685,-0.0010646508437165
0.3499999999999943,0.002131047016685,0.0010646508437165,-0.0031956978604016
0.3534999999999968,0.0053267448770866,0.002131047016685,-0.0053267448770866
0.3569999999999993,0.002131047016685,0.0031956978604016,-0.0042603487041181
0.3605000000000018,0.0053267448770866,0.0042603487041181,-0.0042603487041181
0.3640000000000043,0.0042603487041181,0.0031956978604016,-0.0031956978604016
0.3675000000000068,0.002131047016685,0.0063913957208032,-0.0042603487041181
0.3709999999999951,0.0053267448770866,0.0149138384582915,-0.0074577918937717
0.3744999999999976,0.0117181405978899,0.0255673282124649,-0.0063913957208032
0.3780000000000001,0.0063913957208032,0.02769837522915,-0.0031956978604016
0.3815000000000026,0.0074577918937717,0.0234362811957798,-0.0085224427374883
0.3850000000000051,0.0095870935812048,0.0181095363186931,-0.0063913957208032
0.3885000000000076,0.0063913957208032,0.0085224427374883,-0.0063913957208032
0.3919999999999959,0.0042603487041181,-0.002131047016685,-0.0031956978604016
0.3954999999999984,0.0031956978604016,-0.0106534897541733,-0.0042603487041181
0.3990000000000009,-1.1740803467348658e-18,-0.0095870935812048,-0.0031956978604016
0.4025000000000034,0.0010646508437165,-0.0031956978604016,-0.0063913957208032
0.4060000000000059,-0.0,0.0,-0.002131047016685
0.4094999999999942,0.0010646508437165,0.0063913957208032,0.0
0.4129999999999967,0.0010646508437165,0.0106534897541733,-0.0031956978604016
0.4164999999999992,0.0031956978604016,0.0063913957208032,-0.0063913957208032
0.4200000000000017,0.0053267448770866,0.0042603487041181,-0.0031956978604016
0.4235000000000042,0.0042603487041181,0.002131047016685,-0.002131047016685
0.4270000000000067,0.0031956978604016,0.0010646508437165,-0.0042603487041181
0.430499999999995,0.0106534897541733,0.0010646508437165,-0.0053267448770866
0.4339999999999975,0.0074577918937717,0.0074577918937717,-0.0031956978604016
0.4375,0.0106534897541733,0.0202405833353782,-0.0031956978604016
0.4410000000000025,0.0095870935812048,0.0362208179666383,-0.0053267448770866
0.444500000000005,0.0106534897541733,0.0500682602519613,-0.0063913957208032
0.4480000000000075,0.0042603487041181,0.0543303542853314,0.0
0.4514999999999958,0.0042603487041181,0.0511346564249298,0.0074577918937717
0.4549999999999983,0.0063913957208032,0.0436768645311581,0.0117181405978899
0.4585000000000008,0.013849187614575,0.0340897709499532,0.0063913957208032
0.4620000000000033,0.01598023463126,0.0245026773687483,0.0
0.4655000000000058,0.0191759324916617,0.0127827914416064,0.0
0.4689999999999941,0.013849187614575,0.0074577918937717,0.0074577918937717
0.4724999999999966,0.0085224427374883,0.0063913957208032,0.0085224427374883
0.4759999999999991,0.0117181405978899,0.002131047016685,0.0010646508437165
0.4795000000000016,0.0117181405978899,0.0010646508437165,-0.0042603487041181
0.4830000000000041,0.0095870935812048,-1.1740803467348658e-18,-0.0053267448770866
0.4865000000000066,-1.1740803467348658e-18,-0.0095870935812048,0.0010646508437165
0.4899999999999949,-0.0042603487041181,-0.0223716303520633,-0.0031956978604016
0.4934999999999974,-0.0074577918937717,-0.0340897709499532,-0.0042603487041181
0.4969999999999999,-0.0149138384582915,-0.0404811666707564,-0.0042603487041181
0.5005000000000024,-0.0127827914416064,-0.0426122136874415,-0.0085224427374883
0.5040000000000049,-0.01598023463126,-0.0340897709499532,-0.0074577918937717
0.5075000000000074,-0.0117181405978899,-0.0234362811957798,-0.0074577918937717
0.5109999999999957,-0.0031956978604016,-0.013849187614575,-0.0106534897541733
0.5144999999999982,-0.0031956978604016,-0.0042603487041181,-0.0127827914416064
0.5180000000000007,0.002131047016685,-0.0031956978604016,-0.0031956978604016
0.5215000000000032,0.002131047016685,-0.0063913957208032,-0.0053267448770866
0.5250000000000057,-1.1740803467348658e-18,-0.0095870935812048,-0.0042603487041181
0.528499999999994,0.002131047016685,-0.0149138384582915,-0.0063913957208032
0.5319999999999965,0.0010646508437165,-0.0181095363186931,-0.0074577918937717
0.535499999999999,0.002131047016685,-0.0149138384582915,-0.0085224427374883
0.5390000000000015,-0.0031956978604016,-0.0106534897541733,-0.0031956978604016
0.542500000000004,-0.0031956978604016,-0.0063913957208032,-0.0010646508437165
0.5460000000000065,-0.0053267448770866,0.0042603487041181,-0.0074577918937717
0.5494999999999948,-0.0053267448770866,0.0085224427374883,-0.0074577918937717
0.5529999999999973,6.523381063598781e-19,0.0053267448770866,-0.0053267448770866
0.5564999999999998,0.0031956978604016,-0.002131047016685,-0.0031956978604016
0.5600000000000023,-1.1740803467348658e-18,-0.0095870935812048,-0.0031956978604016
0.5635000000000048,0.0053267448770866,-0.0127827914416064,-0.0042603487041181
0.5670000000000073,0.002131047016685,-0.0426122136874415,-0.0095870935812048
0.5704999999999956,0.0042603487041181,-0.1054650107102613,-0.0202405833353782
0.5739999999999981,0.0010646508437165,-0.2034722295267509,-0.0074577918937717
0.5775000000000006,-0.0021310470166851,-0.2439533961975074,0.0042603487041181
0.5810000000000031,-0.0042603487041181,-0.2173214171413259,0.0106534897541733
0.5845000000000056,-0.0010646508437165,-0.1960144376329791,0.0042603487041181
0.5880000000000081,0.002131047016685,-0.1672514115601126,-0.0085224427374883
0.5914999999999964,0.0085224427374882,-0.1629910628559944,-0.0074577918937717
0.5949999999999989,0.0170448854749766,-0.152337573101821,-0.0010646508437165
0.5985000000000014,0.0287630260728665,-0.150206526085136,0.002131047016685
0.6020000000000039,0.0458079115478431,-0.152337573101821,-0.0063913957208032
0.6055000000000064,0.0585907029894496,-0.1608600158393093,-0.0202405833353782
0.6089999999999947,0.0767019846373947,-0.152337573101821,-0.0255673282124649
0.6124999999999972,0.0852244273748831,-0.1235745470289545,-0.02769837522915
0.6159999999999997,0.1065296615539778,-0.0607217500061347,-0.0181095363186931
0.6195000000000022,0.1182478021518678,-0.0063913957208032,-0.0181095363186931
0.6230000000000047,0.1118564064310646,0.0905494269227178,-0.0106534897541733
0.6265000000000072,0.0873537290623162,0.1470108282247343,-0.0085224427374883
0.6299999999999955,0.0298276769165831,0.2045368803704674,-0.002131047016685
0.633499999999998,-0.01598023463126,0.2396913021641372,0.0031956978604016
0.6370000000000005,-0.096942567972773,0.2652586303766022,0.013849187614575
0.640500000000003,-0.1640557136997109,0.2684543282370038,0.0170448854749766
0.6440000000000055,-0.2364956043037356,0.2354309534600191,0.0
0.647500000000008,-0.2396913021641372,0.1789695521580026,-0.0287630260728665
0.6509999999999962,-0.1629910628559944,0.1086607085706629,-0.0426122136874415
0.6544999999999987,-0.0948115209560879,0.0767019846373948,-0.0223716303520633
0.6580000000000013,-0.029827676916583,0.0426122136874415,0.013849187614575
0.6615000000000038,-0.0127827914416064,0.02769837522915,0.0202405833353782
0.6650000000000063,-0.0031956978604016,0.0362208179666383,0.002131047016685
0.6684999999999945,0.0074577918937717,0.0479389585645282,-0.0031956978604016
0.671999999999997,0.0479389585645282,0.0490036094082447,0.0117181405978899
0.6754999999999995,0.0767019846373948,0.0426122136874415,0.0266319790561814
0.679000000000002,0.0852244273748831,0.0138491876145749,0.0372854688103548
0.6825000000000045,0.0703088435873395,0.0010646508437165,0.0308940730895516
0.686000000000007,0.0223716303520633,-0.0127827914416064,0.0351544217936697
0.6894999999999953,-0.0170448854749766,-0.0170448854749766,0.0426122136874415
0.6929999999999978,-0.0543303542853314,-0.0063913957208032,0.0500682602519613
0.6965000000000003,-0.0681795418999064,0.0053267448770867,0.0436768645311581
0.7000000000000028,-0.0660484948832214,0.0223716303520633,0.0340897709499532
0.7035000000000053,-0.0532657034416149,0.0362208179666383,0.0319587239332681
0.7070000000000078,-0.0351544217936697,0.0500682602519613,0.029827676916583
0.7104999999999961,-0.0181095363186931,0.0543303542853314,0.0127827914416064
0.7139999999999986,7.305887553567168e-18,0.0596570991624181,0.0
0.7175000000000011,0.0149138384582915,0.0617864008498512,-0.0117181405978899
0.7210000000000036,0.0181095363186931,0.0607217500061347,-0.0149138384582915
0.7245000000000061,0.0170448854749766,0.0543303542853314,-0.01598023463126
0.7279999999999944,0.0117181405978899,0.0585907029894496,-0.0234362811957798
0.7314999999999969,8.088607784723744e-18,0.0660484948832214,-0.0223716303520633
0.7349999999999994,-0.0223716303520633,0.0798976824977964,-0.0213052341790947
0.7385000000000019,-0.0308940730895516,0.0916158230956863,-0.0202405833353782
0.7420000000000044,-0.0266319790561814,0.1033339636935762,-0.0245026773687483
0.7455000000000069,-0.0213052341790947,0.1139874534477496,-0.0255673282124649
0.7489999999999952,0.0031956978604016,0.1161167551351827,-0.0266319790561814
0.7524999999999977,0.0298276769165831,0.1203788491685528,-0.0351544217936697
0.7560000000000002,0.0639174478665363,0.1310323389227262,-0.0383501196540714
0.7595000000000027,0.0852244273748831,0.1459461773810178,-0.0436768645311581
0.7630000000000052,0.110790010258096,0.1683160624038291,-0.0394165158270399
0.7665000000000077,0.1299659427497577,0.1853609478788057,-0.041545817514473
0.769999999999996,0.1342280367831279,0.1864273440517742,-0.0340897709499532
0.7734999999999985,0.1214435000122694,0.1885583910684593,-0.0287630260728665
0.777000000000001,0.0862890782185996,0.1832316461913727,-0.0308940730895516
0.7805000000000035,0.0564614013020165,0.1747092034538843,-0.0319587239332681
0.784000000000006,0.0308940730895516,0.1576643179789077,-0.0234362811957798
0.7874999999999943,0.0085224427374883,0.1555332709622227,-0.02769837522915
0.7909999999999968,-0.0085224427374882,0.1448797812080492,-0.0330233747769847
0.7944999999999993,-0.0138491876145749,0.1512729222581045,-0.0372854688103548
0.7980000000000018,-0.0095870935812048,0.1587289688226243,-0.0372854688103548
0.8015000000000043,-0.0042603487041181,0.1619246666830259,-0.0426122136874415
0.8050000000000068,0.0063913957208032,0.1640557136997109,-0.0479389585645282
0.8084999999999951,0.0181095363186931,0.1640557136997109,-0.0500682602519613
0.8119999999999976,0.0298276769165831,0.1534022239455376,-0.0532657034416149
0.8155000000000001,0.0362208179666383,0.152337573101821,-0.0585907029894496
0.8190000000000026,0.041545817514473,0.1608600158393093,-0.0575260521457331
0.8225000000000051,0.0383501196540714,0.1651203645434275,-0.0543303542853314
0.8260000000000076,0.0383501196540714,0.1704471094205142,-0.0543303542853314
0.8294999999999959,0.0362208179666383,0.1832316461913727,-0.0521993072686464
0.8329999999999984,0.0404811666707565,0.1970790884766957,-0.041545817514473
0.8365000000000009,0.0404811666707565,0.1970790884766957,-0.0245026773687483
0.8400000000000034,0.0394165158270399,0.1938833906162941,-0.0127827914416064
0.8435000000000059,0.0351544217936698,0.1960144376329791,-0.0053267448770866
0.8469999999999942,0.0234362811957798,0.1789695521580025,0.0127827914416064
0.8504999999999967,0.0191759324916617,0.166186760716396,0.0245026773687483
0.8539999999999992,-0.0053267448770866,0.1416840833476476,0.0330233747769847
0.8575000000000017,-0.0191759324916616,0.1139874534477496,0.0447432607041266
0.8610000000000042,-0.01598023463126,0.0798976824977964,0.0585907029894496
0.8645000000000067,0.0095870935812048,0.0468725623915597,0.0681795418999064
0.867999999999995,0.0767019846373948,0.02769837522915,0.0809623333415129
0.8714999999999975,0.1171831513081512,0.0085224427374882,0.083093380358198
0.875,0.0926804739394028,-0.0521993072686464,0.0607217500061347
0.8785000000000025,0.0426122136874415,-0.1097253594143795,0.0330233747769847
0.882000000000005,-0.0681795418999065,-0.2087989744038376,-0.0031956978604016
0.8855000000000075,-0.2002765316663493,-0.2940216564494687,-0.0490036094082447
0.8889999999999958,-0.4048134120368168,-0.4207919013388248,-0.1203788491685528
0.8924999999999983,-0.5678027295635594,-0.5283879590657712,-0.1715135055934827
0.8960000000000008,-0.7947112402860902,-0.6690056462404503,-0.2354309534600191
0.8995000000000033,-0.9534402091087144,-0.7723396099340266,-0.2737810731140905
0.9030000000000058,-1.141998600177174,-0.9118943915942412,-0.3334381722765087
0.906499999999994,-1.2549196574519552,-1.0099016104107308,-0.3749839897909817
0.9099999999999966,-1.375298506620508,-1.1196269698251102,-0.4314453910929982
0.9134999999999992,-1.436020256626643,-1.19419790744582,-0.4708619069200382
0.9170000000000016,-1.4807635173307692,-1.2890094284019078,-0.5156034222949128
0.920500000000004,-1.4828928190182022,-1.3497311784080426,-0.5390397034906926
0.9240000000000066,-1.4530651421016192,-1.4306935117495556,-0.5624759846864725
0.9274999999999948,-1.4040615326933743,-1.4828928190182018,-0.5805872663344177
0.9309999999999974,-1.324163850195578,-1.5436145690243366,-0.605088198373914
0.9345,-1.2442661676977818,-1.5766396891305734,-0.6082838962343158
0.9380000000000024,-1.119626969825111,-1.6096630639075582,-0.6093502924072843
0.9415000000000048,-1.0184240531482194,-1.630970043415905,-0.602958896686481
0.9450000000000074,-0.8703468287505165,-1.6362967882929915,-0.586978662055221
0.9484999999999956,-0.7595568184924204,-1.6288389963992198,-0.5720648235969293
0.9519999999999982,-0.6061545945468829,-1.6022070173430385,-0.5401060996636612
0.9555000000000008,-0.4985585368199364,-1.5670525955493688,-0.5102766774178261
0.9590000000000032,-0.3558098026285721,-1.506329100213982,-0.4570127193054631
0.9625000000000056,-0.2556715367953975,-1.453065142101619,-0.4069427137242498
0.965999999999994,-0.1374237346435297,-1.3763631574642243,-0.3323735214327921
0.9694999999999964,-0.0553950051290481,-1.3188371053184913,-0.2791078179911772
0.972999999999999,0.0287630260728664,-1.22935232923949,-0.2119946722642392
0.9765000000000016,0.0767019846373946,-1.160108136495867,-0.1747092034538843
0.980000000000004,0.1267702448893559,-1.0567741728022906,-0.136357338470561
0.9835000000000064,0.1502065260851358,-0.9758118394607777,-0.1139874534477496
0.9869999999999948,0.1704471094205141,-0.8650218292026817,-0.0873537290623162
0.9904999999999972,0.1725781564371992,-0.7797974018277984,-0.0745709376207097
0.9939999999999998,0.1811005991746875,-0.6572875056425604,-0.0649838440395048
0.9975000000000024,0.1789695521580025,-0.5582156359823544,-0.0596570991624181
1.0010000000000048,0.1811005991746875,-0.4293143440763132,-0.0543303542853314
1.0045000000000073,0.1811005991746876,-0.3291760782431385,-0.0575260521457331
1.0079999999999956,0.1874919948954908,-0.1970790884766957,-0.0596570991624181
1.011499999999998,0.1885583910684593,-0.0948115209560879,-0.0703088435873395
1.0150000000000006,0.2013411825100658,0.0394165158270399,-0.083093380358198
1.018500000000003,0.2173214171413259,0.1374237346435295,-0.0958761717998045
1.0220000000000056,0.2450180470412239,0.2620629325162005,-0.1182478021518678
1.025500000000008,0.2673896773932873,0.3611348021764066,-0.1352926876268444
1.0289999999999964,0.2993484013265555,0.4772533026408413,-0.1651203645434275
1.0324999999999989,0.3206536355056503,0.561411333842756,-0.1842962970350892
1.0360000000000014,0.3515477085952019,0.6668763445530174,-0.2098636252475541
1.039500000000004,0.367527943226462,0.7371851881403569,-0.2237128128621291
1.0430000000000064,0.3888331774055568,0.8181475214818699,-0.2290395577392158
1.0464999999999949,0.393095271438927,0.8543683394485082,-0.2279731615662473
1.0499999999999972,0.3781796876513834,0.8905874120858945,-0.2237128128621291
1.0534999999999997,0.3526141047681704,0.8959141569629812,-0.2173214171413259
1.0570000000000022,0.3025440991869571,0.8980452039796664,-0.219450718828759
1.0605000000000049,0.2588672346557991,0.8884581103984615,-0.2141239739516723
1.0640000000000072,0.1853609478788059,0.8596950843255949,-0.2109282760912707
1.0674999999999957,0.1267702448893562,0.8383881048172481,-0.2013411825100658
1.070999999999998,0.053265703441615,0.7904508915819718,-0.1928187397725775
1.0745000000000005,0.0010646508437166,0.7510343757549319,-0.1853609478788057
1.078000000000003,-0.0490036094082447,0.6828548338550254,-0.1629910628559944
1.0815000000000057,-0.0745709376207096,0.6274598287259775,-0.1438151303643327
1.085000000000008,-0.085224427374883,0.5496931932448661,-0.124639197872671
1.0884999999999962,-0.0862890782185996,0.4932317919428495,-0.1075943123976944
1.0919999999999987,-0.0564614013020165,0.4165315526347067,-0.0873537290623162
1.0955000000000013,-0.0191759324916616,0.3643322453660603,-0.0735062867769931
1.0990000000000038,0.041545817514473,0.2897613077453506,-0.0575260521457331
1.1025000000000065,0.0990718696602061,0.2428870000245388,-0.0458079115478431
1.1059999999999943,0.1789695521580026,0.180035948330971,-0.0436768645311581
1.109499999999997,0.2364956043037356,0.1448797812080492,-0.0372854688103548
1.1129999999999995,0.3131975889411305,0.0916158230956863,-0.0362208179666383
1.116500000000002,0.3685925940701784,0.0596570991624181,-0.0383501196540714
1.1200000000000043,0.4282496932325966,0.0202405833353781,-0.0404811666707564
1.123500000000007,0.4708619069200382,-0.0042603487041182,-0.0447432607041266
1.1269999999999951,0.5017542346803379,-0.0308940730895516,-0.0436768645311581
1.1304999999999978,0.5134723752782278,-0.0607217500061347,-0.0521993072686464
1.1340000000000003,0.4879067923950148,-0.1001382658331747,-0.0724398906040246
1.1375000000000028,0.4431635316908882,-0.1278348957330727,-0.0916158230956863
1.1410000000000051,0.3494166615785167,-0.1736428072809159,-0.1214435000122694
1.1445000000000078,0.2599318854995155,-0.2109282760912707,-0.1331616406101593
1.147999999999996,0.1129210572747811,-0.258867234655799,-0.1470108282247343
1.1514999999999986,-0.0095870935812048,-0.2876302607286655,-0.1470108282247343
1.1550000000000011,-0.1789695521580026,-0.3238510786953038,-0.1299659427497577
1.1585000000000036,-0.2972173543098704,-0.3408942188410284,-0.1118564064310645
1.162000000000006,-0.4474238803950064,-0.3568744534722884,-0.0703088435873395
1.1654999999999944,-0.5496931932448661,-0.3483520107348001,-0.0372854688103548
1.168999999999997,-0.6530271569384424,-0.3291760782431384,0.01598023463126
1.1724999999999994,-0.7148135577882937,-0.3036087500306734,0.0596570991624181
1.176000000000002,-0.7584921676487036,-0.2599318854995154,0.1150521042914662
1.1795000000000044,-0.767014610386192,-0.2183860679850424,0.1576643179789077
1.183000000000007,-0.7478386778945303,-0.1565979218059391,0.2151903701246408
1.1864999999999952,-0.7180110009779472,-0.1054650107102612,0.258867234655799
1.1899999999999975,-0.6508961099217573,-0.0287630260728664,0.316393286801532
1.1935000000000002,-0.5816519171781342,0.0340897709499533,0.3600701513326901
1.1970000000000027,-0.4740576047804398,0.1139874534477497,0.4186608543221398
1.2005000000000052,-0.3781796876513833,0.1811005991746876,0.4697955107470696
1.2040000000000075,-0.247149094057909,0.2737810731140905,0.5411707505073777
1.207499999999996,-0.1352926876268443,0.3472873598910836,0.5933700577760241
1.2109999999999983,0.0095870935812049,0.4346410889533998,0.6604849488322142
1.214500000000001,0.1193124529955844,0.4911024902554164,0.7190756518216638
1.2180000000000035,0.2599318854995155,0.5486285424011496,0.7861887975486017
1.221500000000006,0.3579391043160052,0.5784562193177326,0.836258803129815
1.2249999999999943,0.4804490005012431,0.6061545945468826,0.8852624125380599
1.2284999999999968,0.5592802868260711,0.6125459902676857,0.9065676467171546
1.231999999999999,0.6508961099217574,0.6231994800218591,0.921481485175446
1.2355000000000018,0.7084221620674904,0.6178727351447725,0.9236125321921312
1.2390000000000043,0.778732750984082,0.5976321518093942,0.9108279954212728
1.2425000000000068,0.8234742663589567,0.5741958706136144,0.8991098548233829
1.2459999999999951,0.8820667146776583,0.5209301671719995,0.8746089227838865
1.2494999999999976,0.9214814851754464,0.4665998128866679,0.8586286881526264
1.253,0.968355792896258,0.3771150368076666,0.8383881048172481
1.2565000000000026,1.0013791676732426,0.2823035158515787,0.8256053133756417
1.2600000000000051,1.0418603343439992,0.1523375731018209,0.8266699642193582
1.2635000000000076,1.0663630117127476,0.0511346564249297,0.8234742663589566
1.266999999999996,1.1004510373334488,-0.0873537290623163,0.8224096155152401
1.2704999999999984,1.1206916206688269,-0.1821652500184043,0.8224096155152401
1.274000000000001,1.1505210429146622,-0.3078708440640439,0.8224096155152401
1.2775000000000034,1.1633038343562685,-0.3952245731263601,0.8213432193422715
1.281000000000006,1.173957324110442,-0.506016328713708,0.8224096155152401
1.2844999999999942,1.1718262770937566,-0.5805872663344178,0.8288010112360433
1.2879999999999967,1.1633038343562685,-0.6711366932571357,0.8341277561131301
1.2914999999999992,1.1409322040042051,-0.7254670475424672,0.8511726415881066
1.2950000000000017,1.1025820843501335,-0.7904508915819719,0.8692821779067997
1.2985000000000042,1.0610362668356608,-0.8288010112360434,0.8916538082588631
1.3020000000000067,0.984334282198266,-0.8682175270630833,0.9278728808962494
1.305499999999995,0.9161547402983592,-0.8884581103984616,0.960898001002486
1.3089999999999975,0.8096250787443815,-0.9076322975608712,1.0152283552878176
1.3125,0.7212066988383488,-0.912959042437958,1.0589052198189757
1.3160000000000025,0.6018925005135124,-0.9001762509963516,1.1164312719647087
1.319500000000005,0.5134723752782276,-0.887391714225493,1.1537167407750637
1.3230000000000075,0.4058780628805332,-0.8628907821859965,1.2091117459041116
1.3264999999999958,0.332373521432792,-0.8426501988506182,1.2463972147144666
1.3299999999999983,0.2588672346557988,-0.8266699642193582,1.2836826835248214
1.3335000000000008,0.2194507188287589,-0.8170828706381533,1.29646722029568
1.3370000000000033,0.1800359483309709,-0.8000379851631767,1.3039232668601997
1.3405000000000058,0.1693824585767976,-0.7872551937215703,1.2954008241227113
1.343999999999994,0.1672514115601125,-0.7723396099340267,1.2794223348207032
1.3474999999999966,0.1725781564371992,-0.7595568184924202,1.2485282617311515
1.350999999999999,0.1874919948954907,-0.7478386778945303,1.2208298865020015
1.3545000000000016,0.2226464166891605,-0.7393162351570419,1.167565928389639
1.358000000000004,0.2482137449016254,-0.7286627454028686,1.1238890638584804
1.3615000000000066,0.2886949115723819,-0.7222713496820654,1.0525138240981724
1.3649999999999949,0.318524333818217,-0.7158799539612621,0.9896610270753528
1.3684999999999974,0.3558098026285718,-0.6967040214696004,0.8905874120858945
1.372,0.3707236410868635,-0.6796591359946239,0.8085604279006651
1.3755000000000024,0.3792460838243517,-0.6551582039551274,0.6935083236091989
1.3790000000000049,0.3696572449138949,-0.626395177882261,0.5827165680218508
1.3825000000000074,0.344091662030682,-0.6040235475301975,0.5060163287137079
1.3859999999999957,0.2972173543098703,-0.559280286826071,0.4069427137242498
1.3894999999999982,0.2450180470412239,-0.5294526099094878,0.3440916620306821
1.393000000000001,0.1811005991746875,-0.4889714432387313,0.2876302607286655
1.3965000000000032,0.0862890782185996,-0.4175962034784233,0.2215817658454441
1.4000000000000057,-0.0191759324916617,-0.3238510786953038,0.1555332709622227
1.403499999999994,-0.1065296615539779,-0.247149094057909,0.1054650107102613
1.4069999999999965,-0.2183860679850425,-0.1363573384705609,0.0660484948832214
1.410499999999999,-0.2961527034661538,-0.0511346564249298,0.0447432607041266
1.4140000000000017,-0.3675279432264619,0.0362208179666383,0.0426122136874415
1.417500000000004,-0.4399678338304866,0.1512729222581045,0.0543303542853314
1.4210000000000065,-0.4889714432387312,0.2684543282370039,0.0980072188164895
1.4244999999999948,-0.5006895838366213,0.3494166615785168,0.1491418752414194
1.4279999999999973,-0.4985585368199361,0.4335764381096834,0.2109282760912707
1.4314999999999998,-0.4676662090596366,0.5379750526469762,0.3121311927681619
1.4350000000000025,-0.4229229483555099,0.6221330838488908,0.3994866671597301
1.4385000000000048,-0.3419606150139969,0.727598094559152,0.517734469311598
1.4420000000000073,-0.2578025838120823,0.7947112402860901,0.6114795940947174
1.4454999999999956,-0.1299659427497576,0.8714132249234848,0.7318584432632703
1.448999999999998,-0.018109536318693,0.9108279954212728,0.8096250787443816
1.4525000000000006,0.1416840833476478,0.9438531155275096,0.8873917142254929
1.456000000000003,0.272716422270374,0.9513109074212812,0.9182857873150446
1.4595000000000056,0.4399678338304867,0.9438531155275096,0.9246771830358478
1.463000000000008,0.5646070317031577,0.935330672790021,0.9108279954212728
1.4664999999999964,0.7158799539612622,0.9086986937338396,0.8575640373089098
1.4699999999999989,0.8149518236214685,0.8820667146776581,0.7989733343194602
1.4735000000000014,0.924677183035848,0.8469105475547364,0.7041618133633722
1.477000000000004,0.984334282198266,0.8117561257610665,0.6221330838488908
1.4805000000000064,1.035468938623196,0.75529472445905,0.5156034222949128
1.4839999999999949,1.045056032204401,0.7094885582404589,0.4282496932325966
1.4874999999999972,1.012032657427416,0.6402426201675838,0.3131975889411305
1.4909999999999997,0.954506605281683,0.5997614534968273,0.2226464166891606
1.4945000000000022,0.8426501988506183,0.5667380787198426,0.1043986145372928
1.4980000000000049,0.7329248394362389,0.5582156359823542,0.0191759324916617
1.5015000000000072,0.5592802868260711,0.5592802868260709,-0.0809623333415129
1.5049999999999957,0.4069427137242499,0.5550199381219528,-0.1438151303643327
1.508499999999998,0.1832316461913727,0.5571509851386378,-0.205601531214184
1.5120000000000005,0.0021310470166851,0.5603466829990394,-0.2311688594266489
1.515500000000003,-0.2599318854995154,0.5720648235969293,-0.2514094427620272
1.5190000000000057,-0.4644687658699829,0.5816519171781344,-0.2535404897787122
1.522500000000008,-0.7435765838611601,0.5923054069323077,-0.2439533961975074
1.5259999999999962,-0.9502445112483128,0.6040235475301976,-0.2279731615662473
1.5294999999999987,-1.20591604804371,0.6018925005135126,-0.177904901314286
1.5330000000000013,-1.3784942044809092,0.5891097090719063,-0.1086607085706629
1.5365000000000038,-1.5649215485326835,0.552888891105268,0.0149138384582915
1.5400000000000065,-1.6671891160532917,0.5028206308533066,0.1342280367831279
1.5434999999999943,-1.763067033182348,0.4122694586013368,0.3259803803827369
1.546999999999997,-1.811004246417624,0.335569219293194,0.4751222556241564
1.5504999999999995,-1.8408336686634592,0.2332999064433342,0.6583539018155291
1.554000000000002,-1.848289715227979,0.1502065260851362,0.7851241467048852
1.5575000000000043,-1.8472250643842625,0.0426122136874417,0.9246771830358478
1.561000000000007,-1.8387026216467743,-0.0266319790561812,1.009901610410731
1.5644999999999951,-1.8216577361717976,-0.117183151308151,1.0983217356460158
1.5679999999999978,-1.808874944730191,-0.1715135055934825,1.136671855300087
1.5715000000000003,-1.7992861058197342,-0.2343645572870503,1.1633038343562685
1.5750000000000028,-1.7896990122385292,-0.2716500260974052,1.1622391835125518
1.5785000000000051,-1.802481803680136,-0.2833681666952951,1.124953714702197
1.5820000000000078,-1.820593085328081,-0.2748474692870588,1.0759501052939522
1.585499999999996,-1.849356111400948,-0.2386266513204205,0.9875299800586675
1.5889999999999986,-1.8727923925967276,-0.2045368803704672,0.9108279954212728
1.5925000000000011,-1.901555418669594,-0.1523375731018208,0.8096250787443816
1.5960000000000036,-1.9260563507090904,-0.131032338922726,0.7329248394362388
1.599500000000006,-1.9580150746423584,-0.1054650107102611,0.6295908757426625
1.6029999999999944,-1.9857134498715088,-0.0969425679727728,0.5528888911052677
1.606499999999997,-2.045370549033927,-0.0926804739394026,0.4495549274116914
1.6099999999999994,-2.113548345604581,-0.0937468701123711,0.3632658491930918
1.613500000000002,-2.2541677781085125,-0.089484776079001,0.2737810731140905
1.6170000000000044,-2.389460465735357,-0.0969425679727727,0.2173214171413259
1.620500000000007,-2.584410252524619,-0.1129210572747808,0.177904901314286
1.6239999999999952,-2.736747825626441,-0.1278348957330723,0.1651203645434275
1.6274999999999975,-2.931697612415703,-0.1544686201185058,0.1757738542976009
1.6310000000000002,-3.0648592530258623,-0.1693824585767973,0.1981454846496642
1.6345000000000027,-3.2427641543401484,-0.1938833906162937,0.247149094057909
1.6380000000000052,-3.375925794950308,-0.1992101354933803,0.3057397970473587
1.6415000000000075,-3.6113567484103273,-0.204536880370467,0.3888331774055567
1.644999999999996,-3.827611769378685,-0.2034722295267504,0.4719265577637547
1.6484999999999983,-4.195139712605147,-0.2002765316663488,0.5837829641948193
1.652000000000001,-4.550949515233718,-0.1938833906162935,0.6498314590780407
1.6555000000000035,-5.132601432411852,-0.1821652500184035,0.7361205372966404
1.659000000000006,-5.659922995304655,-0.1757738542976002,0.7904508915819718
1.6624999999999943,-6.510029240719794,-0.173642807280915,0.8415838026776498
1.6659999999999968,-7.2749128040893,-0.1768385051413165,0.863955433029713
1.669499999999999,-8.470175362378837,-0.18003594833097,0.8447812458673034
1.6730000000000018,-9.50990464970615,-0.1874919948954896,0.7893844954090034
1.6765000000000043,-11.085479687993008,-0.2215817658454427,0.6658099483800488
1.6800000000000068,-12.376620163411602,-0.2833681666952938,0.5422354013510943
1.6834999999999951,-14.18975545684591,-0.4058780628805316,0.3430252658577135
1.6869999999999976,-15.566118614310136,-0.5219948180157142,0.1704471094205142
1.6905,-17.37392890819661,-0.6892479749050786,-0.0916158230956863
1.6940000000000026,-18.65015379982766,-0.8128207766047808,-0.3089354949077603
1.6975000000000051,-20.1756588325333,-0.9513109074212788,-0.626395177882261
1.7010000000000076,-21.15466636985448,-1.0258800997127362,-0.8788692714880046
1.704499999999996,-22.192266355494365,-1.0759501052939495,-1.2048513971999937
1.7079999999999984,-22.75367768933712,-1.079145803154351,-1.423237465185036
1.711500000000001,-23.222408549240477,-1.061036266835658,-1.6703848139136932
1.7150000000000034,-23.36089693472772,-1.0152283552878147,-1.8078085485572224
1.718500000000006,-23.29911053387787,-0.9257435792088134,-1.9079468143903973
1.7219999999999942,-23.091377955647,-0.8543683394485054,-1.903686465686279
1.7254999999999967,-22.60879790812907,-0.7339894902799525,-1.769458428903151
1.7289999999999992,-22.08786599562782,-0.6327865736030615,-1.5606594544993135
1.7325000000000017,-21.21219242200021,-0.4889714432387287,-1.1686305792333551
1.7360000000000042,-20.39830524922246,-0.3813771308410344,-0.8117561257610666
1.7395000000000067,-19.09757942555192,-0.2343645572870482,-0.3014794483432405
1.742999999999995,-17.95664547621846,-0.1203788491685507,0.1097253594143795
1.7464999999999975,-16.205296583634002,0.0362208179666403,0.6764634381342222
1.75,-14.718143415911682,0.1555332709622245,1.0887328967355587
1.7535000000000025,-12.567307856167494,0.3195889846619352,1.6022070173430385
1.757000000000005,-10.873486761058022,0.4527506252720943,1.9303184447424608
1.7605000000000075,-8.601207701301563,0.600827849669797,2.2786704554772608
1.7639999999999958,-6.964910913008572,0.672203089430105,2.45870465847898
1.7674999999999983,-4.984524208014149,0.7041618133633728,2.584410252524619
1.7710000000000008,-3.723213154841392,0.698835068486286,2.595063742278793
1.7745000000000033,-2.3883958148916404,0.6668763445530177,2.5045125700268227
1.7780000000000058,-1.695952142126158,0.6231994800218594,2.378808721310436
1.781499999999994,-1.1622391835125518,0.5518242402615513,2.166814049046196
1.7849999999999966,-1.0642319646960623,0.4868403962220464,1.970799611413217
1.788499999999999,-1.3028586160164832,0.379246083824352,1.719388423321938
1.7920000000000016,-1.7098013297407328,0.2876302607286657,1.5393542203202186
1.795500000000004,-2.490663382412248,0.1257055940456398,1.3369483869664365
1.7990000000000066,-3.1873691492111007,-0.0106534897541729,1.1984582561499384
1.8024999999999949,-4.184486222850973,-0.2119946722642387,1.0461224283773694
1.8059999999999972,-4.903561874672636,-0.3739193389472645,0.940657417667108
1.8095,-5.741949979489886,-0.5773915684740154,0.81069147491735
1.8130000000000024,-6.239443865466105,-0.707357511223773,0.7084221620674903
1.8165000000000049,-6.647452975363323,-0.841583802677649,0.5773915684740161
1.8200000000000076,-6.762505079654789,-0.9214814851754454,0.4953628389595346
1.823499999999996,-6.6538443710841255,-1.000314516829525,0.3888331774055567
1.8269999999999984,-6.390716787724209,-1.0525138240981715,0.3131975889411305
1.830500000000001,-5.758994864964861,-1.058905219818975,0.2269085107225308
1.8340000000000032,-5.092120265741096,-1.0109662612544468,0.1608600158393093
1.8375000000000057,-3.934141430932662,-0.9150900894546424,0.0862890782185996
1.840999999999994,-2.8645827213595134,-0.8426501988506179,0.0404811666707564
1.8444999999999965,-1.196328954462505,-0.7595568184924201,-0.0106534897541733
1.847999999999999,0.2024058333537823,-0.713748906944577,-0.0490036094082447
1.8515000000000013,2.2243401011919293,-0.7030954171904039,-0.1022693128498597
1.855000000000004,3.810566883903708,-0.7478386778945307,-0.1448797812080492
1.8585000000000065,5.912398834239651,-0.8362588031298158,-0.1949497867892626
1.8619999999999948,7.438968517789011,-0.9001762509963523,-0.2173214171413259
1.8654999999999973,9.352242077056497,-0.9726161416003772,-0.2119946722642392
1.869,10.687059417006246,-1.0099016104107323,-0.1736428072809158
1.8725000000000025,12.346792486495016,-1.048251730064804,-0.0745709376207097
1.8760000000000048,13.507965273834602,-1.0759501052939535,0.0362208179666383
1.8795000000000075,14.989793442009088,-1.113235574104309,0.2205171150017275
1.882999999999996,16.061481453269668,-1.1398675531604907,0.3739193389472651
1.886499999999998,17.450629147504753,-1.1739573241104442,0.5965657556364258
1.8900000000000008,18.4583997108988,-1.1920668604291371,0.7723396099340267
1.893500000000003,19.768714373479803,-1.1856754647083343,1.016293006131534
1.8970000000000056,20.701915744582383,-1.1505210429146646,1.1931332566021038
1.900500000000008,21.874806672519863,-1.059969870662695,1.4008658348329728
1.9039999999999964,22.662063611570684,-0.9694204437399772,1.5446809651973052
1.9074999999999989,23.58141404972945,-0.8373234539735345,1.723650517355308
1.9110000000000011,24.19715573785753,-0.7478386778945333,1.8568121579654675
1.914500000000004,24.9290141811208,-0.6594185526592486,2.0251299656985484
1.9180000000000064,25.449944348292806,-0.6210684330051773,2.14976916357122
1.9214999999999949,26.120016390706223,-0.6008278496697992,2.3436525541875133
1.9249999999999967,26.602594692894897,-0.6189373859884924,2.511970361920594
1.9285,27.227925219933443,-0.6881815787321155,2.751661664084732
1.9320000000000024,27.66789130843468,-0.7723396099340302,2.9370243572927897
1.9355000000000049,28.19627926750045,-0.8969805531359533,3.175651008613211
1.9390000000000072,28.49669231967072,-0.997117073639876,3.335444628279552
1.9424999999999957,28.735320716320395,-1.0972553394730509,3.519740925314641
1.945999999999998,28.7385164141808,-1.1228226676855155,3.643315472343595
1.9495000000000005,28.429579173943782,-1.0706233604168691,3.7658253685288328
1.953000000000003,27.91823784568224,-0.959833350158773,3.8414609569932594
1.9565000000000052,26.835894599338232,-0.770210308246597,3.8574394462952672
1.960000000000008,25.72798751544026,-0.6306555265863821,3.7967176962891327
1.963499999999996,23.86691326344143,-0.4676662090596395,3.65716465995817
1.9669999999999987,22.19652670419848,-0.3728546881035513,3.5303944150688142
1.9705000000000013,19.641944128590445,-0.3217200316786211,3.3215954406649764
1.974000000000004,17.50709054880677,-0.3547434064556056,3.129843097065367
1.9775000000000065,14.423055363289244,-0.5070809795574263,2.8102541124034337
1.9809999999999943,11.952630818883122,-0.6935083236092003,2.5204928046580832
1.984499999999997,8.53941955512246,-1.019488703991937,2.053892991771415
1.9879999999999995,5.918790229960454,-1.320968152335177,1.6384260899804248
1.991500000000002,2.4597710546519487,-1.7843722673614428,1.032273240762794
1.9950000000000043,-0.0042603487041184,-2.155095908448306,0.5219948180157161
1.998500000000007,-2.959394242315601,-2.633413861932864,-0.1821652500184041
2.001999999999996,-4.809816749889517,-2.945546800030278,-0.709488558240459
2.005499999999998,-6.696456584771568,-3.281114273994219,-1.3806252514975943
2.0090000000000003,-7.660550283634455,-3.46860626888971,-1.852551809261349
2.012500000000003,-8.362581049981143,-3.6369240766227913,-2.4182234918082237
2.0160000000000053,-8.52450571666417,-3.711495014243501,-2.779360039313882
2.019500000000008,-8.348731862366568,-3.7381269932996815,-3.1873691492111007
2.022999999999996,-8.002510898648453,-3.708299316383099,-3.4323871962523245
2.026499999999998,-7.370788975889105,-3.6102920975666097,-3.7029725715060136
2.030000000000001,-6.822162178817208,-3.486717550537655,-3.848917003557779
2.033500000000004,-6.070061406889307,-3.2683314825526124,-3.957577712128442
2.037000000000006,-5.557653682454795,-3.0787084406404364,-3.9671665510388983
2.0404999999999944,-4.995177697768323,-2.779360039313881,-3.889399915557788
2.043999999999997,-4.728852671218752,-2.5226238516747674,-3.769021066389235
2.0474999999999994,-4.660674874648097,-2.118875090481668,-3.5463729043708225
2.051000000000002,-4.850297916560273,-1.7651963348697803,-3.3343799774358347
2.0545000000000044,-5.461777510654991,-1.2634421001894425,-2.9860279667010348
2.058000000000007,-6.19044025605786,-0.8788692714880039,-2.6813528204973927
2.0614999999999952,-7.481580731476453,-0.3909642244222409,-2.192381377258661
2.0649999999999977,-8.668320847028502,-0.0564614013020155,-1.779045522484356
2.0685,-10.500632072954472,0.3313071252598249,-1.176088371127127
2.0720000000000027,-12.0282681526768,0.5678027295635607,-0.6988350684862855
2.075500000000005,-14.252608253868727,0.785124146704887,-0.041545817514473
2.079000000000008,-16.019935635755196,0.8767399698005736,0.4570127193054631
2.082499999999996,-18.45946436174252,0.8905874120858968,1.122822667685512
2.0859999999999985,-20.284319541103965,0.8149518236214708,1.6096630639075584
2.089500000000001,-22.58536162693329,0.6040235475302003,2.2232754503482126
2.0930000000000035,-24.15241247715341,0.3494166615785197,2.647263049547439
2.096500000000006,-25.94850288511274,-0.0905494269227146,3.1575397269652656
2.0999999999999943,-27.011670198965085,-0.4772533026408381,3.482455456504286
2.103499999999997,-28.056726231169485,-1.0290775429023893,3.81802467579748
2.1069999999999998,-28.56806755943103,-1.445607350207844,3.998058878799199
2.110500000000002,-28.913223872305423,-1.959081470815324,4.152527498917705
2.1140000000000043,-28.96116283086996,-2.313824877270927,4.208988900219721
2.117500000000007,-28.76195269537657,-2.7239650341848303,4.224967389521729
2.120999999999995,-28.473257783804197,-2.963656336348968,4.205793202359319
2.1244999999999976,-27.88947307428012,-3.153279378261144,4.145069707023933
2.128,-27.367478256264405,-3.187369149211097,4.070498769403224
2.1315000000000026,-26.563178177067854,-3.072317044919631,3.941599222826434
2.135000000000005,-25.87925869236912,-2.8379507423033283,3.8254807223619993
2.138500000000008,-24.89492441017085,-2.353241393097968,3.66462070652269
2.141999999999996,-24.08529933142647,-1.873857043440441,3.5506349984041923
2.1454999999999984,-22.89003502780768,-1.1025820843501308,3.4441053368502144
2.149000000000001,-21.902505047749013,-0.4612730680095787,3.388710331721166
2.1525000000000034,-20.44837525480368,0.4207919013388274,3.350358466737843
2.156000000000006,-19.25737304521826,1.0855371988751596,3.337575675296237
2.159499999999994,-17.531591480846267,1.9154046062841712,3.330117883402465
2.1629999999999967,-16.13498774004666,2.481076288831045,3.318399742804575
2.166499999999999,-14.109857774348114,3.155410425277834,3.2779185761338185
2.1700000000000017,-12.461842845457232,3.5879204672145484,3.225719268865172
2.173500000000004,-10.104341103655145,4.030017602732468,3.136234492786171
2.1770000000000067,-8.243266851656307,4.262252858332086,3.0329005290925943
2.180499999999995,-5.698273114958727,4.460398342981749,2.849668882901222
2.183999999999997,-3.804175488182904,4.528577884881655,2.687744216218196
2.1875,-1.401930485676689,4.507270905373308,2.428876981562397
2.1910000000000025,0.2301042085829329,4.436962061785969,2.220078007158559
2.194500000000005,2.099700903319259,4.266514952365455,1.9122071630945157
2.1980000000000075,3.226783919708889,4.089674701894885,1.686365048544953
2.201499999999996,4.3155185617737,3.792457347585014,1.399799438660004
2.2049999999999983,4.811946051576951,3.530394415068814,1.2112427929207967
2.208500000000001,5.055899447774458,3.1127982115903903,1.0013791676732426
2.2120000000000037,4.951500833237165,2.7580530598055346,0.8884581103984615
2.215500000000006,4.466789738702552,2.210490913577354,0.8011026360068932
2.218999999999994,3.881942123664016,1.7609359861656624,0.7723396099340267
2.2224999999999966,2.880562955990773,1.1228226676855115,0.7851241467048852
2.225999999999999,2.019803220821462,0.6157416881280873,0.8096250787443816
2.2295000000000016,0.7872551937215703,-0.0649838440395049,0.8575640373089098
2.233000000000004,-0.1427504795206162,-0.547562146228181,0.8927184591025796
2.2365000000000066,-1.3209681523351766,-1.1324115065959688,0.9321349749296196
2.239999999999995,-2.117810439637952,-1.5020687515098636,0.9630290480191712
2.2434999999999974,-2.988157268388468,-1.923927049021657,1.0194887039919358
2.247,-3.4877822013813726,-2.179596840487802,1.063165568523094
2.2505000000000024,-3.9011180561556777,-2.45124861191446,1.1185623189813938
2.254000000000005,-4.002320972832569,-2.605717232032966,1.1526520899313473
2.2575000000000074,-3.8446566548536616,-2.76444620085559,1.1792840689875286
2.260999999999996,-3.500564992822979,-2.8411464401637327,1.173957324110442
2.264499999999998,-2.752728060257701,-2.8922810965886625,1.138802902316772
2.2680000000000007,-1.9548193767819573,-2.902934586342836,1.0897992929085274
2.271500000000003,-0.6274598287259778,-2.8912164457449467,0.9875299800586675
2.2750000000000057,0.5624759846864722,-2.8571266747949933,0.8778046206442881
2.278499999999994,2.3543060439416865,-2.7676418987159925,0.7009661155029706
2.2819999999999965,3.843592004009944,-2.680286424324424,0.5390397034906926
2.285499999999999,5.974185235089502,-2.564169669189242,0.302544099186957
2.289000000000001,7.672268424232345,-2.4874676845518477,0.1065296615539778
2.292500000000004,10.005269233994936,-2.419289887981193,-0.150206526085136
2.2960000000000065,11.792837199216782,-2.40863639822702,-0.3313071252598236
2.2994999999999948,14.152469988035556,-2.437399424299887,-0.547562146228181
2.3029999999999973,15.87398945837418,-2.498121174306021,-0.6945729744529154
2.3065,18.032281064682888,-2.596128393122512,-0.8575640373089098
2.3100000000000023,19.514110978186626,-2.676026075620308,-0.9758118394607777
2.3135000000000048,21.27398056817932,-2.7559237581181053,-1.108973480070937
2.3170000000000077,22.421304167904324,-2.8166455081242394,-1.20591604804371
2.320499999999996,23.702857549741715,-2.892281096588666,-1.3199035014914595
2.323999999999998,24.472003207144592,-2.954069242767769,-1.3934080429392008
2.327500000000001,25.24008072304525,-3.057401461132094,-1.4733057254369972
2.331000000000003,25.61506471283623,-3.1234499560153157,-1.5105911942473522
2.3345000000000056,25.82386368724007,-3.2161321752839704,-1.520178287828557
2.337999999999994,25.76740228593805,-3.2843099718546247,-1.482892819018202
2.3414999999999964,25.46272888506366,-3.366338701369106,-1.3710364125871377
2.344999999999999,25.09946303587057,-3.4142759146043824,-1.23361442327286
2.3485000000000014,24.4815903007258,-3.4664769672022806,-0.9992481206565574
2.352000000000004,23.976636877526552,-3.484586503520973,-0.7819284488444836
2.3555000000000064,23.319349371883995,-3.4984356911355485,-0.4591437663221482
2.3589999999999947,22.863401303422247,-3.486717550537658,-0.2002765316663493
2.362499999999997,22.338212532875374,-3.4473010347106188,0.1576643179789077
2.366,22.0005122665655,-3.3919060295815706,0.4271832970596281
2.369500000000002,21.56374187592467,-3.276853925290105,0.7627525163528219
2.3730000000000047,21.227106260458505,-3.156475076121552,0.9992481206565574
2.376500000000007,20.70298214075536,-2.9615252893322888,1.2740955899436164
2.3799999999999955,20.2033554624332,-2.7974695756325776,1.4594565378224222
2.383499999999998,19.38201398842018,-2.5780188568038183,1.6714512100866616
2.3870000000000005,18.6245864716152,-2.423550236685312,1.7918300592552143
2.390500000000003,17.426126470136005,-2.225404752035648,1.9100778614070824
2.394000000000005,16.38639718280869,-2.090112064408804,1.9622771686757288
2.397500000000008,14.848107613332187,-1.948427981061156,1.982517752011107
2.400999999999996,13.594254352053202,-1.8653346007029568,1.9718642622569336
2.4044999999999987,11.814142433395876,-1.7790455224843575,1.9399055383236647
2.4080000000000013,10.428192182350449,-1.744955751534404,1.8536164601050655
2.411500000000004,8.563922232491208,-1.7279108660594271,1.677842605807465
2.4150000000000063,7.183296980993615,-1.727910866059427,1.5244403818619272
2.4184999999999945,5.408511807213376,-1.727910866059427,1.29646722029568
2.421999999999997,4.161049941655193,-1.7300419130761115,1.0983217356460158
2.4254999999999995,2.641936304670353,-1.7257815643719931,0.8245406625319252
2.429000000000002,1.6085984130638415,-1.7119323767574184,0.6381133184801508
2.4325000000000045,0.3749839897909814,-1.6970185382991263,0.3898978282492732
2.436000000000007,-0.4452945787075735,-1.6810383036678664,0.1725781564371993
2.439499999999996,-1.4051261835370912,-1.6277743455555034,-0.1576643179789077
2.442999999999998,-1.9974315904693989,-1.5766396891305734,-0.4271832970596281
2.4465000000000003,-2.573756762770446,-1.4935463087723753,-0.8149518236214683
2.450000000000003,-2.828363648722127,-1.424302116028752,-1.111104527087622
2.4535000000000053,-2.917848424801128,-1.3220328031788924,-1.4999377044931788
2.457000000000008,-2.803860971353379,-1.2495929125748677,-1.765196334869781
2.460499999999996,-2.453379658931145,-1.15478139161878,-2.0847853195317145
2.463999999999998,-2.0783939238109115,-1.085537198875157,-2.2861265020417805
2.467500000000001,-1.497806657476494,-1.006705912550329,-2.529015247395572
2.471000000000004,-1.033337891606511,-0.9545066052816829,-2.665372585866132
2.474500000000006,-0.45062132358466,-0.8916538082588631,-2.8017316696659456
2.4779999999999944,-0.0745709376207098,-0.8415838026776498,-2.861387023499112
2.481499999999997,0.2833681666952952,-0.780862052671515,-2.893347492761632
2.4849999999999994,0.4218582975117933,-0.7361205372966404,-2.8944121436053485
2.488500000000002,0.4154651564617381,-0.6668763445530174,-2.86245341967208
2.4920000000000044,0.2780431671474606,-0.6040235475301975,-2.8123834140908666
2.495500000000007,-0.0926804739394029,-0.5315836569261729,-2.7186382893077474
2.4989999999999952,-0.4911024902554165,-0.4761869064678729,-2.617435372630856
2.5024999999999977,-1.1547813916187804,-0.3856374795451549,-2.426745934545712
2.506,-1.7556092412885762,-0.30893549490776,-2.253103127264796
2.5095000000000027,-2.6493940965641243,-0.1864273440517739,-1.9782556579777368
2.513000000000005,-3.405753471866891,-0.0990718696602057,-1.7588049391489775
2.516500000000008,-4.509401952389994,5.522424667063231e-16,-1.4381513036433275
2.519999999999996,-5.4042514585092585,0.0532657034416156,-1.1888711625687334
2.5234999999999985,-6.693260886911166,0.0948115209560887,-0.8660864800463982
2.527000000000001,-7.731925523394764,0.1043986145372937,-0.6562228547988439
2.5305000000000035,-9.195642409921303,0.0798976824977975,-0.4154651564617382
2.534000000000006,-10.335511708411044,0.035154421793671,-0.2599318854995155
2.5374999999999943,-11.884453022312467,-0.0553950051290465,-0.0905494269227178
2.540999999999997,-13.049887903685422,-0.1352926876268428,0.0202405833353782
2.5444999999999998,-14.577523983407753,-0.2609982816724823,0.1267702448893561
2.548000000000002,-15.698215604076578,-0.3728546881035466,0.1906876927558924
2.5515000000000043,-17.164065282949053,-0.5528888911052656,0.2641939795328856
2.555000000000007,-18.228295502315863,-0.6988350684862833,0.3131975889411305
2.558499999999995,-19.59826900938854,-0.9044365997004672,0.3653968962097769
2.5619999999999976,-20.579407593726405,-1.0695587095731467,0.3984202709867616
2.5655,-21.813018526340755,-1.2751602407873304,0.4325100419367148
2.5690000000000026,-22.65886616838103,-1.4072572305537734,0.4474238803950063
2.572500000000005,-23.641071148891864,-1.5606594544993106,0.4484902765679749
2.576000000000008,-24.260006789551102,-1.6469485327179103,0.4463592295512898
2.579499999999996,-24.902382202064626,-1.730041913076108,0.4516859744283765
2.5829999999999984,-25.2432781662349,-1.769458428903148,0.4602084171658648
2.586500000000001,-25.503208306405167,-1.773718777607266,0.480449000501243
2.5900000000000034,-25.559669707707183,-1.732172960092793,0.503885281697023
2.593500000000006,-25.47870737436567,-1.6299036472429336,0.5496931932448661
2.596999999999994,-25.319978405543047,-1.4978066574764906,0.5891097090719061
2.6004999999999967,-24.997191977691458,-1.261311053172755,0.6583539018155291
2.603999999999999,-24.682931483235865,-1.0407956835002794,0.7169446048049787
2.6075000000000017,-24.169457362628386,-0.7009661155029676,0.8032336830235783
2.611000000000004,-23.726293830937497,-0.4303807402492788,0.8682175270630832
2.6145000000000067,-23.048763996630303,-0.0490036094082419,0.958766953985801
2.617999999999995,-22.469243126468857,0.2386266513204234,1.0269464958857075
2.621499999999997,-21.6212679280704,0.637046922307185,1.111104527087622
2.625,-20.91710611470703,0.927872880896252,1.176088371127127
2.6285000000000025,-19.892290665838008,1.2954008241227135,1.2634421001894431
2.632000000000005,-19.050705117831107,1.5382895694765046,1.3358819907934678
2.6355000000000075,-17.82774418431242,1.7971568041323034,1.427497813889154
2.638999999999996,-16.819973620918372,1.9420365853403525,1.4775660741411154
2.6424999999999983,-15.360517083095951,2.0709378772463936,1.525505032705644
2.646000000000001,-14.164188128633445,2.102896601179661,1.5308317775827305
2.6495000000000037,-12.422428074959443,2.086916366548401,1.5073954963869507
2.653000000000006,-11.000255260618124,2.0144764759443765,1.476501423297399
2.656499999999994,-8.972995993232143,1.834440527613405,1.395539089955886
2.6599999999999966,-7.354810486587097,1.6512106267512845,1.3113810587539714
2.663499999999999,-5.12194794265768,1.3657114130393035,1.164370230529237
2.6670000000000016,-3.4217337064981512,1.1111045270876223,1.0365335894669123
2.670500000000004,-1.1973936053062215,0.7542300736153337,0.8490415945714216
2.6740000000000066,0.3984202709867616,0.4751222556241563,0.7073575112237738
2.677499999999995,2.3372611584667102,0.1043986145372925,0.5145387714511963
2.6809999999999974,3.601769654829122,-0.1629910628559948,0.3728546881035486
2.6845,4.980263859310031,-0.4804490005012437,0.1960144376329791
2.6880000000000024,5.7664526568586325,-0.6881815787321128,0.0862890782185996
2.691500000000005,6.482330865490643,-0.9300039279129352,-0.0362208179666383
2.6950000000000074,6.769962871548561,-1.0823415010147563,-0.1193124529955843
2.698499999999996,6.838140668119215,-1.241070469837381,-0.1992101354933808
2.701999999999998,6.685803095017395,-1.330555245916382,-0.2428870000245388
2.7055000000000007,6.25329305308068,-1.4157796732912649,-0.288694911572382
2.709000000000003,5.776039750439838,-1.4466737463808166,-0.3217200316786187
2.7125000000000057,5.006895838366213,-1.445607350207848,-0.3504830577514853
2.715999999999994,4.363455775008975,-1.414715022447548,-0.3685925940701784
2.7194999999999965,3.4781951078001674,-1.341208735670555,-0.3579391043160051
2.722999999999999,2.832623997426245,-1.2559843082956716,-0.3387649171535954
2.726500000000001,2.059219736648502,-1.1249537147021973,-0.2844345628682639
2.730000000000004,1.597944923309668,-1.017359402304503,-0.2119946722642392
2.7335000000000065,1.1814151160042137,-0.8650218292026818,-0.1129210572747811
2.7369999999999948,1.065296615539779,-0.7489033287382469,-0.0234362811957798
2.7404999999999973,1.1835444176916468,-0.5891097090719062,0.0767019846373948
2.744,1.5073954963869507,-0.4580773701491799,0.152337573101821
2.7475000000000023,2.243516033683591,-0.3249157295390206,0.2322352555996175
2.7510000000000048,3.0275737842155075,-0.2375620004767045,0.2950880526224372
2.7545000000000077,4.343215191673598,-0.1640557136997115,0.3504830577514853
2.757999999999996,5.513976817923637,-0.1438151303643334,0.3792460838243518
2.761499999999998,7.269586059212213,-0.140619432503932,0.3856374795451551
2.765000000000001,8.699214920118052,-0.1608600158393104,0.3590055004889736
2.768500000000003,10.703039651637509,-0.2183860679850437,0.2876302607286655
2.7720000000000056,12.249849918522244,-0.2844345628682654,0.2013411825100658
2.775499999999994,14.32291709745607,-0.3877685265618419,0.055395005129048
2.7789999999999964,15.855879922055486,-0.4921671410991349,-0.0745709376207097
2.782499999999999,17.806438950133323,-0.6317219227593498,-0.2599318854995155
2.7860000000000014,19.185997805457948,-0.7318584432632727,-0.3962909692993285
2.789500000000004,20.861711109577985,-0.8596950843255975,-0.5709984274239609
2.7930000000000064,21.98666307895093,-0.9502445112483154,-0.6924436727654824
2.7964999999999947,23.31402437233616,-1.0780811523106404,-0.8469105475547365
2.799999999999997,24.16839096645541,-1.168630579233358,-0.9513109074212812
2.8035,25.12289757173709,-1.282618032681108,-1.0695587095731491
2.807000000000002,25.694962395334027,-1.374233855776794,-1.1356072044563703
2.8105000000000047,26.269156520618388,-1.4775660741411183,-1.1878065117250167
2.814000000000007,26.53548154716796,-1.5446809651973086,-1.196328954462505
2.8174999999999955,26.67183888563852,-1.6235122515221363,-1.1728926732667255
2.820999999999998,26.6057903907553,-1.6522752775950034,-1.1281494125625986
2.8245000000000005,26.30431268774131,-1.6671891160532948,-1.0344025424502272
2.828000000000003,25.921869160727304,-1.648014928890885,-0.944917766371226
2.831500000000005,25.037674889691463,-1.5862267827117815,-0.7350541411236718
2.835000000000008,24.619014035369325,-1.5414852673369068,-0.6349176206197492
2.838499999999996,23.66237638307096,-1.4168443241349835,-0.4037470158638482
2.8419999999999987,22.88790572612025,-1.300727568999801,-0.2162550209683574
2.8455000000000013,21.803431432759552,-1.1111045270876247,0.0394165158270399
2.849000000000004,20.94586914077989,-0.9449177663712286,0.2130593231079557
2.8525000000000063,19.79428344702152,-0.7030954171904061,0.41120480775762
2.8559999999999945,18.92926161781884,-0.5060163287137103,0.5315836569261729
2.859499999999997,17.748911152658337,-0.2514094427620293,0.6402426201675839
2.8629999999999995,16.834887459376663,-0.0564614013020186,0.6903126257487973
2.866500000000002,15.585294546801796,0.1725781564371974,0.7286627454028686
2.8700000000000045,14.589242124005642,0.3291760782431367,0.7265316983861836
2.873500000000007,13.166004658820604,0.511343073590793,0.6956393706258839
2.876999999999996,12.019745709939311,0.6317219227593461,0.642373667184269
2.880499999999998,10.388775666523406,0.7627525163528207,0.5315836569261729
2.8840000000000003,9.090179144540294,0.8362588031298139,0.4282496932325966
2.887500000000003,7.267455012195528,0.899109854823382,0.2524758389349957
2.8910000000000053,5.853806385920949,0.9193504381587604,0.1065296615539778
2.894500000000008,3.943728524513867,0.9086986937338392,-0.0948115209560879
2.897999999999996,2.534341992272658,0.8660864800463979,-0.2460844432141925
2.901499999999998,0.7425119330174438,0.7797974018277983,-0.4516859744283765
2.905000000000001,-0.4836446983616445,0.6945729744529155,-0.600827849669796
2.908500000000004,-1.9196649549882872,0.5667380787198429,-0.80642938088398
2.912000000000006,-2.8070584145430324,0.4506213235846603,-0.9459841625441944
2.9154999999999944,-3.73173559757888,0.2844345628682643,-1.1132355741043072
2.918999999999997,-4.235620879275903,0.1629910628559949,-1.2261566313790884
2.9224999999999994,-4.670261968229303,0.0106534897541739,-1.3721028087601062
2.926000000000002,-4.83538233277273,-0.0937468701123708,-1.4679789805599106
2.9295000000000044,-4.887581640041376,-0.2237128128621285,-1.5787707361472587
2.933000000000007,-4.827926286208211,-0.3195889846619331,-1.6469485327179132
2.9364999999999952,-4.643629989173122,-0.4346410889533993,-1.6991478399865596
2.9399999999999977,-4.459333692138032,-0.5102766774178256,-1.7225858665115914
2.9435,-4.186617269867658,-0.5965657556364252,-1.7343040071094815
2.9470000000000027,-3.994863180938797,-0.6477004120613552,-1.723650517355308
2.950500000000005,-3.789261649724613,-0.7094885582404585,-1.6884960955616382
2.954000000000008,-3.7082993163831,-0.7467722817215614,-1.6384260899804248
2.957499999999996,-3.7541072279309433,-0.7734060061069948,-1.5574637566389118
2.9609999999999985,-3.921358639491056,-0.7766017039673965,-1.486088516878604
2.964500000000001,-4.33788844679651,-0.7702103082465931,-1.3603846681622165
2.9680000000000035,-4.795967562274942,-0.7563611206320181,-1.259181751485325
2.971500000000006,-5.593874500421434,-0.7201403026653797,-1.108973480070937
2.9749999999999943,-6.32786399070139,-0.6860505317154263,-0.9992481206565574
2.978499999999997,-7.460273751968106,-0.6189373859884882,-0.84584589671102
2.9819999999999998,-8.419040705953908,-0.5624759846864715,-0.7393162351570419
2.985500000000002,-9.831626426714022,-0.4804490005012418,-0.5965657556364258
2.9890000000000043,-10.97895002643903,-0.4271832970596267,-0.4985585368199362
2.992500000000007,-12.608853673681963,-0.3664615470534918,-0.3813771308410369
2.995999999999995,-13.890407055519356,-0.3504830577514836,-0.2961527034661538
2.9994999999999976,-15.65453873954542,-0.3483520107347982,-0.1768385051413174
3.003,-16.977636193568028,-0.3643322453660583,-0.0820287295144815
3.0065000000000026,-18.699157409235905,-0.4229229483555077,0.0447432607041266
3.010000000000005,-19.915725201704536,-0.4740576047804374,0.1331616406101593
3.013500000000008,-21.395422322862338,-0.5560845889656667,0.2514094427620272
3.016999999999996,-22.36058241789819,-0.6178727351447698,0.3345028231202252
3.0204999999999984,-23.42801182578391,-0.7116178599278892,0.4399678338304866
3.024000000000001,-24.049076768130572,-0.7861887975485987,0.5241258650324012
3.0275000000000034,-24.650971013973344,-0.8873917142254899,0.642373667184269
3.031000000000006,-24.942861623406124,-0.960898001002483,0.7382515843133254
3.034499999999994,-25.134615712334988,-1.0365335894669092,0.8607597351693115
3.0379999999999967,-25.148464899949563,-1.0823415010147523,0.952375558264998
3.041499999999999,-25.02275930590392,-1.1036484805230993,1.0759501052939522
3.0450000000000017,-24.8576389413605,-1.1036484805230993,1.160108136495867
3.048500000000004,-24.52313437291102,-1.0461224283773662,1.273029193770648
3.0520000000000067,-24.219525622880344,-0.968355792896255,1.3497311784080428
3.055499999999995,-23.749730112133275,-0.8202785684985521,1.4456073502078477
3.058999999999997,-23.347047747113145,-0.6668763445530145,1.5137868921077535
3.0625,-22.756873387197523,-0.4197272504951055,1.603271668186755
3.0660000000000025,-22.27003299097548,-0.210928276091268,1.6725158609303783
3.069500000000005,-21.56374187592467,0.0884201252352873,1.7577402883052613
3.0730000000000075,-20.98208995874653,0.3281114273994245,1.820593085328081
3.076499999999996,-20.12558882695209,0.6572875056425629,1.897293324636224
3.0799999999999983,-19.40651492045968,0.9172211364713304,1.947363330217437
3.083500000000001,-18.33482690919909,1.2559843082956734,1.9878444968881936
3.0870000000000037,-17.42719286630897,1.5010041006661494,2.0016936845027686
3.090500000000006,-16.062547849442637,1.7982214549760198,1.994235892608997
3.093999999999994,-14.90989575951129,1.9974315904694,1.968668564396532
3.0974999999999966,-13.19476768489347,2.1923813772586627,1.9111425122507988
3.100999999999999,-11.775792313741809,2.296779991795955,1.852551809261349
3.1045000000000016,-9.71124757754547,2.3820044191708383,1.7428264498469697
3.108000000000004,-8.062167997810871,2.390526861908326,1.6256432985388185
3.1115000000000066,-5.7664526568586325,2.348979299064601,1.4285624647328707
3.114999999999995,-4.010843415570057,2.279735106320978,1.2506593087478366
3.1184999999999974,-1.6565373716283698,2.11461474177755,0.986465329214951
3.122,0.0798976824977966,1.956950423798642,0.7755353077944284
3.1255000000000024,2.326609414041789,1.7098013297407326,0.4985585368199362
3.129000000000005,3.8989870091389927,1.4988730536494617,0.2940216564494687
3.1325000000000074,5.793084635914815,1.2037850010270243,0.0362208179666383
3.135999999999996,7.019241267293904,0.9672893967232884,-0.1512729222581045
3.139499999999998,8.37110349271863,0.6413090163405515,-0.3707236410868635
3.1430000000000007,9.15090089454643,0.413335854774304,-0.5156034222949128
3.146500000000003,9.864649801491009,0.1352926876268432,-0.6817901830113089
3.1500000000000057,10.16932494769465,-0.0394165158270411,-0.7797974018277984
3.153499999999994,10.281181354125714,-0.240757698337107,-0.8746089227838865
3.1569999999999965,10.15760680709676,-0.3749839897909829,-0.9257435792088164
3.160499999999999,9.77303397839532,-0.5187991201553157,-0.9630290480191712
3.164000000000001,9.34265498347529,-0.6157416881280886,-0.9672893967232892
3.167500000000004,8.648080263693123,-0.7265316983861847,-0.9363953236337376
3.1710000000000065,8.08560427900665,-0.7851241467048862,-0.8948495061192646
3.1744999999999948,7.354810486587097,-0.8479769437277059,-0.8277363603923268
3.1779999999999973,6.876492533102539,-0.8692821779068006,-0.7595568184924202
3.1815,6.424806558674162,-0.8756735736276038,-0.6391779693238674
3.1850000000000023,6.275664683432742,-0.8628907821859972,-0.5305172607532044
3.1885000000000048,6.37899864712632,-0.8437148496943355,-0.3792460838243518
3.1920000000000077,6.667693558698701,-0.8181475214818706,-0.2556715367953973
3.195499999999996,7.376115720766191,-0.7680792612299094,-0.0873537290623162
3.198999999999998,8.113300908906547,-0.727598094559153,0.0447432607041266
3.202500000000001,9.349046379196093,-0.6700720424134201,0.2311688594266489
3.206000000000003,10.434583578071251,-0.6274598287259788,0.3781796876513833
3.2095000000000056,12.031463850537202,-0.5709984274239623,0.5880433128989375
3.212999999999994,13.301297346447448,-0.5198655163282847,0.7467722817215618
3.2164999999999964,15.03560135355693,-0.4474238803950082,0.9545066052816829
3.219999999999999,16.328871130662957,-0.3824417816847554,1.0961906886293304
3.2235000000000014,17.98434385144761,-0.2748474692870613,1.253855006608238
3.227000000000004,19.148712336647595,-0.1917540889288633,1.3433397826872395
3.2305000000000064,20.564493755268117,-0.0788312863248304,1.4338892096099574
3.2339999999999947,21.51686756820386,0.0042603487041155,1.4775660741411154
3.237499999999997,22.63969023588937,0.1107900102580932,1.512722241264037
3.241,23.366223679604804,0.1811005991746847,1.5212446840015257
3.244500000000002,24.15241247715341,0.2737810731140875,1.520178287828557
3.2480000000000047,24.620078686213045,0.3387649171535924,1.512722241264037
3.251500000000007,25.03661023884775,0.4080091098972153,1.498873053649462
3.2549999999999955,25.201730603391177,0.4474238803950032,1.504199798526549
3.258499999999998,25.22942723329108,0.4772533026408383,1.527636079722329
3.2620000000000005,25.11437687432886,0.4793843496575234,1.561725850672282
3.265500000000003,24.756436024683605,0.4655351620429485,1.629903647242937
3.269000000000005,24.35375365966347,0.4378367868137985,1.7044745848636462
3.272500000000008,23.610175330473066,0.3824417816847505,1.8195266891551125
3.275999999999996,22.893230725668083,0.3451563128743958,1.915404606284169
3.2794999999999987,21.756560615697246,0.2961527034661511,2.058153340475533
3.2830000000000013,20.77009528648229,0.2535404897787097,2.16574939820248
3.286500000000004,19.30424735293907,0.1960144376329768,2.314889528114647
3.2900000000000063,18.107916653147317,0.156597921805937,2.4246166328582786
3.2934999999999945,16.41302916186487,0.1022693128498577,2.5471247837142648
3.296999999999997,15.087800660825575,0.0553950051290461,2.628087117055778
3.3004999999999995,13.268273971670464,-0.0085224427374899,2.7015934038327707
3.304000000000002,11.878059881262413,-0.0617864008498527,2.7250296850285505
3.3075000000000045,9.99568039508448,-0.1544686201185073,2.726094335872267
3.311000000000007,8.576705023932815,-0.2247774637058467,2.7005270076598022
3.314499999999996,6.71137042322986,-0.3302424744161079,2.6323492110891475
3.317999999999998,5.335007265765635,-0.4154651564617388,2.5567118772954696
3.3215000000000003,3.5538306962645936,-0.5337129586136065,2.428876981562397
3.325000000000003,2.269083361896056,-0.6168063389718044,2.2999756896563555
3.3285000000000053,0.6359822714634656,-0.7307937924195539,2.095438809285888
3.332000000000008,-0.515603422294913,-0.808560427900665,1.9111425122507988
3.335499999999996,-1.945232283200752,-0.9044365997004692,1.650144230578315
3.338999999999998,-2.9253062166949,-0.967289396723289,1.4349556057829258
3.342500000000001,-4.086479004034484,-1.040795683500282,1.1260183655459135
3.346000000000004,-4.841773728493534,-1.08021045399807,0.889522761242178
3.349500000000006,-5.684423927344152,-1.1143002249480232,0.5656734278761262
3.3529999999999944,-6.191506652230829,-1.1260183655459128,0.3281114273994219
3.356499999999997,-6.60164506381548,-1.1174959228084245,0.0937468701123714
3.3599999999999994,-7.02883010620436,-1.0727544074335498,-0.2024058333537824
3.363500000000002,-7.348419090866293,-1.0088369595670137,-0.4857757453783297
3.3670000000000044,-7.541237830638871,-0.9449177663712252,-0.6807255321675924
3.370500000000007,-7.747904012696771,-0.8383881048172471,-0.9140254386109264
3.3739999999999952,-7.884263096496585,-0.7446429800341278,-1.0716880112605822
3.3774999999999977,-8.003575549492169,-0.6349176206197482,-1.2123074437645132
3.381,-8.136737190102329,-0.4729912086074703,-1.367840714726736
3.3845000000000027,-8.229419409370983,-0.3483520107347992,-1.4573254908057371
3.388000000000005,-8.361516399137427,-0.1640557136997099,-1.5468120122139906
3.391500000000008,-8.522374669647483,0.0245026773687494,-1.6117941109242435
3.394999999999996,-8.672582941061872,0.1693824585767987,-1.648014928890882
3.3984999999999985,-8.862205982974046,0.3110665419244465,-1.6714512100866616
3.402000000000001,-9.191382061217183,0.5006895838366224,-1.693822840438725
3.4055000000000035,-9.504579650158316,0.638113318480152,-1.6980831891428432
3.409000000000006,-10.00100888529082,0.8085604279006663,-1.6789072566511811
3.4124999999999943,-10.41966973961296,0.9214814851754474,-1.648014928890882
3.415999999999997,-11.05778305809311,1.056774172802292,-1.5862267827117784
3.4194999999999998,-11.575517527404708,1.137736506143805,-1.5084601472306671
3.423000000000002,-12.315898413405469,1.2197652356582869,-1.3859519963746811
3.4265000000000043,-12.906072773321087,1.2527886104352712,-1.2783559386477348
3.430000000000007,-13.71569785206547,1.281551636508138,-1.1334761574396854
3.433499999999995,-14.329310238506125,1.27729128780402,-1.0067059125503293
3.4369999999999976,-15.141066364267193,1.2346790741165783,-0.8319967090964449
3.4405,-15.716325140395272,1.1696952300770738,-0.6892479749050807
3.4440000000000026,-16.443923234954422,1.0599698706626943,-0.5070809795574245
3.447500000000005,-16.930763631176468,0.956635906969118,-0.3749839897909817
3.451000000000008,-17.50176380392968,0.8170828706381554,-0.2013411825100658
3.454499999999996,-17.867160700139458,0.7116178599278943,-0.0745709376207097
3.4579999999999984,-18.271974112176277,0.582716568021853,0.0820287295144815
3.461500000000001,-18.51912146090493,0.5028206308533086,0.1906876927558924
3.4650000000000034,-18.75987915924204,0.4229229483555122,0.3345028231202252
3.468500000000006,-18.878126961393907,0.3771150368076691,0.4367721359700849
3.471999999999994,-18.965482435785475,0.3376985209806292,0.5699337765802444
3.4754999999999967,-18.96974278448959,0.319588984661936,0.6615495996759307
3.478999999999999,-18.920739175081348,0.3121311927681642,0.780862052671515
3.4825000000000017,-18.828058701141945,0.3142622397848493,0.863955433029713
3.486000000000004,-18.636304612213085,0.3366338701369126,0.9545066052816829
3.4895000000000067,-18.43815912756342,0.3526141047681726,1.0152283552878176
3.492999999999995,-18.08448037195153,0.3984202709867638,1.079145803154354
3.496499999999997,-17.759566387741764,0.4314453910930004,1.1238890638584804
3.5,-17.23650517355308,0.4889714432387334,1.167565928389639
3.5035000000000025,-16.780557105091333,0.5337129586136081,1.192066860429135
3.507000000000005,-16.115811807555,0.5955011047927112,1.20591604804371
3.5105000000000075,-15.562922916449732,0.6445047142009559,1.20591604804371
3.513999999999996,-14.766080629146956,0.7190756518216656,1.1856754647083318
3.5174999999999983,-14.121577660275255,0.7734060061069971,1.1494546467416935
3.521000000000001,-13.201159080614277,0.8533036886047933,1.0716880112605822
3.5245000000000037,-12.450126450188597,0.9086986937338412,0.9949877719524394
3.528000000000006,-11.361391808123782,0.9747471886170626,0.8810003185046897
3.531499999999994,-10.464413000317084,1.0077705633940472,0.7797974018277984
3.5349999999999966,-9.18179496763598,1.035468938623197,0.6477004120613556
3.538499999999999,-8.149521726873187,1.0354689386231968,0.5358440056302911
3.5420000000000016,-6.703914376665339,1.0056395163773617,0.3813771308410369
3.545500000000004,-5.5757632187734885,0.9640936988628884,0.2556715367953973
3.5490000000000066,-4.035344347609554,0.8873917142254933,0.0585907029894496
3.552499999999995,-2.854995627778308,0.8224096155152404,-0.0937468701123714
3.5559999999999974,-1.289009428401908,0.7286627454028687,-0.3046751462036421
3.5595,-0.1246391978726709,0.6466357612176391,-0.4602084171658648
3.5630000000000024,1.3635803660226178,0.5326483077698893,-0.6487650629050722
3.566500000000005,2.4182234918082237,0.4367721359700847,-0.7840577505319166
3.5700000000000074,3.706168269366415,0.3089354949077598,-0.947048813387911
3.573499999999996,4.56160125965864,0.2045368803704669,-1.0503827770814873
3.576999999999998,5.542739843996504,0.0703088435873389,-1.1728926732667255
3.5805000000000007,6.141436646649615,-0.0298276769165838,-1.2495929125748682
3.584000000000003,6.7646361266714745,-0.1523375731018219,-1.3369483869664365
3.5875000000000057,7.092747554070896,-0.2290395577392167,-1.3827562985142796
3.590999999999994,7.350548392553726,-0.3014794483432413,-1.4370849074703589
3.5944999999999965,7.418727934453633,-0.3451563128743995,-1.460522933995391
3.597999999999999,7.362266533151616,-0.3813771308410378,-1.4690453767328793
3.601500000000001,7.223778147664371,-0.4026823650201326,-1.4573254908057371
3.605000000000004,6.929756491214902,-0.4133358547743059,-1.4221710690120672
3.6085000000000074,6.654909021927843,-0.4122694586013374,-1.383820949357996
3.6119999999999943,6.236248167605702,-0.4005513180034474,-1.3124457095976878
3.615499999999997,5.921985927820856,-0.3867021303888723,-1.2517239595915532
3.619,5.5512622867339925,-0.3483520107348009,-1.17821767281456
3.6225000000000014,5.338202963626037,-0.3206536355056509,-1.1079088292272203
3.6260000000000048,5.2029102759991925,-0.2759121201307762,-1.0067059125503293
3.6295000000000073,5.213563765753365,-0.2471490940579097,-0.9204168343317296
3.632999999999996,5.437276578615495,-0.2151903701246415,-0.7989733343194602
3.636499999999998,5.741949979489886,-0.2045368803704681,-0.7030954171904037
3.640000000000001,6.328928641545106,-0.2024058333537831,-0.5965657556364258
3.643500000000003,6.878621834789971,-0.1906876927558932,-0.5187991201553145
3.6470000000000056,7.751099710557173,-0.193883390616295,-0.4452945787075733
3.650499999999994,8.487220247853815,-0.2013411825100668,-0.397355620143045
3.653999999999997,9.538669421108269,-0.2162550209683585,-0.3494166615785167
3.657499999999999,10.377057525925515,-0.2311688594266502,-0.3217200316786187
3.661000000000002,11.51266473038189,-0.2535404897787136,-0.2940216564494687
3.664500000000004,12.368097720674111,-0.2663250265495722,-0.2823035158515788
3.6680000000000064,13.456832362738922,-0.2769767709744938,-0.2673896773932873
3.671499999999994,14.239823717097872,-0.2769767709744938,-0.2641939795328856
3.674999999999997,15.18154753093795,-0.2705853752536907,-0.2556715367953973
3.6785,15.815398755384727,-0.2652586303766041,-0.2514094427620272
3.682000000000002,16.554714990541772,-0.2631275833599191,-0.2311688594266489
3.6855000000000047,17.026641548305527,-0.2737810731140926,-0.2215817658454441
3.689000000000007,17.54544066846084,-0.2897613077453527,-0.2013411825100658
3.692499999999996,17.871421048843576,-0.3217200316786209,-0.1885583910684593
3.695999999999998,18.23681794505336,-0.3643322453660625,-0.1725781564371993
3.699500000000001,18.477575643390463,-0.4090737607409372,-0.1672514115601126
3.703000000000003,18.750292065660837,-0.4942981881158204,-0.1470108282247343
3.7065000000000055,18.934586617366676,-0.5592802868260733,-0.1235745470289545
3.710000000000008,19.140189893910108,-0.659418552659248,-0.0777666354811113
3.713499999999996,19.27761362855364,-0.7275980945591544,-0.0351544217936697
3.716999999999999,19.384143290107613,-0.8213432193422738,0.0362208179666383
3.720500000000001,19.40225282642631,-0.8863270633817788,0.0980072188164895
3.724000000000004,19.34685782129726,-0.9470488133879134,0.1885583910684593
3.7275000000000063,19.21902118023493,-0.9811385843378668,0.2620629325162006
3.7309999999999945,18.93032626866255,-1.0003145168295282,0.3622011983493752
3.734499999999997,18.628848565648564,-0.9939213757794731,0.4367721359700849
3.738,18.078088976230728,-0.9630290480191734,0.5464974953844645
3.741500000000002,17.571007996673305,-0.9236125321921334,0.6200020368322057
3.745000000000005,16.74220698543726,-0.8522372924318251,0.7084221620674903
3.748500000000007,16.019935635755196,-0.7851241467048872,0.7616878655091054
3.7519999999999953,14.942920879617526,-0.6860505317154288,0.81069147491735
3.755499999999998,14.07257230553776,-0.6104149432510027,0.8256053133756417
3.759,12.859198465600276,-0.516669818467883,0.8256053133756417
3.762500000000003,11.91854104793317,-0.4527506252720945,0.8021690321798618
3.766000000000005,10.662556739637498,-0.3643322453660617,0.7542300736153336
3.769500000000008,9.73787955660165,-0.2972173543098715,0.7041618133633722
3.772999999999996,8.52450571666417,-0.2024058333537834,0.616806338971804
3.776499999999999,7.64670109601988,-0.1289012919060421,0.5390397034906926
3.780000000000001,6.502573194155273,-0.034089770949954,0.4346410889533998
3.783500000000004,5.666314391025458,0.0319587239332674,0.3472873598910836
3.787000000000006,4.532838233585773,0.1129210572747805,0.2151903701246408
3.7904999999999935,3.694450128768525,0.1597953649955923,0.1182478021518678
3.793999999999997,2.555647226451753,0.2077325782308688,-0.0127827914416064
3.7975,1.7023452831762131,0.2269085107225305,-0.1139874534477496
3.801000000000002,0.5848476150385359,0.2386266513204206,-0.2364956043037356
3.804500000000005,-0.2226464166891606,0.2407576983371058,-0.316393286801532
3.808000000000007,-1.2272212822228048,0.2375620004767043,-0.4037470158638482
3.8114999999999952,-1.913273559267484,0.2322352555996177,-0.4559463231324946
3.8149999999999977,-2.746334919207645,0.2290395577392162,-0.5124077244345112
3.8185,-3.3034859043462834,0.2162550209683578,-0.5422354013510943
3.8220000000000023,-3.9724915505867338,0.1853609478788062,-0.5678027295635593
3.825500000000005,-4.407132639540134,0.1565979218059397,-0.5709984274239609
3.829000000000008,-4.920606760147614,0.1086607085706635,-0.5741958706136145
3.832499999999996,-5.245522489686633,0.0681795418999071,-0.5795208701614492
3.8359999999999994,-5.609852989723442,0.0191759324916623,-0.5805872663344177
3.839500000000001,-5.835696849602256,-0.0149138384582908,-0.5784562193177326
3.843000000000004,-6.079650245799764,-0.0553950051290472,-0.5667380787198427
3.846500000000006,-6.242639563326506,-0.0798976824977956,-0.5507578440885826
3.8499999999999934,-6.435458303099084,-0.104398614537292,-0.5358440056302911
3.853499999999997,-6.597384715111361,-0.1107900102580952,-0.5187991201553145
3.8569999999999993,-6.850925204890074,-0.1257055940456387,-0.4932317919428495
3.860500000000002,-7.072506970735518,-0.1363573384705601,-0.4665998128866681
3.864000000000004,-7.422988283157752,-0.1331616406101584,-0.425053995372195
3.867500000000007,-7.72553412767396,-0.1299659427497568,-0.3824417816847534
3.870999999999995,-8.16017521662736,-0.1129210572747801,-0.3185243338182171
3.8744999999999976,-8.519178971787081,-0.0926804739394018,-0.2641939795328856
3.878,-9.031588441550843,-0.057526052145732,-0.1768385051413174
3.8815000000000026,-9.445988947168866,-0.0330233747769835,-0.1161167551351827
3.885000000000005,-10.03190121305112,-0.0042603487041169,-0.0308940730895516
3.888500000000008,-10.502763119971158,0.0106534897541746,0.0340897709499532
3.891999999999996,-11.149397135859545,0.0181095363186945,0.1161167551351827
3.8954999999999984,-11.64049962611496,0.017044885474978,0.1789695521580025
3.899000000000001,-12.288200038176315,0.0063913957208047,0.2535404897787122
3.9025000000000034,-12.754799851062984,-0.0095870935812032,0.3089354949077603
3.906000000000006,-13.325800023816198,-0.0372854688103532,0.38350643252847
3.909499999999994,-13.710371107188385,-0.0575260521457314,0.4410324846742031
3.9129999999999967,-14.164188128633445,-0.0916158230956846,0.533712958613606
3.916499999999999,-14.470994321853771,-0.1267702448893543,0.6072192453905992
3.9200000000000017,-14.822542030448972,-0.1672514115601108,0.6967040214696004
3.923500000000004,-15.067560077490198,-0.201341182510064,0.767014610386192
3.927000000000007,-15.373299874537556,-0.2599318854995136,0.8607597351693115
3.930499999999995,-15.592752338695568,-0.3057397970473568,0.9310703240859032
3.9339999999999975,-15.891034343849157,-0.3643322453660584,1.0205551001649042
3.9375,-16.123269599448772,-0.4069427137242478,1.0876682458918423
3.9410000000000025,-16.450314630675226,-0.4431635316908862,1.173957324110442
3.944500000000005,-16.704921516626907,-0.4538170214450595,1.2400058189936634
3.948000000000008,-17.08736329831166,-0.4516859744283744,1.3305552459163812
3.951499999999996,-17.389907397498618,-0.4357057397971143,1.3944744391121693
3.9549999999999983,-17.794720809535434,-0.3824417816847513,1.4775660741411154
3.958500000000001,-18.086611418968214,-0.3270467765557032,1.5287007305660454
3.9620000000000033,-18.444550523284224,-0.2247774637058434,1.5915535275888653
3.965500000000006,-18.66400124211298,-0.1374237346435272,1.6352303921200233
3.968999999999994,-18.87599591437722,-0.0010646508437142,1.6895607464053546
3.9724999999999966,-18.965482435785475,0.0958761717998068,1.7332376109365126
3.975999999999999,-18.96335138876879,0.2439533961975097,1.790763663082246
3.9795000000000016,-18.865342424623048,0.3600701513326925,1.829115528065569
3.983000000000004,-18.605412284452783,0.5092120265741119,1.8781191374738144
3.986500000000007,-18.30286643993657,0.6200020368322079,1.905815767373712
3.989999999999995,-17.763826736445882,0.7510343757549341,1.9239270490216571
3.993499999999997,-17.24822331415097,0.8330613599401635,1.9345787934465783
3.997,-16.427944745652415,0.9161547402983614,1.9249916998653736
4.000500000000002,-15.708869093830751,0.9694204437399764,1.903686465686279
4.004000000000005,-14.627592243659713,1.028011146729426,1.857878554138436
4.007500000000007,-13.723155643959243,1.0557095219585757,1.818462038311396
4.010999999999996,-12.410709934361556,1.0663630117127492,1.7481531947240565
4.014499999999998,-11.363522855140468,1.0621009176793788,1.6895607464053546
4.018000000000001,-9.897674921597243,1.049318126237772,1.5979449233096683
4.021500000000003,-8.753545274403384,1.033337891606512,1.5095265434036358
4.025000000000006,-7.183296980993615,1.0088369595670152,1.377429553637193
4.028499999999994,-5.989099073547794,0.9875299800586684,1.2655731472061282
4.0319999999999965,-4.39328519725481,0.9449177663712266,1.1047131313668188
4.035499999999999,-3.203347638513109,0.9065676467171552,0.9758118394607777
4.0390000000000015,-1.6629287673491733,0.8341277561131303,0.7904508915819718
4.042500000000004,-0.5582156359823542,0.7734060061069954,0.6391779693238674
4.046000000000007,0.8192139176548385,0.6903126257487971,0.4367721359700849
4.049499999999995,1.7577402883052613,0.634917620619749,0.2812388650078622
4.052999999999997,2.85819132563871,0.5635423808594408,0.0756355884644262
4.0565,3.561288488158365,0.5305172607532039,-0.0767019846373948
4.060000000000002,4.343215191673598,0.5006895838366208,-0.2716500260974054
4.063500000000005,4.801292561822777,0.4932317919428489,-0.4144005056180216
4.067000000000007,5.289199354217792,0.4964292351325025,-0.5859140112115044
4.070499999999996,5.556589031611079,0.4953628389595339,-0.7020307663466872
4.073999999999998,5.799476031635618,0.5028206308533058,-0.8256053133756417
4.077500000000001,5.926248021854225,0.5006895838366205,-0.9097633445775564
4.081000000000003,6.028515589374834,0.485775745378329,-0.9981834698128408
4.084500000000006,6.079650245799764,0.4634041150262657,-1.0482517300648024
4.087999999999994,6.125458157347607,0.4154651564617374,-1.0908639437522438
4.091499999999996,6.161677229984993,0.3707236410868628,-1.106844178383504
4.094999999999999,6.250097355220277,0.3110665419244446,-1.1238890638584804
4.098500000000001,6.363018412495059,0.2652586303766014,-1.130280459579284
4.102000000000004,6.610167506552967,0.1981454846496634,-1.1196269698251105
4.105500000000006,6.895666720264948,0.145946177381017,-1.1057777822105357
4.108999999999995,7.425119330174436,0.0543303542853305,-1.0716880112605822
4.112499999999997,7.943918450329751,-0.0202405833353792,-1.0386646364835974
4.116,8.792961790230425,-0.1352926876268455,-0.9736807924440926
4.119500000000002,9.538669421108269,-0.2322352555996186,-0.921481485175446
4.123000000000005,10.6348601097376,-0.3653968962097781,-0.836258803129815
4.126500000000007,11.51159833420892,-0.4612730680095827,-0.7691439120736251
4.129999999999996,12.720710080113031,-0.5784562193177342,-0.6775280889779387
4.133499999999998,13.619821680265666,-0.6519625060947275,-0.6093502924072843
4.1370000000000005,14.784191910794904,-0.7339894902799571,-0.5049499325407395
4.140500000000003,15.61512222371838,-0.7819284488444855,-0.4271832970596281
4.1440000000000055,16.658048954235348,-0.836258803129817,-0.3206536355056502
4.147500000000008,17.386711699638216,-0.8682175270630853,-0.2428870000245388
4.150999999999996,18.28156120575748,-0.896980553135952,-0.1374237346435295
4.154499999999999,18.90156498791894,-0.9118943915942436,-0.0575260521457331
4.158000000000001,19.63661738371336,-0.920416834331732,0.0404811666707564
4.161500000000004,20.12026382740425,-0.9214814851754486,0.1118564064310645
4.165000000000006,20.66676132278872,-0.9076322975608736,0.1938833906162941
4.1684999999999945,20.990612401484025,-0.8937848552755506,0.2620629325162006
4.171999999999997,21.310199640816705,-0.8650218292026843,0.3430252658577135
4.1755,21.449752677147668,-0.8351924069568493,0.3930952714389268
4.179000000000002,21.517932219047573,-0.7947112402860927,0.4580773701491797
4.1825000000000045,21.485975240443555,-0.7787327509840846,0.5092120265741096
4.186000000000007,21.35387825067712,-0.7574257714757379,0.5709984274239609
4.189499999999995,21.195149281854487,-0.7584921676487062,0.6231994800218592
4.192999999999998,20.906450879623605,-0.763817167196541,0.6935083236091989
4.1965,20.64119399457625,-0.7702103082465962,0.7489033287382468
4.200000000000003,20.21187965049994,-0.7702103082465961,0.8149518236214683
4.203500000000005,19.82837147264222,-0.7744706569507143,0.8660864800463982
4.207000000000008,19.227543622972423,-0.7797974018278008,0.9395927668233912
4.210499999999996,18.71194020067751,-0.7691439120736274,0.9917920740920376
4.213999999999999,17.932144544178964,-0.7499697249112176,1.0621009176793774
4.217500000000001,17.286573433805042,-0.7339894902799574,1.108973480070937
4.221000000000004,16.342720318277532,-0.6903126257487993,1.1633038343562685
4.224500000000006,15.589556640835166,-0.6594185526592475,1.203785001027025
4.227999999999994,14.51999793126202,-0.6104149432510027,1.2432015168540649
4.231499999999997,13.686934825992603,-0.5656734278761278,1.2623774493457267
4.234999999999999,12.547067272832116,-0.491102490255418,1.2698334959102464
4.238500000000002,11.677785094925316,-0.439967833830488,1.2602464023290416
4.242000000000004,10.515545911412763,-0.363265849193093,1.2304187254124583
4.245500000000007,9.649459431366363,-0.3036087500306747,1.2005893031666235
4.248999999999995,8.510658274378846,-0.2364956043037367,1.1526520899313473
4.252499999999998,7.664810632338574,-0.1960144376329801,1.0940596416126456
4.256,6.552641454407235,-0.1534022239455384,1.0045748655336442
4.259500000000003,5.7131869534170185,-0.1150521042914669,0.921481485175446
4.263000000000005,4.592495332748191,-0.0756355884644268,0.7915155424256883
4.266500000000008,3.757302925791345,-0.0543303542853319,0.6828548338550254
4.269999999999996,2.6376759559662344,-0.0447432607041269,0.5241258650324012
4.273499999999999,1.8035481998531044,-0.0404811666707567,0.3920288752659583
4.277000000000001,0.7084221620674903,-0.0383501196540714,0.2045368803704674
4.280500000000004,-0.0820287295144815,-0.0404811666707564,0.0596570991624181
4.284000000000006,-1.079145803154354,-0.0511346564249297,-0.1171831513081512
4.287499999999994,-1.743891100690686,-0.061786400849851,-0.2418223491808223
4.290999999999997,-2.4938608256019017,-0.0660484948832211,-0.3984202709867616
4.294499999999999,-2.94874249789068,-0.0681795418999061,-0.4953628389595346
4.298000000000002,-3.415342310777348,-0.0703088435873391,-0.6104149432510009
4.301500000000004,-3.675274196276863,-0.0692441927436225,-0.6807255321675924
4.305000000000007,-3.919227592474371,-0.0692441927436225,-0.7680792612299085
4.308499999999995,-4.058780628805333,-0.0628527970228192,-0.8256053133756417
4.311999999999998,-4.198335410465548,-0.0521993072686459,-0.8852624125380599
4.3155,-4.284624488684147,-0.0490036094082442,-0.9257435792088164
4.319000000000003,-4.40074124381933,-0.0415458175144724,-0.9662247458795729
4.322500000000005,-4.492357066915017,-0.0351544217936692,-0.9885963762316362
4.326000000000008,-4.642563593000153,-0.0245026773687478,-1.0056395163773606
4.329499999999996,-4.790640817397855,-0.0095870935812042,-1.009901610410731
4.332999999999998,-5.055899447774458,0.0117181405978905,-1.0173594023045027
4.336500000000001,-5.315831333273973,0.0298276769165837,-1.0258800997127389
4.340000000000003,-5.745145677350286,0.050068260251962,-1.030142193746109
4.343500000000006,-6.144632344510017,0.0575260521457338,-1.0333378916065108
4.346999999999994,-6.760374032638103,0.0660484948832222,-1.0386646364835974
4.350499999999997,-7.271717106228898,0.0756355884644271,-1.0407956835002825
4.353999999999999,-8.02275148198383,0.096942567972774,-1.0493181262377709
4.357500000000002,-8.610794794882768,0.108660708570664,-1.043991381360684
4.361000000000004,-9.440660456962528,0.1384883854872472,-1.0344025424502272
4.364500000000007,-10.081971218632331,0.1619246666830271,-1.0184240531482192
4.367999999999995,-10.972558630718224,0.1821652500184055,-0.9811385843378644
4.3714999999999975,-11.661804860294056,0.1906876927558938,-0.933199625773336
4.375,-12.599266580100762,0.1821652500184057,-0.861824386013028
4.3785000000000025,-13.318342231922426,0.1651203645434291,-0.7904508915819718
4.382000000000005,-14.283500581629031,0.1193124529955861,-0.683921230027994
4.385500000000008,-14.990858092852804,0.0809623333415147,-0.5912390107593392
4.388999999999996,-15.918732719078305,0.0138491876145769,-0.4602084171658648
4.392499999999998,-16.58560731830207,-0.0447432607041246,-0.3579391043160051
4.396000000000001,-17.41227902785068,-0.1235745470289523,-0.2141239739516723
4.399500000000003,-17.980083502743494,-0.1789695521580003,-0.1129210572747811
4.403000000000006,-18.64376240410686,-0.2535404897787099,0.0170448854749766
4.406499999999994,-19.0688146541498,-0.3004130521702696,0.1043986145372928
4.409999999999997,-19.516240279874054,-0.3430252658577111,0.2066679273871525
4.413499999999999,-19.75380053502151,-0.3558098026285695,0.2791078179911772
4.417000000000002,-19.927443342302425,-0.3483520107347977,0.3600701513326901
4.420500000000004,-19.95727276454826,-0.3366338701369079,0.4367721359700849
4.424000000000007,-19.84648100896091,-0.3046751462036397,0.5369104018032596
4.427499999999995,-19.660055410238392,-0.2695207244099699,0.616806338971804
4.430999999999997,-19.324486190945198,-0.20240583335378,0.7265316983861836
4.4345,-18.99743941438949,-0.1278348957330703,0.8096250787443816
4.438000000000002,-18.498880877569555,0.0021310470166873,0.9140254386109264
4.441500000000005,-18.07489327837033,0.1257055940456418,0.9939213757794708
4.445000000000007,-17.48045856975059,0.3121311927681641,1.097255339473047
4.448499999999996,-17.00959666283055,0.4740576047804419,1.1792840689875286
4.451999999999998,-16.36722299564628,0.7105532090841775,1.2922051262623095
4.455500000000001,-15.87718515623458,0.90124090184007,1.374233855776791
4.459000000000003,-15.22735369715654,1.150521042914664,1.480763517330769
4.462500000000006,-14.74584004581158,1.3390776886538711,1.550007710074392
4.465999999999994,-14.117313820912631,1.5883578297284655,1.614989808784645
4.4694999999999965,-13.650715753355218,1.773718777607271,1.6437528348575114
4.472999999999999,-13.047756856668736,2.0016936845027704,1.6533416737679685
4.4765000000000015,-12.598201929257046,2.1455088148671027,1.648014928890882
4.480000000000004,-11.981393844955988,2.303171387516758,1.626707949382535
4.483500000000007,-11.497749146594344,2.39691825762913,1.596880272465952
4.486999999999995,-10.81915640677269,2.498121174306021,1.545745616041022
4.490499999999997,-10.26733216651114,2.5556472264517542,1.4892859600682575
4.494,-9.469423483035394,2.611042231580802,1.399799438660004
4.497500000000002,-8.828116212024094,2.633413861932865,1.3209681523351764
4.501000000000005,-7.890654492217388,2.6259578153683454,1.1941979074458202
4.504500000000007,-7.123639881831196,2.6003904871558805,1.0855371988751572
4.507999999999996,-6.02212419365403,2.527950596551856,0.9140254386109264
4.511499999999998,-5.140057478976372,2.452313262758177,0.7755353077944284
4.515000000000001,-3.904313754016079,2.3170205751313326,0.5688691257365278
4.518500000000003,-2.934893310276105,2.1945124242753464,0.4026823650201317
4.522000000000006,-1.6320346942596216,1.9878444968881936,0.1704471094205142
4.525499999999994,-0.6519625060947256,1.811004246417624,-0.0117181405978899
4.528999999999996,0.6072192453905995,1.5521370117618252,-0.2503447919183106
4.532499999999999,1.507395496386951,1.3582536211455307,-0.4282496932325966
4.536000000000001,2.613173278597486,1.0983217356460155,-0.6551582039551274
4.539500000000004,3.3578162586316145,0.914025438610926,-0.8138871727777518
4.543000000000006,4.232425181415501,0.6764634381342216,-1.0013791676732426
4.546499999999995,4.799163260135344,0.5081473757303925,-1.1196269698251105
4.549999999999997,5.43514553159881,0.2950880526224366,-1.2432015168540649
4.5535,5.828239057708484,0.1395530363309619,-1.3113810587539714
4.557000000000002,6.26927328771194,-0.061786400849852,-1.3784942044809092
4.560500000000005,6.556903548440605,-0.21199467226424,-1.4083218813974925
4.564000000000007,6.926560793354501,-0.4175962034784241,-1.4349556057829258
4.567499999999996,7.217386751943567,-0.5805872663344186,-1.439215954487044
4.570999999999998,7.677595169109432,-0.7861887975486026,-1.4179107203079493
4.5745000000000005,8.088799976867051,-0.9363953236337388,-1.3848856002017127
4.578000000000003,8.764198764157557,-1.136671855300088,-1.3156414074580896
4.5815000000000055,9.365024868498102,-1.2794223348207043,-1.2506593087478366
4.585000000000008,10.289703796863202,-1.4498694442412188,-1.134540808283402
4.588499999999996,11.063108057640946,-1.5649215485326848,-1.0333378916065108
4.591999999999999,12.172083283041134,-1.6906253972490728,-0.8831313655213747
4.595500000000001,13.044561158808332,-1.7577402883052629,-0.7542300736153336
4.599000000000004,14.223843482466611,-1.8088749447301928,-0.5763251723010476
4.602500000000006,15.092061009529695,-1.8216577361717996,-0.4357057397971164
4.6059999999999945,16.217016469561145,-1.7875679652218464,-0.2364956043037356
4.609499999999997,16.992551777355573,-1.7364333087969166,-0.0809623333415129
4.613,17.932144544178964,-1.640557136997112,0.1150521042914662
4.616500000000002,18.56066902374866,-1.5393542203202208,0.2535404897787122
4.6200000000000045,19.28080932641404,-1.3912769959225182,0.4207919013388249
4.623500000000007,19.747409139300704,-1.265573147206131,0.5273215628928027
4.626999999999995,20.268339306472704,-1.0897992929085298,0.6615495996759307
4.630499999999998,20.59645073387213,-0.9587669539858036,0.7435765838611602
4.634,20.974630421523518,-0.8000379851631793,0.8437148496943347
4.637500000000003,21.22178126091067,-0.6849858808717131,0.9086986937338396
4.641000000000005,21.515801172030887,-0.556084588965672,0.986465329214951
4.644500000000008,21.717144099870207,-0.4825800475179307,1.035468938623196
4.647999999999996,21.96855354263224,-0.4026823650201344,1.0908639437522438
4.651499999999999,22.139000652052747,-0.3547434064556061,1.124953714702197
4.655000000000001,22.355255673021105,-0.3131975889411332,1.164370230529237
4.658500000000004,22.475634522189655,-0.2961527034661566,1.1899375587417018
4.662000000000006,22.567250345285345,-0.2769767709744949,1.2144384907811985
4.665499999999994,22.53848731921248,-0.2663250265495735,1.22935232923949
4.668999999999997,22.34034183456281,-0.2407576983371085,1.2229609335186866
4.672499999999999,22.04525552726963,-0.2194507188287617,1.215503141624915
4.676000000000002,21.429513839141546,-0.1896230419121785,1.2133738399374818
4.679500000000004,20.802054010415564,-0.1619246666830284,1.2069806988874263
4.683000000000007,19.787890305971462,-0.1267702448893585,1.2069806988874263
4.686499999999995,18.90476068577934,-0.102269312849862,1.2048513971999937
4.689999999999998,17.594444277869083,-0.0767019846373969,1.2005893031666235
4.6935,16.528081266156338,-0.0607217500061367,1.1973936053062215
4.697000000000003,15.01216507236115,-0.0532657034416167,1.192066860429135
4.700500000000005,13.81690076874236,-0.0564614013020182,1.1835444176916468
4.704000000000008,12.155038397566155,-0.0521993072686479,1.1622391835125518
4.707499999999996,10.867093620007966,-0.0532657034416162,1.1398675531604887
4.710999999999999,9.117875774440192,-0.053265703441616,1.0897992929085274
4.714500000000001,7.789451575540497,-0.0543303542853324,1.039729287327314
4.718000000000004,6.01786209962066,-0.0447432607041273,0.956635906969116
4.721500000000006,4.696893947285484,-0.0415458175144735,0.8820667146776582
4.724999999999994,2.983896919684349,-0.0298276769165834,0.7723396099340267
4.728499999999997,1.763067033182348,-0.0170448854749768,0.6817901830113089
4.731999999999999,0.2396913021641372,0.0117181405978899,0.5678027295635593
4.735500000000002,-0.7957776364590586,0.03941651582704,0.4900360940824479
4.739000000000004,-2.0166075229610603,0.0735062867769934,0.3941599222826434
4.742500000000007,-2.797469575632575,0.0905494269227181,0.3451563128743986
4.745999999999995,-3.653968962097768,0.09800721881649,0.2812388650078622
4.749499999999998,-4.171703431409366,0.1065296615539784,0.2269085107225308
4.753,-4.687306853704279,0.1150521042914667,0.1225098961852379
4.756500000000003,-4.942978390499676,0.1171831513081518,0.0202405833353782
4.760000000000005,-5.112360849076474,0.1012029166768918,-0.1342280367831279
4.763500000000008,-5.113425499920191,0.0767019846373954,-0.2514094427620272
4.766999999999996,-4.969610369555858,0.0372854688103554,-0.4165315526347067
4.770499999999998,-4.770400234062477,5.842055377296398e-16,-0.5209301671719996
4.774000000000001,-4.4209818271547086,-0.0330233747769841,-0.6413090163405525
4.777500000000003,-4.133351566426043,-0.0596570991624176,-0.7190756518216638
4.781000000000006,-3.779672810814157,-0.0798976824977959,-0.8117561257610666
4.784499999999994,-3.569809185566602,-0.0873537290623157,-0.8714132249234848
4.787999999999997,-3.4142759146043797,-0.0894847760790008,-0.944917766371226
4.791499999999999,-3.392970680425284,-0.082028729514481,-0.9811385843378644
4.795000000000002,-3.502696039839664,-0.0703088435873391,-1.030142193746109
4.798500000000004,-3.679536290310233,-0.0639174478665358,-1.0546431257856057
4.802000000000007,-4.038540045469955,-0.0436768645311576,-1.073819058277267
4.805499999999995,-4.378371358796519,-0.0351544217936692,-1.0866035950481256
4.8089999999999975,-4.931260249901786,-0.0159802346312594,-1.0897992929085274
4.8125,-5.407447156369659,-0.0085224427374876,-1.0897992929085274
4.8160000000000025,-6.133978854755843,7.511957570514292e-16,-1.083406151858472
4.819500000000005,-6.747591241196497,0.0095870935812056,-1.0684923134001805
4.823000000000008,-7.657354585774054,0.0266319790561824,-1.045056032204401
4.826499999999996,-8.404128612824868,0.041545817514474,-1.007770563394046
4.829999999999998,-9.48327441597922,0.0575260521457342,-0.9513109074212812
4.833500000000001,-10.345098801992249,0.0735062867769944,-0.8980452039796664
4.837000000000003,-11.549950199192244,0.0990718696602075,-0.8288010112360433
4.840500000000006,-12.481018777948892,0.1129210572747826,-0.780862052671515
4.843999999999994,-13.728480643507076,0.133161640610161,-0.709488558240459
4.847499999999997,-14.65102852485549,0.1352926876268462,-0.6562228547988439
4.850999999999999,-15.832443640859706,0.1278348957330746,-0.5731294744406459
4.854500000000002,-16.670831745676953,0.1118564064310666,-0.5156034222949128
4.858000000000004,-17.707365335143866,0.0862890782186018,-0.4378367868138015
4.861500000000007,-18.40087540408232,0.062852797022822,-0.3867021303888716
4.864999999999995,-19.23819885805585,0.0287630260728689,-0.3153286359578155
4.868499999999997,-19.774041118356887,0.0106534897541758,-0.2620629325162006
4.872,-20.371673270166283,-0.0042603487041156,-0.1928187397725775
4.875500000000002,-20.72854772363857,-0.0138491876145724,-0.136357338470561
4.879000000000005,-21.09074892198795,-0.0117181405978873,-0.0564614013020165
4.882500000000007,-21.28995905748133,-0.003195697860399,0.0106534897541733
4.885999999999996,-21.45081907332064,0.0223716303520659,0.1225098961852379
4.889499999999998,-21.515801172030887,0.0468725623915623,0.2130593231079557
4.893000000000001,-21.515801172030887,0.0948115209560905,0.3440916620306821
4.896500000000003,-21.46040616690184,0.1320969897664454,0.4463592295512898
4.900000000000006,-21.31126429166042,0.2098636252475567,0.5880433128989375
4.903499999999994,-21.156797416871168,0.2609982816724867,0.6967040214696004
4.9069999999999965,-20.849992968980093,0.3483520107348027,0.8522372924318231
4.910499999999999,-20.561298057407708,0.4133358547743076,0.9715514907566596
4.9140000000000015,-20.092565452175105,0.5187991201553169,1.1281494125625986
4.917500000000004,-19.681360644417484,0.5944364539489951,1.2389411681499467
4.921000000000007,-19.06029221141231,0.6935083236092012,1.379558855324626
4.924499999999995,-18.53297064851951,0.7808620526715172,1.4679789805599106
4.927999999999997,-17.74465080395422,0.91295904243796,1.5606594544993135
4.9315,-17.090558996172064,1.0205551001649062,1.606467366047157
4.935000000000002,-16.130725646013293,1.176088371127129,1.6458838818741963
4.938500000000005,-15.327491962989717,1.304987917703918,1.6554709754554016
4.942000000000007,-14.180166617935454,1.473305725436999,1.6554709754554016
4.945499999999996,-13.25016443535177,1.59794492330967,1.6394924861533935
4.948999999999998,-11.92706523599991,1.7609359861656644,1.596880272465952
4.952500000000001,-10.882009203795509,1.858943204982154,1.5446809651973052
4.956000000000003,-9.40550603516886,1.954819376781958,1.4477383972245323
4.959500000000006,-8.244333247829275,2.000627288329801,1.3486665275643264
4.962999999999994,-6.626147741184228,2.021934267838148,1.1846108138646152
4.966499999999996,-5.3605745939781,2.0198032208214625,1.0365335894669123
4.969999999999999,-3.613487795427012,1.9803867049944224,0.8192139176548384
4.973500000000001,-2.280801502493945,1.9196649549882876,0.6519625060947258
4.977000000000004,-0.4964292351325029,1.8120706425905928,0.425053995372195
4.980500000000006,0.813887172777752,1.7087366788970164,0.2482137449016255
4.983999999999995,2.4949254764456184,1.54254991818062,0.0042603487041181
4.987499999999997,3.6699474513997767,1.4008658348329723,-0.1757738542976009
4.991,5.093184916584812,1.1984582561499375,-0.4207919013388249
4.994500000000002,6.033842334251921,1.0375999856398803,-0.5986968026531109
4.998000000000005,7.088485460037527,0.8277363603923259,-0.8170828706381533
5.001500000000007,7.719140986623906,0.6668763445530164,-0.960898001002486
5.004999999999996,8.34340511748948,0.4612730680095803,-1.1153666211209925
5.008499999999998,8.642753518816036,0.3057397970473576,-1.2048513971999937
5.0120000000000005,8.82598516500741,0.1097253594143784,-1.2911404754185931
5.015500000000003,8.803613534655346,-0.0298276769165841,-1.332686292933066
5.0190000000000055,8.5788360709495,-0.2151903701246419,-1.3667760638830195
5.022500000000008,8.294401508081236,-0.3345028231202262,-1.374233855776791
5.025999999999996,7.773471340909236,-0.482580047517929,-1.3689071108997044
5.029499999999999,7.323916413497545,-0.5656734278761271,-1.3529268762684443
5.033000000000001,6.663433209994583,-0.6477004120613564,-1.3124457095976878
5.036500000000004,6.159546182968308,-0.690312625748798,-1.273029193770648
5.040000000000006,5.506520771359118,-0.7126842561008612,-1.2048513971999937
5.0434999999999945,5.063355494338977,-0.706291115050806,-1.1473253450542604
5.046999999999997,4.5573409109545215,-0.6796591359946245,-1.0482517300648024
5.0505,4.275037395102943,-0.6487650629050727,-0.9768764903044942
5.054000000000002,4.054520280101215,-0.601892500513513,-0.861824386013028
5.0575000000000045,4.027888301045034,-0.5592802868260714,-0.7829930996882002
5.061000000000007,4.171703431409366,-0.5017542346803384,-0.6753987872905056
5.064499999999995,4.434831014769284,-0.4463592295512903,-0.5901743599156226
5.067999999999998,4.979197463137062,-0.3760503859639508,-0.4665998128866681
5.0715,5.534217401259016,-0.3206536355056509,-0.3653968962097769
5.075000000000003,6.4642213291719495,-0.2471490940579098,-0.2109282760912707
5.078500000000005,7.285566293843474,-0.1928187397725784,-0.0958761717998045
5.082000000000008,8.550073044876633,-0.1214435000122704,0.0649838440395048
5.085499999999996,9.610042915539326,-0.0841580312019157,0.1928187397725775
5.088999999999999,11.122765156803364,-0.0564614013020179,0.3600701513326901
5.092500000000001,12.33720364758456,-0.0436768645311596,0.4751222556241564
5.096000000000004,14.01398160254831,-0.0394165158270416,0.6114795940947174
5.099500000000006,15.301924634777247,-0.0362208179666401,0.6945729744529154
5.102999999999994,16.990420730338887,-0.0287630260728686,0.7638171671965385
5.106499999999997,18.22296875743878,-0.0170448854749788,0.7979069381464917
5.109999999999999,19.763389373931965,0.0095870935812024,0.8330613599401614
5.113500000000002,20.80524970827597,0.0415458175144704,0.8554329902922247
5.117000000000004,22.035668433688425,0.0798976824977937,0.8841960163650913
5.120500000000007,22.811203741482853,0.1257055940456367,0.9108279954212728
5.123999999999995,23.626155565104323,0.1715135055934799,0.9513109074212812
5.127499999999998,24.04481641942646,0.2205171150017246,0.9779428864774626
5.131,24.31646819085312,0.2897613077453476,1.0109662612544474
5.134500000000003,24.297292258361452,0.3440916620306791,1.0344025424502272
5.138000000000005,23.97237652882244,0.4112048077576171,1.053578474941889
5.141500000000008,23.518561252706625,0.4463592295512869,1.0663630117127476
5.144999999999996,22.66738861111852,0.4697955107470669,1.0897992929085274
5.148499999999999,21.87587132336358,0.4783179534845553,1.1153666211209925
5.152000000000001,20.673152718509524,0.4751222556241538,1.167565928389639
5.155500000000004,19.68349169143417,0.4687308599033508,1.2091117459041116
5.159000000000006,18.25919132073467,0.4463592295512876,1.273029193770648
5.162499999999994,17.129975511999103,0.4314453910929961,1.324163850195578
5.165999999999997,15.550138379678875,0.4037470158638463,1.3891476942350829
5.169499999999999,14.317590352578982,0.3728546881035468,1.448803048068249
5.173000000000002,12.61204937154237,0.3291760782431369,1.5414852673369035
5.176500000000004,11.298539011100964,0.2950880526224358,1.6022070173430385
5.180000000000007,9.505644301002032,0.2460844432141913,1.652275277595
5.183499999999995,8.148457076029471,0.2045368803704664,1.6757115587907798
5.186999999999998,6.317210500947216,0.1512729222581037,1.6629287673491733
5.1905,4.937651645622591,0.1107900102580954,1.6320346942596218
5.194000000000003,3.084035185517524,0.0543303542853311,1.5510723609181087
5.197500000000005,1.6980831891428432,0.0010646508437163,1.4722410745932808
5.201000000000008,-0.1278348957330726,-0.0745709376207097,1.332686292933066
5.204499999999996,-1.4733057254369972,-0.1278348957330724,1.208047095060395
5.207999999999998,-3.209739034233912,-0.1885583910684589,1.0237507980253058
5.211500000000001,-4.449744853227576,-0.2237128128621286,0.8746089227838865
5.215000000000003,-6.013601750916542,-0.2514094427620265,0.6679409953967339
5.218500000000006,-7.107661392529187,-0.2546051406224279,0.508147375730393
5.221999999999994,-8.446739081183058,-0.2460844432141914,0.2940216564494687
5.225499999999997,-9.372482660391872,-0.2364956043037345,0.1182478021518678
5.228999999999999,-10.47080439603789,-0.2098636252475529,-0.110790010258096
5.232500000000002,-11.195205047407388,-0.188558391068458,-0.2780431671474606
5.236000000000004,-12.021875011626744,-0.1384883854872446,-0.4964292351325031
5.239500000000007,-12.53748017925091,-0.0926804739394013,-0.6540918077821589
5.242999999999995,-13.087173372495776,-0.0138491876145734,-0.8469105475547365
5.2464999999999975,-13.396108867403536,0.0575260521457347,-0.9736807924440926
5.25,-13.690130523853004,0.1757738542976026,-1.124953714702197
5.2535000000000025,-13.823293909792415,0.2769767709744938,-1.2112427929207967
5.257000000000005,-13.893602753379756,0.4303807402492834,-1.3113810587539714
5.260500000000008,-13.872295773871407,0.5571509851386395,-1.3571889703018147
5.263999999999996,-13.799855883267384,0.6860505317154287,-1.3870166472183978
5.267499999999998,-13.634735518723955,0.8490415945714233,-1.3880812980621142
5.271000000000001,-13.4152847998952,1.0056395163773622,-1.3593182719892478
5.274500000000003,-13.242706643458,1.1153666211209938,-1.3156414074580896
5.278000000000006,-13.015798132735467,1.2538550066082397,-1.2463972147144666
5.281499999999994,-12.88157009595234,1.348666527564328,-1.18247976684793
5.284999999999997,-12.755864501906702,1.4690453767328808,-1.0866035950481256
5.288499999999999,-12.71005833568811,1.5436145690243384,-1.0152283552878176
5.292000000000002,-12.730298919023488,1.632034694259623,-0.9065676467171546
5.295500000000004,-12.813392299381686,1.6938228404387266,-0.8309320582527283
5.299000000000007,-13.000884294277178,1.7588049391489793,-0.7158799539612621
5.302499999999995,-13.217139315245534,1.805677501540539,-0.6253287817092923
5.305999999999997,-13.577209466578225,1.8578785541384373,-0.5092120265741096
5.3095,-13.905320893977644,1.8887708818987368,-0.4197272504951083
5.313000000000002,-14.395356988060094,1.9132735592674857,-0.2918906094327836
5.316500000000005,-14.78525656163862,1.926056350709092,-0.1938833906162941
5.320000000000007,-15.308317775827303,1.933514142602864,-0.0617864008498512
5.323499999999996,-15.685431067305718,1.9367098404632657,0.0372854688103548
5.326999999999998,-16.138183437907063,1.9303184447424624,0.1747092034538843
5.330500000000001,-16.427944745652415,1.9217960020049745,0.2812388650078622
5.334000000000003,-16.735813844387206,1.9079468143903997,0.4165315526347067
5.337500000000006,-16.89987130341617,1.8802484391612493,0.5187991201553145
5.340999999999994,-17.011725964517982,1.8269844810488864,0.6434400633572375
5.3444999999999965,-17.005334568797178,1.7769144754676731,0.7244023966987505
5.347999999999999,-16.910523047841092,1.7204548194949083,0.7861887975486017
5.3515000000000015,-16.66870244398952,1.6458838818741983,0.836258803129815
5.355000000000004,-16.280932172098428,1.5702482934097723,0.8533036886047917
5.358500000000007,-15.899556786586643,1.526569683549362,0.8575640373089098
5.361999999999995,-15.253987421541972,1.4786324703140856,0.8543683394485082
5.365499999999997,-14.680857947101329,1.4434780485204162,0.836258803129815
5.369,-13.788137742669496,1.4051261835370927,0.8160182197944368
5.372500000000002,-13.041365460947931,1.3752985066205092,0.7851241467048852
5.376000000000005,-11.937716980424833,1.3358819907934694,0.7403808860007585
5.379500000000007,-11.042867474305568,1.3049879177039176,0.6956393706258839
5.382999999999996,-9.7655779318308,1.254919657451956,0.6200020368322057
5.386499999999998,-8.757805623107503,1.2176341886416011,0.5518242402615512
5.390000000000001,-7.354810486587097,1.150521042914663,0.4420988808471717
5.393500000000003,-6.271402589399373,1.0972553394730478,0.3462209637181151
5.397000000000006,-4.794901166101973,1.0141619591148496,0.2141239739516723
5.400499999999994,-3.666751753539375,0.948113464231628,0.1118564064310645
5.403999999999996,-2.140182069990015,0.8596950843255952,-0.0287630260728665
5.407499999999999,-0.9853989330419824,0.7840577505319167,-0.1331616406101593
5.411000000000001,0.5550199381219529,0.6690056462404503,-0.2673896773932873
5.414500000000004,1.6884960955616382,0.5688691257365276,-0.355809802628572
5.418000000000006,3.1415612376632573,0.4303807402492813,-0.4612730680095813
5.421499999999995,4.173832733096799,0.3195889846619332,-0.5273215628928027
5.424999999999997,5.130470385395167,0.2130593231079551,-0.5784562193177326
5.4285,6.276729334276459,0.0703088435873388,-0.6295908757426625
5.432000000000002,7.035221501925164,-0.0255673282124657,-0.6530271569384424
5.435500000000005,7.8821320494799,-0.1427504795206172,-0.6796591359946239
5.439000000000007,8.401997565808182,-0.21945071882876,-0.6913772765925138
5.442499999999996,8.925057034667615,-0.3131975889411316,-0.697768672313317
5.445999999999998,9.196708806094271,-0.3781796876513844,-0.6935083236091989
5.4495000000000005,9.403374988152173,-0.4442281825346059,-0.6860505317154271
5.453000000000003,9.4513139467167,-0.4964292351325043,-0.6764634381342222
5.4565000000000055,9.407637082185545,-0.5337129586136071,-0.6658099483800488
5.460000000000008,9.265952998837896,-0.5624759846864736,-0.6530271569384424
5.463499999999996,9.14344310265266,-0.5784562193177337,-0.6402426201675839
5.466999999999999,8.984714133830034,-0.6082838962343169,-0.616806338971804
5.470500000000001,8.910143196209324,-0.6274598287259786,-0.5816519171781342
5.474000000000004,8.885642264169828,-0.6445047142009551,-0.5273215628928027
5.477500000000006,8.965539946667624,-0.667940995396735,-0.4239875991992265
5.4809999999999945,9.121071472300594,-0.6807255321675935,-0.3334381722765087
5.484499999999997,9.437464759102127,-0.6871169278883966,-0.1821652500184041
5.488,9.745335603166168,-0.6860505317154283,-0.0660484948832214
5.491500000000002,10.240698442125703,-0.6817901830113101,0.0926804739394028
5.4950000000000045,10.64657825033549,-0.673267740273822,0.2130593231079557
5.498500000000007,11.219707724776136,-0.6498314590780421,0.3749839897909817
5.501999999999995,11.662871256467024,-0.631721922759349,0.4953628389595346
5.505499999999998,12.250914569365962,-0.604023547530199,0.6466357612176391
5.509,12.678099611754842,-0.5816519171781358,0.7627525163528219
5.512500000000003,13.207550476335078,-0.5475621462281827,0.9204168343317296
5.516000000000005,13.582536211455311,-0.5166698184678831,1.0280111467294242
5.519500000000008,14.032091138867004,-0.4665998128866698,1.1728926732667255
5.522999999999996,14.329310238506125,-0.4261186462159133,1.2740955899436164
5.526499999999999,14.668073410330468,-0.3792460838243536,1.4008658348329728
5.530000000000001,14.884328431298826,-0.3451563128744004,1.4871549130515724
5.533500000000004,15.120824035602562,-0.3025440991869588,1.583031084851377
5.537000000000006,15.279554749754436,-0.2833681666952972,1.6416217878408266
5.540499999999994,15.45852430191244,-0.2695207244099742,1.7172591216345048
5.543999999999997,15.57570570789134,-0.2737810731140924,1.7577402883052613
5.547499999999999,15.702477698109949,-0.2993484013265574,1.806743897713506
5.551000000000002,15.76852619299317,-0.3366338701369122,1.8387026216467743
5.554500000000004,15.815398755384727,-0.4069427137242518,1.866400996875924
5.558000000000007,15.798353869909752,-0.4708619069200401,1.8834458823509008
5.561499999999995,15.707802697657783,-0.5709984274239628,1.900489022496625
