time,Gyr_X,Gyr_Y,Gyr_Z
0.0,0.0145647429025915,0.01247228665862,-0.0047678245560211
0.0099999999999909,0.016854691395196,0.0158095678292294,-0.0085482937087877
0.0200000000000102,0.019679885430686,0.0181501636485567,-0.0101850842395986
0.0300000000000011,0.0235763007235589,0.018723371455501,-0.0113599760721238
0.039999999999992,0.0282591589006805,0.0161577512188087,-0.0131718099613962
0.0500000000000113,0.0302299637320663,0.0180992542127614,-0.0150948581786544
0.0600000000000022,0.0263952674978722,0.0147862495218442,-0.0172348542599864
0.0699999999999931,0.0218955346181792,0.0166060983372889,-0.021570941187962
0.0800000000000125,0.015573251266851,0.014994196500968,-0.0229521607513451
0.0900000000000034,0.0170586896259508,0.0145281660912193,-0.0197459580844515
0.0999999999999943,0.0138243963528014,0.0127084684855998,-0.0203363138630904
0.1100000000000136,0.0123197949631722,0.0093312874512222,-0.0139505118675643
0.1200000000000045,0.0109272963219513,0.0098660681545099,-0.0121368886552835
0.1299999999999954,0.0128816833059166,0.0109879578658686,-0.0037329915388798
0.1400000000000147,0.0124920598269957,0.0083015263200291,0.001926442927443
0.1500000000000056,0.0080437680272475,0.0087400326689023,0.0067213280403169
0.1599999999999966,0.0049853617845084,0.007268212615317,0.0114856598357066
0.1699999999999875,0.0030019185834683,0.0082939877735091,0.0125268477775684
0.1800000000000068,-0.0020441457857342,0.0057703401744767,0.0153295561029731
0.1899999999999977,-0.0029877450704991,0.0034588315122184,0.0203076354436132
0.1999999999999886,-0.00308915745031,0.0061738204196476,0.0195862370053118
0.2100000000000079,-0.002262910514824,0.0018500515036232,0.0244076241713934
0.2199999999999988,-0.0016100907504888,0.0037698594741602,0.0267738367064067
0.2299999999999897,0.0010446361871692,0.0046781995720719,0.0300068377405701
0.2400000000000091,0.0061304418756193,-0.0001465183564421,0.0328567537258638
0.25,0.0041635464314323,-0.0009117849229783,0.0305342031847156
0.2599999999999909,0.0051079754848235,0.0003853835391437,0.0298459751077815
0.2700000000000102,0.0039746374611404,-0.0051968958758955,0.0256253568867128
0.2800000000000011,0.0006952882095423,-0.0033728509581463,0.025739089934251
0.289999999999992,0.0019807649511269,-0.0037020774621411,0.0237927565278393
0.3000000000000113,0.0024438205166327,-0.0016493145509072,0.0237561043286926
0.3100000000000023,-0.0021164837918604,0.0005520108249102,0.0226270622231145
0.3199999999999932,-0.00446522328057,0.0009067068603569,0.0192676207427459
0.3300000000000125,-0.006752176540081,0.0051437867428011,0.0159243948901285
0.3400000000000034,-0.0067946983375351,0.0089730809973324,0.0133014187087522
0.3499999999999943,-0.0037343973615085,0.0096692829576454,0.0120533000167906
0.3600000000000136,-0.0106386622408137,0.0104246147856443,0.0116523346534877
0.3700000000000045,-0.011846840075466,0.0145349021555599,0.0138260502873997
0.3799999999999954,-0.0128744035569011,0.0161588980446941,0.0155582667479628
0.3900000000000148,-0.0156488924235052,0.0177920498697717,0.0213577971324043
0.4000000000000057,-0.0095382707735686,0.0142856536270513,0.0230375210127862
0.4099999999999966,-0.0084714870305145,0.0153493473838579,0.0245760689172855
0.4199999999999875,-0.0065954742933456,0.0147404158667763,0.028668376810656
0.4300000000000068,-0.0006040544615013,0.0095472850634778,0.029590719795275
0.4399999999999977,0.0002449401521656,0.007255083111318,0.0326828996496562
0.4499999999999886,0.002444580960992,0.007811234020375,0.0356752184329866
0.4600000000000079,0.0018798100429005,0.004681202941038,0.0376517017633506
0.4699999999999988,0.0022630091262584,0.0033012997227559,0.0444641204183716
0.4799999999999897,0.0018057900380963,0.0022919795451399,0.0468525122678135
0.4900000000000091,-0.0034950012834987,-0.0014921827324399,0.0502269847686766
0.5,-0.0080852134053118,-0.0038812267511637,0.0484171596275551
0.5099999999999909,-0.0153915655949648,-0.009023549067683,0.0450358450632695
0.5200000000000102,-0.0183677340169273,-0.0112178301529974,0.0431692588419708
0.5300000000000011,-0.0192165366825579,-0.0197281960038387,0.0367947969450851
0.539999999999992,-0.0222646650784794,-0.026346550156907,0.0340687826317632
0.5500000000000114,-0.0195289690370802,-0.0332040377158608,0.0298942265708067
0.5600000000000023,-0.0172330751080549,-0.0402955716423109,0.0273152986414864
0.5699999999999932,-0.0112930180601309,-0.0434223988774905,0.025284987237216
0.5800000000000125,-0.0106974911391164,-0.0497415089824397,0.0245326015872424
0.5900000000000034,-0.0076129934065018,-0.0557876202608197,0.021048315901616
0.5999999999999943,-0.0026541137543692,-0.0637086162406877,0.0177209491471337
0.6100000000000136,0.0011280842187792,-0.0690964143333224,0.0124863177470277
0.6200000000000045,0.0013423624977873,-0.0774050530742597,0.0069162267867291
0.6299999999999955,-8.487518885538647e-06,-0.0822179061540414,0.0046313148032204
0.6400000000000148,0.0032396166297753,-0.088432918671369,-0.0010331238321295
0.6500000000000057,-0.0022285194231461,-0.0901886367680153,-0.0053139056346378
0.6599999999999966,-0.0051072722633863,-0.096166456656522,-0.0048005594474463
0.6699999999999875,-0.0086235838380601,-0.0955916438760812,-0.0076399593352573
0.6800000000000068,-0.0125049585771544,-0.0919324454268977,-0.0052603483224389
0.6899999999999977,-0.014914610168242,-0.0923171489704552,-0.0018158904868329
0.6999999999999886,-0.0188986979985911,-0.0851642828656528,0.0042867147147151
0.710000000000008,-0.0193171556194549,-0.0834377409701795,0.0049284564583011
0.7199999999999989,-0.0218648870170138,-0.0781991404261648,0.0036166417605422
0.7299999999999898,-0.0246951990777655,-0.0755110531862814,0.0019790484749554
0.7400000000000091,-0.0264243876946305,-0.071218748963784,0.0024999370395006
0.75,-0.0244504561624274,-0.0678992980184515,0.0001880856779203
0.7599999999999909,-0.0218539603867983,-0.068608974716511,-0.0005173730126112
0.7700000000000102,-0.0157596977110181,-0.0669905587317745,0.0044386379233171
0.7800000000000011,-0.0102586743686912,-0.0666591930433485,0.0028393396270708
0.789999999999992,-0.0087594186096236,-0.0677101217385473,0.0056995506094847
0.8000000000000114,0.0033793035098445,-0.065246979336833,0.0057654686164145
0.8100000000000023,0.0060834433589942,-0.0660551369749825,0.0057853403780509
0.8199999999999932,0.0118005557185759,-0.0701385378628568,0.0032209214885024
0.8300000000000125,0.0202759006681136,-0.0738026656138126,-0.0023426761432247
0.8400000000000034,0.0255248727708251,-0.0750670912220916,-0.0013710102270361
0.8499999999999943,0.0218647196054508,-0.0789657069700575,-0.0008583846957816
0.8600000000000136,0.0194415887502007,-0.077645463477292,-0.0003714067665232
0.8700000000000045,0.0190635304898777,-0.0791452676946557,-0.0057420320687928
0.8799999999999955,0.0122701299094464,-0.0817432134332728,-0.0077961654098029
0.8900000000000148,0.0100225595068854,-0.0831065369300184,-0.0083570886369074
0.9000000000000057,0.0078127742799118,-0.0836487452558132,-0.0065886459202693
0.9099999999999966,0.0028127705046936,-0.0889464146887274,-0.0079921407660635
0.9199999999999876,-8.672071166950456e-05,-0.0862569840298474,-0.0044840458635731
0.9300000000000068,-0.0012586263490371,-0.0858847313807818,-0.0043883879604315
0.9399999999999976,-0.0043468163067329,-0.0854812264847744,-0.0033253825091347
0.9499999999999886,-0.006885834269217,-0.0824665136967669,0.0014800088360653
0.960000000000008,-0.0141584408606659,-0.0795646659061328,0.0014174707425794
0.9699999999999988,-0.0179794350827759,-0.0784697275462921,0.003180066823315
0.9799999999999898,-0.0220770475343092,-0.0768253622998336,0.008153863049831
0.9900000000000092,-0.0284950192376422,-0.0745763883821803,0.0076647388661337
1.0,-0.0319251766869417,-0.0738509039946907,0.0128054390699842
1.009999999999991,-0.0302818073217578,-0.0705450876292919,0.0126013528744115
1.0200000000000102,-0.0302120595970714,-0.0683077910300091,0.0172940305550336
1.0300000000000011,-0.0264090772882388,-0.0645548452261461,0.0223235458185512
1.039999999999992,-0.0218191724801003,-0.0623111759624019,0.0248919278125646
1.0500000000000114,-0.0179428515259636,-0.056682277056964,0.0308862292171792
1.0600000000000025,-0.0154697903123904,-0.0510079607396389,0.0374955764897316
1.0699999999999932,-0.0138480994043483,-0.048106154818757,0.0406970335618611
1.0800000000000125,-0.0129119149559859,-0.0419641294423081,0.0412445710195115
1.0900000000000034,-0.0148908972193709,-0.0359205618812231,0.0416846459577992
1.0999999999999943,-0.0100263098279926,-0.0339695824158546,0.0425964581052818
1.1100000000000136,-0.0078657963538292,-0.032301149809569,0.0396858119434851
1.1200000000000043,-0.0065649724077415,-0.02435677385558,0.0424685729647007
1.1299999999999957,-0.0067339961932497,-0.0204451442885943,0.043377985986479
1.1400000000000148,-0.0070623225228222,-0.0170096808657231,0.043551373504859
1.1500000000000057,-0.0040917708837597,-0.0150569090253241,0.0421280237377972
1.1599999999999966,0.0026300012775628,-0.0142964936033014,0.0428379541652048
1.1699999999999875,0.0041195051077338,-0.0090402150934048,0.0424097373983483
1.1800000000000068,0.0032789254952258,-0.0088700831604651,0.0348724710108492
1.1899999999999975,0.0096345941944393,-0.0031596505366343,0.0318216644872461
1.1999999999999886,0.0107485531271018,-0.0008076256136021,0.0273915637292137
1.210000000000008,0.011764561495646,0.0062311401282078,0.0257332835795445
1.2199999999999989,0.0088904697906599,0.0104277979791671,0.02098389043863
1.2299999999999898,0.0070107115137503,0.0149164660375268,0.0152627030905799
1.240000000000009,0.0064191658365615,0.0213086382162832,0.0184066547311911
1.25,0.0037813782241286,0.022830441605059,0.0107963462852133
1.259999999999991,0.0030137096153159,0.0302534830256642,0.0076338266145947
1.2700000000000102,-0.0013530118723829,0.03438754889177,0.0021449805664276
1.2800000000000011,0.0005355177988245,0.0376980250676408,-0.00145364573688
1.289999999999992,0.0056952638450983,0.0451329962839771,-0.0035956901851296
1.3000000000000114,0.0096844717408266,0.0461529983378772,-0.0060963945059685
1.3100000000000025,0.0081254086883324,0.0497717339169121,-0.0034709342463502
1.3199999999999932,0.0100533179721706,0.0547591467592924,-0.0033280134701677
1.3300000000000125,0.0071937376521331,0.0577319786025921,0.0011156890797432
1.3400000000000034,0.0057931771009295,0.0583814896592851,0.003088481310483
1.3499999999999943,0.0049083536357144,0.059240214393706,0.0013378324032591
1.3600000000000136,0.0104852735424362,0.0574480768282678,0.0065780102022709
1.3700000000000043,0.0171773346457271,0.0538030240167843,0.0092357037407466
1.3799999999999957,0.0184308362184815,0.0483039567335347,0.0127455844183255
1.3900000000000148,0.0220582506014362,0.0438678657929711,0.0186720963700301
1.4000000000000057,0.019001935847286,0.0385444923997824,0.0194263608283857
1.4099999999999966,0.0208533035337411,0.0322661584873371,0.022467057514375
1.4199999999999875,0.0212900770140043,0.0283242229198252,0.024719476862094
1.4300000000000068,0.0188328734509907,0.0221445795855952,0.0256722594442397
1.4399999999999975,0.0168771637935179,0.0168633191419104,0.0242263611310082
1.4499999999999886,0.0180423641261985,0.0106234776241155,0.0240309587913325
1.460000000000008,0.0195174341435777,0.0072906753398946,0.021562884063197
1.4699999999999989,0.0181528790991099,0.001333941528167,0.0214188911860665
1.4799999999999898,0.0158699915860765,-0.0064231575863605,0.0204398385004601
1.490000000000009,0.0101831289575514,-0.0091683898827064,0.0216253993468118
1.5,0.0092087603986957,-0.014583739689922,0.020192707426935
1.509999999999991,0.0109835579770103,-0.0208455551654483,0.0191737496561715
1.5200000000000102,0.0082850927850229,-0.021733075552261,0.0131343768174466
1.5300000000000011,0.0115800803865856,-0.0279950933634561,0.0109564548471002
1.539999999999992,0.0110306153906823,-0.0326162287214196,0.0095327189533151
1.5500000000000114,0.0113978586414231,-0.0343440256848573,0.0087782399117108
1.5600000000000025,0.0092005028976422,-0.0380886939252013,0.0045596259116205
1.5699999999999932,0.0064396535389805,-0.0425434245661344,-0.0006303530794172
1.5800000000000125,0.007156924121363,-0.0457470976451043,-0.0078896378032002
1.5900000000000034,0.0098309855275351,-0.0489565559633154,-0.0156831583352876
1.5999999999999943,0.0076004381397629,-0.049312372033072,-0.0238961424844667
1.6100000000000136,0.0077842927012746,-0.0532818579837872,-0.02582414308839
1.6200000000000043,0.0162490117263627,-0.0499683449738846,-0.031150788133842
1.6299999999999957,0.0207662311275721,-0.0449065056813984,-0.0254722360831584
1.6400000000000148,0.0195704049706569,-0.0395198870740013,-0.019642944546697
1.6500000000000057,0.0164730687239781,-0.0340808503332521,-0.0179166513716433
1.6599999999999966,0.0152464699427523,-0.0274499843027695,-0.0150971894876503
1.6699999999999875,0.0134645375843235,-0.0245233315623099,-0.0108852268101415
1.6800000000000068,0.0143893776430374,-0.0184503851158867,-0.0053131975412211
1.6899999999999975,0.012102096706709,-0.0133541087181223,-0.0040676708572324
1.6999999999999886,0.0115117831112374,-0.0076703364207334,-0.0012332608466293
1.710000000000008,0.0086705907779839,-0.0073204986093223,0.0048917222023434
