time,Gyr_X,Gyr_Y,Gyr_Z
0.0,-0.00055,0.000174,0.002526
0.0025000000000261,-0.000747,0.000737,0.00126
0.0050000000000238,0.001831,0.00154,0.001352
0.0075000000000216,0.002333,0.001048,0.00199
0.0100000000000193,0.004282,0.000516,-6e-05
0.012500000000017,0.004511,0.001524,0.000129
0.0150000000000147,0.005458,0.002038,-0.00314
0.0175000000000125,0.000981,0.005933,0.000184
0.0200000000000102,0.001723,0.004008,-0.000478
0.0225000000000079,0.000835,0.004787,0.002813
0.0250000000000056,0.001242,0.003038,-0.000739
0.0275000000000034,0.001404,0.00455,0.000203
0.0300000000000011,0.001787,0.002534,0.004823
0.0324999999999988,0.001628,0.004027,0.00126
0.035000000000025,0.002117,0.003041,0.000273
0.0375000000000227,0.001455,0.00404,0.002315
0.0400000000000204,0.00157,0.004718,0.00186
0.0425000000000181,-0.000283,0.003249,0.001595
0.0450000000000159,0.00155,0.0022,0.005297
0.0475000000000136,-0.000252,2e-06,0.00364
0.0500000000000113,0.003958,-0.001512,-0.000131
0.052500000000009,0.002716,0.001793,0.002549
0.0550000000000068,0.002714,-0.00311,0.004255
0.0575000000000045,0.002485,-0.00046,0.00098
0.0600000000000022,0.001716,0.003053,0.000805
0.0625,0.002072,-0.002067,0.001449
0.0650000000000261,0.002357,-0.00058,0.001495
0.0675000000000238,0.003391,-0.001119,0.000372
0.0700000000000216,0.000242,-0.000921,0.001051
0.0725000000000193,0.00022,-0.002879,0.002582
0.075000000000017,0.003111,0.002439,0.0026
0.0775000000000147,0.002145,9.9e-05,0.002644
0.0800000000000125,0.000692,-0.004107,0.000241
0.0825000000000102,-0.000258,0.001899,0.001814
0.0850000000000079,0.00043,-0.000218,0.001437
0.0875000000000056,0.000755,-0.000185,0.000883
0.0900000000000034,0.001077,-0.00032,0.002701
0.0925000000000011,0.000765,-0.00073,0.002702
0.0949999999999988,0.004708,-0.001815,0.001145
0.097500000000025,0.001334,0.001482,0.003918
0.1000000000000227,0.002075,0.001856,0.002097
0.1025000000000204,0.001732,0.00314,0.001993
0.1050000000000181,-0.001581,0.00307,0.001962
0.1075000000000159,0.001528,0.00472,0.002203
0.1100000000000136,0.004122,0.001582,-0.000462
0.1125000000000113,-0.001615,0.000658,0.001258
0.1150000000000091,0.001689,0.002751,0.001634
0.1175000000000068,0.004544,0.001321,0.002811
0.1200000000000045,-0.001073,-0.000794,-0.001703
0.1225000000000022,0.002942,0.001747,0.001933
0.125,0.003191,7e-06,-0.003479
0.1275000000000261,0.002281,-0.001436,-0.003915
0.1300000000000238,-0.003067,-0.000593,-5.7e-05
0.1325000000000216,0.000431,0.000527,-0.003619
0.1350000000000193,0.002658,-0.00267,-0.000978
0.137500000000017,0.001899,-5.4e-05,-0.001763
0.1400000000000147,0.000923,-0.001499,-0.002007
0.1425000000000125,0.001726,-0.002399,-0.002693
0.1450000000000102,0.003036,-0.000465,0.000789
0.1475000000000079,0.000938,-0.001875,-0.003049
0.1500000000000056,0.000782,-0.001244,-0.000939
0.1525000000000034,-0.000764,-0.001514,-0.001055
0.1550000000000011,0.001284,0.000951,0.001546
0.1574999999999988,0.000394,-0.004846,0.00251
0.160000000000025,0.000853,-0.000833,0.003443
0.1625000000000227,0.001846,2e-05,0.002054
0.1650000000000204,0.004027,0.001924,0.001314
0.1675000000000182,-0.002928,0.00572,0.001656
0.1700000000000159,0.00181,0.004799,0.001115
0.1725000000000136,0.001643,-0.001776,0.001482
0.1750000000000113,-0.001134,0.000439,0.004169
0.1775000000000091,0.002908,0.002549,0.00285
0.1800000000000068,0.00361,-0.002034,0.002375
0.1825000000000045,-0.000493,0.002677,0.001319
0.1850000000000022,-0.000159,0.002826,0.001053
0.1875,-4.8e-05,0.004791,7.8e-05
0.1900000000000261,0.001831,0.001899,-0.00094
0.1925000000000238,0.00011,0.000969,-0.000599
0.1950000000000216,0.00459,0.000931,0.000928
0.1975000000000193,0.000248,0.001586,-0.001223
0.200000000000017,0.003163,0.000609,0.003026
0.2025000000000147,0.004648,0.001182,-0.001132
0.2050000000000125,0.001591,0.002708,0.001005
0.2075000000000102,0.004487,-0.002074,0.003045
0.2100000000000079,0.003359,0.000795,0.000965
0.2125000000000056,-0.000593,-0.003046,0.004505
0.2150000000000034,-0.000305,-0.000183,0.002735
0.2175000000000011,0.002823,-0.000204,0.000414
0.2199999999999988,0.002996,-0.000654,0.002877
0.222500000000025,0.000551,-0.00193,0.002063
0.2250000000000227,0.002066,0.002456,0.001793
0.2275000000000204,0.002805,0.002893,0.001512
0.2300000000000182,0.00321,0.003444,-0.001605
0.2325000000000159,0.002112,0.002328,0.00151
0.2350000000000136,0.003972,0.000677,-0.001481
0.2375000000000113,0.003324,0.001395,0.000412
0.2400000000000091,0.001029,0.004417,0.001589
0.2425000000000068,-0.000794,0.004197,0.001395
0.2450000000000045,0.001124,0.001609,-0.000499
0.2475000000000022,0.002878,0.000172,0.002899
0.25,0.000643,0.002895,0.002576
0.2525000000000261,0.001315,0.000558,0.000461
0.2550000000000239,-0.000618,0.003897,0.004295
0.2575000000000216,0.001604,0.001696,0.001372
0.2600000000000193,0.005823,0.002312,0.005599
0.262500000000017,0.003774,-0.000159,0.006004
0.2650000000000148,0.00682,0.005039,0.006015
0.2675000000000125,0.004482,0.003711,0.00504
0.2700000000000102,0.004429,0.006262,0.003786
0.2725000000000079,0.004857,-0.00135,0.009184
0.2750000000000057,0.002334,0.004866,0.006985
0.2775000000000034,0.003838,0.00427,0.004717
0.2800000000000011,0.001202,0.006995,0.005586
0.2824999999999988,0.002847,0.005587,0.003669
0.285000000000025,0.00532,0.004245,0.00397
0.2875000000000227,0.001056,0.009825,0.000811
0.2900000000000204,-0.001599,0.004993,0.001436
0.2925000000000182,0.002866,0.002865,0.000209
0.2950000000000159,-0.000837,0.000206,-0.000916
0.2975000000000136,-0.00069,0.001109,-0.000899
0.3000000000000113,-0.001977,-0.002688,-0.003418
0.3025000000000091,0.000232,-0.002179,-0.005318
0.3050000000000068,0.004133,-0.002946,-0.003786
0.3075000000000045,0.001823,-0.003974,-0.003135
0.3100000000000023,0.002494,-0.006072,0.002881
0.3125,0.004505,-0.003727,0.009253
0.3150000000000261,0.010639,-0.005853,0.012798
0.3175000000000239,0.009074,-0.006169,0.018171
0.3200000000000216,0.009369,-0.004466,0.019533
0.3225000000000193,0.01412,-0.003681,0.024975
0.325000000000017,0.011908,-0.001813,0.030006
0.3275000000000148,0.017244,0.000479,0.031612
0.3300000000000125,0.016702,0.00237,0.0309
0.3325000000000102,0.015409,0.003956,0.035403
0.3350000000000079,0.021376,0.007697,0.035027
0.3375000000000057,0.020813,0.009339,0.038008
0.3400000000000034,0.017949,0.012071,0.039931
0.3425000000000011,0.022475,0.013704,0.039672
0.3449999999999988,0.021606,0.015309,0.037964
0.347500000000025,0.020338,0.020456,0.040484
0.3500000000000227,0.021667,0.020682,0.041395
0.3525000000000204,0.018085,0.027423,0.042393
0.3550000000000182,0.016242,0.028656,0.041314
0.3575000000000159,0.020406,0.031898,0.039888
0.3600000000000136,0.017146,0.0292,0.039149
0.3625000000000113,0.01423,0.034157,0.035935
0.3650000000000091,0.014096,0.032277,0.033387
0.3675000000000068,0.014097,0.035805,0.031769
0.3700000000000045,0.010864,0.034649,0.03246
0.3725000000000023,0.008909,0.030891,0.027568
0.375,0.004502,0.030852,0.024419
0.3775000000000261,0.005294,0.02716,0.021968
0.3800000000000239,0.001618,0.02309,0.022984
0.3825000000000216,0.001397,0.017519,0.020242
0.3850000000000193,-0.002398,0.011306,0.020029
0.387500000000017,-0.003642,0.009625,0.016614
0.3900000000000148,-0.003268,0.001999,0.012652
0.3925000000000125,-0.005217,-0.00634,0.008314
0.3950000000000102,-0.001712,-0.008541,0.005683
0.3975000000000079,-0.001466,-0.016299,0.00109
0.4000000000000057,-0.0012,-0.02407,0.000728
0.4025000000000034,-0.000538,-0.025439,0.001756
0.4050000000000011,-0.002483,-0.033604,-0.003281
0.4074999999999988,-0.002179,-0.030719,-0.005732
0.410000000000025,-0.003412,-0.036289,-0.005715
0.4125000000000227,-0.003064,-0.041883,-0.007032
0.4150000000000204,-0.003383,-0.043589,-0.007962
0.4175000000000182,-0.006238,-0.043735,-0.010511
0.4200000000000159,-0.007232,-0.046633,-0.00769
0.4225000000000136,-0.008133,-0.041467,-0.00864
0.4250000000000113,-0.005771,-0.047277,-0.003724
0.4275000000000091,-0.004415,-0.041993,-0.006206
0.4300000000000068,-0.006416,-0.042444,-0.003229
0.4325000000000045,-0.003384,-0.039124,-0.004032
0.4350000000000023,-0.002365,-0.036021,-0.004309
0.4375,-0.001357,-0.034833,-0.001809
0.4400000000000261,0.002847,-0.035198,0.00039
0.4425000000000239,0.000871,-0.033024,0.001458
0.4450000000000216,0.001519,-0.031856,0.004976
0.4475000000000193,0.00167,-0.026433,0.008934
0.450000000000017,0.005435,-0.021397,0.009695
0.4525000000000148,0.003921,-0.019473,0.00891
0.4550000000000125,0.007843,-0.014797,0.014891
0.4575000000000102,0.009494,-0.01118,0.01801
0.4600000000000079,0.012732,-0.008301,0.017553
0.4625000000000057,0.007302,-0.004701,0.017937
0.4650000000000034,0.0089,-0.001766,0.020457
0.4675000000000011,0.008375,0.004744,0.023005
0.4699999999999988,0.008623,0.006158,0.022724
0.472500000000025,0.007223,0.012609,0.02375
0.4750000000000227,0.007292,0.016684,0.020801
0.4775000000000204,0.005981,0.020433,0.023106
0.4800000000000182,0.004943,0.021813,0.024969
0.4825000000000159,0.006979,0.022993,0.025826
0.4850000000000136,0.008912,0.027149,0.025734
0.4875000000000113,0.011229,0.028107,0.025291
0.4900000000000091,0.009101,0.032077,0.025963
0.4925000000000068,0.011962,0.026489,0.026109
0.4950000000000045,0.008404,0.032159,0.029222
0.4975000000000023,0.011567,0.031628,0.030106
0.5,0.01582,0.031824,0.029802
0.5025000000000261,0.012193,0.030675,0.028946
0.5050000000000239,0.013661,0.028875,0.034874
0.5075000000000216,0.015012,0.026784,0.033376
0.5100000000000193,0.013904,0.029873,0.03506
0.512500000000017,0.01233,0.024766,0.036439
0.5150000000000148,0.013616,0.021403,0.038259
0.5175000000000125,0.011992,0.022846,0.036711
0.5200000000000102,0.014078,0.021832,0.036982
0.522500000000008,0.013276,0.019147,0.038109
0.5250000000000057,0.009342,0.019454,0.037678
0.5275000000000034,0.006724,0.016087,0.038981
0.5300000000000011,0.007726,0.019241,0.038763
0.5324999999999989,0.007907,0.015552,0.039292
0.535000000000025,0.005954,0.013397,0.037549
0.5375000000000227,0.005827,0.009779,0.03762
0.5400000000000205,0.006328,0.011305,0.038729
0.5425000000000182,0.005337,0.011527,0.033545
0.5450000000000159,0.004708,0.013287,0.033721
0.5475000000000136,0.004018,0.009321,0.033737
0.5500000000000114,0.002228,0.010743,0.032025
0.5525000000000091,0.003635,0.010363,0.029445
0.5550000000000068,0.003941,0.010932,0.028154
0.5575000000000045,0.003327,0.012196,0.02505
0.5600000000000023,-0.001365,0.010713,0.026932
0.5625,0.003094,0.006897,0.025601
0.5650000000000261,0.00285,0.008637,0.016642
0.5675000000000239,0.003437,0.007606,0.021169
0.5700000000000216,0.005662,0.006876,0.020128
0.5725000000000193,0.003498,0.01005,0.019128
0.575000000000017,0.004464,0.008636,0.017283
0.5775000000000148,0.002115,0.006167,0.017814
0.5800000000000125,0.003638,0.007855,0.014373
0.5825000000000102,0.004724,0.005265,0.013951
0.585000000000008,0.004945,0.009377,0.013646
0.5875000000000057,0.004115,0.005569,0.013999
0.5900000000000034,0.005328,0.00406,0.016805
0.5925000000000011,0.006882,0.007258,0.014428
0.5949999999999989,0.003443,0.00496,0.013412
0.597500000000025,0.004422,0.007283,0.01438
0.6000000000000227,0.004146,0.005371,0.012874
0.6025000000000205,0.0041,0.007159,0.014385
0.6050000000000182,0.004508,0.003282,0.013878
0.6075000000000159,0.003663,0.003123,0.013211
0.6100000000000136,0.004015,0.008328,0.016876
0.6125000000000114,0.002826,0.005663,0.016596
0.6150000000000091,0.000922,0.010603,0.019205
0.6175000000000068,0.004219,0.005894,0.021131
0.6200000000000045,0.00047,0.007284,0.022178
0.6225000000000023,0.003196,0.008801,0.023315
0.625,1.1e-05,0.013102,0.023449
0.6275000000000261,0.00272,0.011391,0.024968
0.6300000000000239,0.005314,0.010621,0.026672
0.6325000000000216,0.003005,0.012546,0.031405
0.6350000000000193,0.00032,0.01257,0.031684
0.637500000000017,0.001653,0.015657,0.035123
0.6400000000000148,0.002956,0.017386,0.038765
0.6425000000000125,0.002586,0.015042,0.040416
0.6450000000000102,0.001105,0.016833,0.046527
0.647500000000008,0.002525,0.02038,0.048385
0.6500000000000057,0.003401,0.018867,0.054803
0.6525000000000034,0.003193,0.024164,0.058179
0.6550000000000011,0.00503,0.022335,0.058395
0.6574999999999989,0.003944,0.021533,0.061709
0.660000000000025,0.002398,0.026611,0.062197
0.6625000000000227,0.002068,0.0299,0.071252
0.6650000000000205,0.003684,0.031907,0.074505
0.6675000000000182,0.004194,0.036556,0.079796
0.6700000000000159,0.002486,0.036234,0.079728
0.6725000000000136,0.003541,0.039838,0.085122
0.6750000000000114,0.000138,0.039599,0.090974
0.6775000000000091,0.000403,0.040004,0.092072
0.6800000000000068,0.003561,0.043405,0.095711
0.6825000000000045,0.001498,0.045998,0.103886
0.6850000000000023,0.005393,0.048285,0.101522
0.6875,0.004668,0.049027,0.106876
0.6900000000000261,0.002172,0.046379,0.110202
0.6925000000000239,0.003346,0.053469,0.114513
0.6950000000000216,0.002056,0.05654,0.115425
0.6975000000000193,0.004203,0.057564,0.122049
0.700000000000017,0.00459,0.05764,0.119694
0.7025000000000148,0.00459,0.06137,0.123449
0.7050000000000125,0.003111,0.066137,0.130705
0.7075000000000102,0.005881,0.066245,0.132721
0.710000000000008,0.005928,0.066922,0.134856
0.7125000000000057,0.005262,0.071675,0.139982
0.7150000000000034,0.009256,0.073835,0.137808
0.7175000000000011,0.007651,0.077119,0.14377
0.7199999999999989,0.005477,0.079472,0.144089
0.722500000000025,0.009752,0.082865,0.147796
0.7250000000000227,0.00864,0.084632,0.154444
0.7275000000000205,0.009436,0.088956,0.156725
0.7300000000000182,0.008339,0.087338,0.159613
0.7325000000000159,0.010779,0.091011,0.160726
0.7350000000000136,0.00985,0.092534,0.167511
0.7375000000000114,0.013443,0.095201,0.171045
0.7400000000000091,0.013516,0.096671,0.174353
0.7425000000000068,0.015081,0.09749,0.178497
0.7450000000000045,0.016461,0.102144,0.175985
0.7475000000000023,0.019395,0.104073,0.179674
0.75,0.022798,0.101205,0.183456
0.7525000000000261,0.024804,0.099926,0.18628
0.7550000000000239,0.023564,0.106149,0.189563
0.7575000000000216,0.029077,0.106861,0.192086
0.7600000000000193,0.030432,0.103483,0.194532
0.762500000000017,0.033749,0.106347,0.199977
0.7650000000000148,0.035337,0.107256,0.19769
0.7675000000000125,0.037698,0.109818,0.20185
0.7700000000000102,0.038662,0.105809,0.206234
0.772500000000008,0.043579,0.108688,0.2081
0.7750000000000057,0.044715,0.108334,0.208589
0.7775000000000034,0.04844,0.104172,0.209714
0.7800000000000011,0.051867,0.111357,0.211207
0.7824999999999989,0.049909,0.110134,0.215893
0.785000000000025,0.05265,0.108311,0.2162
0.7875000000000227,0.055943,0.112281,0.220553
0.7900000000000205,0.056677,0.11152,0.221456
0.7925000000000182,0.055399,0.111363,0.223946
0.7950000000000159,0.057923,0.11385,0.22222
0.7975000000000136,0.065015,0.116137,0.225539
0.8000000000000114,0.057133,0.118417,0.226904
0.8025000000000091,0.058404,0.115041,0.227252
0.8050000000000068,0.059814,0.119539,0.226254
0.8075000000000045,0.061632,0.117552,0.2303
0.8100000000000023,0.057343,0.116789,0.230449
0.8125,0.058811,0.118329,0.231812
0.8150000000000261,0.06315,0.116583,0.233506
0.8175000000000239,0.060388,0.121487,0.234539
0.8200000000000216,0.059418,0.122856,0.23445
0.8225000000000193,0.058664,0.124834,0.231677
0.825000000000017,0.058181,0.120046,0.233241
0.8275000000000148,0.05858,0.120143,0.233062
0.8300000000000125,0.057653,0.121074,0.236886
0.8325000000000102,0.058828,0.121482,0.235166
0.835000000000008,0.058136,0.119417,0.236409
0.8375000000000057,0.056896,0.121176,0.23405
0.8400000000000034,0.057391,0.120579,0.234335
0.8425000000000011,0.055762,0.12021,0.236549
0.8449999999999989,0.053779,0.12176,0.235225
0.847500000000025,0.056302,0.11824,0.232882
0.8500000000000227,0.053831,0.119116,0.232878
0.8525000000000205,0.052521,0.116543,0.230201
0.8550000000000182,0.049441,0.115862,0.234795
0.8575000000000159,0.051837,0.118031,0.229625
0.8600000000000136,0.055286,0.117797,0.230177
0.8625000000000114,0.052961,0.112467,0.231353
0.8650000000000091,0.051341,0.11253,0.228857
0.8675000000000068,0.048818,0.113792,0.22705
0.8700000000000045,0.04802,0.113275,0.227708
0.8725000000000023,0.050081,0.111233,0.225652
0.875,0.046404,0.114775,0.227278
0.8775000000000261,0.046922,0.110114,0.22751
0.8800000000000239,0.045527,0.109411,0.226424
0.8825000000000216,0.048345,0.107517,0.228784
0.8850000000000193,0.045923,0.109225,0.227869
0.887500000000017,0.044229,0.107937,0.227804
0.8900000000000148,0.047087,0.101403,0.226075
0.8925000000000125,0.043427,0.10866,0.224438
0.8950000000000102,0.041819,0.102111,0.226606
0.897500000000008,0.042026,0.106577,0.229465
0.9000000000000057,0.041149,0.10355,0.227401
0.9025000000000034,0.037543,0.102954,0.228073
0.9050000000000012,0.043442,0.102689,0.228778
0.9074999999999988,0.034336,0.101713,0.229583
0.910000000000025,0.031022,0.101598,0.230267
0.9125000000000228,0.033583,0.10313,0.231544
0.9150000000000204,0.031357,0.106927,0.234515
0.9175000000000182,0.030475,0.104197,0.235476
0.920000000000016,0.027504,0.106924,0.240148
0.9225000000000136,0.025211,0.10669,0.239744
0.9250000000000114,0.025871,0.103814,0.237366
0.9275000000000092,0.023427,0.110995,0.241291
0.9300000000000068,0.019281,0.110487,0.242683
0.9325000000000044,0.018293,0.112609,0.244399
0.9350000000000024,0.019083,0.109782,0.243332
0.9375,0.013006,0.114173,0.246761
0.940000000000026,0.009269,0.114002,0.246795
0.942500000000024,0.010137,0.121658,0.247011
0.9450000000000216,0.002629,0.119365,0.248417
0.9475000000000192,0.002231,0.121302,0.251976
0.950000000000017,0.001147,0.121322,0.253057
0.9525000000000148,-0.003059,0.122202,0.255179
0.9550000000000124,-0.006519,0.124086,0.257174
0.9575000000000102,-0.004871,0.126962,0.259528
0.960000000000008,-0.011127,0.124466,0.258266
0.9625000000000056,-0.010483,0.126208,0.262221
0.9650000000000034,-0.014386,0.12924,0.266371
0.9675000000000012,-0.014271,0.130906,0.270907
0.9699999999999988,-0.016218,0.129888,0.269967
0.972500000000025,-0.016044,0.134458,0.277928
0.9750000000000228,-0.018214,0.134056,0.277095
0.9775000000000204,-0.02114,0.138443,0.280888
0.9800000000000182,-0.021985,0.141688,0.285625
0.982500000000016,-0.023618,0.138918,0.287571
0.9850000000000136,-0.020345,0.144459,0.290961
0.9875000000000114,-0.019979,0.145303,0.294996
0.9900000000000092,-0.017244,0.146703,0.30215
0.9925000000000068,-0.020638,0.149374,0.304866
0.9950000000000044,-0.020918,0.151821,0.309182
0.9975000000000024,-0.016692,0.156345,0.313298
1.0,-0.023702,0.160719,0.316163
1.002500000000026,-0.021555,0.159652,0.321216
1.005000000000024,-0.021514,0.162008,0.324761
1.0075000000000216,-0.019333,0.168864,0.326704
1.010000000000019,-0.020638,0.163367,0.326706
1.012500000000017,-0.016201,0.172066,0.335621
1.0150000000000148,-0.016256,0.174137,0.336876
1.0175000000000125,-0.015742,0.174219,0.342578
1.0200000000000102,-0.012942,0.180083,0.34725
1.022500000000008,-0.008795,0.18133,0.3502
1.0250000000000057,-0.00782,0.183325,0.358719
1.0275000000000034,-0.004654,0.185294,0.3608
1.0300000000000011,0.001504,0.188518,0.363985
1.0324999999999989,0.005294,0.191063,0.37063
1.035000000000025,0.004312,0.193828,0.375941
1.0375000000000227,0.008585,0.192743,0.377623
1.0400000000000205,0.01084,0.196426,0.384947
1.0425000000000182,0.012035,0.201014,0.392336
1.045000000000016,0.015842,0.203498,0.392855
1.0475000000000136,0.019687,0.209353,0.401331
1.0500000000000114,0.023492,0.209158,0.405493
1.052500000000009,0.027452,0.209982,0.41424
1.0550000000000068,0.028152,0.2127,0.41664
1.0575000000000043,0.033408,0.214706,0.424115
1.0600000000000025,0.038558,0.218617,0.431746
1.0625,0.036413,0.223682,0.434359
1.065000000000026,0.037142,0.227373,0.441378
1.067500000000024,0.041772,0.231087,0.445106
1.0700000000000216,0.043344,0.231548,0.453808
1.072500000000019,0.047839,0.235068,0.46105
1.075000000000017,0.044937,0.238072,0.463646
1.0775000000000148,0.048865,0.24093,0.468066
1.0800000000000125,0.040103,0.245278,0.47464
1.0825000000000102,0.042319,0.245,0.481635
1.085000000000008,0.043751,0.249141,0.486084
1.0875000000000057,0.043602,0.25158,0.490784
1.0900000000000034,0.046723,0.255699,0.498902
1.0925000000000011,0.042974,0.256065,0.504243
1.0949999999999989,0.044111,0.258612,0.508579
1.097500000000025,0.043457,0.262366,0.516299
1.1000000000000227,0.042809,0.266504,0.523349
1.1025000000000205,0.043074,0.265364,0.528859
1.1050000000000182,0.03916,0.269256,0.532652
1.107500000000016,0.040457,0.274599,0.541831
1.1100000000000136,0.036254,0.27652,0.549921
1.1125000000000114,0.034068,0.2818,0.554653
1.115000000000009,0.034114,0.28204,0.555896
1.1175000000000068,0.030699,0.28399,0.564165
1.1200000000000043,0.032607,0.286854,0.573387
1.1225000000000025,0.029583,0.291646,0.577565
1.125,0.026868,0.294501,0.582033
1.127500000000026,0.028487,0.298036,0.586408
1.130000000000024,0.026184,0.29806,0.591496
1.1325000000000216,0.026808,0.302409,0.597283
1.135000000000019,0.024839,0.304849,0.603304
1.137500000000017,0.025933,0.305236,0.604826
1.1400000000000148,0.027073,0.307529,0.608712
1.1425000000000125,0.024527,0.315464,0.614757
1.1450000000000102,0.026444,0.317093,0.617861
1.147500000000008,0.021153,0.320899,0.622147
1.1500000000000057,0.025328,0.324849,0.624286
1.1525000000000034,0.025599,0.324219,0.62796
1.1550000000000011,0.025374,0.328394,0.62666
1.1574999999999989,0.026523,0.331136,0.63081
1.160000000000025,0.026529,0.337162,0.631862
1.1625000000000227,0.025269,0.33761,0.632873
1.1650000000000205,0.027337,0.340923,0.634844
1.1675000000000182,0.0281,0.343636,0.63395
1.170000000000016,0.022019,0.344712,0.636336
1.1725000000000136,0.024918,0.345818,0.634457
1.1750000000000114,0.025075,0.350102,0.635146
1.177500000000009,0.025875,0.35184,0.639837
1.1800000000000068,0.021545,0.354869,0.638136
1.1825000000000043,0.02206,0.358578,0.638927
1.1850000000000025,0.022308,0.35818,0.639615
1.1875,0.023916,0.358176,0.637334
1.190000000000026,0.023001,0.362558,0.637575
1.192500000000024,0.019283,0.363856,0.639426
1.1950000000000216,0.020076,0.363141,0.637346
1.197500000000019,0.022069,0.368335,0.637575
1.200000000000017,0.021122,0.363266,0.635352
1.2025000000000148,0.017305,0.36517,0.634528
1.2050000000000125,0.017414,0.370169,0.635211
1.2075000000000102,0.014762,0.369812,0.632726
1.210000000000008,0.015832,0.368335,0.632636
1.2125000000000057,0.017219,0.37268,0.630952
1.2150000000000034,0.016543,0.371336,0.630344
1.2175000000000011,0.011859,0.372601,0.623641
1.2199999999999989,0.012406,0.371886,0.624431
1.222500000000025,0.012968,0.373567,0.622348
1.2250000000000227,0.013813,0.37281,0.618547
1.2275000000000205,0.012972,0.370999,0.611015
1.2300000000000182,0.012013,0.370904,0.610001
1.232500000000016,0.013623,0.367326,0.605162
1.2350000000000136,0.016909,0.36725,0.602412
1.2375000000000114,0.016213,0.366565,0.599601
1.240000000000009,0.013917,0.365149,0.59429
1.2425000000000068,0.011823,0.36105,0.588033
1.2450000000000043,0.012578,0.355393,0.589295
1.2475000000000025,0.013433,0.3594,0.584184
1.25,0.012095,0.353266,0.58055
1.252500000000026,0.015042,0.34621,0.575254
1.255000000000024,0.011694,0.347176,0.56852
1.2575000000000216,0.013635,0.340084,0.567272
1.260000000000019,0.014525,0.333465,0.561748
1.262500000000017,0.013845,0.333526,0.559052
1.2650000000000148,0.015179,0.327722,0.55439
1.2675000000000125,0.01285,0.323456,0.546276
1.2700000000000102,0.01552,0.317185,0.544248
1.272500000000008,0.016015,0.321961,0.54021
1.2750000000000057,0.015745,0.313627,0.535459
1.2775000000000034,0.01438,0.310385,0.527941
1.2800000000000011,0.017052,0.303236,0.522151
1.2824999999999989,0.015093,0.29652,0.515882
1.285000000000025,0.013865,0.294801,0.510144
1.2875000000000227,0.01492,0.290156,0.505502
1.2900000000000205,0.013079,0.285212,0.500628
1.2925000000000182,0.016037,0.276994,0.49042
1.295000000000016,0.013822,0.276316,0.483357
1.2975000000000136,0.010469,0.274255,0.476714
1.3000000000000114,0.012603,0.272604,0.470489
1.302500000000009,0.012281,0.266536,0.460117
1.3050000000000068,0.011694,0.261036,0.454041
1.3075000000000043,0.01146,0.25816,0.450096
1.3100000000000025,0.011059,0.25316,0.43859
1.3125,0.008751,0.247095,0.430874
1.315000000000026,0.008164,0.243377,0.425429
1.317500000000024,0.008579,0.239549,0.414608
1.3200000000000216,0.007807,0.2347,0.408415
1.322500000000019,0.008456,0.228425,0.399029
1.325000000000017,0.009073,0.224813,0.387866
1.3275000000000148,0.006077,0.22114,0.383415
1.3300000000000125,0.008132,0.215564,0.373378
1.3325000000000102,0.006347,0.2109,0.366914
1.335000000000008,0.005927,0.208636,0.365453
1.3375000000000057,0.007714,0.200448,0.3557
1.3400000000000034,0.004595,0.196295,0.348588
1.3425000000000011,0.005301,0.192209,0.340763
1.3449999999999989,0.002203,0.187468,0.337345
1.347500000000025,0.002923,0.181945,0.327789
1.3500000000000227,0.000118,0.176661,0.322538
1.3525000000000205,0.004021,0.174298,0.313411
1.3550000000000182,0.002811,0.167323,0.308063
1.357500000000016,0.003413,0.162802,0.301308
1.3600000000000136,0.003176,0.159194,0.293814
1.3625000000000114,0.001883,0.153583,0.285887
1.365000000000009,0.000804,0.149899,0.282658
1.3675000000000068,0.001929,0.146807,0.276255
1.3700000000000043,0.004167,0.139237,0.267304
1.3725000000000025,0.006773,0.135063,0.26195
1.375,0.004559,0.131493,0.258512
1.377500000000026,0.004076,0.126635,0.255544
1.380000000000024,0.00296,0.122469,0.248625
1.3825000000000216,0.002278,0.120378,0.243964
1.385000000000019,0.003076,0.118084,0.23719
1.387500000000017,0.003802,0.113394,0.235913
1.3900000000000148,0.000865,0.107764,0.230242
1.3925000000000125,-0.0021,0.102531,0.228269
1.3950000000000102,-0.001781,0.102719,0.224128
1.397500000000008,-0.008145,0.101563,0.219267
1.4000000000000057,-0.006022,0.096346,0.21834
1.4025000000000034,-0.007837,0.092258,0.213046
1.4050000000000011,-0.007725,0.091446,0.210799
1.4074999999999989,-0.00934,0.08687,0.206541
1.410000000000025,-0.013006,0.081474,0.201865
1.4125000000000227,-0.014953,0.083759,0.201493
1.4150000000000205,-0.018245,0.080917,0.199319
1.4175000000000182,-0.017861,0.076618,0.196216
1.420000000000016,-0.023624,0.078208,0.193607
1.4225000000000136,-0.027768,0.07411,0.191952
1.4250000000000114,-0.023535,0.074386,0.19202
1.427500000000009,-0.026697,0.070264,0.189599
1.4300000000000068,-0.030063,0.070582,0.190603
1.4325000000000043,-0.034122,0.070719,0.188034
1.4350000000000025,-0.030012,0.06754,0.183596
1.4375,-0.029609,0.067679,0.185113
1.440000000000026,-0.027847,0.06999,0.182756
1.442500000000024,-0.029191,0.070531,0.185361
1.4450000000000216,-0.033556,0.069711,0.181369
1.447500000000019,-0.029595,0.06818,0.182674
1.450000000000017,-0.029051,0.066254,0.184081
1.4525000000000148,-0.028877,0.068382,0.185465
1.4550000000000125,-0.02749,0.067169,0.18129
1.4575000000000102,-0.028045,0.072303,0.183187
1.460000000000008,-0.026512,0.073118,0.183318
1.4625000000000057,-0.02943,0.072206,0.183744
1.4650000000000034,-0.027932,0.074481,0.185502
1.4675000000000011,-0.031094,0.073583,0.185814
1.4699999999999989,-0.028719,0.073517,0.185619
1.472500000000025,-0.028442,0.078178,0.186808
1.4750000000000227,-0.029537,0.078144,0.191205
1.4775000000000205,-0.028902,0.08041,0.195432
1.4800000000000182,-0.030592,0.080311,0.193457
1.482500000000016,-0.03394,0.082243,0.193682
1.4850000000000136,-0.033304,0.08707,0.198861
1.4875000000000114,-0.031136,0.088983,0.203373
1.490000000000009,-0.029019,0.091926,0.204527
1.4925000000000068,-0.028375,0.092421,0.205366
1.4950000000000043,-0.029872,0.09537,0.206286
1.4975000000000025,-0.032072,0.098961,0.209454
1.5,-0.034049,0.103701,0.213686
1.502500000000026,-0.025974,0.10883,0.213812
1.505000000000024,-0.024061,0.11046,0.214998
1.5075000000000216,-0.022359,0.114328,0.219592
1.510000000000019,-0.024401,0.119368,0.223037
1.512500000000017,-0.019728,0.12532,0.22136
1.5150000000000148,-0.016718,0.132356,0.223254
1.5175000000000125,-0.017433,0.137302,0.221763
1.5200000000000102,-0.01132,0.142861,0.225089
1.522500000000008,-0.009392,0.148556,0.226214
1.5250000000000057,-0.008298,0.151596,0.231042
1.5275000000000034,-0.005405,0.158001,0.229711
1.5300000000000011,-0.002757,0.163718,0.22823
1.5324999999999989,0.003175,0.167582,0.23087
1.535000000000025,0.009272,0.176606,0.23156
1.5375000000000227,0.01395,0.181048,0.234764
1.5400000000000205,0.016723,0.188503,0.23861
1.5425000000000182,0.019751,0.193305,0.238129
1.545000000000016,0.026397,0.19793,0.238926
1.5475000000000136,0.029831,0.208051,0.239023
1.5500000000000114,0.035762,0.209554,0.242921
1.552500000000009,0.043409,0.213433,0.247923
1.5550000000000068,0.046671,0.220483,0.246304
1.5575000000000043,0.053827,0.226622,0.253024
1.5600000000000025,0.062066,0.229567,0.251006
1.5625,0.063398,0.235149,0.256941
1.565000000000026,0.069418,0.240248,0.260327
1.567500000000024,0.070808,0.242194,0.267593
1.5700000000000216,0.075198,0.24514,0.267876
1.572500000000019,0.078797,0.251415,0.277842
1.575000000000017,0.081203,0.251932,0.28059
1.5775000000000148,0.086076,0.254572,0.286155
1.5800000000000125,0.091793,0.258682,0.290757
1.5825000000000102,0.090558,0.263257,0.293645
1.585000000000008,0.094483,0.263446,0.302889
1.5875000000000057,0.095382,0.266906,0.30596
1.5900000000000034,0.094783,0.268752,0.310063
1.5925000000000011,0.099064,0.266983,0.315034
1.5949999999999989,0.101999,0.271218,0.324553
1.597500000000025,0.10458,0.274938,0.323739
1.6000000000000227,0.107376,0.276584,0.333106
1.6025000000000205,0.110904,0.277215,0.341468
1.6050000000000182,0.11564,0.275763,0.343321
1.607500000000016,0.115178,0.278512,0.351269
1.6100000000000136,0.117628,0.281874,0.354893
1.6125000000000114,0.124287,0.278146,0.360615
1.615000000000009,0.12679,0.280183,0.370022
1.6175000000000068,0.128635,0.281095,0.373048
1.6200000000000043,0.130198,0.283564,0.377966
1.6225000000000025,0.132789,0.281768,0.384099
1.625,0.135785,0.285048,0.391094
1.627500000000026,0.135208,0.284887,0.397975
1.630000000000024,0.13544,0.288025,0.39909
1.6325000000000216,0.135393,0.284304,0.406612
1.635000000000019,0.134444,0.283892,0.414247
1.637500000000017,0.135645,0.287556,0.4203
1.6400000000000148,0.128967,0.285592,0.425581
1.6425000000000125,0.127446,0.285038,0.429588
1.6450000000000102,0.125133,0.287022,0.434174
1.647500000000008,0.124338,0.284747,0.438922
1.6500000000000057,0.120667,0.286435,0.446566
1.6525000000000034,0.118516,0.288204,0.448375
1.6550000000000011,0.117034,0.290062,0.455631
1.6574999999999989,0.115321,0.285647,0.459044
1.660000000000025,0.117939,0.288893,0.463229
1.6625000000000227,0.117298,0.288185,0.46676
1.6650000000000205,0.120359,0.291141,0.473597
1.6675000000000182,0.121719,0.286926,0.478623
1.670000000000016,0.121079,0.290936,0.478538
1.6725000000000136,0.127449,0.293817,0.487214
1.6750000000000114,0.134499,0.290378,0.492901
1.677500000000009,0.135399,0.294923,0.492104
1.6800000000000068,0.139307,0.297692,0.499637
1.6825000000000043,0.145455,0.29463,0.502961
1.6850000000000025,0.147367,0.298113,0.511123
1.6875,0.148364,0.299721,0.507892
1.690000000000026,0.147914,0.30423,0.514654
1.692500000000024,0.15578,0.307053,0.516781
1.6950000000000216,0.154796,0.312416,0.52034
1.697500000000019,0.157756,0.313612,0.522832
1.700000000000017,0.155715,0.3165,0.526879
1.7025000000000148,0.157572,0.322203,0.530353
1.7050000000000125,0.160842,0.326022,0.534693
1.7075000000000102,0.159756,0.332204,0.537684
1.710000000000008,0.159384,0.333761,0.538818
1.7125000000000057,0.160039,0.335049,0.543492
1.7150000000000034,0.155958,0.341363,0.541944
1.7175000000000011,0.154545,0.340419,0.54858
1.7199999999999989,0.154763,0.34576,0.552573
1.722500000000025,0.153796,0.349724,0.553704
1.7250000000000227,0.1548,0.35296,0.552354
1.7275000000000205,0.150604,0.355569,0.553555
1.7300000000000182,0.150403,0.355455,0.55607
1.732500000000016,0.149458,0.35693,0.559896
1.7350000000000136,0.14706,0.356298,0.560349
1.7375000000000114,0.146849,0.359807,0.565017
1.740000000000009,0.145377,0.35659,0.563759
1.7425000000000068,0.148336,0.355896,0.557425
1.7450000000000043,0.147562,0.356253,0.561173
1.7475000000000025,0.147929,0.358412,0.562211
1.75,0.14453,0.35627,0.564867
1.752500000000026,0.148261,0.355359,0.561882
1.755000000000024,0.143785,0.352012,0.562317
1.7575000000000216,0.145807,0.354327,0.561241
1.760000000000019,0.14584,0.354523,0.563767
1.762500000000017,0.150181,0.353455,0.562596
1.7650000000000148,0.147363,0.353295,0.561137
1.7675000000000125,0.149278,0.350217,0.559221
1.7700000000000102,0.14829,0.348718,0.557137
1.772500000000008,0.14881,0.349125,0.556613
1.7750000000000057,0.149418,0.347353,0.557391
1.7775000000000034,0.147264,0.347259,0.558975
1.7800000000000011,0.145445,0.345563,0.557082
1.7824999999999989,0.146849,0.343505,0.558604
1.785000000000025,0.143997,0.34268,0.5551
1.7875000000000227,0.143033,0.342581,0.554838
1.7900000000000205,0.141744,0.337281,0.555015
1.7925000000000182,0.140976,0.338139,0.556774
1.795000000000016,0.138205,0.338683,0.557026
1.7975000000000136,0.135017,0.336558,0.558084
1.8000000000000114,0.136922,0.333964,0.555978
1.802500000000009,0.13449,0.330968,0.555012
1.8050000000000068,0.131319,0.334027,0.559729
1.8075000000000043,0.12955,0.332326,0.558702
1.8100000000000025,0.125498,0.335931,0.558936
1.8125,0.125144,0.332672,0.559061
1.815000000000026,0.120495,0.328501,0.557659
1.817500000000024,0.119648,0.328282,0.558556
1.8200000000000216,0.115768,0.330114,0.560463
1.8225000000000195,0.114533,0.326083,0.55941
1.825000000000017,0.110345,0.324171,0.560098
1.8275000000000148,0.103598,0.325864,0.558727
1.8300000000000125,0.106966,0.327491,0.556018
1.8325000000000105,0.10254,0.327165,0.555683
1.835000000000008,0.095972,0.321586,0.556923
1.8375000000000057,0.090479,0.321739,0.555264
1.8400000000000036,0.08909,0.321523,0.551618
1.8425000000000007,0.08818,0.319547,0.552472
1.8449999999999989,0.083781,0.322839,0.552123
1.847500000000025,0.08016,0.31796,0.551394
1.8500000000000227,0.079905,0.322915,0.551827
1.8525000000000205,0.075332,0.32464,0.549532
1.8550000000000184,0.074216,0.322708,0.550305
1.857500000000016,0.07335,0.320061,0.547899
1.8600000000000136,0.071723,0.320935,0.547352
1.8625000000000116,0.068886,0.319857,0.546768
1.865000000000009,0.062845,0.320681,0.540539
1.8675000000000068,0.06359,0.324305,0.54308
1.8700000000000043,0.060309,0.321559,0.543483
1.8725000000000025,0.061252,0.322729,0.544565
1.875,0.059188,0.32096,0.542226
1.877500000000026,0.057437,0.329629,0.542299
1.880000000000024,0.055373,0.327759,0.539493
1.8825000000000216,0.055365,0.32487,0.541542
1.8850000000000195,0.054889,0.331769,0.542627
1.887500000000017,0.049432,0.330398,0.542656
1.8900000000000148,0.047993,0.328051,0.544735
1.8925000000000125,0.047553,0.335661,0.542974
1.8950000000000105,0.044926,0.332642,0.542278
1.897500000000008,0.041174,0.334529,0.541464
1.9000000000000057,0.038537,0.336409,0.540981
1.9025000000000036,0.037696,0.336918,0.545464
1.9050000000000007,0.034332,0.34012,0.544455
1.9074999999999989,0.031265,0.337147,0.546219
1.910000000000025,0.027262,0.341111,0.544312
1.9125000000000227,0.022747,0.342587,0.545494
1.9150000000000205,0.018073,0.344146,0.544392
1.9175000000000184,0.015733,0.347789,0.547042
1.920000000000016,0.011904,0.346042,0.549058
1.9225000000000136,0.009219,0.346243,0.548663
1.9250000000000116,0.006049,0.346477,0.548605
1.927500000000009,0.004821,0.350564,0.54997
1.9300000000000068,0.00428,0.35262,0.551549
1.9325000000000043,0.004748,0.353395,0.553987
1.9350000000000025,0.003161,0.354467,0.554126
1.9375,0.001725,0.357593,0.556532
1.940000000000026,0.003008,0.353015,0.557334
1.942500000000024,-0.000587,0.358474,0.558213
1.9450000000000216,0.001775,0.356092,0.562172
1.9475000000000195,0.005741,0.358044,0.561846
1.950000000000017,0.00216,0.361156,0.561301
1.9525000000000148,0.004997,0.35981,0.563917
1.9550000000000125,0.009438,0.361993,0.565509
1.9575000000000105,0.00998,0.366604,0.567945
1.960000000000008,0.010724,0.364203,0.568726
1.9625000000000057,0.012121,0.362843,0.573341
1.9650000000000036,0.014613,0.364878,0.573238
1.9675000000000007,0.013041,0.364865,0.576293
1.9699999999999989,0.017767,0.368307,0.578963
1.972500000000025,0.015985,0.369719,0.582186
1.9750000000000227,0.018623,0.368687,0.584919
1.9775000000000205,0.019329,0.370043,0.585387
1.9800000000000184,0.019751,0.373147,0.586601
1.982500000000016,0.026054,0.372449,0.58841
1.9850000000000136,0.025506,0.36859,0.59089
1.9875000000000116,0.027896,0.375189,0.596321
1.990000000000009,0.029009,0.372546,0.598147
1.9925000000000068,0.034147,0.377683,0.600567
1.9950000000000043,0.030036,0.373533,0.602562
1.9975000000000025,0.03232,0.376403,0.604232
2.0,0.036622,0.372953,0.605554
2.002500000000026,0.03494,0.377985,0.607609
2.005000000000024,0.037692,0.379299,0.61378
2.0075000000000216,0.042353,0.373922,0.614225
2.0100000000000198,0.043757,0.375996,0.620835
2.012500000000017,0.046048,0.37613,0.621343
2.015000000000015,0.048391,0.377934,0.628089
2.0175000000000125,0.050747,0.376166,0.62777
2.0200000000000102,0.054463,0.375889,0.632482
2.022500000000008,0.055728,0.372853,0.634001
2.0250000000000057,0.060538,0.377109,0.637756
2.0275000000000034,0.062419,0.373489,0.64207
2.030000000000001,0.060745,0.377248,0.643147
2.032499999999999,0.063231,0.374898,0.647856
2.035000000000025,0.065521,0.373582,0.648164
2.0375000000000227,0.067528,0.369335,0.654856
2.0400000000000205,0.070151,0.371517,0.658257
2.042500000000018,0.069062,0.370402,0.661967
2.045000000000016,0.07218,0.375568,0.666357
2.0475000000000136,0.073231,0.373892,0.667691
2.050000000000012,0.074492,0.367209,0.674638
2.052500000000009,0.072401,0.369192,0.675248
2.055000000000007,0.07531,0.364756,0.678223
2.0575000000000045,0.075481,0.363012,0.682456
2.0600000000000023,0.075062,0.361196,0.686775
2.0625,0.077478,0.360174,0.68757
2.065000000000026,0.077847,0.358095,0.69293
2.067500000000024,0.077777,0.351469,0.696414
2.0700000000000216,0.075171,0.353543,0.700586
2.0725000000000198,0.076888,0.349108,0.708909
2.075000000000017,0.074633,0.350278,0.710223
2.077500000000015,0.076676,0.343963,0.712312
2.0800000000000125,0.080951,0.341237,0.715815
2.0825000000000102,0.077864,0.339777,0.717241
2.085000000000008,0.078718,0.335761,0.724254
2.0875000000000057,0.079034,0.331398,0.727018
2.0900000000000034,0.080847,0.329567,0.727435
2.092500000000001,0.079867,0.322083,0.733005
2.094999999999999,0.08376,0.31885,0.735594
2.097500000000025,0.084711,0.315861,0.739613
2.1000000000000227,0.084641,0.316487,0.742819
2.1025000000000205,0.087485,0.31038,0.741331
2.105000000000018,0.091644,0.310662,0.746829
2.107500000000016,0.090074,0.30267,0.751006
2.1100000000000136,0.09646,0.296187,0.751581
2.112500000000012,0.097557,0.287926,0.752688
2.115000000000009,0.100208,0.286128,0.754655
2.117500000000007,0.10267,0.280836,0.758828
2.1200000000000045,0.106139,0.27416,0.759298
2.1225000000000023,0.111119,0.270762,0.758668
2.125,0.111079,0.265063,0.761756
2.127500000000026,0.118703,0.260315,0.766871
2.130000000000024,0.118933,0.256572,0.765547
2.1325000000000216,0.125808,0.251038,0.767604
2.1350000000000198,0.127047,0.243472,0.767993
2.137500000000017,0.130416,0.238849,0.770206
2.140000000000015,0.135743,0.23014,0.771257
2.1425000000000125,0.139322,0.227412,0.768911
2.1450000000000102,0.140379,0.219426,0.771193
2.147500000000008,0.146177,0.20965,0.772601
2.1500000000000057,0.152647,0.205567,0.773307
2.1525000000000034,0.157636,0.198934,0.770857
2.155000000000001,0.161957,0.19216,0.767804
2.157499999999999,0.170762,0.185166,0.767192
2.160000000000025,0.172874,0.178524,0.766397
2.1625000000000227,0.181254,0.170121,0.766676
2.1650000000000205,0.187457,0.162938,0.764463
2.167500000000018,0.195374,0.159026,0.760836
2.170000000000016,0.200585,0.148156,0.754742
2.1725000000000136,0.211137,0.143877,0.75259
2.175000000000012,0.216942,0.137226,0.751867
2.177500000000009,0.227126,0.132111,0.745269
2.180000000000007,0.234852,0.12143,0.745156
2.1825000000000045,0.243127,0.11886,0.738073
2.1850000000000023,0.251948,0.107702,0.734478
2.1875,0.264307,0.103087,0.730845
2.190000000000026,0.274014,0.097615,0.723327
2.192500000000024,0.283434,0.088803,0.721301
2.1950000000000216,0.293805,0.081449,0.710503
2.1975000000000198,0.304643,0.071914,0.705729
2.200000000000017,0.315621,0.06875,0.699618
2.202500000000015,0.32256,0.060863,0.693645
2.2050000000000125,0.336074,0.053061,0.686932
2.2075000000000102,0.344897,0.048374,0.678233
2.210000000000008,0.351702,0.042068,0.668775
2.2125000000000057,0.359208,0.032827,0.659616
2.2150000000000034,0.369658,0.028368,0.646741
2.217500000000001,0.380234,0.021688,0.638203
2.219999999999999,0.386881,0.012495,0.627331
2.222500000000025,0.39229,0.009733,0.615556
2.2250000000000227,0.400721,-0.001086,0.608296
2.2275000000000205,0.40772,-0.004955,0.591981
2.230000000000018,0.412685,-0.011145,0.581081
2.232500000000016,0.419579,-0.018908,0.566536
2.2350000000000136,0.421824,-0.024308,0.556289
2.237500000000012,0.430054,-0.031869,0.543305
2.240000000000009,0.43551,-0.038458,0.529664
2.242500000000007,0.437925,-0.045788,0.519323
2.2450000000000045,0.44327,-0.049655,0.506423
2.2475000000000023,0.448466,-0.057864,0.492079
2.25,0.453999,-0.06344,0.480086
2.252500000000026,0.459572,-0.069924,0.466383
2.255000000000024,0.466334,-0.077771,0.454558
2.2575000000000216,0.471269,-0.086896,0.442506
2.2600000000000198,0.478966,-0.090154,0.42927
2.262500000000017,0.489271,-0.092025,0.416695
2.265000000000015,0.496944,-0.099517,0.403862
2.2675000000000125,0.502638,-0.104705,0.392673
2.2700000000000102,0.508647,-0.110199,0.377021
2.272500000000008,0.519117,-0.113861,0.365143
2.2750000000000057,0.522801,-0.11977,0.357958
2.2775000000000034,0.529791,-0.131585,0.347726
2.280000000000001,0.534795,-0.130066,0.331903
2.282499999999999,0.540116,-0.134891,0.319401
2.285000000000025,0.544746,-0.138676,0.308535
2.2875000000000227,0.550766,-0.143492,0.297623
2.2900000000000205,0.55668,-0.145601,0.289347
2.292500000000018,0.557727,-0.15177,0.278292
2.295000000000016,0.558481,-0.157169,0.268625
2.2975000000000136,0.565044,-0.164095,0.261077
2.300000000000012,0.563353,-0.171238,0.250147
2.302500000000009,0.563442,-0.172088,0.240078
2.305000000000007,0.563962,-0.178941,0.233468
2.3075000000000045,0.558925,-0.183421,0.223865
2.3100000000000023,0.549781,-0.18367,0.219635
2.3125,0.547571,-0.185969,0.213026
2.315000000000026,0.540368,-0.190066,0.213183
2.317500000000024,0.530145,-0.18952,0.203038
2.3200000000000216,0.521652,-0.194544,0.200126
2.3225000000000198,0.512034,-0.186703,0.196181
2.325000000000017,0.494815,-0.187218,0.195213
2.327500000000015,0.481878,-0.188316,0.194896
2.3300000000000125,0.469586,-0.18201,0.192445
2.3325000000000102,0.450578,-0.176986,0.193735
2.335000000000008,0.430795,-0.181562,0.191692
2.3375000000000057,0.410106,-0.175503,0.197294
2.3400000000000034,0.391198,-0.169371,0.19647
2.342500000000001,0.372613,-0.165442,0.200588
2.344999999999999,0.348613,-0.159368,0.204382
2.347500000000025,0.32972,-0.154416,0.209235
2.3500000000000227,0.310511,-0.147793,0.213342
2.3525000000000205,0.290737,-0.139669,0.217187
2.355000000000018,0.269777,-0.131767,0.221423
2.357500000000016,0.250331,-0.123601,0.228158
2.3600000000000136,0.23137,-0.115128,0.231382
2.362500000000012,0.215007,-0.102627,0.234082
2.365000000000009,0.198657,-0.096004,0.238457
2.367500000000007,0.184134,-0.087307,0.246169
2.3700000000000045,0.167235,-0.080161,0.250668
2.3725000000000023,0.153603,-0.069372,0.255067
2.375,0.141824,-0.061455,0.255462
2.377500000000026,0.124557,-0.051469,0.259624
2.380000000000024,0.110743,-0.042698,0.261927
2.3825000000000216,0.106166,-0.034387,0.268232
2.3850000000000198,0.095472,-0.027852,0.271518
2.387500000000017,0.08141,-0.020576,0.274246
2.390000000000015,0.07256,-0.017934,0.27722
2.3925000000000125,0.063615,-0.005898,0.277144
2.3950000000000102,0.05473,0.000977,0.278648
2.397500000000008,0.045417,0.007215,0.278911
2.4000000000000057,0.037942,0.010587,0.284196
2.4025000000000034,0.025211,0.018957,0.288533
2.405000000000001,0.023218,0.027784,0.287204
2.407499999999999,0.014286,0.027668,0.287346
2.410000000000025,0.009904,0.035941,0.288988
2.4125000000000227,0.003306,0.040344,0.292424
2.4150000000000205,-0.000438,0.04347,0.290621
2.417500000000018,-0.004956,0.050672,0.291582
2.420000000000016,-0.006239,0.053493,0.288699
2.4225000000000136,-0.007749,0.056567,0.294267
2.425000000000012,-0.017768,0.061911,0.29405
2.427500000000009,-0.016703,0.062475,0.294673
2.430000000000007,-0.016892,0.067463,0.29657
2.4325000000000045,-0.018306,0.072458,0.297537
2.4350000000000023,-0.017348,0.077129,0.297838
2.4375,-0.020035,0.079758,0.296616
2.440000000000026,-0.019553,0.082222,0.298169
2.442500000000024,-0.020039,0.084677,0.298495
2.4450000000000216,-0.020166,0.090767,0.301766
2.4475000000000198,-0.022668,0.091895,0.301666
2.450000000000017,-0.024348,0.098299,0.305562
2.452500000000015,-0.021723,0.098813,0.307564
2.4550000000000125,-0.024408,0.105051,0.311368
2.4575000000000102,-0.025865,0.104908,0.317708
2.460000000000008,-0.023624,0.110763,0.319106
2.4625000000000057,-0.023951,0.106307,0.324599
2.4650000000000034,-0.024252,0.112022,0.327899
2.467500000000001,-0.023432,0.115561,0.331477
2.469999999999999,-0.026923,0.117042,0.336721
2.472500000000025,-0.024302,0.11804,0.341607
2.4750000000000227,-0.023219,0.116485,0.34843
2.4775000000000205,-0.022233,0.116586,0.35666
2.480000000000018,-0.025171,0.124116,0.35908
2.482500000000016,-0.025688,0.124117,0.362242
2.4850000000000136,-0.023513,0.129779,0.37057
2.487500000000012,-0.024009,0.130802,0.376578
2.490000000000009,-0.024873,0.132442,0.382394
2.492500000000007,-0.024815,0.139076,0.39042
2.4950000000000045,-0.022888,0.137252,0.394177
2.4975000000000023,-0.02297,0.134815,0.404961
2.5,-0.020598,0.143404,0.412957
2.502500000000026,-0.020629,0.144859,0.421985
2.505000000000024,-0.019707,0.153968,0.424739
2.5075000000000216,-0.019138,0.152916,0.433453
2.5100000000000198,-0.015128,0.15425,0.446271
2.512500000000017,-0.016251,0.157269,0.450666
2.515000000000015,-0.015062,0.157113,0.462943
2.5175000000000125,-0.010426,0.162324,0.468641
2.5200000000000102,-0.010853,0.168387,0.476042
2.522500000000008,-0.01189,0.169601,0.485665
2.5250000000000057,-0.009072,0.170211,0.496461
2.5275000000000034,-0.012116,0.177694,0.502709
2.530000000000001,-0.009803,0.176885,0.513554
2.532499999999999,-0.005698,0.177624,0.520171
2.535000000000025,-0.004733,0.182148,0.531343
2.5375000000000227,-0.00646,0.187091,0.54265
2.5400000000000205,-0.004807,0.187603,0.546926
2.542500000000018,-0.00305,0.189661,0.558128
2.545000000000016,-0.005046,0.191412,0.56689
2.5475000000000136,-0.002326,0.191363,0.579231
2.550000000000012,-0.004523,0.193404,0.586403
2.552500000000009,-0.003791,0.194978,0.595876
2.555000000000007,0.000266,0.203594,0.604869
2.5575000000000045,-0.001614,0.200433,0.615624
2.5600000000000023,-0.002865,0.202233,0.623123
2.5625,-5.1e-05,0.20484,0.632794
2.565000000000026,-0.001259,0.2034,0.637127
2.567500000000024,0.001376,0.205778,0.646878
2.5700000000000216,0.000212,0.205881,0.654119
2.5725000000000198,1e-06,0.204986,0.660587
2.575000000000017,0.001516,0.208197,0.672845
2.577500000000015,0.00496,0.209417,0.683739
2.5800000000000125,0.001241,0.209896,0.689264
2.5825000000000102,0.005344,0.211071,0.696483
2.585000000000008,0.006671,0.211912,0.702869
2.5875000000000057,0.003653,0.209855,0.710578
2.5900000000000034,0.003343,0.211021,0.717259
2.592500000000001,0.006261,0.214101,0.724616
2.594999999999999,0.01306,0.20901,0.733037
2.597500000000025,0.009953,0.211846,0.742401
2.6000000000000227,0.006988,0.209821,0.745117
2.6025000000000205,0.007951,0.20965,0.751268
2.605000000000018,0.008904,0.209173,0.754918
2.607500000000016,0.009506,0.209049,0.763025
2.6100000000000136,0.014881,0.207374,0.766953
2.612500000000012,0.011445,0.206439,0.774383
2.615000000000009,0.0096,0.207805,0.779197
2.617500000000007,0.009338,0.205601,0.78261
2.6200000000000045,0.0081,0.201293,0.78878
2.6225000000000023,0.00863,0.199951,0.79223
2.625,0.007502,0.197039,0.793056
2.627500000000026,0.005624,0.194223,0.802755
2.630000000000024,0.001393,0.193631,0.808565
2.6325000000000216,-0.00225,0.192619,0.808058
2.6350000000000198,-0.000757,0.184909,0.817727
2.637500000000017,-0.001651,0.179381,0.81934
2.640000000000015,-0.000656,0.172908,0.820453
2.6425000000000125,-0.004555,0.172179,0.827556
2.6450000000000102,-0.007866,0.166283,0.830134
2.647500000000008,-0.007716,0.157794,0.836764
2.6500000000000057,-0.006565,0.155123,0.84244
2.6525000000000034,-0.012299,0.148848,0.844012
2.655000000000001,-0.011529,0.137299,0.846801
2.657499999999999,-0.018597,0.132243,0.847661
2.660000000000025,-0.01723,0.12855,0.853213
2.6625000000000227,-0.021739,0.113387,0.85054
2.6650000000000205,-0.018267,0.108173,0.853475
2.667500000000018,-0.022599,0.098436,0.854749
2.670000000000016,-0.023013,0.089987,0.861166
2.6725000000000136,-0.022689,0.079503,0.856061
2.675000000000012,-0.021553,0.074998,0.858279
2.677500000000009,-0.020884,0.061546,0.858791
2.680000000000007,-0.019047,0.05066,0.858886
2.6825000000000045,-0.018579,0.0437,0.859124
2.6850000000000023,-0.013645,0.034276,0.858597
2.6875,-0.013305,0.026818,0.862592
2.690000000000026,-0.012589,0.016967,0.863148
2.692500000000024,-0.010569,0.007632,0.859889
2.6950000000000216,-0.005141,0.001165,0.860553
2.6975000000000198,-0.00288,-0.007923,0.859674
2.700000000000017,-0.00398,-0.015092,0.860659
2.702500000000015,-0.00236,-0.020717,0.8613
2.7050000000000125,0.001595,-0.027594,0.858494
2.7075000000000102,0.004483,-0.038733,0.8593
2.710000000000008,0.002427,-0.046352,0.853662
2.7125000000000057,0.00762,-0.052005,0.852334
2.7150000000000034,0.008313,-0.056072,0.855089
2.717500000000001,0.008572,-0.060689,0.852118
2.719999999999999,0.008639,-0.072436,0.852014
2.722500000000025,0.011747,-0.081879,0.848449
2.7250000000000227,0.01586,-0.083609,0.848539
2.7275000000000205,0.014452,-0.090408,0.845685
2.730000000000018,0.014352,-0.092441,0.849197
2.732500000000016,0.016797,-0.097844,0.843776
2.7350000000000136,0.018928,-0.107159,0.844843
2.737500000000012,0.020771,-0.110081,0.844459
2.740000000000009,0.021728,-0.113116,0.839795
2.742500000000007,0.021235,-0.119695,0.837451
2.7450000000000045,0.022442,-0.125082,0.83561
2.7475000000000023,0.024895,-0.127824,0.833482
2.75,0.026523,-0.133462,0.836782
2.752500000000026,0.023847,-0.135875,0.83236
2.755000000000024,0.031838,-0.138254,0.834276
2.7575000000000216,0.0306,-0.14074,0.832688
2.7600000000000198,0.031643,-0.142776,0.832421
2.762500000000017,0.032326,-0.146236,0.827358
2.765000000000015,0.036167,-0.148302,0.827868
2.7675000000000125,0.035378,-0.149003,0.827553
2.7700000000000102,0.033575,-0.150313,0.826673
2.772500000000008,0.034352,-0.151405,0.824957
2.7750000000000057,0.038042,-0.154506,0.822327
2.7775000000000034,0.035303,-0.157294,0.819867
2.780000000000001,0.035115,-0.162672,0.819894
2.782499999999999,0.029885,-0.162023,0.815763
2.785000000000025,0.02882,-0.161777,0.814445
2.7875000000000227,0.025564,-0.165419,0.813107
2.7900000000000205,0.030243,-0.163555,0.813294
2.792500000000018,0.027169,-0.164439,0.815483
2.795000000000016,0.028274,-0.168909,0.813762
2.7975000000000136,0.024939,-0.167853,0.813855
2.800000000000012,0.026495,-0.164641,0.810532
2.802500000000009,0.023753,-0.16692,0.810664
2.805000000000007,0.023726,-0.163144,0.807008
2.8075000000000045,0.020344,-0.163057,0.806575
2.8100000000000023,0.01755,-0.163771,0.807478
2.8125,0.020259,-0.163732,0.805088
2.815000000000026,0.019114,-0.161009,0.803382
2.817500000000024,0.019377,-0.157042,0.803077
2.8200000000000216,0.018852,-0.159565,0.800093
2.8225000000000198,0.017782,-0.158794,0.800135
2.825000000000017,0.016322,-0.155698,0.802656
2.827500000000015,0.014552,-0.151117,0.798387
2.8300000000000125,0.013154,-0.150214,0.80109
2.8325000000000102,0.01402,-0.149477,0.799006
2.835000000000008,0.012424,-0.144954,0.799579
2.8375000000000057,0.012317,-0.142279,0.799018
2.8400000000000034,0.007965,-0.141136,0.797909
2.842500000000001,0.007094,-0.140049,0.799214
2.844999999999999,0.001725,-0.135863,0.800166
2.847500000000025,0.001485,-0.137262,0.798299
2.8500000000000227,0.000257,-0.134909,0.798866
2.8525000000000205,-0.005232,-0.132805,0.799026
2.855000000000018,-0.008889,-0.128773,0.795583
2.857500000000016,-0.007789,-0.125256,0.797423
2.8600000000000136,-0.011659,-0.122021,0.79852
2.862500000000012,-0.016196,-0.116304,0.799469
2.865000000000009,-0.018716,-0.114787,0.799763
2.867500000000007,-0.022455,-0.114109,0.799789
2.8700000000000045,-0.024123,-0.104772,0.801654
2.8725000000000023,-0.025569,-0.10628,0.796252
2.875,-0.02977,-0.101945,0.797583
2.877500000000026,-0.034659,-0.099357,0.799842
2.880000000000024,-0.037339,-0.088498,0.79742
2.8825000000000216,-0.039005,-0.088935,0.797589
2.8850000000000198,-0.046475,-0.080486,0.797083
2.887500000000017,-0.04773,-0.080453,0.795034
2.890000000000015,-0.050478,-0.072733,0.796538
2.8925000000000125,-0.052546,-0.070797,0.798277
2.8950000000000102,-0.055547,-0.062509,0.795425
2.897500000000008,-0.058822,-0.057665,0.794587
2.9000000000000057,-0.062366,-0.053641,0.792075
2.9025000000000034,-0.063983,-0.050586,0.795197
2.905000000000001,-0.064263,-0.045286,0.793491
2.907499999999999,-0.066288,-0.044236,0.796943
2.910000000000025,-0.076097,-0.037712,0.793054
2.9125000000000227,-0.080141,-0.034243,0.792613
2.9150000000000205,-0.080362,-0.028947,0.790159
2.917500000000018,-0.08197,-0.025339,0.792445
2.920000000000016,-0.086714,-0.018954,0.788967
2.9225000000000136,-0.092593,-0.014552,0.790879
2.925000000000012,-0.096266,-0.011531,0.788825
2.927500000000009,-0.101724,-0.0049,0.784993
2.930000000000007,-0.101051,-0.001636,0.784496
2.9325000000000045,-0.108592,0.007164,0.784024
2.9350000000000023,-0.113426,0.011977,0.784887
2.9375,-0.118496,0.021347,0.784528
2.940000000000026,-0.123395,0.029445,0.777935
2.942500000000024,-0.125152,0.029934,0.781096
2.9450000000000216,-0.129916,0.036206,0.781401
2.9475000000000198,-0.133878,0.044642,0.777852
2.950000000000017,-0.139351,0.050063,0.777935
2.952500000000015,-0.145189,0.053885,0.773551
2.9550000000000125,-0.148121,0.065621,0.7712
2.9575000000000102,-0.151323,0.07414,0.773335
2.960000000000008,-0.159551,0.076551,0.77095
2.9625000000000057,-0.16439,0.084481,0.767205
2.9650000000000034,-0.168024,0.098223,0.76912
2.967500000000001,-0.174624,0.100739,0.770842
2.969999999999999,-0.180222,0.110295,0.765995
2.972500000000025,-0.183208,0.117075,0.764036
2.9750000000000227,-0.185804,0.124203,0.76546
2.9775000000000205,-0.188278,0.132064,0.768066
2.980000000000018,-0.197414,0.141492,0.765302
2.982500000000016,-0.203279,0.147855,0.759482
2.9850000000000136,-0.208199,0.16015,0.759693
2.987500000000012,-0.215355,0.167273,0.762268
2.990000000000009,-0.217904,0.175186,0.758127
2.992500000000007,-0.220963,0.184894,0.755961
2.9950000000000045,-0.230333,0.194042,0.756764
2.9975000000000023,-0.233689,0.204314,0.754369
3.0,-0.23903,0.211588,0.749949
3.002500000000026,-0.243276,0.21979,0.751589
3.005000000000024,-0.251128,0.232029,0.748105
3.0075000000000216,-0.254017,0.243861,0.747647
3.0100000000000198,-0.26044,0.252246,0.74425
3.012500000000017,-0.269385,0.262123,0.743465
3.015000000000015,-0.275061,0.271574,0.743771
3.0175000000000125,-0.280176,0.278992,0.742216
3.0200000000000102,-0.289017,0.289517,0.74339
3.022500000000008,-0.293957,0.300793,0.741503
3.0250000000000057,-0.299978,0.312043,0.73941
3.0275000000000034,-0.306808,0.323856,0.739177
3.030000000000001,-0.314641,0.328083,0.737319
3.032499999999999,-0.319028,0.33722,0.737966
3.035000000000025,-0.328986,0.347182,0.739087
3.0375000000000227,-0.333341,0.357428,0.740101
3.0400000000000205,-0.337394,0.366492,0.73893
3.042500000000018,-0.344008,0.378583,0.735261
3.045000000000016,-0.351083,0.385016,0.731068
3.0475000000000136,-0.356247,0.396314,0.733542
3.050000000000012,-0.363225,0.409214,0.732503
3.052500000000009,-0.367785,0.418755,0.731903
3.055000000000007,-0.372897,0.425866,0.731909
3.0575000000000045,-0.380354,0.436618,0.732587
3.0600000000000023,-0.384322,0.446478,0.730273
3.0625,-0.389467,0.457329,0.727081
3.065000000000026,-0.401092,0.466127,0.72716
3.067500000000024,-0.403224,0.476106,0.726278
3.0700000000000216,-0.410547,0.486856,0.725902
3.0725000000000198,-0.417249,0.495326,0.726483
3.075000000000017,-0.424579,0.502611,0.725968
3.077500000000015,-0.427948,0.512801,0.725845
3.0800000000000125,-0.438556,0.521485,0.726148
3.0825000000000102,-0.442638,0.532358,0.725638
3.085000000000008,-0.450359,0.539727,0.724981
3.0875000000000057,-0.454559,0.54742,0.719904
3.0900000000000034,-0.460479,0.557373,0.723941
3.092500000000001,-0.467989,0.565886,0.722518
3.094999999999999,-0.476314,0.574137,0.724604
3.097500000000025,-0.481439,0.582018,0.724478
3.1000000000000227,-0.487328,0.594457,0.719484
3.1025000000000205,-0.49531,0.595654,0.71879
3.105000000000018,-0.502308,0.606933,0.716461
3.107500000000016,-0.503662,0.615441,0.718477
3.1100000000000136,-0.513458,0.622965,0.720421
3.112500000000012,-0.517006,0.629134,0.721155
3.115000000000009,-0.520793,0.641182,0.720816
3.117500000000007,-0.530814,0.64692,0.719991
3.1200000000000045,-0.533886,0.655105,0.719477
3.1225000000000023,-0.536198,0.661866,0.721764
3.125,-0.543803,0.67072,0.724495
3.127500000000026,-0.544422,0.676861,0.724658
3.130000000000024,-0.549305,0.680948,0.723119
3.1325000000000216,-0.553906,0.690145,0.725069
3.1350000000000198,-0.554602,0.692108,0.728707
3.137500000000017,-0.563176,0.696392,0.729957
3.140000000000015,-0.565297,0.703993,0.729128
3.1425000000000125,-0.566437,0.709407,0.731433
3.1450000000000102,-0.566325,0.71409,0.732092
3.147500000000008,-0.570999,0.717906,0.731812
3.1500000000000057,-0.573576,0.722968,0.736017
3.1525000000000034,-0.575569,0.722369,0.733405
3.155000000000001,-0.582795,0.726002,0.733931
3.157499999999999,-0.583053,0.731207,0.737692
3.160000000000025,-0.582594,0.731605,0.73658
3.1625000000000227,-0.586427,0.732724,0.736217
3.1650000000000205,-0.592548,0.73132,0.738438
3.167500000000018,-0.58931,0.734435,0.741027
3.170000000000016,-0.585595,0.733718,0.744907
3.1725000000000136,-0.586912,0.732165,0.744843
3.175000000000012,-0.589261,0.73414,0.748682
3.177500000000009,-0.585002,0.731591,0.746262
3.180000000000007,-0.588568,0.729942,0.746838
3.1825000000000045,-0.585817,0.72349,0.754526
3.1850000000000023,-0.579168,0.724448,0.753091
3.1875,-0.578466,0.718681,0.753186
3.190000000000026,-0.578644,0.714917,0.756193
3.192500000000024,-0.572914,0.707651,0.75355
3.1950000000000216,-0.57215,0.70503,0.756712
3.1975000000000198,-0.566532,0.699913,0.757336
3.200000000000017,-0.561448,0.6961,0.760354
3.202500000000015,-0.554224,0.687313,0.761841
3.2050000000000125,-0.55029,0.679725,0.764824
3.2075000000000102,-0.54636,0.671648,0.766363
3.210000000000008,-0.537385,0.661614,0.769861
3.2125000000000057,-0.532231,0.653557,0.772291
3.2150000000000034,-0.523354,0.642859,0.77358
3.217500000000001,-0.51896,0.635799,0.77283
3.219999999999999,-0.511049,0.623565,0.775207
3.222500000000025,-0.504455,0.610336,0.777433
3.2250000000000227,-0.496356,0.594697,0.778788
3.2275000000000205,-0.486754,0.582291,0.776037
3.230000000000018,-0.477314,0.567908,0.779639
3.232500000000016,-0.468388,0.553078,0.778926
3.2350000000000136,-0.457621,0.537212,0.78254
3.237500000000012,-0.444418,0.523199,0.783461
3.240000000000009,-0.43302,0.509449,0.783476
3.242500000000007,-0.423725,0.497874,0.784558
3.2450000000000045,-0.409925,0.477574,0.783741
3.2475000000000023,-0.398675,0.459825,0.781109
3.25,-0.386268,0.443828,0.778484
3.252500000000026,-0.370634,0.426021,0.778637
3.255000000000024,-0.3585,0.410804,0.781121
3.2575000000000216,-0.348847,0.397288,0.774481
3.2600000000000198,-0.329253,0.377592,0.769793
3.262500000000017,-0.317292,0.360233,0.772708
3.265000000000015,-0.302105,0.338052,0.770461
3.2675000000000125,-0.288539,0.323398,0.766046
3.2700000000000102,-0.274499,0.304019,0.762151
3.272500000000008,-0.260271,0.286748,0.761076
3.2750000000000057,-0.247963,0.268342,0.760432
3.2775000000000034,-0.235054,0.252443,0.75366
3.280000000000001,-0.217615,0.238394,0.75072
3.282499999999999,-0.203623,0.21972,0.749464
3.285000000000025,-0.195542,0.202449,0.74806
3.2875000000000227,-0.178589,0.181998,0.745622
3.2900000000000205,-0.166112,0.170036,0.745616
3.292500000000018,-0.152348,0.154427,0.740423
3.295000000000016,-0.143887,0.139638,0.740057
3.2975000000000136,-0.136179,0.124522,0.735279
3.300000000000012,-0.124438,0.111695,0.734659
3.302500000000009,-0.114305,0.097703,0.732788
3.305000000000007,-0.110862,0.082228,0.727443
3.3075000000000045,-0.100739,0.071955,0.726406
3.3100000000000023,-0.096431,0.060055,0.724881
3.3125,-0.086585,0.04859,0.721807
3.315000000000026,-0.079614,0.039188,0.719641
3.317500000000024,-0.078407,0.029642,0.717812
3.3200000000000216,-0.073855,0.021534,0.719471
3.3225000000000198,-0.069784,0.013722,0.717627
3.325000000000017,-0.067276,0.005729,0.711124
3.327500000000015,-0.063169,0.00022,0.71611
3.3300000000000125,-0.066349,-0.005648,0.715836
3.3325000000000102,-0.061344,-0.012888,0.712469
3.335000000000008,-0.062102,-0.017364,0.716292
3.3375000000000057,-0.056535,-0.021707,0.714112
3.3400000000000034,-0.056382,-0.026011,0.711943
3.342500000000001,-0.057411,-0.030024,0.715504
3.344999999999999,-0.056711,-0.031754,0.715838
3.347500000000025,-0.052485,-0.034654,0.713905
3.3500000000000227,-0.055622,-0.036974,0.711671
3.3525000000000205,-0.056095,-0.037445,0.716163
3.355000000000018,-0.057925,-0.044046,0.714626
3.357500000000016,-0.059737,-0.041269,0.7134
3.3600000000000136,-0.063124,-0.04465,0.713838
3.362500000000012,-0.064756,-0.043319,0.71225
3.365000000000009,-0.068055,-0.045185,0.710917
3.367500000000007,-0.068283,-0.038889,0.712266
3.3700000000000045,-0.073823,-0.042108,0.711007
3.3725000000000023,-0.08197,-0.041392,0.711941
3.375,-0.085731,-0.041583,0.710452
3.377500000000026,-0.086848,-0.040022,0.709345
3.380000000000024,-0.096254,-0.036502,0.708311
3.3825000000000216,-0.101152,-0.036673,0.709219
3.3850000000000198,-0.105344,-0.033951,0.704547
3.387500000000017,-0.107676,-0.033143,0.703239
3.390000000000015,-0.119884,-0.02691,0.705563
3.3925000000000125,-0.125198,-0.028823,0.705921
3.3950000000000102,-0.128078,-0.022443,0.700718
3.397500000000008,-0.137281,-0.024951,0.701518
3.4000000000000057,-0.142014,-0.020501,0.698861
3.4025000000000034,-0.144254,-0.019836,0.694838
3.405000000000001,-0.151874,-0.019836,0.696891
3.407499999999999,-0.154832,-0.012864,0.697269
3.410000000000025,-0.15779,-0.009529,0.699518
3.4125000000000227,-0.161202,-0.00926,0.696243
3.4150000000000205,-0.16371,-0.004594,0.695483
3.417500000000018,-0.173114,0.001729,0.692333
3.420000000000016,-0.174685,-0.001194,0.691087
3.4225000000000136,-0.183989,-0.000724,0.693888
3.425000000000012,-0.183788,0.005641,0.692576
3.427500000000009,-0.186184,0.007156,0.691938
3.430000000000007,-0.195535,0.007992,0.690185
3.4325000000000045,-0.196792,0.007186,0.688339
3.4350000000000023,-0.19711,0.011732,0.690352
3.4375,-0.20251,0.010791,0.688968
3.440000000000026,-0.206612,0.011151,0.687384
3.442500000000024,-0.206825,0.015344,0.688688
3.4450000000000216,-0.212602,0.012263,0.686667
3.4475000000000198,-0.216325,0.015838,0.685018
3.450000000000017,-0.216273,0.01571,0.685407
3.452500000000015,-0.216501,0.015093,0.684495
3.4550000000000125,-0.21745,0.017037,0.688105
3.4575000000000102,-0.222497,0.01827,0.686962
3.460000000000008,-0.221357,0.018788,0.685377
3.4625000000000057,-0.224768,0.020657,0.6864
3.4650000000000034,-0.22393,0.019168,0.682374
3.467500000000001,-0.227389,0.021838,0.680443
3.469999999999999,-0.229265,0.020354,0.681239
3.472500000000025,-0.227721,0.02341,0.671905
3.4750000000000227,-0.232177,0.022154,0.674296
3.4775000000000205,-0.22836,0.026638,0.668695
3.480000000000018,-0.229861,0.019964,0.665598
3.482500000000016,-0.230789,0.024983,0.667314
3.4850000000000136,-0.232388,0.021733,0.662813
3.487500000000012,-0.232367,0.020423,0.658714
3.490000000000009,-0.233235,0.019874,0.655458
3.492500000000007,-0.232853,0.020368,0.652155
3.4950000000000045,-0.227249,0.015254,0.651185
3.4975000000000023,-0.231458,0.014365,0.644115
3.5,-0.22565,0.014944,0.642446
3.502500000000026,-0.224157,0.00821,0.640819
3.505000000000024,-0.221114,0.008439,0.63763
3.5075000000000216,-0.218707,0.006416,0.634074
3.5100000000000198,-0.213675,0.006089,0.629657
3.512500000000017,-0.212783,0.004635,0.627083
3.515000000000015,-0.210665,0.005402,0.624491
3.5175000000000125,-0.206992,-0.003354,0.614788
3.5200000000000102,-0.207181,-0.003587,0.612497
3.522500000000008,-0.201768,-0.005719,0.603698
3.5250000000000057,-0.19736,-0.008397,0.600135
3.5275000000000034,-0.198363,-0.009771,0.593164
3.530000000000001,-0.191286,-0.01335,0.584751
3.532499999999999,-0.191687,-0.016092,0.577212
3.535000000000025,-0.187749,-0.014365,0.568215
3.5375000000000227,-0.187302,-0.013839,0.560425
3.5400000000000205,-0.180319,-0.016384,0.553105
3.542500000000018,-0.178997,-0.020736,0.543959
3.545000000000016,-0.177306,-0.019036,0.535875
3.5475000000000136,-0.175306,-0.018485,0.528061
3.550000000000012,-0.1718,-0.024039,0.519127
3.552500000000009,-0.166416,-0.02034,0.507394
3.555000000000007,-0.166781,-0.021471,0.495928
3.5575000000000045,-0.161754,-0.021409,0.489005
3.5600000000000023,-0.164227,-0.024199,0.475182
3.5625,-0.157055,-0.026287,0.448564
3.565000000000026,-0.158909,-0.025451,0.415575
3.567500000000024,-0.158694,-0.029737,0.374847
3.5700000000000216,-0.151026,-0.027941,0.322562
3.5725000000000198,-0.148097,-0.03162,0.263981
3.575000000000017,-0.140041,-0.033855,0.20401
3.577500000000015,-0.125717,-0.028317,0.145099
3.5800000000000125,-0.112188,-0.026031,0.10135
3.5825000000000102,-0.097232,-0.01266,0.066891
3.585000000000008,-0.072654,-0.003272,0.042073
3.5875000000000057,-0.047892,0.004997,0.026517
3.5900000000000034,-0.027566,0.013175,0.009768
3.592500000000001,-0.008859,0.011181,-0.008388
3.594999999999999,0.015187,0.011318,-0.029185
3.597500000000025,0.039307,0.013415,-0.049363
3.6000000000000227,0.061888,0.007901,-0.058359
3.6025000000000205,0.085553,-0.003232,-0.070585
3.605000000000018,0.104421,0.000884,-0.078383
3.607500000000016,0.122587,-0.002439,-0.077543
3.6100000000000136,0.139614,-0.002384,-0.078575
3.6125000000000114,0.154529,-0.003359,-0.078438
3.615000000000009,0.167795,-0.003307,-0.08446
3.617500000000007,0.181512,0.000987,-0.086108
3.620000000000005,0.189245,0.002367,-0.083829
3.6225000000000014,0.194787,0.00528,-0.083607
3.625,0.198331,0.00895,-0.079955
3.627500000000026,0.202074,0.007194,-0.078131
3.630000000000024,0.203372,0.011119,-0.075342
3.6325000000000216,0.198539,0.011668,-0.069968
3.6350000000000193,0.199071,0.015449,-0.071606
3.637500000000017,0.194634,0.022722,-0.068536
3.640000000000015,0.18879,0.025281,-0.06977
3.642500000000013,0.180533,0.023938,-0.06742
3.64500000000001,0.177348,0.02301,-0.06876
3.647500000000008,0.172775,0.031068,-0.064199
3.6500000000000057,0.168378,0.030979,-0.062525
3.6525000000000034,0.162045,0.038401,-0.057159
3.655000000000001,0.157882,0.033676,-0.054225
3.657499999999999,0.153459,0.03962,-0.050318
3.660000000000025,0.145315,0.04446,-0.046615
3.662500000000023,0.142407,0.049476,-0.04425
3.665000000000021,0.139297,0.045455,-0.040027
3.667500000000018,0.1334,0.045361,-0.037916
3.670000000000016,0.12937,0.047227,-0.034204
3.6725000000000136,0.121596,0.048313,-0.030446
3.6750000000000114,0.11951,0.049403,-0.026208
3.677500000000009,0.115111,0.050243,-0.022309
3.680000000000007,0.107164,0.051006,-0.023019
3.682500000000005,0.104017,0.047549,-0.017878
3.6850000000000014,0.096349,0.050274,-0.013837
3.6875,0.093751,0.047696,-0.009367
3.690000000000026,0.087938,0.04488,-0.008923
3.692500000000024,0.08261,0.044038,-0.001983
3.6950000000000216,0.07934,0.044414,0.003197
3.6975000000000193,0.071426,0.039769,0.003684
3.700000000000017,0.067956,0.035731,0.01004
3.702500000000015,0.061212,0.029285,0.013594
3.705000000000013,0.056606,0.026117,0.014397
3.70750000000001,0.0493,0.022789,0.020034
3.710000000000008,0.046725,0.015531,0.022901
3.7125000000000057,0.04205,0.012689,0.023722
3.7150000000000034,0.035924,0.003897,0.029577
3.717500000000001,0.032828,0.004169,0.033248
3.719999999999999,0.027189,0.003844,0.033922
3.722500000000025,0.021594,-0.008617,0.034714
3.725000000000023,0.011828,-0.010136,0.038593
3.727500000000021,0.008371,-0.01121,0.041918
3.730000000000018,0.006982,-0.010802,0.044892
3.732500000000016,-0.003946,-0.010802,0.046276
3.7350000000000136,-0.008717,-0.008099,0.046758
3.7375000000000114,-0.013702,-0.008342,0.0453
3.740000000000009,-0.019746,-0.004734,0.043545
3.742500000000007,-0.022876,-0.00536,0.041603
3.745000000000005,-0.025862,-0.004937,0.042819
3.7475000000000014,-0.029023,-0.002298,0.045835
3.75,-0.035013,-0.00335,0.041706
3.752500000000026,-0.036469,-0.001524,0.039912
3.755000000000024,-0.036629,-0.001061,0.037362
3.7575000000000216,-0.039323,-0.005448,0.037151
3.7600000000000193,-0.041063,0.000492,0.036586
3.762500000000017,-0.040598,-0.001748,0.033272
3.765000000000015,-0.044052,-0.004907,0.029662
3.767500000000013,-0.041077,-0.006534,0.027476
3.77000000000001,-0.038393,-0.006965,0.026929
3.772500000000008,-0.037463,-0.004286,0.025799
3.7750000000000057,-0.038458,-0.005607,0.021007
3.7775000000000034,-0.034523,-0.006868,0.02211
3.780000000000001,-0.03144,-0.004658,0.02194
3.782499999999999,-0.031611,-0.003894,0.017295
3.785000000000025,-0.031462,-0.002274,0.016452
3.787500000000023,-0.030613,-0.001667,0.016191
3.790000000000021,-0.029598,0.002263,0.014175
3.792500000000018,-0.028117,0.001097,0.01634
3.795000000000016,-0.029072,-0.002745,0.015882
3.7975000000000136,-0.025116,-0.000322,0.014589
3.8000000000000114,-0.0248,0.000831,0.010688
3.802500000000009,-0.02317,-0.001417,0.009351
3.805000000000007,-0.025807,-0.000314,0.011174
3.807500000000005,-0.021651,-0.000907,0.010813
3.8100000000000014,-0.022438,0.000817,0.010555
3.8125,-0.021032,0.000722,0.010378
3.815000000000026,-0.024082,-0.00547,0.008189
3.817500000000024,-0.022244,0.00092,0.009312
3.8200000000000216,-0.023729,0.002589,0.009637
3.8225000000000193,-0.022699,0.000217,0.007742
3.825000000000017,-0.024298,-0.001581,0.006761
3.827500000000015,-0.024147,-0.002703,0.008556
3.830000000000013,-0.023676,0.001279,0.01129
3.83250000000001,-0.029655,0.000917,0.009678
3.835000000000008,-0.02985,0.00217,0.012355
3.8375000000000057,-0.029005,-0.002332,0.009225
3.8400000000000034,-0.030351,-0.001904,0.00721
3.842500000000001,-0.031593,0.000972,0.005836
3.844999999999999,-0.034167,0.000157,0.008186
3.847500000000025,-0.033955,-0.002442,0.009666
3.850000000000023,-0.033814,-0.003161,0.010405
3.852500000000021,-0.040337,0.000576,0.008597
3.855000000000018,-0.038476,-4.6e-05,0.00957
3.857500000000016,-0.041254,-0.001988,0.012205
3.8600000000000136,-0.042097,-0.003201,0.007529
3.8625000000000114,-0.039877,0.000689,0.008271
3.865000000000009,-0.046645,-0.000523,0.009192
3.867500000000007,-0.043385,-0.000158,0.009792
3.870000000000005,-0.045334,-0.000568,0.009028
3.8725000000000014,-0.049943,-0.000273,0.005811
3.875,-0.044602,-0.001813,0.008161
3.877500000000026,-0.051263,-0.001028,0.009524
3.880000000000024,-0.050911,-0.001766,0.009301
3.8825000000000216,-0.050728,-0.00146,0.010251
3.8850000000000193,-0.051776,-0.000849,0.010259
3.887500000000017,-0.052196,-0.000997,0.008661
3.890000000000015,-0.053836,0.000679,0.006831
3.892500000000013,-0.052412,0.001375,0.008202
3.89500000000001,-0.053877,0.001042,0.007694
3.897500000000008,-0.051086,-0.002621,0.008682
3.9000000000000057,-0.051786,-0.000131,0.006539
3.9025000000000034,-0.051753,-0.000341,0.009003
3.905000000000001,-0.051187,0.002532,0.008889
3.907499999999999,-0.045685,-0.00163,0.008348
3.910000000000025,-0.047483,-0.002614,0.011597
3.912500000000023,-0.045282,0.00016,0.009761
3.915000000000021,-0.044613,0.000737,0.007028
3.917500000000018,-0.042383,-0.002451,0.005785
3.920000000000016,-0.041822,0.002494,0.010317
3.9225000000000136,-0.041214,-0.000243,0.007977
3.9250000000000114,-0.035638,-0.002699,0.007472
3.927500000000009,-0.035229,-0.002046,0.006642
3.930000000000007,-0.033717,-0.001749,0.003523
3.932500000000005,-0.032079,-0.001281,0.00659
3.9350000000000014,-0.026274,-0.001796,0.006176
3.9375,-0.024079,0.000433,0.005252
3.940000000000026,-0.018537,0.003307,0.006469
3.942500000000024,-0.016929,0.003018,0.006972
3.9450000000000216,-0.012723,0.000419,0.007059
3.9475000000000193,-0.011042,-0.000462,0.008728
3.950000000000017,-0.009766,0.000633,0.004981
3.952500000000015,-0.005184,0.002065,0.003738
3.955000000000013,-0.001945,-3e-06,0.005514
3.95750000000001,0.000266,0.00147,0.004304
3.960000000000008,0.005684,0.001053,0.004678
3.9625000000000057,0.005559,0.000977,0.002151
3.9650000000000034,0.007697,0.002118,0.003042
3.967500000000001,0.0107,0.00196,0.00406
3.969999999999999,0.01248,0.004566,0.001926
3.972500000000025,0.015552,0.002023,0.003592
3.975000000000023,0.016565,-0.001581,0.004198
3.977500000000021,0.015882,0.000133,0.001312
3.980000000000018,0.019973,0.001829,0.003005
3.982500000000016,0.023863,0.001521,0.001923
3.9850000000000136,0.023869,-1e-05,0.000662
3.9875000000000114,0.025683,-0.002435,0.001775
3.990000000000009,0.024111,0.002404,0.003674
3.992500000000007,0.026459,0.003823,0.002279
3.995000000000005,0.030344,0.00206,0.002965
3.9975000000000014,0.031755,0.002282,0.001516
4.0,0.028563,0.0026,-0.000162
4.002500000000026,0.032864,0.001869,0.001542
4.005000000000024,0.032523,0.003859,0.005808
4.007500000000022,0.030308,0.001831,0.004619
4.010000000000019,0.035299,0.004319,0.001263
4.012500000000017,0.036436,0.001974,0.00376
4.015000000000015,0.035699,6.6e-05,0.003431
4.0175000000000125,0.037832,0.001771,0.005328
4.02000000000001,0.038841,0.000591,0.004517
4.022500000000008,0.038149,-0.002645,0.002467
4.025000000000006,0.041118,0.000765,0.000439
4.027500000000003,0.040907,0.004385,0.002339
4.030000000000001,0.035914,0.003555,0.001139
4.032499999999999,0.038645,0.00319,-0.000229
4.035000000000025,0.040283,0.005049,0.001799
4.037500000000023,0.038544,-8.8e-05,-0.002129
4.0400000000000205,0.042888,0.000536,-0.001505
4.042500000000018,0.040526,-0.000559,0.001759
4.045000000000016,0.038443,0.00471,0.000492
4.047500000000014,0.041573,0.00409,-0.000758
4.050000000000011,0.041644,0.002114,-0.001378
4.052500000000009,0.039355,-0.000758,0.001428
4.055000000000007,0.038797,0.003209,-0.001115
4.0575000000000045,0.037224,0.002984,0.001463
4.060000000000002,0.037549,0.003199,0.001962
4.0625,0.035118,0.002959,0.002825
4.065000000000026,0.030676,0.001658,0.000969
4.067500000000024,0.032382,0.000309,0.002306
4.070000000000022,0.032558,0.00222,-2.4e-05
4.072500000000019,0.030038,0.004244,-0.001478
4.075000000000017,0.027398,0.001626,0.00095
4.077500000000015,0.025255,-0.001855,5.7e-05
4.0800000000000125,0.026401,-0.000827,-0.000675
4.08250000000001,0.026324,0.000449,0.00229
4.085000000000008,0.024634,0.000995,0.000881
4.087500000000006,0.021195,0.001828,0.001182
4.090000000000003,0.019249,0.001941,0.001384
4.092500000000001,0.016113,0.003899,0.001176
4.094999999999999,0.016306,0.001078,-0.000778
4.097500000000025,0.013866,-0.001353,0.00147
4.100000000000023,0.011819,-0.000525,0.003616
4.1025000000000205,0.015422,-0.000201,0.000565
4.105000000000018,0.010059,0.003543,0.002918
4.107500000000016,0.008027,0.002619,-6e-06
4.110000000000014,0.007098,0.001372,0.001166
4.112500000000011,0.004389,-0.001699,-0.001089
4.115000000000009,0.008538,7.1e-05,0.000485
4.117500000000007,0.002792,0.003657,0.001239
4.1200000000000045,0.003809,0.001239,0.004787
4.122500000000002,0.002361,0.000248,0.000858
4.125,-0.001855,0.001677,0.00251
4.127500000000026,-0.003281,0.001306,0.001771
4.130000000000024,-0.00383,0.000121,0.001105
4.132500000000022,-0.0036,0.002613,0.001701
4.135000000000019,-0.006436,-0.002119,0.003193
4.137500000000017,-0.006689,-0.000116,0.000981
4.140000000000015,-0.008906,0.002154,0.000945
4.1425000000000125,-0.012267,0.000679,-0.001304
4.14500000000001,-0.012052,0.000555,-0.002898
4.147500000000008,-0.007938,-7.3e-05,0.002804
4.150000000000006,-0.011408,0.002455,0.000366
4.152500000000003,-0.013535,0.005329,0.001415
4.155000000000001,-0.017878,0.001634,0.003894
4.157499999999999,-0.01674,-0.002162,0.003757
4.160000000000025,-0.010729,0.004201,-0.000741
4.162500000000023,-0.014567,0.005148,0.00103
4.1650000000000205,-0.012852,-0.001234,0.003121
4.167500000000018,-0.017004,0.002133,0.000279
4.170000000000016,-0.011946,-0.002789,-0.001054
4.172500000000014,-0.015636,-0.000292,0.006709
4.175000000000011,-0.015754,0.002358,-0.000183
4.177500000000009,-0.01691,0.001843,0.004279
4.180000000000007,-0.014028,-0.000447,-0.000498
4.1825000000000045,-0.016326,-0.001013,-0.001657
4.185000000000002,-0.012648,0.000254,0.003736
4.1875,-0.014703,0.001483,0.003657
4.190000000000026,-0.010969,0.000737,0.002227
4.192500000000024,-0.010036,0.002568,0.002208
4.195000000000022,-0.012946,-0.000562,0.00105
4.197500000000019,-0.00931,0.003318,0.003516
4.200000000000017,-0.00999,0.001023,0.000384
4.202500000000015,-0.009778,0.000671,0.001664
4.2050000000000125,-0.005825,-0.001337,0.000877
4.20750000000001,-0.007351,-0.000253,0.003845
4.210000000000008,-0.005211,0.000576,0.001618
4.212500000000006,-0.006226,0.002078,-0.001603
4.215000000000003,-0.005193,0.001673,0.00264
4.217500000000001,-0.006789,0.001884,0.001984
4.219999999999999,-0.002426,0.000554,-0.00037
4.222500000000025,0.000191,0.004981,0.000953
4.225000000000023,-0.003216,0.002073,0.001719
4.2275000000000205,-0.001024,-0.001432,0.002751
4.230000000000018,-0.001378,0.000448,0.000756
4.232500000000016,0.002263,-0.001468,0.000823
4.235000000000014,0.002339,-0.000787,0.001825
4.237500000000011,-0.000483,0.001828,0.000853
4.240000000000009,-0.00041,0.001996,0.003151
4.242500000000007,0.004335,0.001781,0.003191
4.2450000000000045,0.004762,0.002576,0.002257
4.247500000000002,0.001758,-0.002208,0.000929
4.25,0.005878,0.004714,0.001215
4.252500000000026,0.004194,-0.001596,0.001841
4.255000000000024,0.005769,0.002448,0.003939
4.257500000000022,0.006614,0.000415,0.00082
4.260000000000019,0.00821,-2.2e-05,0.001664
4.262500000000017,0.007942,0.000728,0.003607
4.265000000000015,0.009344,-1.8e-05,-0.000648
4.2675000000000125,0.01064,0.001114,0.000975
4.27000000000001,0.009076,0.004498,-0.000139
4.272500000000008,0.011181,0.002148,0.003023
4.275000000000006,0.013231,0.001714,-0.000557
4.277500000000003,0.0108,0.002225,-0.000748
4.280000000000001,0.009456,0.001184,6.3e-05
4.282499999999999,0.007696,-0.002445,0.003111
4.285000000000025,0.008795,0.004619,0.000813
4.287500000000023,0.011683,0.000993,0.004501
4.2900000000000205,0.010367,0.000917,0.003473
4.292500000000018,0.011048,-0.000276,0.000817
4.295000000000016,0.006206,0.002114,-0.000376
4.297500000000014,0.00524,-0.000387,0.001458
4.300000000000011,0.00981,0.003376,-0.000794
4.302500000000009,0.00863,0.000366,-0.000274
4.305000000000007,0.00821,0.000776,0.000816
4.3075000000000045,0.007755,0.002342,0.001908
4.310000000000002,0.005106,6.5e-05,-0.003339
4.3125,0.007268,0.001325,0.001847
4.315000000000026,0.005791,0.004225,-0.001134
4.317500000000024,0.002935,-0.001259,0.000336
4.320000000000022,0.009806,0.002899,0.003032
4.322500000000019,0.00449,0.002374,0.00135
4.325000000000017,0.003804,-0.000411,0.002872
4.327500000000015,0.004584,0.000804,0.000335
4.3300000000000125,0.001737,0.004119,0.003239
4.33250000000001,0.003923,0.001427,-0.000563
4.335000000000008,0.000869,-0.00082,5e-06
4.337500000000006,0.003203,0.001154,0.00108
4.340000000000003,0.001972,0.000731,0.001702
4.342500000000001,0.002594,0.000664,0.002383
4.344999999999999,0.0007,0.001379,-0.000818
4.347500000000025,-0.001182,0.00051,-0.00165
4.350000000000023,-0.00034,0.001862,-0.001504
4.3525000000000205,-0.001362,0.000601,-0.002149
4.355000000000018,-0.002314,-0.003088,0.004029
4.357500000000016,0.000644,0.001784,0.002322
4.360000000000014,-0.000709,0.0022,0.000956
4.362500000000011,-0.002216,0.001854,0.000434
4.365000000000009,-0.003293,0.002172,0.002886
4.367500000000007,-0.003697,-0.001279,1.3e-05
4.3700000000000045,-0.002784,-0.000536,0.001519
4.372500000000002,-0.000635,-0.000444,-0.003609
4.375,-0.001971,0.002678,0.000364
4.377500000000026,-0.002266,-0.003275,-0.002281
4.380000000000024,-0.004847,0.000385,0.000956
