time,Gyr_X,Gyr_Y,Gyr_Z
0.0,-0.001970895830934,-0.0008184694622136,-0.0190757494785308
0.0099999999999909,-0.009771322502678,-0.0090687663188853,-0.0213183666536327
0.0200000000000102,-0.0090471692359762,-0.0154464288157449,-0.0271641282440929
0.0300000000000011,-0.0095629689326806,-0.0167790408076801,-0.0218833820206732
0.039999999999992,-0.010760848781442,-0.0195352572496569,-0.0217585158760207
0.0500000000000113,-0.0092756036283729,-0.0254743887386189,-0.0206185079397368
0.0600000000000022,-0.010378043372386,-0.0294627816698143,-0.0245399214181522
0.0699999999999931,-0.0031895001044564,-0.0345028771016573,-0.0186287547083449
0.0800000000000125,-0.0082551174327065,-0.0343211610410983,-0.0164845942461115
0.0900000000000034,-0.0092771063229684,-0.0302578905910896,-0.0115536039593551
0.0999999999999943,-0.0118297181668118,-0.0345522354171392,-0.0071429723196935
0.1100000000000136,-0.0109688194558117,-0.0355621795823212,-0.0180219983042777
0.1200000000000045,-0.005200734237734,-0.0377716321422785,-0.0044944943131414
0.1299999999999954,0.0019436701979968,-0.0356814335068542,0.0017615788399276
0.1400000000000147,-0.00010299907642,-0.0319896163377097,0.0043413350888951
0.1500000000000056,0.0123431383078351,-0.0284361563862863,0.0051365191322917
0.1599999999999966,0.0098444540768356,-0.0244687332732568,0.0068572769078942
0.1699999999999875,0.005090069028475,-0.0220722291053792,0.0062672124296396
0.1800000000000068,-0.0052086151469771,-0.0150933332752367,0.0114249037447878
0.1899999999999977,-0.0134355878011692,-0.017812486535677,0.0118256697217384
0.1999999999999886,-0.0090207693987232,-0.0079064312334825,0.0065272414327851
0.2100000000000079,-0.0126439977682167,-0.0022584727441415,0.0066671112852245
0.2199999999999988,-0.0105487720230464,-0.0034278868040258,0.0095659298622906
0.2299999999999897,-0.0090951448266671,-0.0037304004961179,0.0105181437382535
0.2400000000000091,0.0027543258634368,-0.0078444983476961,0.0160545006921479
0.25,0.0073255616625853,-0.0017563819042032,0.0191020864480692
0.2599999999999909,0.0147988854488171,0.0021007599113441,0.0238477007678893
0.2700000000000102,0.0125940914921196,0.0042228777658059,0.0278969376187771
0.2800000000000011,0.0093670227546168,0.0098948506206318,0.026108619343514
0.289999999999992,0.0083964485013235,0.0073327105538152,0.0308331312849364
0.3000000000000113,0.0087191771848577,0.0109952235095048,0.0297079990582587
0.3100000000000023,0.0080040980485001,0.0141348634164553,0.0275193489555905
0.3199999999999932,-0.0103780650893476,0.0167111634009034,0.0262230424352272
0.3300000000000125,0.0006223031341363,0.0192756599155073,0.0191000905460123
0.3400000000000034,-0.0038445058415521,0.018550968434053,0.0130659004320586
0.3499999999999943,0.0011483353030214,0.0131832173844802,0.008080602659
0.3600000000000136,0.0088626878757433,0.0145285083746147,0.0075373027691758
0.3700000000000045,0.0143496794516227,0.0054236474627524,0.0039125209647835
0.3799999999999954,0.0159945655378466,0.0002517848709791,0.0031828275519495
0.3900000000000148,0.0148630900261805,0.0020105365339062,0.0041631746797945
0.4000000000000057,0.0160523160021429,-0.0050320092398877,-0.0004413247819458
0.4099999999999966,0.0174882418078926,-0.0187202271845676,0.0023011929430791
0.4199999999999875,0.0155978042695273,-0.0279217481657468,0.0012105651999954
0.4300000000000068,0.0143249809108584,-0.0279587712729254,0.0043748269184193
0.4399999999999977,0.0065171316324496,-0.0364250492965043,0.0083784710885711
0.4499999999999886,0.0102078237303577,-0.0415092278434206,0.0078177620771207
0.4600000000000079,0.0095715599859659,-0.0456507067277656,0.0157905849860434
0.4699999999999988,-0.0067018567942371,-0.050491042129344,0.0236130292749128
0.4799999999999897,-0.0097329488608112,-0.0511842988242971,0.0298430516402821
0.4900000000000091,-0.0064258634578401,-0.0550953262938627,0.0335215764834648
0.5,-0.009180103172097,-0.0626853183828739,0.0348753585452163
0.5099999999999909,-0.0070504071850027,-0.0609347556737695,0.0438858968612188
0.5200000000000102,-0.0049076701424532,-0.0625200549348613,0.0441415617362083
0.5300000000000011,-0.0103574275255719,-0.0629178279515445,0.0407295246757743
0.539999999999992,-0.0096033731549166,-0.0633686242147616,0.0526327077996784
0.5500000000000114,-0.0098875609773958,-0.063425614332545,0.0545884063291747
0.5600000000000023,-0.010126332699828,-0.0667531766224589,0.0578628344269858
0.5699999999999932,-0.0095732923252419,-0.05747728749001,0.0588369042532348
0.5800000000000125,-0.0105740319996896,-0.0455662848895834,0.0555152955446034
0.5900000000000034,0.0018470979916169,-0.0490265095699751,0.0597679658710734
0.5999999999999943,0.0004201474179166,-0.0450021011443227,0.0549132889129755
0.6100000000000136,0.0036292174168349,-0.0395537574396054,0.0553419833090611
0.6200000000000045,-0.008196069698383,-0.0248768886213437,0.0525303595903658
0.6299999999999955,-0.0023372789161548,-0.0220938053410164,0.0524397502622558
0.6400000000000148,0.0069794006136483,-0.009108876261858,0.0549997893445631
0.6500000000000057,0.0055126806988076,-0.0143474884150114,0.0556102492806055
0.6599999999999966,0.0126633980957618,-0.0064952161090056,0.0604106096572061
0.6699999999999875,0.0124834045978586,0.0010351635602194,0.0562226905283786
0.6800000000000068,0.019876665872443,-0.0003389299131894,0.0603251879203173
0.6899999999999977,0.0248915988339627,0.0048446542299603,0.0579068528072014
0.6999999999999886,0.0211055931510675,0.009513439722244,0.0652344463336725
0.710000000000008,0.0179721554808889,0.0088062520211742,0.0637780983654484
0.7199999999999989,0.0155405111223274,0.0068076706562867,0.0644484817436067
0.7299999999999898,0.0168921856209339,0.0079763911224857,0.0643448580545148
0.7400000000000091,0.0123494486595959,0.0007891035728384,0.0583250002258183
0.75,0.0087372172917479,-0.0024746712941527,0.0599176923939176
0.7599999999999909,0.0025977824348178,-0.0120076296472019,0.0586881380612289
0.7700000000000102,0.0030443779150879,-0.0258271275442869,0.0600366974805581
0.7800000000000011,0.0065315480152204,-0.0313637579052874,0.0583699269817417
0.789999999999992,0.0080803968438834,-0.0456744885653063,0.0639199848109594
0.8000000000000114,0.0051592561436119,-0.0529138299528279,0.05993937296484
0.8100000000000023,0.0088670385749036,-0.0602679082901919,0.0693349346866442
0.8199999999999932,0.0162849908018498,-0.0616331880078933,0.0656885515356816
0.8300000000000125,0.0128560947049668,-0.0683296280572362,0.0775820579769878
0.8400000000000034,0.0159331274745053,-0.0668068833658878,0.0838567447629339
0.8499999999999943,0.001535603019853,-0.0656034637321677,0.073222169453673
0.8600000000000136,-0.0055628363702927,-0.0601248597400355,0.0784488984540139
0.8700000000000045,-0.0096459206036532,-0.04859258086875,0.0774247472920789
0.8799999999999955,-0.0160563771842375,-0.0437711649387838,0.0697733230385659
0.8900000000000148,-0.0076382092753876,-0.0339280905110123,0.0724124570605411
0.9000000000000057,-0.0111932096668348,-0.0255692837348001,0.0633362460054424
0.9099999999999966,0.0069460641638075,-0.0207714521841356,0.0706370373591562
0.9199999999999876,0.0190636881126583,-0.0163651914043144,0.0736473618743234
0.9300000000000068,0.0230552570732371,-0.0154124052502238,0.0653411392831479
0.9399999999999976,0.0410082101868928,-0.0019423368053603,0.0633434219281454
0.9499999999999886,0.0401280632839515,-0.0006506762700536,0.0600585779845034
0.960000000000008,0.0381504496729455,0.0005604687493389,0.0602248345089363
0.9699999999999988,0.0368066402719199,0.0099814240598433,0.0590888658023779
0.9799999999999898,0.0292796263137942,0.0184869809185952,0.0604252868480044
0.9900000000000092,0.0372976953459357,0.0238895127936677,0.0591196029045896
1.0,0.0289992353232751,0.0259768437776492,0.0596400073903315
1.009999999999991,0.0333560376297301,0.0326988315244584,0.0602247291753779
1.0200000000000102,0.0373930284156191,0.0383328688799517,0.0677518676939357
1.0300000000000011,0.0224454299952633,0.0388993135859103,0.0752555386521109
1.039999999999992,0.0147501371690836,0.0468603200067566,0.0801935950710776
1.0500000000000114,0.0138809777561305,0.0444687317548618,0.0864886010050869
1.0600000000000025,0.0115757361198214,0.0429730462256877,0.0850469176289456
1.0699999999999932,0.0158942617742403,0.0406058299558513,0.0843992633093099
1.0800000000000125,0.0162288609129703,0.0325658377408863,0.1038299801547177
1.0900000000000034,0.0327577584341908,0.0296100868993054,0.1143393810347035
1.0999999999999943,0.0347487508693854,0.0271949008135166,0.1213151267641571
1.1100000000000136,0.0301948411853197,0.0242192465366763,0.1358932595512072
1.1200000000000043,0.0157211612456676,0.0188450358161115,0.1372136194147934
1.1299999999999957,0.0019393117033763,0.0067677107067515,0.1412959156527082
1.1400000000000148,-0.0116436245185338,0.004507121310823,0.1519103283778715
1.1500000000000057,-0.0074473810408234,-0.0054093065475773,0.1709603744575155
1.1599999999999966,-0.0090121979871543,-0.0134554055697766,0.1908699391331496
1.1699999999999875,-0.0080663518446108,-0.0294160691313216,0.1882478860094537
1.1800000000000068,-0.0088134208152208,-0.029351428951262,0.1916072015381589
1.1899999999999975,-0.0085133678307934,-0.0376908273837632,0.206521896212741
1.1999999999999886,-0.0084063946814723,-0.045514988983913,0.2184025002462919
1.210000000000008,-0.009984277752541,-0.0458617088671292,0.2161177317771662
1.2199999999999989,-0.0132392198877794,-0.0384964861925346,0.2361230877002851
1.2299999999999898,-0.0228294777430136,-0.0327764892465708,0.2289126339271056
1.240000000000009,-0.0388391189223344,-0.0322340972524776,0.2333535525221611
1.25,-0.0521288625409748,-0.0211392568947524,0.24410651740887
1.259999999999991,-0.0625375493534747,-0.0197506485957437,0.2424882204715248
1.2700000000000102,-0.0765805459866891,-0.0153085471167377,0.2438006859020666
1.2800000000000011,-0.0838767396774545,-0.0089094492608402,0.2575711501589314
1.289999999999992,-0.0882833228126396,0.0020920459944344,0.2681755028259367
1.3000000000000114,-0.1072632029080138,0.0101692384451835,0.2699704912372271
1.3100000000000025,-0.1129400453268156,0.0226916393260995,0.2828417233258493
1.3199999999999932,-0.1279320872793928,0.0393982209274488,0.2949252740502446
1.3300000000000125,-0.1390379282178816,0.0573819224089687,0.2924907127024954
1.3400000000000034,-0.1383425129149603,0.0718680363686292,0.3059694128501648
1.3499999999999943,-0.1575542930105185,0.0858993395637672,0.3208973972207832
1.3600000000000136,-0.1651460899985727,0.1079116894315784,0.3366996226058282
1.3700000000000043,-0.1759382044807016,0.1273186357723476,0.3492914579877109
1.3799999999999957,-0.1988496162077851,0.1537841917486485,0.3504147303099803
1.3900000000000148,-0.2422864989557584,0.1820974658213475,0.3445586020094689
1.4000000000000057,-0.266940573578963,0.2092495091618232,0.3455621017973321
1.4099999999999966,-0.2838293120873823,0.234502325017204,0.3655545867350835
1.4199999999999875,-0.2939528604849221,0.2533295951700228,0.3786711436993439
1.4300000000000068,-0.3072216185884623,0.2657626305022544,0.4062477306998812
1.4399999999999975,-0.3165250682922852,0.272672828778598,0.4338676585531386
1.4499999999999886,-0.3006321682200875,0.2798975442023759,0.452197567503054
1.460000000000008,-0.2888888190039902,0.2797082257607685,0.4865042073842152
1.4699999999999989,-0.270255336838208,0.2819149586174954,0.5099746617158831
1.4799999999999898,-0.2436808159932,0.2653599805935877,0.5340573697888158
1.490000000000009,-0.2395877934924283,0.2700985366905392,0.553380391376868
1.5,-0.2084277299154417,0.2685248476840421,0.5614206976745415
1.509999999999991,-0.1867723054036643,0.2657130212216582,0.5750746103801415
1.5200000000000102,-0.1623603433741157,0.2669597406345153,0.5930945288140314
1.5300000000000011,-0.1228229424577402,0.2716362139650371,0.6101742849977286
1.539999999999992,-0.1059832564398402,0.2829124098471881,0.6303887052513812
1.5500000000000114,-0.0905673619096332,0.2868775439038283,0.6509635928322236
1.5600000000000025,-0.0850741930165759,0.2957630260851361,0.6707016278859192
1.5699999999999932,-0.08308693669091,0.3138696816027879,0.6895154150201134
1.5800000000000125,-0.0877507734746552,0.3298904377326217,0.7058825556414225
1.5900000000000034,-0.1036740449439182,0.3490077105871526,0.7234057202614008
1.5999999999999943,-0.1329341135536025,0.3747525521732123,0.7374007804607793
1.6100000000000136,-0.1655280590808509,0.3961524667109792,0.7545697838061379
1.6200000000000043,-0.1948788692526442,0.414313830134818,0.7739555251500152
1.6299999999999957,-0.2083236339627253,0.4320980664355206,0.7868307285229594
1.6400000000000148,-0.2257080036697344,0.4455377655561268,0.8007690117911404
1.6500000000000057,-0.2553443212023124,0.4510036652173536,0.812592138838706
1.6599999999999966,-0.294162010241594,0.458084425404303,0.800318729940831
1.6699999999999875,-0.3368358610857243,0.4767320508566066,0.790114083145736
1.6800000000000068,-0.3835843345864869,0.4854269326731163,0.7735685197429548
1.6899999999999975,-0.5064679539348919,0.4638614592061215,0.7748704579828337
1.6999999999999886,-0.6163114818750768,0.3908028841152837,0.8030320219115242
1.710000000000008,-0.6354818533329037,0.3380551781697897,0.8136016696592518
1.7199999999999989,-0.6097427428634099,0.3024220426623776,0.8122758233539077
1.7299999999999898,-0.596572476559289,0.2409501799702339,0.8058663842097378
1.740000000000009,-0.5951133637145487,0.1867812796077949,0.7929889143567882
1.75,-0.5991779523819244,0.1353972028823801,0.7838391267979309
1.759999999999991,-0.6172523485869146,0.0660596223856659,0.7863041475615429
1.7700000000000102,-0.6410918442569052,0.0010166229341219,0.7826651301174439
1.7800000000000011,-0.6974029377128066,-0.0730218178885891,0.7816310615908701
1.789999999999992,-0.7491391818882202,-0.1520178359534442,0.7644016981161634
1.8000000000000114,-0.7760131946150651,-0.2314204253877115,0.7485144623592439
1.8100000000000025,-0.7830686038338507,-0.3007241142082897,0.7214229211910491
1.8199999999999927,-0.746781849963062,-0.354516091645262,0.7009829674365051
1.8300000000000125,-0.6890758099937714,-0.4035307590576474,0.6727517486702722
1.8400000000000036,-0.613835144830138,-0.4508654528034065,0.6487550895414943
1.8499999999999943,-0.531383229561136,-0.4846068365881827,0.6223743896577242
1.8600000000000136,-0.4345452746953622,-0.5004305795745203,0.5888349609826741
1.8700000000000043,-0.3556801995959778,-0.5151488276289542,0.570004968660577
1.8799999999999957,-0.2838891521995401,-0.506434478499541,0.5444672488538169
1.8900000000000148,-0.223622210540999,-0.4900406371991109,0.5175430348571244
1.9000000000000057,-0.1788009253913761,-0.4585146834490926,0.4955595307801411
1.9099999999999968,-0.1559119902407619,-0.4274282454942767,0.4734780116116754
1.9199999999999875,-0.1284738669513688,-0.3867025062036203,0.4590234533740012
1.9300000000000068,-0.0821174083698656,-0.3399979256462839,0.4459478357413341
1.9399999999999975,-0.0193804998455619,-0.2831698954282646,0.433900756822983
1.9499999999999889,0.0026024036095696,-0.2490347031793678,0.4120868056692911
1.960000000000008,-0.003704119223767,-0.2127336776414141,0.3954987435808542
1.9699999999999989,-0.0242748889139207,-0.1867651915231682,0.3879961761121344
1.9799999999999895,-0.0677259335070915,-0.1445063803160891,0.3768546525466662
1.990000000000009,-0.0868030879093201,-0.0975001490258642,0.3873862535460881
2.0,-0.0774363806345908,-0.0510408483225623,0.3872472892712437
2.009999999999991,-0.0466332997359109,-0.0081975586591402,0.3800866596430631
2.0200000000000102,0.0123289990342613,0.0211233308347737,0.3729372482124449
2.030000000000001,0.0821612860140148,0.0622962689198635,0.3561224826270685
2.039999999999992,0.1527528066563777,0.0982451882416898,0.3345131429747154
2.050000000000012,0.1723146458311827,0.102703413344301,0.3199147684284886
2.0600000000000023,0.1533378955793634,0.1008135779846288,0.3281876214213903
2.069999999999993,0.1128200293650047,0.0669436271262797,0.346123035606095
2.0800000000000125,0.0520617444571108,0.0328431661596064,0.3674728228324035
2.0900000000000034,-0.0117468104484896,-0.0162928632823584,0.397934449271899
2.0999999999999943,-0.0696228350131184,-0.0654157120325589,0.4212322031157781
2.1100000000000136,-0.1065682001747431,-0.1126150844310417,0.4466862192754214
2.1200000000000045,-0.1095729031592871,-0.1461817386686034,0.4798740722413462
2.1299999999999955,-0.092601349734331,-0.1837240923482869,0.511256997122925
2.140000000000015,-0.0640026673887559,-0.1993105850755197,0.5399218853838236
2.1500000000000057,-0.0078376856756518,-0.1760509036003053,0.5618526919288825
2.1599999999999966,0.0645740357350887,-0.1326661312992007,0.5860718656494376
2.1699999999999875,0.1297949085221026,-0.0953474878967087,0.6000720147861988
2.180000000000007,0.1712439996787821,-0.0619587186281023,0.6299405045387217
2.1899999999999977,0.1987164365473825,-0.0414636971412666,0.669968858906452
2.1999999999999886,0.1878124550430135,-0.0301497720197673,0.7120879970486143
2.210000000000008,0.1536858187814669,-0.0287899518741988,0.7585001628287915
2.219999999999999,0.1033359209995482,-0.0290492046215832,0.8161888381869564
2.2299999999999898,0.0387437773811491,-0.0253725700878389,0.8849270997654787
2.240000000000009,-0.0159714551888752,-0.0395295345772146,0.9352442736212588
2.25,-0.07201760402263,-0.0636673888326781,0.9774724365583126
2.259999999999991,-0.1517242929487585,-0.0940775551941394,0.9648444348098352
2.2700000000000102,-0.2116549505573562,-0.1330709993876567,0.9465904957789968
2.280000000000001,-0.2497272525422419,-0.1582052655510254,0.9250552471169468
2.289999999999992,-0.2770351147743583,-0.1859222495273102,0.9013637964584968
2.300000000000012,-0.3021553525304268,-0.1967994006500267,0.8793964029276868
2.3100000000000023,-0.3125858968435086,-0.201858848116634,0.8501902709638666
2.319999999999993,-0.2919824652428759,-0.2089019985213883,0.8232532136554247
2.3300000000000125,-0.2796886602840984,-0.2205892953041022,0.8037249868446467
2.3400000000000034,-0.2410469965707222,-0.2473259727836221,0.7834039453522129
2.3499999999999943,-0.208919026124006,-0.279531761238782,0.7673805090217765
2.3600000000000136,-0.1833737005764751,-0.3103407250117219,0.7601956031185038
2.3700000000000045,-0.15958833212858,-0.3588693652556048,0.7479613363776674
2.3799999999999955,-0.1655805808535732,-0.4094847356223673,0.7484538842769264
2.390000000000015,-0.1860550833888123,-0.4418169632013912,0.7415735788190265
2.4000000000000057,-0.2085182338742024,-0.4936018260322976,0.7518270874359804
2.4099999999999966,-0.2101175308090934,-0.5234393907789363,0.7688125362794909
2.4199999999999875,-0.1875239251132351,-0.5420371875612687,0.7862660058901091
2.430000000000007,-0.1397565109103086,-0.5337240618613254,0.81872359724837
2.4399999999999977,-0.1011400988074761,-0.5282612183114633,0.8248230227097717
2.4499999999999886,-0.0681422795234575,-0.5245664810256735,0.8230984287249183
2.460000000000008,-0.0573566800733139,-0.5195624668073404,0.8246384481609939
2.469999999999999,-0.0641984491991708,-0.5229450653179285,0.8236150137845932
2.4799999999999898,-0.0603004795203232,-0.5156204746702326,0.8197332160157202
2.490000000000009,-0.0865657411209448,-0.5032830165643053,0.8098754714146296
2.5,-0.106051431830625,-0.4936184645789473,0.7991894397597789
2.509999999999991,-0.1153103866357546,-0.4832025333503083,0.789596100834484
2.5200000000000102,-0.134954429723927,-0.4624232259787411,0.7593619971024801
2.530000000000001,-0.1527577438686981,-0.447161448273582,0.7404736573126666
2.539999999999992,-0.1609320854250255,-0.4323416977940588,0.708102481037331
2.550000000000012,-0.1481656172443939,-0.4114970139229846,0.6798350604160404
2.5600000000000023,-0.1389289682122169,-0.390407043591072,0.6478621264758581
2.569999999999993,-0.1365798948114341,-0.373806528899786,0.615919263644885
2.5800000000000125,-0.1341162544084723,-0.3621576227360266,0.5895024244715353
2.5900000000000034,-0.1585340708921207,-0.3456661524485716,0.5647512257329788
2.5999999999999943,-0.1697688801960526,-0.3408366598301328,0.5306854781770061
2.6100000000000136,-0.1849262147584519,-0.3286358336657061,0.5050330375957751
2.6200000000000045,-0.1866347954502953,-0.3054988408299415,0.4845339892238595
2.6299999999999955,-0.16992853959416,-0.2709377061176121,0.4614192953759889
2.640000000000015,-0.1415082045640608,-0.238569993953935,0.4520661018224834
2.6500000000000057,-0.1328474420075062,-0.2013353622894765,0.4540893943996579
2.6599999999999966,-0.1142958060384206,-0.1618998227916254,0.4452658427370461
2.6699999999999875,-0.108768926211824,-0.1386175981833258,0.4544558688186079
2.680000000000007,-0.113930348944344,-0.1229343331415963,0.4689629305634194
2.6899999999999977,-0.1059463723798671,-0.1122186768941759,0.4840162626736424
2.6999999999999886,-0.102540710766111,-0.0970097435781179,0.5040549961449358
2.710000000000008,-0.0899280627735362,-0.0725963812914062,0.5069217670815205
2.719999999999999,-0.0766060496507532,-0.055228808876071,0.513639942143169
2.7299999999999898,-0.081930562214381,-0.0283644921602654,0.5240609433819795
2.740000000000009,-0.0804304326810218,-0.0122988279224514,0.5253226015715329
2.75,-0.0837694599004632,0.0095207932938378,0.5129649297262748
2.759999999999991,-0.06923384776073,0.0349640436017078,0.5077569176989588
2.7700000000000102,-0.0568173971221972,0.0455071193033049,0.5034752692482614
2.780000000000001,-0.0512022781163479,0.0554833647978447,0.4875268394688917
2.789999999999992,-0.0405526420407236,0.060652454833661,0.4788872337729225
2.800000000000012,-0.0329452449014684,0.077896052782357,0.4686100832679428
2.8100000000000023,-0.034396618006623,0.0972798636147359,0.4511018153573328
2.819999999999993,-0.0441511212044511,0.1144530484605948,0.4490121915815636
2.8300000000000125,-0.050422221294453,0.1455721857209786,0.4480841143880593
2.8400000000000034,-0.057579569050426,0.178301232523725,0.4508581830349318
2.8499999999999943,-0.0679093161673051,0.2105682326340172,0.4500239300869623
2.8600000000000136,-0.0900832516265103,0.2425887380163877,0.4372271906253767
2.8700000000000045,-0.1096834848740801,0.2772533455036959,0.4325981129868755
2.8799999999999955,-0.1180815090226863,0.3185698720700198,0.4309527772990877
2.890000000000015,-0.1470521868893851,0.3288949883236234,0.4155425925883779
2.9000000000000057,-0.1935605439985798,0.342695268229761,0.3987907650678735
2.9099999999999966,-0.2201754026473455,0.3569061375114335,0.4006634757709468
2.9199999999999875,-0.254861024474803,0.364963151531802,0.4108447229977718
2.930000000000007,-0.2686243286175266,0.3839364948904933,0.4392668158856918
2.9399999999999977,-0.2725356183668508,0.4073170440071459,0.4495641541907441
2.9499999999999886,-0.3199524137695702,0.38169849163511,0.43719299318476
2.960000000000008,-0.3411931824045601,0.3509217969790308,0.4167340266078496
2.969999999999999,-0.3429789413645762,0.3435626929378583,0.4388085238644956
2.9799999999999898,-0.3302939943670481,0.3484507810402055,0.4730842820128422
2.990000000000009,-0.3109558473671115,0.3467253270846803,0.503702282564372
3.0,-0.2932274592124,0.3470594328910578,0.5339945566329148
3.009999999999991,-0.2944527963697769,0.3198191470867725,0.5480471322988321
3.0200000000000102,-0.2905645306269888,0.2822967658904855,0.5573409739919367
3.030000000000001,-0.2492188637476229,0.274186141035742,0.5906744932505432
3.039999999999992,-0.1937104638989891,0.25977746360374,0.6389930507441218
3.050000000000012,-0.1637702098382278,0.2212635255803027,0.6896771474882609
3.0600000000000023,-0.1484272403928394,0.1741224657562786,0.705319930735074
3.069999999999993,-0.1728066347386447,0.1414766564708932,0.7397456422067699
3.0800000000000125,-0.1863239769466722,0.1358635826158448,0.7692238839404288
3.0900000000000034,-0.1631037624507701,0.1440113287407095,0.7725470759202241
3.0999999999999943,-0.1800007238754894,0.1600056571324076,0.785360176661848
3.1100000000000136,-0.1343208053334685,0.1647002359690247,0.7825599361863562
3.1200000000000045,-0.1051837419487602,0.1659246475085517,0.7708808037903803
3.1299999999999955,-0.0874939278883306,0.1504072064173092,0.7881758727106848
3.140000000000015,-0.0436261549603146,0.1272863239003047,0.7811762132454774
3.1500000000000057,0.0154902658197495,0.0858485430664935,0.7559664200833434
3.1599999999999966,0.0715582826514589,0.0550608910603222,0.7211948440905348
3.1699999999999875,0.1282167821209207,0.0233205851652678,0.6908474114172695
3.180000000000007,0.1674960022533598,-0.0092952232977704,0.6536662762058904
3.1899999999999977,0.2051249817329711,-0.0430529623805085,0.6139455555633495
3.1999999999999886,0.2726086479432633,-0.0686777218260087,0.5910152238329522
3.210000000000008,0.349854451487589,-0.086073241462722,0.5753656039328964
3.219999999999999,0.4593524714881641,-0.1035580404307111,0.5648121683695434
3.2299999999999898,0.5567909600735036,-0.1161209892687141,0.5520475425285113
3.240000000000009,0.6435802046110741,-0.1368501967333724,0.5403484429761866
3.25,0.7078116190917482,-0.163443046296906,0.542139702275784
3.259999999999991,0.7556529449085009,-0.1972532071780248,0.5476425483922769
3.2700000000000102,0.7772356163465093,-0.2020326340026501,0.5446469942728382
3.280000000000001,0.7945255949816911,-0.1761855816040026,0.5400147314582666
3.289999999999992,0.8094900307215195,-0.1396358854451952,0.5403697287088538
3.300000000000012,0.8142869303681693,-0.1005246841831072,0.5370271591637199
3.3100000000000023,0.8078135974550621,-0.0678116813827429,0.5323860424713132
3.319999999999993,0.7889374326234742,-0.0361587969513478,0.5274364635825103
3.3300000000000125,0.7721332259483458,-0.0119589775329663,0.5171091695550241
3.3400000000000034,0.7240345974570751,0.0061049895195854,0.5129263950778024
3.3499999999999943,0.6528233051455776,0.009924615859291,0.5102703034887116
3.3600000000000136,0.5793560163234251,0.0390504123808675,0.4965073466151519
3.3700000000000045,0.5205690854472239,0.0788345950923481,0.4839426448273008
3.3799999999999955,0.471500840816058,0.1124020607859325,0.4824717545647934
3.390000000000015,0.4483459795836111,0.1594298346647342,0.4822884774635386
3.4000000000000057,0.4567802430101857,0.1783671431080309,0.481402023560758
3.4099999999999966,0.5097998267397504,0.1828524933962509,0.4836275952444047
3.4199999999999875,0.5332262464271551,0.1674199615784977,0.4802003804039648
3.430000000000007,0.5314315669316617,0.1539419112620002,0.4760444530014158
3.4399999999999977,0.4749435825959053,0.1473429440759964,0.4609799082053131
3.4499999999999886,0.3970171104790975,0.1540346886848995,0.4563251456483244
3.460000000000008,0.3476463729298935,0.1826114539145391,0.4562200644912175
3.469999999999999,0.3178922481392187,0.2157117041632404,0.452316075785207
3.4799999999999898,0.2821492723374083,0.2382328923608608,0.4505435496172912
3.490000000000009,0.2346844270137625,0.230953792947878,0.4489530010459661
3.5,0.1689920577812677,0.2168887245431044,0.4396816370151805
3.509999999999991,0.0990930624943961,0.1909557952566793,0.4122614693470307
3.5200000000000102,0.0923766315820433,0.1680488889881346,0.3899130230412184
3.530000000000001,0.0800314512489367,0.1406938688707736,0.3583939988666127
3.539999999999992,0.0539249509397549,0.1067599886795572,0.3343573244677397
3.550000000000012,-0.0027827475888214,0.0775690959187317,0.2877168374540988
3.5600000000000023,-0.0566717412698124,0.0628096265089219,0.2568041603524915
3.569999999999993,-0.1009420366137853,0.0401547679538251,0.218173158925771
3.5800000000000125,-0.120907842915786,0.0154099804307894,0.1891395067013779
3.5900000000000034,-0.1267353225535226,-0.0246724683766175,0.1522407881755315
3.5999999999999943,-0.1331938374285519,-0.0670725003344966,0.1362045139182351
3.6100000000000136,-0.1448283821082394,-0.109527520503269,0.1343872690045989
3.620000000000005,-0.1625781772207783,-0.141066379548098,0.108707316508268
3.629999999999996,-0.1924156001948218,-0.1857688091661562,0.0884270262732593
3.640000000000015,-0.2631133557352214,-0.2219986880421764,0.0632116639935759
3.6500000000000057,-0.3652667499012032,-0.251856353103431,0.0478793869637441
3.6599999999999966,-0.4851317121646641,-0.2784059355303386,0.0206183318090448
3.669999999999988,-0.6066999344471935,-0.2813849554330137,0.0011341981001528
3.680000000000007,-0.5482064822615995,-0.3029122705542165,-0.0306288373444492
3.6899999999999977,-0.3679084744453405,-0.3284356534256649,-0.0565566139983121
3.6999999999999886,-0.1766004774510579,-0.3516437336116647,-0.0761438305929455
3.710000000000008,0.0181489559510264,-0.3671481237730168,-0.0721281427187268
3.719999999999999,0.141526465009971,-0.3918499397224894,-0.0720679725065381
3.7299999999999898,0.1601253720698343,-0.4055234233833238,-0.0640345738322791
3.740000000000009,0.1038476484047062,-0.3982124907113424,-0.0389869764174888
3.75,0.0135171518073495,-0.3723545448279958,-0.02180334569036
3.759999999999991,-0.0710387240386305,-0.3530977758109253,0.0013915482765147
3.77000000000001,-0.1457999508542932,-0.3365259298577727,0.0337073273753216
3.780000000000001,-0.2228194904407217,-0.3345757810689709,0.0629923106625423
3.789999999999992,-0.3077973191323382,-0.3431973229172977,0.0703761883459981
3.8000000000000114,-0.3790203753228944,-0.3396881463351942,0.0879369601533324
3.8100000000000014,-0.4184789968656131,-0.324387078353381,0.1046231684481916
3.819999999999993,-0.4122042116272507,-0.2981860144614049,0.1294204331798388
3.830000000000013,-0.3549305276157422,-0.2696280846888928,0.1558357056186537
3.8400000000000034,-0.2812475118431967,-0.2458417821325039,0.1966058104538975
3.8499999999999934,-0.2444377593158355,-0.2009581395770198,0.2347160504511033
3.8600000000000136,-0.2710950186830578,-0.1648732243235983,0.2724310231427104
3.870000000000005,-0.3445378297036143,-0.1296257575340876,0.3222601311261376
3.879999999999996,-0.4779810619524307,-0.1189949357515843,0.3281901272242512
3.890000000000015,-0.5946564207236373,-0.1150956772143556,0.3188623767465018
3.9000000000000057,-0.6864274500396635,-0.1123949567724899,0.3091027790818346
3.9099999999999966,-0.7548656545846836,-0.1049849673519949,0.2737438450191905
3.919999999999988,-0.7892668477202175,-0.0989971640417677,0.2560279663762203
3.930000000000007,-0.8050650163379908,-0.1112628749365489,0.2272102229429246
3.9399999999999977,-0.8196519650473593,-0.105149167266686,0.1727713703231675
3.9499999999999886,-0.8065410158734699,-0.096180123728666,0.1101821565503956
3.960000000000008,-0.8069344542885147,-0.0913115771521138,0.0478941680359487
3.969999999999999,-0.8302219659145549,-0.0924781561122194,-0.0330450085543267
3.9799999999999898,-0.8539115355999366,-0.099671303787046,-0.1078146098755251
3.990000000000009,-0.8992313764745747,-0.1115928382269456,-0.1768604651928184
4.0,-0.929654533531055,-0.1110142298464416,-0.2292195898523695
4.009999999999991,-0.94922673338738,-0.1115555859775133,-0.2810123932130357
4.02000000000001,-0.9436275574432276,-0.1135276444696597,-0.3337523476354643
4.030000000000001,-0.9060336383916768,-0.1105363250197199,-0.3685470591129822
4.039999999999992,-0.8525243161368468,-0.1021827704844031,-0.4005208530218386
4.050000000000011,-0.7920534180864649,-0.1003390249635404,-0.4147748655670987
4.060000000000002,-0.7295961701619039,-0.1128862495968674,-0.4216885918585686
4.069999999999993,-0.6498871346846203,-0.1184726834378003,-0.4156815168965311
4.0800000000000125,-0.5474200407832158,-0.1339913501921397,-0.4199377649886422
4.090000000000003,-0.4436349425008168,-0.1490513749375208,-0.4210384017728851
4.099999999999994,-0.3609106809307121,-0.1656905956848779,-0.4027179747659268
4.110000000000014,-0.3001253870923186,-0.1734317031883526,-0.3703669124583049
4.1200000000000045,-0.2538246184551598,-0.1882938747480064,-0.335855539427367
4.129999999999996,-0.2184686824517176,-0.1982228840379971,-0.2996331216794979
4.140000000000015,-0.1637369410102598,-0.2112941512691867,-0.240713222989981
4.150000000000006,-0.0848969534541107,-0.2360940588712116,-0.1916493011172163
4.159999999999997,0.0287068950207381,-0.2648468865175897,-0.1543006459290368
4.169999999999988,0.1191367691003456,-0.3102735623060068,-0.0848282450243264
4.180000000000007,0.1931229098381639,-0.3528251384595682,-0.0088912336274423
4.189999999999998,0.2559295940618734,-0.38930789555148,0.0603957719509414
4.199999999999989,0.2750036311792631,-0.4129740527261565,0.1216625926758858
4.210000000000008,0.2868481740107726,-0.4191833794755896,0.1811525870033747
4.219999999999999,0.2833812444307766,-0.4334403682088528,0.2179527235459923
4.22999999999999,0.2756374463821548,-0.4411178025485592,0.225120654430177
4.240000000000009,0.2846677261771163,-0.4349051696282848,0.2190351636112784
4.25,0.3176861854753837,-0.4291759665899897,0.2096843968114825
4.259999999999991,0.3501765039794184,-0.40638455082828,0.1971403164635134
4.27000000000001,0.3360927653474617,-0.365778456512397,0.1879308752719383
4.280000000000001,0.2797360453701175,-0.3158992521456734,0.1696615763984393
4.289999999999992,0.1901601320390251,-0.2667732810570191,0.1377587610058056
4.300000000000011,0.0975273388884711,-0.2298825710971088,0.0996041525450778
4.310000000000002,0.0124919399325845,-0.1823289194620162,0.0334355946957643
4.319999999999993,-0.0547617870119525,-0.1411333813269953,-0.0421103708758618
4.3300000000000125,-0.106509147229853,-0.0933173784958861,-0.117818447292407
4.340000000000003,-0.1475950723289918,-0.0515376373000521,-0.1760912310893959
4.349999999999994,-0.1989376648410205,0.0123540384825796,-0.2310302947463302
4.360000000000014,-0.2384304509854132,0.093679850998954,-0.2889704791355923
4.3700000000000045,-0.2637045500563497,0.1594229154116073,-0.3239995027665721
4.379999999999996,-0.288501838543668,0.2041238477859375,-0.3528021282357669
4.390000000000015,-0.2994046999083815,0.2131318028547572,-0.3776489169560648
4.400000000000006,-0.3067897864961297,0.1973083759116295,-0.4047195584548553
4.409999999999997,-0.3129074476696002,0.1713257738363059,-0.4074432488572739
4.419999999999988,-0.2943073814993138,0.1444754276016037,-0.394687818017993
4.430000000000007,-0.2934274643839896,0.1208243082547132,-0.3902065441006463
4.439999999999998,-0.3195845376343086,0.1184318900096491,-0.3886975263802337
4.449999999999989,-0.3633276159691374,0.1152451066094394,-0.3784067226319715
4.460000000000008,-0.4030490464566013,0.1253956496062778,-0.3878975330504495
4.469999999999999,-0.4241579941218649,0.1427746781964238,-0.3978112719620743
4.47999999999999,-0.4212097168768708,0.1714377270826381,-0.4293053617807991
4.490000000000009,-0.4268338088278935,0.2178498215516887,-0.4609954026303882
4.5,-0.4265736102690625,0.2497156397145936,-0.5020328343090661
4.509999999999991,-0.4210000231549487,0.2716368882313986,-0.5504719018249552
4.52000000000001,-0.435173746027242,0.2831848893442373,-0.6293616482411624
4.530000000000001,-0.4433305809077959,0.3002614414110233,-0.7169822819283328
4.539999999999992,-0.4657390994275865,0.3107552471741309,-0.8064698777474556
4.550000000000011,-0.4639491643576034,0.3270227956618937,-0.8998009231204881
4.560000000000002,-0.4337558434886067,0.3542292055252773,-0.976515797643749
4.569999999999993,-0.3992561388450311,0.3757018717743612,-1.0435344523830667
4.5800000000000125,-0.37779787653031,0.3980088480538816,-1.1167213847127362
4.590000000000003,-0.3672309968594673,0.4206035907967095,-1.1764334374882053
4.599999999999994,-0.353750307559127,0.4394111495917555,-1.2286625943686729
4.610000000000014,-0.3205010983710039,0.4279005913439723,-1.272284814847603
4.6200000000000045,-0.2819977469812519,0.4106305623142041,-1.2966033909159087
4.629999999999996,-0.2567109138639814,0.3872114254744868,-1.325142965914122
4.640000000000015,-0.2324374394219173,0.3624309302125191,-1.3397455138441905
4.650000000000006,-0.1936435458583026,0.3314733018975935,-1.365814419528289
4.659999999999997,-0.1562697142053472,0.3044037141213417,-1.3920450379509588
4.669999999999988,-0.1226279349321964,0.2893877560055394,-1.4157378501043667
4.680000000000007,-0.102457412267552,0.2822340150185819,-1.453025699787288
4.689999999999998,-0.0747962840881347,0.2667636405464167,-1.4951377951789997
4.699999999999989,-0.0444478530903798,0.2484839801545417,-1.5237239437421852
4.710000000000008,-0.0065893725255213,0.240871729706028,-1.5500240107176235
4.719999999999999,0.0278570922675072,0.2033543133500325,-1.5625895812522932
4.72999999999999,0.0385323337279104,0.1641265096253429,-1.5817613644042694
4.740000000000009,0.0584990297215432,0.14180908137477,-1.5908819553283446
4.75,0.0680138688124698,0.1232740740049538,-1.6026700434645045
4.759999999999991,0.1047332222903065,0.1096625265387704,-1.607763141851981
4.77000000000001,0.1288457832389217,0.1199479286800698,-1.6154907627112245
4.780000000000001,0.1366852176441708,0.1433323150831814,-1.6221150961999296
4.789999999999992,0.1462265398693684,0.1758163586392582,-1.6225404084364687
4.800000000000011,0.1660353991949175,0.2063159243318466,-1.6372087491847036
4.810000000000002,0.205882939915592,0.2347982194874829,-1.646712508169811
4.819999999999993,0.2374640256615817,0.2678574443925305,-1.6714867552138304
4.8300000000000125,0.2626710207845226,0.3140804814178859,-1.698410575500308
4.840000000000003,0.2823817417090737,0.3682254829633455,-1.7069576340933434
4.849999999999994,0.2911864719679219,0.4194018028869066,-1.7021780055440163
4.860000000000014,0.3035856443482546,0.4815468676979001,-1.6973292850200072
4.8700000000000045,0.3080645082730311,0.5336446008587042,-1.6759801766320293
4.879999999999996,0.2904537138989845,0.5553136427242013,-1.6414712246645202
4.890000000000015,0.2766820734450625,0.5672237025309022,-1.6036000068922986
4.900000000000006,0.2591922554944461,0.5875571227139245,-1.5665318594425537
4.909999999999997,0.2428736423102832,0.6067870020133432,-1.5355524066750366
4.919999999999988,0.2138120137023106,0.6357942279550388,-1.5049519168666174
4.930000000000007,0.1794018888565418,0.641770897285549,-1.4755234434572455
4.939999999999998,0.1682314071867415,0.619257745355038,-1.4362731385657763
4.949999999999989,0.1598148772310036,0.5839641624706063,-1.4144753243713906
4.960000000000008,0.1770107675810733,0.5614056687261677,-1.403630420068737
4.969999999999999,0.1896156377133612,0.5365701520031886,-1.3995144132393396
4.97999999999999,0.2243942036052701,0.5263521128475741,-1.4250304298817982
4.990000000000009,0.2459892307040337,0.5357601087073447,-1.4467582073672949
5.0,0.2364223281466262,0.5281739743175105,-1.4699128765123786
5.009999999999991,0.2063331244944037,0.5227450427847588,-1.4957553361004396
5.02000000000001,0.1464871952719625,0.5031151691177431,-1.498639258826806
5.030000000000001,0.0624285784058386,0.490020774456322,-1.5031203977450538
5.039999999999992,-0.0272136408244782,0.4716575760595608,-1.5010551010976432
5.050000000000011,-0.0831253011438507,0.4483211921727391,-1.4945064795910803
5.060000000000002,-0.1144546761176291,0.4184525468747111,-1.4801491638627888
5.069999999999993,-0.1033519193492324,0.3886545305254489,-1.471451010322883
5.0800000000000125,-0.0878737999794088,0.3649288679749145,-1.473580235842908
5.090000000000003,-0.0771044915948102,0.3537717180471093,-1.4940428263921015
5.099999999999994,-0.0759091302649033,0.3464548510175196,-1.5120954783378306
5.110000000000014,-0.0562215891927584,0.3379834066422305,-1.530043342220545
5.1200000000000045,-0.0227556323323272,0.3357458412661558,-1.5637317080108624
5.129999999999996,0.0199745445062197,0.3267359300122175,-1.5888847441689211
5.140000000000015,0.0664546595711233,0.2996224076871661,-1.613609710810826
5.150000000000006,0.1115819100269572,0.2664133463359254,-1.6195131873683857
5.159999999999997,0.1518569685155989,0.2392622620381249,-1.624232619018675
5.169999999999988,0.1712966605267122,0.2100107286329734,-1.6311413669299015
5.180000000000007,0.1877968162615436,0.1966765507930619,-1.6303180226042768
5.189999999999998,0.1849361583246449,0.1919337360583185,-1.623866645468441
5.199999999999989,0.1993714972156771,0.2022428076409581,-1.5889674085459835
5.210000000000008,0.2258975971422876,0.2135363193274266,-1.537630340450855
5.219999999999999,0.2505187326972629,0.2115195651141601,-1.469319965233035
5.22999999999999,0.2759334307570856,0.1982623586944298,-1.3916847902563505
5.240000000000009,0.3098135261404255,0.1898792781505399,-1.319829678449372
5.25,0.318068605273161,0.1790358749161651,-1.2374537991127614
5.259999999999991,0.3379228701830738,0.1766330904817309,-1.1682016845170733
5.27000000000001,0.3382276064955643,0.1740760552822683,-1.0901353265202838
5.280000000000001,0.3098584155345426,0.1754634682088827,-1.0043290375516778
5.289999999999992,0.2750573170643537,0.1644295291724793,-0.954589040589133
5.300000000000011,0.2107342833671801,0.1391541926119074,-0.9062289632781028
5.310000000000002,0.1661335141926365,0.1062865947198836,-0.8610489798382402
5.319999999999993,0.1357995888536114,0.0658727037167173,-0.8171850237937373
5.3300000000000125,0.1586895882987228,0.0351487477616517,-0.7812867470780455
5.340000000000003,0.2131540277445064,0.0271719987721856,-0.7477513566950859
5.349999999999994,0.2860295974060888,0.0201363032286583,-0.7167045797205945
5.360000000000014,0.3742701786988818,0.01314465245006,-0.684829923721712
5.3700000000000045,0.4428723370718417,-0.0041842633512169,-0.671565739733791
5.379999999999996,0.5088275363791093,-0.0645991779443578,-0.6687990769790851
5.390000000000015,0.5251551445816478,-0.1477853982764518,-0.6944075217464626
5.400000000000006,0.5146636311236311,-0.2097120642750765,-0.6993651836150104
5.409999999999997,0.4834703304254504,-0.221404956037922,-0.6853274070181954
5.419999999999988,0.4289091778783606,-0.1704581864678754,-0.6422272267611474
5.430000000000007,0.3405456848681821,-0.0976916723096392,-0.594278780701273
5.439999999999998,0.2424603553816418,-0.0108975753426113,-0.5593522942636888
5.449999999999989,0.1240948182651021,0.0632517558134948,-0.5372067239831099
5.460000000000008,-0.0306305316965686,0.1394232862967816,-0.5025238947215737
5.469999999999999,-0.2008933621367891,0.1816715353307322,-0.4705579178619761
5.47999999999999,-0.3838558605567728,0.2009603208044151,-0.4702607389287856
5.490000000000009,-0.5641988034302617,0.2076393501037373,-0.4809344453668877
5.5,-0.6868943052695639,0.2045867398602818,-0.4953511298955897
5.509999999999991,-0.7557553985489512,0.2046878924659179,-0.5107269075025552
5.52000000000001,-0.7975142264542242,0.2036246536459824,-0.5401945313627757
5.530000000000001,-0.7899694084967681,0.2156071893762347,-0.5591609212452401
5.539999999999992,-0.7353535839769731,0.2163101265576979,-0.5902644016266264
5.550000000000011,-0.6335919809570253,0.2066814630601335,-0.6405073209749974
5.560000000000002,-0.4725219869673405,0.1922286978958541,-0.6909934384266603
5.569999999999993,-0.3240056735994557,0.1946734042331873,-0.743999380036691
5.5800000000000125,-0.2064161919532308,0.1895489643519654,-0.7910136676420049
5.590000000000003,-0.101941799772683,0.1992999754055361,-0.8358443948111721
5.599999999999994,-0.039041371383664,0.2042503070697894,-0.8845772497693879
5.610000000000014,0.0071581856804833,0.2210154581668363,-0.9134090093973783
5.6200000000000045,0.0496016459318837,0.2408954688894057,-0.9521148200078198
5.629999999999996,0.0778308218931598,0.2582436339824298,-0.9760280437989698
5.640000000000015,0.099866469441244,0.2794853955487525,-0.99549514092587
5.650000000000006,0.1320177417874088,0.2869290833283577,-1.0093059817623065
5.659999999999997,0.1453274549271841,0.300821974568696,-1.0223512357535312
5.669999999999988,0.149702865157623,0.321997088955907,-1.0362655671319534
5.680000000000007,0.1459646646015739,0.3326600494193045,-1.0524866554198864
5.689999999999998,0.1526083064484055,0.3323034496444131,-1.0563358763107105
5.699999999999989,0.1778299686300738,0.3147926158900978,-1.0454170313377185
5.710000000000008,0.2277572310319448,0.3084240695893363,-1.0346481539696435
5.719999999999999,0.3062621338180913,0.2928636745583575,-0.9953287387778108
5.72999999999999,0.360492904240149,0.2886884678563773,-0.9656193276588544
5.740000000000009,0.3885312251425207,0.2783545930855771,-0.9295924646043002
5.75,0.4063939876146931,0.2615776136408772,-0.8986501497872038
5.759999999999991,0.4145926661829494,0.2535371070391229,-0.883168469041215
5.77000000000001,0.3863499271103769,0.2261615607599203,-0.8828956119307209
5.780000000000001,0.3621889309100552,0.1947460728432722,-0.8795466854438959
5.789999999999992,0.3155620868231265,0.177613930453069,-0.8659871535341221
5.800000000000011,0.2689278446252228,0.1649713340510615,-0.844812601774098
5.810000000000002,0.2132824983380047,0.1553891669940472,-0.8195560955705847
5.819999999999993,0.1824946907416922,0.1495456051897181,-0.7749593376720627
5.8300000000000125,0.1702875622994047,0.1394226590330983,-0.7311710048235459
5.840000000000003,0.1986294411688443,0.1259250307072242,-0.681836535286954
5.849999999999994,0.2216291502227405,0.1005107742210364,-0.629733078923394
5.860000000000014,0.2407057951980971,0.0453822563131985,-0.5701012659314261
5.8700000000000045,0.25620247200848,0.0075717625295061,-0.5210045538211937
5.879999999999996,0.2815677874558935,-0.0387110647067849,-0.4906439160185306
5.890000000000015,0.2815493960689711,-0.0864978911993847,-0.4725989321485855
5.900000000000006,0.2719128566908986,-0.1173098767264031,-0.4733649557853427
5.909999999999997,0.2472979317095085,-0.1523967581473003,-0.4702736724999493
5.919999999999988,0.2090835131459136,-0.1836506415959742,-0.4822684060141811
5.930000000000007,0.1671803920740017,-0.1880906570239926,-0.5095235266023797
5.939999999999998,0.1392638642450777,-0.1495229571398355,-0.5313785266242855
5.949999999999989,0.1761770368983815,-0.0958474176951452,-0.5565887924811038
5.960000000000008,0.2330010786423144,-0.0271329656368968,-0.6013751163819896
5.969999999999999,0.2754172469643444,0.0467721976804245,-0.6656954145552836
5.97999999999999,0.297157752495592,0.1073139016144237,-0.7388230944232824
5.990000000000009,0.3057530409832461,0.179464813221097,-0.8000230692834931
6.0,0.2880386812535871,0.2230603965662722,-0.8529991729098397
6.009999999999991,0.2570448811705189,0.266661890830758,-0.8834799115541243
6.02000000000001,0.2039832968650565,0.3011130355116629,-0.9060736733839986
6.030000000000001,0.1522902713660447,0.3297182957988158,-0.9125040393585448
6.039999999999992,0.1246613944500271,0.3493686435492508,-0.9134655243810736
6.050000000000011,0.108156674458868,0.3570752890440468,-0.9059194540561052
6.060000000000002,0.1029549824179793,0.346665305444876,-0.8764879267153597
6.069999999999993,0.091228367643272,0.3400510672299036,-0.8516046302384642
6.0800000000000125,0.0556113212919784,0.3310096223866675,-0.836905871369057
6.090000000000003,-0.0059895680695846,0.3189335078819415,-0.840430960359726
6.099999999999994,-0.0776754415278973,0.3090399851015021,-0.8481249905669902
6.110000000000014,-0.1418402130598203,0.3016624928666284,-0.8451776971227501
6.1200000000000045,-0.189729610385018,0.3063427869317544,-0.832445397964514
6.129999999999996,-0.2246166002955915,0.3104646362253347,-0.8299167727280665
6.140000000000015,-0.2561880965967932,0.3100754072081841,-0.8180482399988189
6.150000000000006,-0.2663308694541811,0.3298227667950081,-0.8142082745520262
6.159999999999997,-0.2676983650237106,0.3309923319074751,-0.814136165495817
6.169999999999988,-0.2577986033240304,0.3473532224270459,-0.8202078635987613
6.180000000000007,-0.2637422085789039,0.3639489261852721,-0.8304652255310894
6.189999999999998,-0.2710867955398734,0.3682068278763215,-0.8244610078096533
6.199999999999989,-0.2696203466398034,0.3798396185951929,-0.814422110448222
6.210000000000008,-0.2781268799038688,0.3940947771872051,-0.810376812614202
6.219999999999999,-0.2947503179854523,0.3947453455615579,-0.8056544841203206
6.22999999999999,-0.2763959847111651,0.3961148014020363,-0.7944953433835686
6.240000000000009,-0.2693240097499096,0.3854981867330647,-0.7871206999065726
6.25,-0.2345110197736062,0.3718601496475692,-0.7865096514620932
6.259999999999991,-0.2159890672897866,0.356871308919114,-0.7851757365037461
6.27000000000001,-0.2027537887146887,0.3365791219383897,-0.7848915940151053
6.280000000000001,-0.1944730159860785,0.305599933774176,-0.7814875071247473
6.289999999999992,-0.207234493677047,0.2738670512529628,-0.7752668882307446
6.300000000000011,-0.2174074857719106,0.2348486287441222,-0.7785474540366767
6.310000000000002,-0.2249395228095482,0.1894670611563318,-0.7809540248544536
6.319999999999993,-0.2272465427384038,0.1537155621695755,-0.787024396841356
6.3300000000000125,-0.2103116400505472,0.1197636585230504,-0.8086852601665654
6.340000000000003,-0.1824951391417962,0.0921703726825616,-0.8090567302749053
6.349999999999994,-0.1555673573875302,0.0704909355242928,-0.8086293705131329
6.360000000000014,-0.1477442671247537,0.0420066721429173,-0.7917287056360104
6.3700000000000045,-0.1713704358404186,0.0197577850730656,-0.7801409595840919
6.379999999999996,-0.2097488324790254,-0.0048471004373532,-0.7642921214150666
6.390000000000015,-0.2592983162115123,-0.0320081753523981,-0.7549835764763568
6.400000000000006,-0.2691276486695036,-0.058771930744956,-0.7358107219239727
6.409999999999997,-0.235488373329131,-0.0691980973016562,-0.7459168078640858
6.419999999999988,-0.1873947071076288,-0.067354514114203,-0.7431035950939064
6.430000000000007,-0.1286484638247267,-0.053143209794244,-0.7324216319787027
6.439999999999998,-0.0710477472782397,-0.0216598916719786,-0.7079795356361867
6.449999999999989,-0.0342154291405082,0.0199610348923767,-0.671948210516137
6.460000000000008,-0.0138797865046692,0.0445392473400514,-0.6307884378840769
6.469999999999999,-0.0154596097199713,0.054875725861328,-0.577042172045182
6.47999999999999,-0.0341554582301352,0.0410391882299939,-0.529304371852023
6.490000000000009,-0.04329072858383,0.022258340659531,-0.5108621979671472
6.5,-0.0629020650747587,-0.0085354439216944,-0.5135955636323782
6.509999999999991,-0.0905751588499749,-0.0349841412176717,-0.5225676538653069
6.52000000000001,-0.0650688463910968,-0.0479309974774636,-0.5237689909470892
6.530000000000001,-0.0131262317691158,-0.0594963259756973,-0.4992518026864797
6.539999999999992,0.0404395810361469,-0.0596983995264312,-0.4592093789042936
6.550000000000011,0.0744821205135213,-0.0530826947154848,-0.3992550858941235
6.560000000000002,0.0889410296963388,-0.0286933707593591,-0.3552047102977422
6.569999999999993,0.0909356221719735,0.004261593324058,-0.3255338745552042
6.5800000000000125,0.0927759209862268,0.0299316053384011,-0.3108919534943392
6.590000000000003,0.1046526624393577,0.0584848883014286,-0.3230677924279543
6.599999999999994,0.130345054156244,0.0918083812637556,-0.3412959752034614
6.610000000000014,0.1477277428619472,0.1259787429738846,-0.3604616060541315
6.6200000000000045,0.1834190461316337,0.149123978588536,-0.377106646764658
6.629999999999996,0.2612786137169538,0.1691483912172794,-0.3892827221636784
6.640000000000015,0.3486338012414343,0.1935363577609169,-0.39247776101998
6.650000000000006,0.4367499422240607,0.2152181130561125,-0.4153345062010889
6.659999999999997,0.5205157603529796,0.2365235702487896,-0.4466616893065426
6.669999999999988,0.5525204792050753,0.263783613156643,-0.4805130438218172
6.680000000000007,0.5600215873641816,0.2849019375198729,-0.5133750403162038
6.689999999999998,0.555023395937301,0.2856840144418324,-0.5330921260891616
6.699999999999989,0.5426845012245196,0.2747520468956629,-0.5466319282285149
6.710000000000008,0.5334723565608359,0.26443087113878,-0.5472096338796911
6.719999999999999,0.5162006212447624,0.2675141013637336,-0.5428342526175963
6.72999999999999,0.4974485893305514,0.2768679819581396,-0.5313441586674027
6.740000000000009,0.4773637447990546,0.2797933922275172,-0.5193836484506502
6.75,0.4923015264451774,0.2907861483480937,-0.5132429988352576
6.759999999999991,0.4892249014685795,0.3070383941560395,-0.491064373250699
6.77000000000001,0.4384513891811904,0.2910092626301152,-0.474532883396209
6.780000000000001,0.3675066045433193,0.2737821401666061,-0.4395608747904627
6.789999999999992,0.2638756945509213,0.2695511225932078,-0.4008277979300376
6.800000000000011,0.1431750897436323,0.2609805080512344,-0.3604686701621584
6.810000000000002,0.0014993877322781,0.2623153075563693,-0.328858081276199
6.819999999999993,-0.1385053036168026,0.2593222569755579,-0.2957056772466528
6.8300000000000125,-0.2736904588525797,0.2650048374238057,-0.2806515079813994
6.840000000000003,-0.3887288901815788,0.2674914008696314,-0.2572403385703573
6.849999999999994,-0.4633727348776776,0.2641869245986034,-0.2239050816476027
6.860000000000014,-0.4999931258285683,0.2541369125138058,-0.1929986807202444
6.8700000000000045,-0.4819804723979118,0.2477776049042747,-0.1680930627119361
6.879999999999996,-0.4656743364518405,0.2447155818245459,-0.1330787424009429
6.890000000000015,-0.421619201331598,0.250131364554482,-0.1001722615736916
6.900000000000006,-0.37909266505591,0.2485971731602441,-0.0799302469353168
6.909999999999997,-0.3347533257713079,0.2530840500342448,-0.0706051424598274
6.919999999999988,-0.2860351506544802,0.2602373424564531,-0.0638738189986139
6.930000000000007,-0.2261101094856718,0.2615417546639197,-0.0328989449809097
6.939999999999998,-0.121578176243281,0.2695764501238234,0.0157310445585297
6.949999999999989,-0.002712391234021,0.2582673447242071,0.0647005877480058
6.960000000000008,0.1265712939855866,0.2170779318770262,0.1181456451075165
6.969999999999999,0.2289813756243267,0.1856592648912385,0.1902125366262563
6.97999999999999,0.2851805978494449,0.1450016272873823,0.2339878097021229
6.990000000000009,0.2995489025034424,0.1082078511825371,0.2728517990971986
7.0,0.3035189955216032,0.0865477546158128,0.3000548199957728
7.009999999999991,0.2849915696112092,0.0611195527303583,0.3084072726402216
7.02000000000001,0.2476469900641512,0.0525277964245236,0.3096127982324125
7.030000000000001,0.2265671882250639,0.0420520040097777,0.3068834263444308
7.039999999999992,0.1984814219803802,0.0508851278679734,0.2865203797480035
7.050000000000011,0.1988325749390337,0.0568195005752983,0.2525630566583267
7.060000000000002,0.1820749155039045,0.0723749988369554,0.1895826984696192
7.069999999999993,0.1863857577557262,0.0915715489962847,0.1046436844834456
7.0800000000000125,0.1959991692644613,0.1142745673982317,0.0196790390504525
7.090000000000003,0.2105292876705375,0.1222447037681504,-0.079531754969723
7.099999999999994,0.2235382330914983,0.1356280691037342,-0.1501539208917796
7.110000000000014,0.2310281962886657,0.1501108952748776,-0.2026906578773516
7.1200000000000045,0.2603728527636111,0.1750444138694493,-0.2270674156843503
7.129999999999996,0.2809196093886719,0.1844714468946564,-0.2238254162144899
7.140000000000015,0.2969009585201759,0.1832236106943695,-0.1883398806152976
7.150000000000006,0.2942235928687988,0.1698995660488033,-0.125453832201082
7.159999999999997,0.3108651843995836,0.1425758299725218,-0.0644913863271804
7.169999999999988,0.3255871994439751,0.094685351180312,-0.0221101842353432
7.180000000000007,0.3217121811408633,0.0389482308757488,-0.0008047366920808
7.189999999999998,0.3098820954666548,-0.0443986154589586,-0.0123829703926398
7.199999999999989,0.2775108270749137,-0.1331596942683204,-0.0539665929929277
7.210000000000008,0.2380197001171546,-0.2059048077870469,-0.1136170771439101
7.219999999999999,0.1928994545300227,-0.2779624610038422,-0.1813368606965181
7.22999999999999,0.1439565837779103,-0.3386855612585151,-0.2542292942053028
7.240000000000009,0.1149571018338798,-0.3658776478509486,-0.3193527762848264
7.25,0.0813160599105466,-0.3657994849387029,-0.3763888545797759
7.259999999999991,0.0351715510289821,-0.3657174203042646,-0.4138893094097558
7.27000000000001,-0.008206025710437,-0.3858330980992722,-0.4158836338869768
7.280000000000001,-0.0562483353606449,-0.4053624712531296,-0.3965207771339863
7.289999999999992,-0.089849839719781,-0.4348907228075371,-0.3732894937650091
7.300000000000011,-0.0701158156893065,-0.4433666913443114,-0.3634255338648736
7.310000000000002,-0.0248971922575342,-0.4461991181412669,-0.3673932876804876
7.319999999999993,0.0541406383546359,-0.4475282019512099,-0.3606143536069373
7.3300000000000125,0.128987507955628,-0.4268974991601554,-0.3553247468808679
7.340000000000003,0.1878076333002186,-0.3949025593144853,-0.3404839489788627
7.349999999999994,0.1958538746222275,-0.3646278503508837,-0.3392447119005924
7.360000000000014,0.1936357692858912,-0.3348918970005929,-0.34704251112356
7.370000000000003,0.1646933713186291,-0.3060085404642104,-0.3435986650933487
7.3799999999999955,0.1308995185114318,-0.270456870026258,-0.3406847571845635
7.390000000000015,0.0985779662826152,-0.2248585153650411,-0.3315835905818864
7.400000000000006,0.0707708644176535,-0.1706965252962265,-0.33193823932324
7.409999999999997,0.0353570903912052,-0.1202655067438603,-0.3310666672370282
7.4199999999999875,-0.0287772436808552,-0.0947085646010606,-0.3223579062652922
7.430000000000007,-0.0782465911351011,-0.0526427635393541,-0.3069567752792252
7.439999999999998,-0.1123405433257238,-0.0125316230236597,-0.2760774615846901
7.449999999999989,-0.120018741529775,0.0402172095611634,-0.2419846487869316
7.460000000000008,-0.1366859599084783,0.0942114378873915,-0.2206406624963378
7.469999999999999,-0.1152410291956802,0.1520326664244572,-0.2078207868730767
7.47999999999999,-0.0904888190039935,0.2074940539702911,-0.2056940915306104
7.490000000000009,-0.0855859674352646,0.2526474136315136,-0.2114688659211351
7.5,-0.0989094631573424,0.2671382575194017,-0.2185238169309905
7.509999999999991,-0.1135548587759923,0.2490228136801636,-0.2285490959360019
7.52000000000001,-0.0807790231242304,0.22864796430775,-0.2395007584982766
7.530000000000001,-0.0379464445705012,0.1872844811453577,-0.2486244716072884
7.539999999999992,0.0147318023832877,0.1417551103099968,-0.2696829283387784
7.550000000000011,0.074484194460912,0.1220492790247928,-0.3155675227325359
7.560000000000002,0.1282642397464723,0.1195063183218877,-0.3799184208087824
7.569999999999993,0.1380044171389476,0.105273227324006,-0.4460200346239611
7.5800000000000125,0.1069202509236193,0.0849910352592097,-0.5175542054446421
7.590000000000003,0.0493690030422944,0.0610756884728131,-0.567011874975813
7.599999999999994,-0.0040968598993657,0.0586859365809185,-0.6093441018134441
7.610000000000014,-0.032216600811745,0.1098714645317324,-0.6060925407621653
7.620000000000003,-0.0553982926309719,0.1966760664141251,-0.5695777723585304
7.6299999999999955,-0.1170727017463567,0.2932895514694209,-0.55275183139967
7.640000000000015,-0.2025065930656615,0.3990846668480228,-0.5675583057587014
7.650000000000006,-0.3275624770080323,0.4729881028377345,-0.5842182404020551
7.659999999999997,-0.4556513631827653,0.5367148770559776,-0.5826908455760408
7.6699999999999875,-0.584798164366781,0.5780430826114886,-0.5831926029331326
7.680000000000007,-0.7085090315575249,0.6131478331259939,-0.5813588928475741
7.689999999999998,-0.7880839719292408,0.6380545668680235,-0.5746116630683683
7.699999999999989,-0.8448726175471831,0.6606206961399589,-0.5514170254644014
7.710000000000008,-0.8808882628823942,0.6746684784840762,-0.5062739076261578
7.719999999999999,-0.9234564267621552,0.6875647580812432,-0.4347768201312702
7.72999999999999,-0.9590084673449258,0.7103792475566756,-0.3606292513820779
7.740000000000009,-1.0042423557804887,0.7295117194521936,-0.2928130019530068
7.75,-1.0291785465656529,0.7521636762451792,-0.2549625635429117
7.759999999999991,-1.0549569504255345,0.7495313383536,-0.2227990378734118
7.77000000000001,-1.0577274597459467,0.7670579520627496,-0.1802352510187649
7.780000000000001,-1.0092693782250126,0.7767324730519639,-0.1412911362530047
7.789999999999992,-0.9400707224366172,0.7756447538990973,-0.1005604486277255
7.800000000000011,-0.8547441871439708,0.7699072634530579,-0.0571324664442076
7.810000000000002,-0.7742882852999565,0.7473737931760485,-0.0002040474299958
7.819999999999993,-0.7362241861228992,0.7205698704007654,0.0954720075480555
7.8300000000000125,-0.7506361255759108,0.6691006989501946,0.2364775203964061
7.840000000000003,-0.673475720855217,0.6097219553308293,0.3388849729804823
7.849999999999994,-0.5597956368369607,0.5586970247774671,0.3624567985934228
7.860000000000014,-0.4831191215528179,0.5256904317169807,0.3615108133676692
7.870000000000003,-0.4205636496819722,0.5006547851623598,0.3659496919736335
7.8799999999999955,-0.3255494946762444,0.4791293748789123,0.3701667116946764
7.890000000000015,-0.2162846856940007,0.4436175020688094,0.3672134472934182
7.900000000000006,-0.1190365883830098,0.4050996957525138,0.3538676698615999
7.909999999999997,-0.0174752225918052,0.3678574242530457,0.3367625148311861
7.9199999999999875,0.0497893310684144,0.3275422184543097,0.3163362018015843
7.930000000000007,0.0903961207031741,0.2993593819138592,0.2842059058556814
7.939999999999998,0.0968242571207609,0.2469344823013493,0.26729304379469
7.949999999999989,0.159814499742464,0.1997204927786892,0.2499305168794927
7.960000000000008,0.2379100954361545,0.1564783745776675,0.2223279849201618
7.969999999999999,0.3122840857847396,0.1221789037795717,0.2008051848978119
7.97999999999999,0.3844127949984842,0.0821244750404242,0.192960690041313
7.990000000000009,0.4360631299838942,0.0396052852845875,0.1949606132224965
8.0,0.4678346867768794,0.0036979385117288,0.1965915048100066
8.009999999999991,0.4793433150064359,-0.0222682198842219,0.1839374841219557
8.02000000000001,0.477188718165451,-0.0412509157596153,0.1695696614603786
8.030000000000001,0.4668572512574859,-0.0679258703883327,0.1520390575633161
8.039999999999992,0.4566894714192198,-0.0928433232477487,0.144740790189421
8.050000000000011,0.446952908426219,-0.1179248755848943,0.1449988839482304
8.060000000000002,0.4356878294662789,-0.1533086541564482,0.1614559051392315
8.069999999999993,0.4319468609199717,-0.1872184916549731,0.191339064529337
8.080000000000013,0.4406542549426671,-0.2155814708887705,0.2122204609539892
8.090000000000003,0.4309382697074352,-0.240135989643986,0.2309701749209016
8.099999999999994,0.4200088463069756,-0.2717154173718729,0.236205376835748
8.110000000000014,0.3883790930298487,-0.3050793082926055,0.2425903144454504
8.120000000000005,0.3436821810975045,-0.3266675838555582,0.2505372375858536
8.129999999999995,0.2815226360980924,-0.3686505219257538,0.2615084101478099
8.140000000000015,0.2512326805678475,-0.4028095142107361,0.2666657683177033
8.150000000000006,0.2615359467458543,-0.43035641504842,0.267830045979459
8.159999999999997,0.2985384275068747,-0.4523289317912354,0.2626620920876031
8.169999999999987,0.3570532778948341,-0.4723223316215533,0.2428444775723575
8.180000000000007,0.4139411499084995,-0.4801927250684127,0.2276137833137982
8.189999999999998,0.4275040555533514,-0.4920239162929384,0.213370926087289
8.199999999999989,0.4438337843085531,-0.4972968327168629,0.2012264845834349
8.210000000000008,0.4517895533561072,-0.5025107389798705,0.1948930884432839
8.219999999999999,0.4565816673100458,-0.4948714113003908,0.1568355946974906
8.22999999999999,0.4732103495544257,-0.4900003778105226,0.1431213939033966
8.240000000000009,0.4855192262058175,-0.4672888675569804,0.1178210848729345
8.25,0.5039332301511451,-0.4516659565633701,0.0931956255498557
8.259999999999991,0.5211058457498283,-0.4272766850409696,0.0732874453775396
8.27000000000001,0.5307653693526504,-0.4066656434023737,0.0688693939033528
8.280000000000001,0.5372345866667952,-0.39895081654721,0.0715125248584306
8.289999999999992,0.5404550205324076,-0.3902254838560991,0.0809784151125077
8.300000000000011,0.5270187523373535,-0.3877022892838412,0.0936197324021305
8.310000000000002,0.5031059026040767,-0.3729066407104142,0.0954127272878968
8.319999999999993,0.4801204991679768,-0.3857546328198589,0.0957274029845499
8.330000000000013,0.4487989826679293,-0.3942841895955744,0.0932967497463192
8.340000000000003,0.4102669628868179,-0.4103146956533778,0.103165839081289
8.349999999999994,0.3762642999168381,-0.4198958555893419,0.1199094126280943
8.360000000000014,0.3218440467832751,-0.4328926304598622,0.1325064422358959
8.370000000000005,0.2986764888977631,-0.437106940030123,0.1459781198712875
8.379999999999995,0.2809266492789682,-0.4231108660913854,0.1387987521024177
8.390000000000015,0.287270623448801,-0.4008173431109952,0.1231657915984536
8.400000000000006,0.3056395639889718,-0.3810387490627959,0.1152337551368314
8.409999999999997,0.3224322514374204,-0.3503039978928211,0.1041754577482902
8.419999999999987,0.3226924724032542,-0.3288637889359901,0.0906390058653831
8.430000000000007,0.2977185321984529,-0.3124194666219155,0.0950007060399611
8.439999999999998,0.2743065200539743,-0.2939928620563708,0.0852221234824886
8.449999999999989,0.2397343116474989,-0.2701658123336934,0.0667965301718693
8.460000000000008,0.21672085964145,-0.2415285673283242,0.0623695183381274
8.469999999999999,0.1973680103084092,-0.2151254535106077,0.0491096681678448
8.47999999999999,0.1898000270645233,-0.1929407972063601,0.0636906750618796
8.490000000000009,0.1703097526604034,-0.1719287045501061,0.0611021358428936
8.5,0.155644308557202,-0.1640514211427734,0.0677418020825547
8.509999999999991,0.1342870189407614,-0.1545011236248242,0.07035168941893
8.52000000000001,0.1130294271088401,-0.1434549173967075,0.0627788201559207
8.530000000000001,0.0998838425982825,-0.1374715900210117,0.0623994428127631
8.539999999999992,0.0974731559914688,-0.1405287728014067,0.0615383904497421
8.550000000000011,0.0750097239138473,-0.1357774949607826,0.0608852006905301
8.560000000000002,0.062185337236892,-0.1252534376900991,0.0616146229740567
8.569999999999993,0.0430987777700223,-0.121109570439757,0.0614125270970113
8.580000000000013,0.0231080361286005,-0.1171624363734292,0.0599976204999212
8.590000000000003,0.024538162270349,-0.116644642535222,0.0551883748802794
8.599999999999994,0.018179039853237,-0.1115998151387628,0.0477538414363478
8.610000000000014,0.0299068857529036,-0.1127952108141231,0.0463145073118802
8.620000000000005,0.0347080181985066,-0.1154306670270726,0.0426807020635058
8.629999999999995,0.0398997968252985,-0.106260856483457,0.0361661353909595
8.640000000000015,0.0545317081854458,-0.0998479652367832,0.0339553192477423
8.650000000000006,0.0700822051956628,-0.0905141960301159,0.0348653382622118
8.659999999999997,0.0668837456456107,-0.0962894825320684,0.035280505756748
8.669999999999987,0.0805249931888135,-0.0934527795220763,0.0350728238186977
8.680000000000007,0.0903688160673983,-0.0982961137711885,0.035974227986533
8.689999999999998,0.0966774098945865,-0.0926960711896916,0.0359342255356884
8.699999999999989,0.0752448748333411,-0.091201716233596,0.0307346705300903
8.710000000000008,0.0672710959161032,-0.0922381042433473,0.030664989936692
8.719999999999999,0.0535528243907129,-0.0918059417808743,0.0307585397633375
8.72999999999999,0.0426723965380578,-0.1086034745920113,0.0338743537599782
8.740000000000009,0.0350268533049894,-0.111000652536637,0.0336053784845636
8.75,0.0329265087391273,-0.1092922469576085,0.04367903862253
8.759999999999991,0.0385368432604243,-0.1122193679037814,0.0596590834527802
8.77000000000001,0.0190205387365415,-0.1165884915605556,0.0669774003031663
8.780000000000001,0.0155808814247638,-0.1144917022528279,0.0796516468972717
8.789999999999992,0.008696788911088,-0.1174197079273852,0.0895896643660156
8.800000000000011,-0.0042304410569587,-0.1261069268132383,0.093563696816062
8.810000000000002,-0.006719596541063,-0.1257108306221612,0.0956048603058138
8.819999999999993,-0.0081473782836409,-0.1366939862805054,0.0865723230758068
8.830000000000013,0.0038089601894854,-0.1550695848242477,0.0935887991338337
8.840000000000003,0.0205479519922358,-0.1526410164374917,0.1116816732650135
8.849999999999994,0.0218564550786751,-0.1382802326083226,0.1183296008731804
8.860000000000014,0.0337816789270454,-0.1345706465253452,0.1231476012607228
8.870000000000005,0.0448990290295805,-0.1325209418957773,0.1219034138937967
8.879999999999995,0.040027121826995,-0.1300828428470886,0.1106778043284933
8.890000000000015,0.0525595866480839,-0.1314865412959204,0.0992569964079527
8.900000000000006,0.0512977224678566,-0.1324058976324304,0.0956559703098773
8.909999999999997,0.0493502999341971,-0.1270981270093253,0.0880535180710662
8.919999999999987,0.0603396335096973,-0.1185521861049012,0.090239276314046
8.930000000000007,0.065934767716686,-0.1080197544981824,0.0879460570576877
8.939999999999998,0.0820368331804169,-0.0901599220465211,0.0964218331260671
8.949999999999989,0.0972423614575631,-0.0762964713717524,0.1028736165298201
8.960000000000008,0.0967454310101332,-0.0709404723653009,0.1007835789233206
8.969999999999999,0.0931009416570361,-0.0658644261493592,0.1005666846287064
8.97999999999999,0.0935128736059807,-0.0607428809620805,0.1010527587169816
8.990000000000009,0.0687552344661232,-0.0540789067408927,0.0984713797480083
9.0,0.0452865725513229,-0.0598940780809635,0.0955475588279896
9.009999999999993,0.0414132356947438,-0.0630620410699957,0.0973423799268483
9.02000000000001,0.046555331164054,-0.0714461773338028,0.099853213503426
9.03,0.0665205036845048,-0.0785173895989178,0.0945116022052703
9.039999999999992,0.1038886964260727,-0.0788927957078264,0.0952594626199169
9.050000000000011,0.1336136569871314,-0.089120969117502,0.0973905476136255
9.060000000000002,0.1661626819429347,-0.089756404328626,0.0938563225234086
9.069999999999991,0.1708728591778693,-0.0871391192068387,0.0872619928710784
9.080000000000013,0.1704030511432791,-0.0872311345181897,0.0922295109793156
9.090000000000003,0.1511816472502727,-0.0876456959891492,0.0936610133311543
9.099999999999994,0.140589908401339,-0.0875579971503406,0.0872634470316222
9.110000000000014,0.1181375984043706,-0.0626380211759661,0.0916980715806783
9.120000000000005,0.0801270731578457,-0.0181910066934437,0.0863440942146878
9.129999999999995,0.0246226244517877,0.0213946768300449,0.0866589681311088
9.140000000000017,-0.0249830611586221,0.0441261794929249,0.0852389812404747
9.150000000000006,-0.0789389644597688,0.054084183674871,0.0845054666406498
9.159999999999997,-0.1182737897290157,0.0493196041003831,0.0908365662396584
9.169999999999987,-0.1386064309659068,0.0411036806990744,0.101991009580251
9.180000000000009,-0.1443768494026789,0.0322431737761707,0.110001878089978
9.189999999999998,-0.1347275053909292,0.0213545901021469,0.1146806874903003
9.199999999999989,-0.1295230840785457,0.0120347677155628,0.1188225992049875
9.210000000000008,-0.0989940376782978,-0.0084506326187927,0.1107623521114384
9.22,-0.0381860946228961,-0.01750494538513,0.1130376394553674
9.22999999999999,-0.0023901490838485,-0.0201604860145856,0.1073306887074928
9.240000000000007,0.0161257150631475,-0.0301307391764848,0.0934305574473091
9.25,0.0184840073120237,-0.0210396258039254,0.0888203058412633
9.259999999999993,0.0196746876043672,-0.0152236011224648,0.0842990516351891
9.27000000000001,0.019344600593562,-0.0027649943832757,0.0783733930417027
9.28,-0.0082511016171632,0.0062795879551687,0.0703743076735221
9.289999999999992,-0.028169847419156,0.0180723462925882,0.0827926538721112
9.300000000000011,-0.047614761405744,0.0293296179022754,0.0870718955033071
9.310000000000002,-0.0617022777041052,0.0306960698189564,0.0884292599739996
9.319999999999991,-0.0563724787643981,0.0180422811421642,0.1053319288072622
9.330000000000013,-0.0448067576886303,0.0105964947710386,0.1148373467658147
9.340000000000003,-0.0320349481106051,0.0015977681216561,0.1291750781149522
9.349999999999994,-0.033495622124887,-0.0140630508626808,0.1452799522614786
9.360000000000014,-0.0305606656145878,-0.0167425036875646,0.1536781758291534
9.370000000000005,-0.0476599713295239,-0.0127021927830553,0.1534993657482977
9.379999999999995,-0.0605040012742863,0.0046701021199524,0.1445706380747917
9.390000000000017,-0.0662057945528432,0.0183550617968932,0.1361448397657225
9.400000000000006,-0.0659755245118718,0.0167474651994874,0.1333874792874716
9.409999999999997,-0.0558821370389207,0.0128324016227798,0.1242245347130148
9.419999999999987,-0.038959072630453,0.0023827427368576,0.1268071084680487
9.430000000000009,-0.0124798831315259,-0.0046366795597152,0.1291986822405677
9.439999999999998,0.0016620199570041,-0.0063552031026416,0.1349208738938141
9.449999999999989,0.0064813189063135,-0.0128276574012567,0.1388144493189208
9.460000000000008,-0.0054882741442301,-0.006523908507392,0.135558039000993
9.47,-0.0104751902482074,-0.0116884208704311,0.1381586350589233
9.47999999999999,-0.0238774085378539,-0.0041455317737321,0.1277392292445081
9.490000000000007,-0.0282756835639492,-0.0071933826390483,0.1268876713152191
9.5,-0.0087905090294751,-0.0019029328990243,0.1271604191741351
9.509999999999993,-0.0083887360934046,-0.0133059469479943,0.1372921285162378
9.52000000000001,-0.0034551146357975,-0.0199352323351779,0.1381272200552053
9.53,-0.006892270368095,-0.0156144957203484,0.1381542213711097
9.539999999999992,-0.0067278715285381,-0.0162270164977535,0.1320142773618138
9.550000000000011,-0.0071355907767133,-0.0140778713545458,0.1374981156329336
9.560000000000002,-0.0097376664834469,-0.005919291261335,0.1354131260803956
9.569999999999991,-0.0072435644824546,-0.0123716982745246,0.1287584468177622
9.580000000000013,-0.0279135149697612,-0.0018290379313538,0.1235644431567957
9.590000000000003,-0.0558980112070671,0.0185675875748309,0.1233034387109686
9.599999999999994,-0.1015340364911879,0.0391370115184764,0.1214991095548043
9.610000000000014,-0.1571649422900373,0.0628415254681941,0.130819596306914
9.620000000000005,-0.207306250502819,0.0972009251233003,0.1300415762181531
9.629999999999995,-0.2734624916751438,0.1215174460253975,0.1242004912204365
9.640000000000017,-0.3466618670058063,0.1532236283769728,0.1155585222750106
9.650000000000006,-0.4102543449416893,0.1834473821675656,0.1071577055184469
9.659999999999997,-0.2839964764933239,0.1725380119919459,0.1030818855361232
9.669999999999987,-0.0075975734320208,0.0834818614389457,0.1024025710807366
9.680000000000009,0.1380150307009917,-0.0122424247353616,0.1007736692877249
9.689999999999998,0.1528511887456353,-0.0694634572275816,0.1019635006597675
9.699999999999989,0.1882919510526827,-0.0857673551327643,0.0743424385274291
9.710000000000008,0.196033882640745,-0.0683265660240375,0.0580744531787339
9.72,0.1655496393865871,-0.0247537200630676,0.0505515909131053
9.72999999999999,0.0953706365792458,0.0175242804097185,0.0528130688163563
9.740000000000007,-0.0175725959008314,0.0491692633836375,0.0654317613482426
9.75,-0.1450573871285315,0.0658277920937808,0.0955954955700275
9.759999999999993,-0.2319017412696115,0.100145365466103,0.1084541260915016
9.77000000000001,-0.3257981538924255,0.1279923367126859,0.1213220412590708
9.78,-0.4208313109512763,0.1673886911687873,0.1305223260651929
9.789999999999992,-0.5293927629524737,0.1953430723009134,0.1505830301092641
9.800000000000011,-0.6365711956303591,0.2189652893365649,0.1840250078114383
9.810000000000002,-0.6806018060994543,0.2501035726121642,0.1981895567474999
9.819999999999991,-0.7117683300506181,0.268666102231724,0.2260153998325518
9.830000000000013,-0.5503993958041843,0.2890761429178832,0.2257234333856652
9.840000000000003,-0.2745416581919239,0.2851821076043897,0.2053426915686684
9.849999999999994,-0.1024184500190679,0.1588814513277213,0.1955588719048355
9.860000000000014,0.049143058758301,0.0088733760573521,0.1562861424367227
9.870000000000005,0.0325905197428673,-0.045673061166679,0.1591307416892753
9.879999999999995,0.1219773980348841,-0.119551502211192,0.1332384675937431
9.890000000000017,0.2362620804845621,-0.1571823770927463,0.1108048319696628
9.900000000000006,0.3547522136978442,-0.163999950362102,0.1112607360349094
9.909999999999997,0.3340294018473677,-0.1283748062627608,0.1375743069487038
9.919999999999987,0.2732929006084943,-0.0939364632518101,0.1768217527149223
9.930000000000009,0.1828185163697848,-0.0434643445021499,0.2005264125737161
9.939999999999998,0.1279079357005792,0.0227940810252843,0.2046279394935736
9.949999999999989,0.0119658635903686,0.0359175094216685,0.2128392596012226
9.960000000000008,-0.0965332598816005,0.0450678865881534,0.213465573615465
9.97,-0.1689648991527939,0.0669347670351881,0.2261350294078679
9.97999999999999,-0.2155022968820673,0.0766297303572754,0.239928055232924
9.990000000000007,-0.2184879415057839,0.0981141074617918,0.2452910035608423
10.0,0.043559932207805,9.536675931939132e-05,0.2087480189239193
10.009999999999993,0.0085423333534589,-0.0287112292191766,0.2211889348714808
10.02000000000001,0.0243359358608126,-0.0322290380501549,0.216805679416134
10.03,0.0354895256012971,-0.0597731712835002,0.1895880335312162
10.039999999999992,-0.0012455409844013,-0.0268622846034218,0.1588733419036699
10.050000000000011,0.0020666498722787,-0.0073209126003704,0.1354588019077406
10.060000000000002,-0.0043471554163999,-0.0158262761127494,0.1396866503114076
10.069999999999991,0.0166885866567247,-0.0451318584798375,0.1401560774535281
10.080000000000013,0.0310561879436444,-0.0467854518247116,0.1433909925729167
10.090000000000003,0.0540356047918692,-0.0437496312767362,0.1438795099237347
10.099999999999994,0.0700543309178097,-0.0274691730153557,0.1463423913384201
10.110000000000014,0.0793930440468085,-0.0142756589949873,0.1576927964085848
10.120000000000005,0.0758457974036216,-0.0161742190475895,0.1801425724722834
10.129999999999995,0.0664812882151049,-0.0196645487378197,0.1919715249345335
10.140000000000017,0.064886011033978,-0.0189012823938656,0.2031366168658974
10.150000000000006,0.0698836007692571,-0.0215487509160821,0.2068835947156856
10.159999999999997,0.0592664507399108,-0.0185017672660054,0.1952567887571361
10.169999999999987,0.0150485718706903,-0.0278704198535074,0.1704811725599196
10.180000000000009,-0.0362778715887119,-0.0490093404241544,0.1387853507582378
10.189999999999998,-0.0673106722368433,-0.0553874461670636,0.1206473960298502
10.199999999999989,-0.086788802303575,-0.0649706480047163,0.1037781911881074
10.210000000000008,-0.0955428561167178,-0.0576322394403511,0.1008454988912019
10.22,-0.0840421435978729,-0.0509608199587935,0.1102412111079682
10.22999999999999,-0.0408081005703431,-0.0534042125380817,0.110456054617477
10.240000000000007,-0.0004086393510418,-0.0681246155139372,0.1016322195076536
10.25,0.0365496926764266,-0.0821565566223448,0.0882106849335714
10.259999999999993,0.0280749238370895,-0.079455548309577,0.0885752725405466
10.27000000000001,0.0162761833392041,-0.0733445937831892,0.0978290075153012
10.28,0.0102149746612693,-0.0686367295453626,0.1191215517213917
10.289999999999992,-0.0091035970968414,-0.0793602443290847,0.1360737644107861
10.300000000000011,-0.0104515869758148,-0.0824566631173292,0.1847511097001164
10.310000000000002,7.200810931780748e-05,-0.0950379018248137,0.2133225173810673
10.319999999999991,0.0199372372119678,-0.1140444277742995,0.21457818137318
10.330000000000013,0.0185413885430432,-0.112177972168552,0.2044814228466077
10.340000000000003,0.0202527434486367,-0.0869429657008671,0.1852157972137355
10.349999999999994,0.0147579484116001,-0.0483806737171914,0.1591033058754527
10.360000000000014,-0.0075531714735934,-0.007412830181301,0.1385631868209105
10.370000000000005,-0.0109407946295519,0.0591143631378292,0.1046882726028456
10.379999999999995,0.0248178975087984,0.1243155305335717,0.0724886672420567
10.390000000000017,0.0136215269540266,0.1840104851539477,0.058612608187979
10.400000000000006,0.0398518007580438,0.2113898907859114,0.0705097715588913
10.409999999999997,0.2339129653439101,0.048321701386608,0.0872797762965521
10.419999999999987,0.1817281218208936,0.0241748833457272,0.138696607697328
10.430000000000009,0.1604918458068442,0.0032001959056959,0.1385983583399229
10.439999999999998,0.1368897506858458,-0.0016628747762845,0.1268765514712058
10.449999999999989,0.1109574369091182,0.0259523263775163,0.0871884228434926
10.460000000000008,0.0808933556616621,0.0076122953957708,0.0631088969406231
10.47,0.068458535033542,0.0074980897504052,0.0529592246792135
10.47999999999999,0.0597383446849978,-0.0145341173259258,0.0590833725915066
10.490000000000007,0.0402486289608612,-0.0227024809797222,0.0601601320317916
10.5,0.0424113745031643,-0.0083411967478469,0.062870291476012
10.509999999999993,0.0252061504602803,-0.008740978919067,0.0743293476990316
10.52000000000001,0.0551107105658945,-0.0053506564949917,0.08001876900248
10.53,0.0775545113132851,-0.0082653071156041,0.0736899950364593
10.539999999999992,0.1208306217087121,0.011814186521086,0.0654253914235514
10.550000000000011,0.1291340983335271,0.004104845550445,0.0736273214797426
10.560000000000002,0.1864040206555872,0.0088229205908918,0.0943757676934553
10.569999999999991,0.1149424022442381,-0.0691586636978817,0.135102396433922
10.580000000000013,0.1854515232215106,-0.2613211168124704,0.1287875488440865
10.590000000000003,0.6096350425773016,-0.2233315323677289,0.0717208738432763
10.599999999999994,0.7222971241641766,-0.2392769175021305,0.0537794236181214
10.610000000000014,0.9703703725167032,-0.255980629626141,0.0268022414850215
10.620000000000005,1.2251730092686668,-0.2715527366105708,0.0162006676177287
10.629999999999995,1.299510579185343,-0.3660800341557805,0.0296087125531222
10.640000000000017,1.3290424919974722,-0.4317072362818401,0.027794839692989
10.650000000000006,1.5330479300202866,-0.4269322398096878,0.0138495785474537
10.659999999999997,0.6347060353488887,-0.0639964126835268,0.0390254058661127
10.669999999999987,-0.2862964515938078,0.381864261575833,0.0587030900467866
10.680000000000009,-0.1588412183876104,0.5838292129934574,0.0493172716976366
10.689999999999998,-0.3381321055584513,0.5876016989376059,0.0822119448874432
10.699999999999989,-0.143832109408543,0.2695033582103401,0.1878863004314228
10.710000000000008,-0.1356643956188834,0.1234692231100212,0.3256533851954578
10.72,-0.1316313202772076,-0.1398664565421573,0.4346600681228271
10.72999999999999,0.0530640973382877,-0.2525809728041014,0.4360723518865002
10.740000000000007,0.0265901368983794,-0.0745657848755419,0.3782853484989786
10.75,0.0420807900587046,-0.021113138633259,0.3041853185353496
10.759999999999993,0.0061155275534593,0.119740572808939,0.2482912658809813
10.77000000000001,-0.0155896471867682,0.0603979705546905,0.1946479767542616
10.78,-0.0129437992418984,-0.0375034979188912,0.1404866331540038
10.789999999999992,0.0537765793022344,-0.0471159793011429,0.0980490242764176
10.800000000000011,0.075765764255047,-0.0491176627003918,0.0423959205017356
10.810000000000002,0.0567984709873312,-0.0160476771616922,0.0301356539111771
10.819999999999991,-0.0085291878555592,0.0098978216711091,0.0443319346794009
10.830000000000013,-0.0600088125688403,0.0137663996202693,0.0490563979046056
10.840000000000003,-0.022155782477784,0.007992177431384,0.0509348848724819
10.849999999999994,0.0202745633569554,-0.0183049352293989,0.0596530718238399
10.860000000000014,0.06783190420421,-0.0198644082130694,0.0560099072893814
10.870000000000005,0.0464499765397937,-0.0217431761276478,0.0429063210591679
10.879999999999995,0.0001028072066825,-0.0210459073874114,0.0194641889811046
10.890000000000017,-0.0092620012283131,0.0082642672771861,0.0077482783054236
10.900000000000006,-0.0072281850637652,0.003744335495668,0.0059171585475668
10.909999999999997,0.0096868439779329,-0.0107512953149189,0.0122122239930348
10.919999999999987,0.023583757907123,-0.0259315507515712,0.0182650493779826
10.930000000000009,0.0217970482940496,-0.0236571375730883,0.0160224270982438
10.939999999999998,0.0147774789957748,-0.0110020745828134,0.0206841413041729
10.949999999999989,0.0098194166800525,-0.0083093386837287,0.0209877624339451
10.960000000000008,0.0147433243470363,0.0016520791504066,0.0217151849479959
10.97,0.0163202569817541,-0.0148261046207239,0.0252875276948846
10.97999999999999,0.029477018133409,-0.0172853367190084,0.0259286742136564
10.990000000000007,0.0282486062328817,-0.0164943244997451,0.0148799599775458
11.0,0.015886707338221,-0.0117201477596308,-0.0001803130025688
11.009999999999993,0.0042772913099513,-0.0156178310599383,-0.0032444902071779
11.02000000000001,-0.0057474754931471,-0.0157701145354573,-0.0049669493946053
11.03,0.0138979173586729,-0.0143608111254872,-0.0056507430345443
11.039999999999992,0.0162101961699956,-0.0215551315751406,-0.0015094912718111
11.050000000000011,0.0163435868997077,-0.0122102937957698,0.0004527022056202
11.060000000000002,0.0123653510777718,-0.0109475457448836,0.0025295635825009
11.069999999999991,0.0046030825456625,-0.012100033210678,0.0037209415612318
11.080000000000013,0.0143455333290135,-0.0085133559063321,0.0058975261749226
11.090000000000003,0.0201268447554247,-0.0023846797525902,0.0088431458038738
11.099999999999994,0.0170249395927146,-0.0105285388086785,0.0065891138041471
11.110000000000014,0.0217883895945668,-0.0163391524708984,0.0113256491754834
11.120000000000005,0.0159410210044183,-0.0156129475889096,0.0122962781360666
11.129999999999995,0.0085470270549275,-0.0132923514636363,0.016654307132172
11.140000000000017,0.0145121782535637,-0.0147921892713011,0.0118523017800981
11.150000000000006,0.0180690058927163,-0.0126298611012563,0.006810574494191
11.159999999999997,0.0078667452280305,-0.0174495218506517,0.0043535294877702
11.169999999999987,-0.0013414903375968,-0.017736797832108,-0.0038922599079748
11.180000000000009,0.0130725918956485,-0.0135238137557848,-0.0029465753276857
11.189999999999998,0.0172093146885775,-0.0161915353511726,-0.0082298200463137
11.199999999999989,0.0044623547747196,-0.0134953234990339,0.0004815402627629
11.210000000000008,0.0159525929660623,-0.0156385474594064,0.0016925946594674
11.22,0.0096229479145648,-0.0167406190914717,0.0077493979867135
11.22999999999999,0.0111080455294786,-0.0172738916555176,0.017145208639778
11.240000000000007,0.0130069857286321,-0.0112841889592062,0.015827572033701
11.25,0.0082558269292496,-0.0110782588147426,0.013844238237196
11.259999999999993,0.0023453339416443,-0.0118872765040618,0.0167204811248577
11.27000000000001,0.0106582100637354,-0.0116764798041306,0.0130286776733918
11.28,0.0178593830012524,-0.017728676498523,0.0060149592376265
11.289999999999992,0.0138152073138691,-0.0154904705235344,0.0091966819979753
11.300000000000011,-0.0065819276025264,-0.0185289075887131,0.0058170761749187
11.310000000000002,-0.0046718467853744,-0.0185260633161187,0.0063777536904217
11.319999999999991,0.0004342101540501,-0.0161721945685022,0.0029237734684809
11.330000000000013,-0.0033827942009234,-0.0141160698788201,-0.0040366834634139
11.340000000000003,0.0027592175769882,-0.0128868000526114,-0.0059307230891287
11.349999999999994,0.0082267346498739,-0.0204104195822276,-0.0085952079685357
11.360000000000014,0.0059705039557718,-0.0138915813802768,-0.0066166663011415
11.370000000000005,0.0147765058889064,-0.0139984609642952,0.0058095944092609
11.379999999999995,0.017006687016784,-0.0123321946505329,0.0093675576293236
11.390000000000017,0.0165201899090425,-0.0170675562337947,0.0171231734059059
11.400000000000006,0.0161410074921836,-0.0162591664083695,0.0273889030732673
11.409999999999997,0.0143002134110574,-0.0122460796373639,0.0292427322080616
11.419999999999987,0.0162195998994944,-0.0076200308645773,0.0279309798126532
11.430000000000009,0.016399755310948,-0.0045738041641402,0.0299376802245965
11.439999999999998,0.0168498198749388,-0.0022793751433075,0.0199428236163126
11.449999999999989,0.0138904417100549,-0.0067458661571002,0.0104567466774686
11.460000000000008,0.016559660018479,-0.0164588366371629,-0.0045179047256659
11.47,0.0056141356703945,-0.0152761770614294,-0.0116871055858993
11.47999999999999,0.0048505532336207,-0.0177541415880283,-0.0192185787734786
11.490000000000007,0.0124644476778234,-0.0133092217038903,-0.0193373558655099
