time,Gyr_X,Gyr_Y,Gyr_Z
0.0,0.0109445349800983,0.0076224561530541,-0.0007760377519142
0.0099999999999909,0.0152661161758833,0.0067379993898682,0.0024922631450935
0.0200000000000102,0.0108391590138882,0.0073852236100699,0.0085785532871256
0.0300000000000011,0.0120781952512087,0.0085129069035485,0.0119200015938574
0.039999999999992,0.0153032750912761,0.0120683535771816,0.0142406002974544
0.0500000000000113,0.0192346629011673,0.0179084218066276,0.0150837233042696
0.0600000000000022,0.0229133595421038,0.0167929602878936,0.0187924336873946
0.0699999999999931,0.0236992851592369,0.0168951705526419,0.0239623986740575
0.0800000000000125,0.0237871221108076,0.0144261881465168,0.0221573645446486
0.0900000000000034,0.0174514405449023,0.0140231232480281,0.0212901501322298
0.0999999999999943,0.0099987323284039,0.0143188813683816,0.0227401675605078
0.1100000000000136,0.0028127295644476,0.0139045565452155,0.0193426387876221
0.1200000000000045,-0.0042963854813894,0.0144183270225808,0.0155048487478755
0.1299999999999954,-0.0115846229898494,0.0150760577257095,0.0131920927711131
0.1400000000000147,-0.012555012608057,0.0154798685007035,0.0082478139279977
0.1500000000000056,-0.015131104242773,0.0141801313034742,0.0081098371154523
0.1599999999999966,-0.0156047395529933,0.0137096220020369,0.0081530898902811
0.1699999999999875,-0.0154628748440459,0.0072886453200913,0.0072629828470432
0.1800000000000068,-0.0135797232749988,0.0040036927286766,0.0095912825532013
0.1899999999999977,-0.0097704809497958,0.0031560668035167,0.0098252302548169
0.1999999999999886,-0.0125051000756776,0.001858001172121,0.0076242271502531
0.2100000000000079,-0.0060906485470576,0.0024449596632951,0.0064423537301339
0.2199999999999988,-0.0035133882639502,0.0046616855799336,0.0021138133173415
0.2299999999999897,-0.0006381661153733,0.0058508644960106,-0.0013350982985832
0.2400000000000091,-0.0012153093484569,0.0005208553422129,-0.0035419434634122
0.25,0.0017894790184725,-0.0041074729255226,-0.0029116514648009
0.2599999999999909,0.0052434564409149,-0.0071562355850593,-0.001396737506517
0.2700000000000102,0.0069931287094418,-0.009757427884248,0.0036551910580318
0.2800000000000011,0.0158200127448877,-0.008449512749093,0.0036343082951111
0.289999999999992,0.0236420558298329,-0.0030728503349314,0.0054327680055903
0.3000000000000113,0.0396781647343284,0.0018941293191196,0.0064653644303286
0.3100000000000023,0.0482980764512551,0.0012630392830853,0.0058977408152226
0.3199999999999932,0.0517331146699703,0.0036954255223767,0.0081351183577451
0.3300000000000125,0.0481810495618029,-0.0020157875882333,0.0046816182892451
0.3400000000000034,0.0371062752243407,-0.0050009259798567,-0.000233687627461
0.3499999999999943,0.0239135577393979,-0.004134683035397,-0.0070583447577702
0.3600000000000136,0.0102374433849568,-0.0041533358546145,-0.0149584778300891
0.3700000000000045,-0.0020099837342309,-0.0024743020466517,-0.0208265635131121
0.3799999999999954,-0.0065049857828055,-0.001996749421924,-0.0294212378953287
0.3900000000000148,-0.0093822345334589,0.0019382761664769,-0.0324219857454244
0.4000000000000057,-0.0108327535500735,-0.0002157643142428,-0.0318938583656617
0.4099999999999966,-0.0135705583171443,-0.0003582295035382,-0.0260383859427757
0.4199999999999875,-0.013016852137911,-0.003246191922469,-0.0201519793081441
0.4300000000000068,-0.0140225814558363,-0.0065115739952358,-0.0122295223955058
0.4399999999999977,-0.0163893936342435,-0.0049528090143352,-0.003739775421136
0.4499999999999886,-0.018243193731517,-0.0014643468655493,-0.00205446915563
0.4600000000000079,-0.0134073487528454,0.0014415083260635,0.000322962811154
0.4699999999999988,-0.016844257542719,0.0055571853998104,0.00236712721727
0.4799999999999897,-0.0162592709686905,0.0064919496693931,0.006763096121445
0.4900000000000091,-0.0144080589397428,0.0019037768998697,0.0125492164575865
0.5,-0.013738210667762,-0.0013919695120142,0.0189177823010242
0.5099999999999909,-0.0133673213534756,-0.0084068772942511,0.0201357392675551
0.5200000000000102,-0.0126732198061685,-0.0128893627172995,0.0208944172109884
0.5300000000000011,-0.0062261108421522,-0.0173324767206129,0.0232028945793654
0.539999999999992,0.0027582326315667,-0.020015124762427,0.0227586786477308
0.5500000000000114,0.0114986807182475,-0.0183387783736505,0.0210551267075889
0.5600000000000023,0.0197506249185283,-0.0104312089194705,0.0180771409457922
0.5699999999999932,0.0326682045362181,-0.0057634231555957,0.0150234133807697
0.5800000000000125,0.044330099834083,-0.0038278501561863,0.0085892377679145
0.5900000000000034,0.0540324372285536,-0.0035460887222571,0.0062637729328556
0.5999999999999943,0.0591702146973199,-0.0057356319217757,0.0081330114196288
0.6100000000000136,0.0609142932688123,-0.0040359510112496,0.0129756978847467
0.6200000000000045,0.0626974255088278,-0.005667311804725,0.0201933507499307
0.6299999999999955,0.0664172990424034,-0.00550368238145,0.0251457110137342
0.6400000000000148,0.0691873307641812,-0.0025864168669219,0.0260666024081214
0.6500000000000057,0.071320229726255,-0.002977517609871,0.0267256899528409
0.6599999999999966,0.076917025452192,-0.002328971208416,0.0232021464490171
0.6699999999999875,0.0795543169736381,-0.0009822418299003,0.0262723862320865
0.6800000000000068,0.083528285114186,-0.0029416652540778,0.0254902352460126
0.6899999999999977,0.0907850574172102,-0.0012105125519433,0.0268840917365934
0.6999999999999886,0.1059492103365442,0.0003012176574968,0.027434788542791
0.710000000000008,0.1197119877293298,0.0024151188700037,0.0278137794491664
0.7199999999999989,0.1336682026159226,0.0015314569368095,0.0242716194593436
0.7299999999999898,0.1465457150138545,0.0043326253215652,0.0224392501587721
0.7400000000000091,0.1538973440356428,0.0040026003578049,0.0241815158935708
0.75,0.1532527306728852,0.0015449178952266,0.0279489298784339
0.7599999999999909,0.1410899997692572,-0.0055175327480718,0.0336827026537789
0.7700000000000102,0.1276006541386529,-0.0129850625878336,0.0428966385631754
0.7800000000000011,0.1129125333382174,-0.0264701536780167,0.0528313828798959
0.789999999999992,0.1084977351391678,-0.037539903516441,0.061679027789937
0.8000000000000114,0.1104235401567502,-0.0408720465481747,0.0716697745050123
0.8100000000000023,0.1191306616939782,-0.0417900871175887,0.0762533041374276
0.8199999999999932,0.1286006032831861,-0.0420849943916702,0.0811192456144535
0.8300000000000125,0.1375213819470876,-0.0436186565530384,0.0828864109094455
0.8400000000000034,0.140767936010146,-0.0437247310238978,0.0846854396804585
0.8499999999999943,0.1400851097008566,-0.0395798777052592,0.0836472468008713
0.8600000000000136,0.1422698834549385,-0.0323238777505474,0.0711965468876679
0.8700000000000045,0.1380225804496928,-0.0304162591274898,0.0660318144220971
0.8799999999999955,0.1357051380471026,-0.0270799147059473,0.0612286788117054
0.8900000000000148,0.1275603003499023,-0.0199703966300026,0.0544075553072771
0.9000000000000057,0.1134981133984423,-0.0179851394436596,0.0489178254265058
0.9099999999999966,0.0924422992078324,-0.0145908665035966,0.0435705807267581
0.9199999999999876,0.0680008881074299,-0.0092769227380113,0.0394788703744296
0.9300000000000068,0.0427117491131346,-0.0019118200269693,0.0358905473569142
0.9399999999999976,0.0104072363114929,0.005956906701992,0.0374572630648938
0.9499999999999886,-0.0118463060156862,0.0126505782439585,0.0361258448975462
0.960000000000008,-0.0326852339707103,0.0186561955829604,0.0384909884508368
0.9699999999999988,-0.0546160102733097,0.0192199607039025,0.0419332135714811
0.9799999999999898,-0.0770200456278326,0.0157459933570845,0.0426507910026284
0.9900000000000092,-0.098455966531731,0.0111931205402694,0.0470147798736701
1.0,-0.1188977971543634,0.006339310486201,0.0498008468747822
1.009999999999991,-0.137850015858033,-0.0051443423100088,0.0550745854646048
1.0200000000000102,-0.1529772407395134,-0.0131885974829658,0.0601709885422683
1.0300000000000011,-0.1652283555445839,-0.0258038345253719,0.0671115710439409
1.039999999999992,-0.1763753127262156,-0.0332122259662983,0.0712632494035938
1.0500000000000114,-0.1820724672324369,-0.0426926203286661,0.0704634543329154
1.0600000000000025,-0.1851186041146825,-0.055010386837431,0.0704030359857599
1.0699999999999932,-0.190186898083599,-0.0655051896003123,0.0714158443370284
1.0800000000000125,-0.1976874618007027,-0.072771110729081,0.0703449633519226
1.0900000000000034,-0.1983618983653802,-0.0779788914009776,0.0655584577226113
1.0999999999999943,-0.1932430202401136,-0.0773838117359193,0.0520124034844876
1.1100000000000136,-0.1734697118299704,-0.0747948627740949,0.0329558331249223
1.1200000000000043,-0.1447494873955636,-0.0904485177393389,0.0174456090040491
1.1299999999999957,-0.1136469903069031,-0.1050823296904229,0.0105344990732013
1.1400000000000148,-0.082701406236939,-0.107852629559174,0.0128250435463048
1.1500000000000057,-0.0624684816126606,-0.1029605406917928,0.0187703635195652
1.1599999999999966,-0.029698348020969,-0.0947161443963077,0.0335074083007244
1.1699999999999875,-0.0001242883456872,-0.0864546015300794,0.0494096954199044
1.1800000000000068,0.0273417623330621,-0.0703815468164863,0.0678360322359792
1.1899999999999975,0.0503994752412134,-0.0525080261015685,0.0845046887399459
1.1999999999999886,0.0761718741813132,-0.0322057783006971,0.1001855532774241
1.210000000000008,0.085003811874381,-0.0181283073759252,0.1117395289863762
1.2199999999999989,0.0835387159076865,-0.0070153274707768,0.1175162662345223
1.2299999999999898,0.0658723244745257,0.0014313118122501,0.1166055664973278
1.240000000000009,0.0361694226169422,0.0041519809202907,0.1134944207362903
1.25,-0.0030454750634084,0.001631205323069,0.100580331077784
1.259999999999991,-0.0534455121570166,0.0031982014284579,0.0858447223002166
1.2700000000000102,-0.0963035741715019,0.0109715593710439,0.0749561524288615
1.2800000000000011,-0.1367998531524993,0.0317697307190309,0.058549625918872
1.289999999999992,-0.1642718461788785,0.048725048358262,0.0420966846266553
1.3000000000000114,-0.1783266216883104,0.0621620670194156,0.0307486198959607
1.3100000000000025,-0.1832545475298104,0.0808966707517399,0.0202471031045392
1.3199999999999932,-0.1761977577711641,0.0966089493171116,0.0182074287980116
1.3300000000000125,-0.1652980132609102,0.1076311780082052,0.0211861856303968
1.3400000000000034,-0.1458537883192724,0.1169644996672197,0.0232175471530538
1.3499999999999943,-0.1360486052114105,0.1411922515909644,0.0162266132765627
1.3600000000000136,-0.1411004218584289,0.1378243723154434,0.0113175817342975
1.3700000000000043,-0.1493875927811077,0.120512024227505,0.0141478760843462
1.3799999999999957,-0.1418318978485035,0.0931124519756324,0.0040050500182356
1.3900000000000148,-0.1241907319883415,0.068818539079781,-0.0070126403587703
1.4000000000000057,-0.0928791847037484,0.0490939560269382,-0.0263050406978571
1.4099999999999966,-0.0468394074596614,0.0334839420109472,-0.0416234372490701
1.4199999999999875,-0.0021533596444295,0.0267462685286764,-0.0531651908067085
1.4300000000000068,0.0384677330558797,0.0180343313872227,-0.065256081945291
1.4399999999999975,0.0692478577171524,0.0070252521093511,-0.0751135255651967
1.4499999999999886,0.0907553916009653,-0.0022789785133758,-0.0868637861978002
1.460000000000008,0.0999689637692044,-0.011395199646761,-0.0974797355958815
1.4699999999999989,0.090992487116179,-0.0260070518111868,-0.1045170707060283
1.4799999999999898,0.0788289085355468,-0.0422989444911881,-0.1113612473106232
1.490000000000009,0.0660163916088316,-0.052222651018597,-0.114795867793222
1.5,0.0623207377615366,-0.0681024397206606,-0.1243973651956518
1.509999999999991,0.0766008034425194,-0.0898373071637082,-0.1306520078259038
1.5200000000000102,0.109858703568851,-0.0923898874203769,-0.1311262561511852
1.5300000000000011,0.1603841964543096,-0.0824025831227749,-0.1233570466497615
1.539999999999992,0.2060346706244359,-0.0586536774291199,-0.1081597217170106
1.5500000000000114,0.235084046241591,-0.0419510617384144,-0.0925638427250116
1.5600000000000025,0.2494587167399538,-0.0305889543466384,-0.079026810733958
1.5699999999999932,0.253428807562569,-0.0137051034427951,-0.0681650405821222
1.5800000000000125,0.2557957473122644,0.0032226965721096,-0.0631117559009649
1.5900000000000034,0.247526136040767,0.0190780041601062,-0.0623021522345428
1.5999999999999943,0.2289089989023861,0.028427279415564,-0.0596110297646596
1.6100000000000136,0.2069760845988286,0.0250442737444656,-0.0598453977582494
1.6200000000000043,0.1827207040901425,0.0189012359433715,-0.0581735972846201
1.6299999999999957,0.1788361701067048,0.0177864261539803,-0.0621504154316434
1.6400000000000148,0.1875737063844456,0.014533578387609,-0.0675807436184446
1.6500000000000057,0.20179930577964,0.0081773594028119,-0.0712981446799859
1.6599999999999966,0.2197252852120318,-0.0026076145470362,-0.0719454181301922
1.6699999999999875,0.228577517516737,-0.0003000594014237,-0.0799211082582206
1.6800000000000068,0.2137123782196797,0.0051631001225046,-0.0871054701554473
1.6899999999999975,0.1949806485642612,-0.0124156365960209,-0.0713976769387543
1.6999999999999886,0.1903014007169288,-0.0337552840080388,-0.0665836390085847
1.710000000000008,0.2145256038094226,-0.0436319494859506,-0.0814243039452531
1.7199999999999989,0.2461904955854563,-0.0491551463161725,-0.0936475974184859
1.7299999999999898,0.2572669378803974,-0.0606024744248161,-0.0968959541589505
1.740000000000009,0.2487091457224001,-0.078761899102847,-0.0906071092953034
1.75,0.2297255995346259,-0.0906999182219115,-0.0878894421299836
1.759999999999991,0.2051485787265577,-0.0896262678410052,-0.0960033060374222
1.7700000000000102,0.1833487390336518,-0.0906114489628778,-0.1082403529789612
1.7800000000000011,0.1763688196939468,-0.0952378366251399,-0.1212382099615405
1.789999999999992,0.1728719285304422,-0.0967780494829751,-0.127341536001543
1.8000000000000114,0.1746346659446309,-0.098912672664245,-0.1408950752884407
1.8100000000000025,0.171588263361448,-0.0999498588238128,-0.1551530502516765
1.8199999999999927,0.1676898531785618,-0.0990978674716023,-0.1691149457125398
1.8300000000000125,0.1591865573101022,-0.0997263915457548,-0.1764044867215913
1.8400000000000036,0.1432632994126072,-0.0976233258525313,-0.1737371494582649
1.8499999999999943,0.1303341753129991,-0.0921387522538094,-0.1715478157249114
1.8600000000000136,0.1248222259469813,-0.0763110504336723,-0.1730897399499099
1.8700000000000043,0.1310904759842963,-0.0513847226247243,-0.1804790540807701
1.8799999999999957,0.1413563973962473,-0.0380784989331496,-0.1881567611957572
1.8900000000000148,0.144219707946533,-0.0245032208910461,-0.1946466892605907
1.9000000000000057,0.1390577427457425,-0.0134052562827211,-0.1994982537740174
1.9099999999999968,0.1170679914263234,-0.0010974209544663,-0.2044689660929159
1.9199999999999875,0.0825738190356016,0.0149640270279424,-0.2131065652592875
1.9300000000000068,0.0410934689158487,0.0221403322766374,-0.2193698930565411
1.9399999999999975,-0.0133483252509669,0.0336112207073864,-0.2261400831565084
1.9499999999999889,-0.0744004806727755,0.0442596243753968,-0.230146715309453
1.960000000000008,-0.1309930851356043,0.0541531115344613,-0.244710985968499
1.9699999999999989,-0.1735723789647115,0.0649151617635639,-0.2605720286348162
1.9799999999999895,-0.208527650706761,0.068220299439935,-0.2810003500522959
1.990000000000009,-0.2405091906691001,0.076124851855813,-0.2999272396421761
2.0,-0.2782062658769746,0.0802813895619571,-0.3092995426460549
2.009999999999991,-0.316814250178314,0.0780525795474262,-0.3194534323495207
2.0200000000000102,-0.3540941482907949,0.0690859238984378,-0.326202449258516
2.030000000000001,-0.3920777144326393,0.0539333660860143,-0.3335398928014819
2.039999999999992,-0.4069278640935583,0.0378971027807838,-0.3472494664536318
2.050000000000012,-0.405929790982646,0.0147866224782517,-0.3624380063717694
2.0600000000000023,-0.3918754456724543,-0.0106857047700793,-0.375523937438834
2.069999999999993,-0.3676629543465747,-0.0344216295438852,-0.3848298514226085
2.0800000000000125,-0.3284995118972845,-0.0543831475988913,-0.3986478054156174
2.0900000000000034,-0.2798400363982661,-0.0688656624092951,-0.4165657842508696
2.0999999999999943,-0.2437680921618451,-0.0820103823817828,-0.4310078239122746
2.1100000000000136,-0.2079830128402343,-0.0973135751998964,-0.4382650544997757
2.1200000000000045,-0.1894288605002657,-0.1132902092540806,-0.4438849192862205
2.1299999999999955,-0.1730646311488616,-0.1277961628488814,-0.4454775373818688
2.140000000000015,-0.1570874921262605,-0.1405529255472165,-0.4466555488242704
2.1500000000000057,-0.1418444087609279,-0.1514933880022297,-0.4508344601504241
2.1599999999999966,-0.122964219610175,-0.1580853529071036,-0.4544459312596951
2.1699999999999875,-0.093356202447074,-0.1646485383925884,-0.4554660200066802
2.180000000000007,-0.0627352235671043,-0.1773459364550554,-0.4516508132096241
2.1899999999999977,-0.034209813245476,-0.1948194062402608,-0.4385221522483709
2.1999999999999886,-0.0016777134789883,-0.2126015996303824,-0.4228033045522846
2.210000000000008,0.0255901278425329,-0.2332106805494286,-0.4080483854736867
2.219999999999999,0.0414315733465722,-0.2474506697962187,-0.3948340561958283
2.2299999999999898,0.0457113274581312,-0.2682628111765876,-0.3779794775071816
2.240000000000009,0.0412278088769012,-0.2846140607925753,-0.3659205012652396
2.25,0.0183782414817163,-0.2967809916073891,-0.3566905877080196
2.259999999999991,-0.0205321027889876,-0.3122909930995231,-0.3496230078817115
2.2700000000000102,-0.0671729351473337,-0.3272089512196485,-0.3442072462630467
2.280000000000001,-0.1176819481307145,-0.3347575487741961,-0.3299185926798871
2.289999999999992,-0.163468207243103,-0.337017769865082,-0.3166623673949827
2.300000000000012,-0.2077544701270008,-0.3411103544319835,-0.3093052584523504
2.3100000000000023,-0.2392216266210592,-0.3395126456767917,-0.3075239406774175
2.319999999999993,-0.2517302036109602,-0.3285348046774664,-0.3048525342688643
2.3300000000000125,-0.261484418951575,-0.303483519857987,-0.2948777672587596
2.3400000000000034,-0.2689598294376061,-0.287612978052663,-0.2841403615945168
2.3499999999999943,-0.2880151008338729,-0.2643917328750594,-0.2562457542146539
2.3600000000000136,-0.3081550672676354,-0.2362963343203191,-0.227493810773631
2.3700000000000045,-0.3361389541061164,-0.2132408830014243,-0.1999897827763634
2.3799999999999955,-0.3699518532969698,-0.1873123435025084,-0.176165453976084
2.390000000000015,-0.3987290251667086,-0.1710853093760616,-0.1604459901786598
2.4000000000000057,-0.4250251294528208,-0.1584757927347224,-0.1472933133927971
2.4099999999999966,-0.4435720128001877,-0.1532485105081292,-0.1343845956728355
2.4199999999999875,-0.4552491564298748,-0.151268241456423,-0.1217799976147204
2.430000000000007,-0.4587223196134334,-0.1556244742188205,-0.1120592428098152
2.4399999999999977,-0.4479669698523866,-0.1632284190932153,-0.0956102574294898
2.4499999999999886,-0.428693280978613,-0.1678601811065367,-0.0790081850019804
2.460000000000008,-0.4043943471500237,-0.1741594194230669,-0.0722984094256461
2.469999999999999,-0.371866226171445,-0.1819120509721629,-0.0647736645377829
2.4799999999999898,-0.3301738977668919,-0.1824490123351319,-0.0623820541597461
2.490000000000009,-0.2821150339442947,-0.1755776635150817,-0.0653920399317883
2.5,-0.2328055590683388,-0.1742338234076755,-0.0688670896568307
2.509999999999991,-0.1926595104503095,-0.170077385728602,-0.0664492729130328
2.5200000000000102,-0.1572502582302848,-0.1702299076841128,-0.0578811628274742
2.530000000000001,-0.134744673279347,-0.1735379538282088,-0.0494789572703221
2.539999999999992,-0.1362862330348749,-0.1770364623915671,-0.0382843258675716
2.550000000000012,-0.1425677894476789,-0.1852888159655318,-0.0237176446880029
2.5600000000000023,-0.1472905063457482,-0.1900652611337978,-0.0090420116549388
2.569999999999993,-0.1426338171176351,-0.184169752724686,0.012891626510998
2.5800000000000125,-0.136772476902018,-0.1824042935859819,0.036644852449306
2.5900000000000034,-0.1297865674153273,-0.1773648201275547,0.0602206692655453
2.5999999999999943,-0.1159414309611127,-0.1645003059110938,0.0929152778077486
2.6100000000000136,-0.1042622333746991,-0.1583241124297475,0.1192185835969103
2.6200000000000045,-0.0985101121734157,-0.1543591810493012,0.1482208723341884
2.6299999999999955,-0.0981091656519741,-0.151890142175206,0.1610677949343386
2.640000000000015,-0.0983309753337492,-0.1508548378181025,0.1645369932131516
2.6500000000000057,-0.098724576844624,-0.14932662531988,0.1696711523250687
2.6599999999999966,-0.0989234629223535,-0.1476237684044286,0.1746020729578599
2.6699999999999875,-0.1036955151884145,-0.1372508378918973,0.1914292506251712
2.680000000000007,-0.1104748304637503,-0.1223170299633648,0.2053507560734156
2.6899999999999977,-0.1126071707591174,-0.1113226858301282,0.213060341078701
2.6999999999999886,-0.1196679580793042,-0.0998685171920706,0.2236597532842866
2.710000000000008,-0.1231993273555018,-0.0979240571425442,0.2374503165907018
2.719999999999999,-0.1290399956627926,-0.0980752473744798,0.2634416367576627
2.7299999999999898,-0.148368780231298,-0.1015761817938077,0.2966778800930972
2.740000000000009,-0.1781395749466658,-0.1073256907580438,0.3330307591251506
2.75,-0.2168491308124606,-0.1156311148161412,0.38101814135439
2.759999999999991,-0.2536075791989051,-0.1258807113484122,0.4224335739773549
2.7700000000000102,-0.2867681563159607,-0.136668565248837,0.4547728350113761
2.780000000000001,-0.3240745246621772,-0.1513473334480669,0.4871742964705948
2.789999999999992,-0.3551122631415077,-0.1671094963273059,0.5168588709209135
2.800000000000012,-0.3711185056304966,-0.1834989433081218,0.5425677448216274
2.8100000000000023,-0.3581979206989406,-0.1930602087932708,0.5627542131249068
2.819999999999993,-0.3255180437715274,-0.1920791503486216,0.5816624332449968
2.8300000000000125,-0.2866873876126055,-0.1894020598820136,0.6016210002420807
2.8400000000000034,-0.2532074936758979,-0.1925918978834211,0.6205578477404121
2.8499999999999943,-0.2236877365025661,-0.1962785201148649,0.6372263124831408
2.8600000000000136,-0.1925522465118201,-0.1954914307795631,0.656117654181422
2.8700000000000045,-0.1612989087111275,-0.1973834869742863,0.6871056781973638
2.8799999999999955,-0.1408837396689592,-0.191827220497827,0.7195293363979854
2.890000000000015,-0.125366973221759,-0.1847523517477139,0.7631551544122065
2.9000000000000057,-0.1000404155541334,-0.165882940693645,0.8125778730520296
2.9099999999999966,-0.0804743681786177,-0.1344930779182593,0.8524280490113879
2.9199999999999875,-0.0646524277374453,-0.1055072469208856,0.904559246614881
2.930000000000007,-0.0508130347393642,-0.0816581830492895,0.9510356927856504
2.9399999999999977,-0.0384665446718363,-0.0697831194708778,1.0012456428860217
2.9499999999999886,-0.0281752095552331,-0.0639544822557874,1.0488346457570483
2.960000000000008,-0.0198330486991447,-0.0581861205201954,1.097314362474059
2.969999999999999,-0.0056337527199182,-0.0589203468700292,1.127043208599015
2.9799999999999898,0.0078044939470152,-0.0589863585424224,1.1488093328663669
2.990000000000009,0.0181996031426593,-0.0562243460842417,1.162972959004204
3.0,0.0206109823111099,-0.0560218096306057,1.1756154379631094
3.009999999999991,0.0136523728415612,-0.0583584528860519,1.1901049606980645
3.0200000000000102,-0.0018755577349764,-0.0576171139504353,1.2096596907940442
3.030000000000001,-0.0171384099542137,-0.0566086932269751,1.2389424374981557
3.039999999999992,-0.0237721030294583,-0.0499650493499158,1.2731449481911423
3.050000000000012,-0.013611647969929,-0.0470600833985681,1.303994737524281
3.0600000000000023,-0.0071185761613937,-0.0433948739064343,1.3139665129862923
3.069999999999993,-0.0011395908183702,-0.0405274790900031,1.3147225069352844
3.0800000000000125,-0.0063816703508592,-0.0332626180262393,1.3135297474568242
3.0900000000000034,-0.0136471999168913,-0.0218482830813759,1.3215267500767918
3.0999999999999943,-0.0110332935423104,-0.0101067056709268,1.3331524852125527
3.1100000000000136,-0.0003298102943742,0.0090663947768374,1.3481329504632076
3.1200000000000045,0.0225542853722852,0.0342388382566245,1.366176742841604
3.1299999999999955,0.0359569279189301,0.0574199322047523,1.3749550108783417
3.140000000000015,0.0275573437203253,0.0739141346514356,1.3819956909471116
3.1500000000000057,0.0044060968092568,0.0891295584749504,1.3815094229877454
3.1599999999999966,-0.024860592754566,0.1046130696670974,1.37629672146809
3.1699999999999875,-0.0617327975407345,0.1172332863584542,1.367153564679265
3.180000000000007,-0.0985643288644923,0.1408225173049056,1.3503772013140751
3.1899999999999977,-0.1394817850202319,0.1565487787553888,1.3330812472020628
3.1999999999999886,-0.1753185100262221,0.1513958833152698,1.3190780957041737
3.210000000000008,-0.2071005825206433,0.1469126820552745,1.2989050957202406
3.219999999999999,-0.236297264703066,0.1407984082992706,1.2806933850311355
3.2299999999999898,-0.2739475217477648,0.1359206993435338,1.264286907122129
3.240000000000009,-0.3343548514667757,0.1347569789080799,1.253414031742414
3.25,-0.4053435453281012,0.1632043044505827,1.2687994831269642
3.259999999999991,-0.5017180700895408,0.1659363897823898,1.2946466192465107
3.2700000000000102,-0.5875165587603276,0.1771113237900354,1.321495271742751
3.280000000000001,-0.6383725353105517,0.1907055311644092,1.347535740499452
3.289999999999992,-0.6596061539243949,0.1786705265116528,1.3723204373964053
3.300000000000012,-0.6395322789161604,0.1639001803734015,1.3824000620396992
3.3100000000000023,-0.5957769587586791,0.1647924741693538,1.382812308093835
3.319999999999993,-0.5651519228116006,0.1687909170714706,1.38089813313553
3.3300000000000125,-0.5898481086704501,0.1764946207510665,1.380725013277463
3.3400000000000034,-0.6363213752240097,0.1838559635761314,1.3909542272564244
3.3499999999999943,-0.7210335207701557,0.172618607259994,1.4208695400855516
3.3600000000000136,-0.8115721864401696,0.1499320940031114,1.4627799551383038
3.3700000000000045,-0.8644889418413275,0.1359513821599632,1.4958283034218172
3.3799999999999955,-0.8954557299028727,0.1270447460832345,1.5165547436707687
3.390000000000015,-0.9157770624406636,0.1314872323753745,1.5306218303510708
3.4000000000000057,-0.950331880435225,0.1453181441997963,1.538047131075398
3.4099999999999966,-1.019023398656542,0.1545442356309483,1.5461858779347613
3.4199999999999875,-1.120543573395823,0.1637865054345487,1.5499416788890523
3.430000000000007,-1.1981840533380077,0.1753106429607666,1.5456492716760253
3.4399999999999977,-1.225135285699909,0.1901341702494863,1.531638155007103
3.4499999999999886,-1.1854491631896344,0.2040236703713637,1.509785341808326
3.460000000000008,-1.1066427726490853,0.2162996630582355,1.486067549441915
3.469999999999999,-1.0000260370343403,0.2335533225573674,1.4534995767181582
3.4799999999999898,-0.8866517423376994,0.2465234772045987,1.4161365113784736
3.490000000000009,-0.7736183969222165,0.2553994364146043,1.3671998336617557
3.5,-0.6939374045266483,0.2506103972208534,1.3156203620497382
3.509999999999991,-0.6380512384093722,0.2379933947030945,1.2633664521274408
3.5200000000000102,-0.6006050555399273,0.2289002825156307,1.2125414757200237
3.530000000000001,-0.5852249314156392,0.2261313528507068,1.134625992649111
3.539999999999992,-0.5840902808400609,0.2318031897325864,1.0438957475998754
3.550000000000012,-0.5745356732063827,0.233591781395838,0.9396384554778474
3.5600000000000023,-0.5532833453347975,0.2276918060387683,0.8440339326682059
3.569999999999993,-0.5213810794147585,0.2224048568741843,0.7526889743853687
3.5800000000000125,-0.4829826133588124,0.2150316850234483,0.6841498646864094
3.5900000000000034,-0.4628542472804451,0.1972780700774292,0.6220248787411299
3.5999999999999943,-0.451917995721118,0.1774269943153291,0.5497532911745583
3.6100000000000136,-0.4528789104219526,0.1583298610487007,0.4864014408046024
3.620000000000005,-0.4559373240662897,0.1443824030363441,0.4256166037699707
3.629999999999996,-0.4542479727575882,0.1343192340110622,0.3617840688590199
3.640000000000015,-0.450449565617408,0.1254093895889562,0.2927410774414999
3.6500000000000057,-0.4549863401760136,0.1197218154435351,0.2256075842900455
3.6599999999999966,-0.4664178505098886,0.1194440868831775,0.1522984363970962
3.669999999999988,-0.4972274481120808,0.1046626325845319,0.0781276244026175
3.680000000000007,-0.5531468550380416,0.072629592346097,0.0292547981138374
3.6899999999999977,-0.6579099264744338,0.0262362078106712,-0.0102657774097752
3.6999999999999886,-0.7842453043808526,-0.0281534089650004,-0.0462452018152017
3.710000000000008,-0.910191035726782,-0.0772736106514395,-0.0803150971187644
3.719999999999999,-1.0089384543537157,-0.1122908702826708,-0.1142328600722975
3.7299999999999898,-1.0457084043143934,-0.1211356203618408,-0.1397797403031763
3.740000000000009,-1.0426006365045002,-0.1143242667964023,-0.166178544947574
3.75,-1.016676196245943,-0.1021868803801916,-0.1865905794310493
3.759999999999991,-0.9868459408811014,-0.0794058623580845,-0.2028835061575263
3.77000000000001,-0.9611017135888208,-0.0523001917985563,-0.211553320662161
3.780000000000001,-0.9321706704299728,-0.0311490091873654,-0.2023590130019086
3.789999999999992,-0.8829613128544395,-0.0097631388444219,-0.1753595247958794
3.8000000000000114,-0.8254264060904476,0.0086599792250173,-0.1435699110716723
3.8100000000000014,-0.754280511360627,0.0292285162856562,-0.1173922355072749
3.819999999999993,-0.678034012904242,0.0495831233393461,-0.1044068700663715
3.830000000000013,-0.6099857444394446,0.0637675382474371,-0.0901557737378338
3.8400000000000034,-0.5592554791236936,0.0635034581967671,-0.0658219093373049
3.8499999999999934,-0.5413158688990513,0.0500403295642539,-0.0423422685014095
3.8600000000000136,-0.5461226949823617,0.0356599231202016,-0.0093854257915618
3.870000000000005,-0.5606726338458554,0.0279520701800358,0.0115203187864088
3.879999999999996,-0.5817047691836955,0.0311811086263082,0.0124951575701283
3.890000000000015,-0.5939951354536575,0.0447259339519993,0.0055120299583375
3.9000000000000057,-0.5808222346900075,0.0607954262545307,-0.0060351018190578
3.9099999999999966,-0.5389822769066182,0.0772340178411363,-0.0116304179172499
3.919999999999988,-0.4816789163631648,0.0918796103482328,-0.0189857056801572
3.930000000000007,-0.4300490686320298,0.1069633323505341,-0.022859786548928
3.9399999999999977,-0.3929650205690612,0.1187664917305406,-0.0240462786297381
3.9499999999999886,-0.3744624211223001,0.1164517530634079,-0.0199093275960353
3.960000000000008,-0.3762187276294048,0.1059088525986062,-0.0165536711924043
3.969999999999999,-0.3865915127167792,0.0934323617716841,-0.0175237348783677
3.9799999999999898,-0.3994857594864822,0.0800760715855733,-0.0195708656624392
3.990000000000009,-0.3933155744809103,0.0722361757277067,-0.0293181452171173
4.0,-0.3594699501052709,0.0707419240965477,-0.044582623169403
4.009999999999991,-0.266813471677614,0.0664183731782306,-0.0828259759196263
4.02000000000001,-0.146803435310099,0.0580848663449053,-0.1187367743417
4.030000000000001,-0.0210758191048048,0.0507483781511254,-0.1498760846925267
4.039999999999992,0.0870685109975518,0.0434899422790038,-0.1860834614269257
4.050000000000011,0.1546317292941919,0.0434013127997221,-0.2286170262238794
4.060000000000002,0.1931721850069639,0.0443433595192739,-0.2709598595973315
4.069999999999993,0.2032365230073985,0.0508638716469909,-0.3125977489270613
4.0800000000000125,0.1976115592983366,0.069611091470493,-0.3561303012534662
4.090000000000003,0.1772188401052883,0.0827047432658477,-0.4102468206186835
4.099999999999994,0.1646076095677062,0.0937159700538411,-0.4592799928497454
4.110000000000014,0.1687754482920319,0.0944985093904845,-0.5105694222573055
4.1200000000000045,0.2023884183333171,0.0944812760353466,-0.5684004479703936
4.129999999999996,0.2589680142319789,0.0892557349986542,-0.6164706234057948
4.140000000000015,0.3327398906025786,0.0781367554124885,-0.6647265665297413
4.150000000000006,0.4271277233381349,0.0599993151251652,-0.7163820787902586
4.159999999999997,0.5032611243696715,0.0358875341528018,-0.7682206733752289
4.169999999999988,0.5498302033407088,0.0068824659310208,-0.8192358851769098
4.180000000000007,0.5758969894841169,-0.0355504708042129,-0.8737589666641387
4.189999999999998,0.5753258264248655,-0.0883562134875019,-0.9267701608300296
4.199999999999989,0.5591084052578873,-0.1590980291202531,-0.981318489691256
4.210000000000008,0.5253635447366528,-0.226520727518134,-1.021948659031626
4.219999999999999,0.4905703284983674,-0.2863093146848228,-1.0570437416985714
4.22999999999999,0.4472459839407067,-0.3528064583840544,-1.0997092185678718
4.240000000000009,0.4121184808424928,-0.4018581267680443,-1.1480488632152597
4.25,0.3813178354748048,-0.4476371738385167,-1.2043201112124475
4.259999999999991,0.3479326199237533,-0.4940799423052314,-1.2663181226669071
4.27000000000001,0.3253219582895292,-0.5341405266170972,-1.332107018337285
4.280000000000001,0.3337009635046242,-0.5824503146340262,-1.4042979362364807
4.289999999999992,0.3851257724182645,-0.6201226279032237,-1.4699542081449637
4.300000000000011,0.4617058754478623,-0.6504491023347927,-1.5284829202777623
4.310000000000002,0.5361704718919571,-0.6858386762876254,-1.5782162917048
4.319999999999993,0.5930496742811872,-0.7283980694163754,-1.6181183203564884
4.3300000000000125,0.6235594197599801,-0.7634555792277132,-1.640281442334063
4.340000000000003,0.6349565194028626,-0.7949244214170844,-1.6533329042162908
4.349999999999994,0.6290838990599427,-0.8304756215326469,-1.662802338087596
4.360000000000014,0.6016201382889789,-0.8614724496172674,-1.6658380595825562
4.3700000000000045,0.5605628012725535,-0.8899929608337446,-1.668257401170593
4.379999999999996,0.5045983756104447,-0.9078547060348332,-1.670636339166908
4.390000000000015,0.4529544458948562,-0.9163343499022314,-1.6805954689843436
4.400000000000006,0.4179198895188144,-0.9192332577153368,-1.6921827787967811
4.409999999999997,0.3975340890862764,-0.9218687321276968,-1.698298013291182
4.419999999999988,0.3890035978933377,-0.9237460749581636,-1.6980096691336342
4.430000000000007,0.3810569601310094,-0.921303171756804,-1.6858438132627436
4.439999999999998,0.3829315519228109,-0.9191582805381424,-1.6747543358803494
4.449999999999989,0.3964267660594522,-0.9100686821385884,-1.6591176501052505
4.460000000000008,0.4232716416360841,-0.8962830373557997,-1.6496905166635898
4.469999999999999,0.4633479525466621,-0.8835549757998918,-1.6466497938919655
4.47999999999999,0.4963612032822402,-0.8753064274008396,-1.646344588780297
4.490000000000009,0.5213456892331653,-0.8723488362712711,-1.6344083002765706
4.5,0.5201633232095894,-0.8810034380184176,-1.6116341809636223
4.509999999999991,0.4857538516219228,-0.9014770027675088,-1.5767554330389812
4.52000000000001,0.4217838899754573,-0.9161020628327848,-1.530561333626128
4.530000000000001,0.3381458807805007,-0.9403048419115044,-1.479903586743128
4.539999999999992,0.2550811062416347,-0.9624012772863276,-1.4222534702036695
4.550000000000011,0.2017719919839059,-0.9678760315976314,-1.3764809269092655
4.560000000000002,0.1578017310601806,-0.9718006144211292,-1.3387835843089402
4.569999999999993,0.1187515226409664,-0.9775258876206854,-1.310936705791167
4.5800000000000125,0.1006794015440822,-0.9793844780659392,-1.297155382480406
4.590000000000003,0.0985217363107533,-0.970631338884454,-1.2868365023686024
4.599999999999994,0.104209245259247,-0.956771994311014,-1.2728908355150996
4.610000000000014,0.1075430922905721,-0.9327094269228106,-1.24878295576391
4.6200000000000045,0.1076692583241743,-0.906749773110819,-1.2229917870499718
4.629999999999996,0.0987867885039149,-0.8855436532406574,-1.1872686865467066
4.640000000000015,0.0688400636987657,-0.8615905295590454,-1.144993163616013
4.650000000000006,0.0283110381354462,-0.848731375761921,-1.104714642606694
4.659999999999997,-0.0093394482895713,-0.8392537544177173,-1.0646851235544683
4.669999999999988,-0.0341861681747729,-0.8288771669725662,-1.035580920537322
4.680000000000007,-0.0415053280673464,-0.8173621071310897,-1.0089554450627258
4.689999999999998,-0.0388124627021463,-0.8127616682313729,-0.9869163616540956
4.699999999999989,-0.0308324706055873,-0.8187162435206438,-0.966784649989918
4.710000000000008,-0.0180775265176601,-0.8224377149158245,-0.940512286333176
4.719999999999999,-0.0044018579830796,-0.8297191172529979,-0.912504921784986
4.72999999999999,0.0096556399466357,-0.8411308251211623,-0.8751501139356306
4.740000000000009,0.0314477771281764,-0.859539885008753,-0.8398370725373248
4.75,0.0537099114279837,-0.8821849095766084,-0.8020400352710959
4.759999999999991,0.0906794375212705,-0.9113312084242328,-0.758892411243322
4.77000000000001,0.12215293093422,-0.9348860168421572,-0.7205276843154481
4.780000000000001,0.1393361197231738,-0.9529607380212392,-0.686588531550785
4.789999999999992,0.1541016156458052,-0.9753934638588888,-0.6612183469356739
4.800000000000011,0.1570751429232016,-0.9962352773750726,-0.6308666083781929
4.810000000000002,0.1488765287292743,-1.015095916732624,-0.6047126506294686
4.819999999999993,0.1353883424564215,-1.0310036636570088,-0.5786833429482795
4.8300000000000125,0.1166691036205355,-1.0452047402042584,-0.5442209720713427
4.840000000000003,0.1029597415094188,-1.055408890996026,-0.508064654292479
4.849999999999994,0.1005486854836552,-1.0676525382858109,-0.475543416933792
4.860000000000014,0.1083287558621677,-1.0735410448861693,-0.4411110849458456
4.8700000000000045,0.1253005249121672,-1.0754200124411413,-0.4093731867405901
4.879999999999996,0.139740771181275,-1.0744697244718395,-0.3780862370119363
4.890000000000015,0.1498368135586705,-1.0693817434434063,-0.3467980939605716
4.900000000000006,0.1650358437778604,-1.0666584622612876,-0.3146409170503621
4.909999999999997,0.1847547490516246,-1.0616188163988154,-0.2829698674378495
4.919999999999988,0.210590452363142,-1.0535974505154442,-0.2585651071588556
4.930000000000007,0.2468707732729279,-1.0413523626773786,-0.2285045298562504
4.939999999999998,0.2777071575617124,-1.0316323603732285,-0.1928662247569578
4.949999999999989,0.2985235057393227,-1.0234848033945654,-0.1522177235658722
4.960000000000008,0.3080160910371191,-1.0149877145793047,-0.1097427756640928
4.969999999999999,0.312952802728676,-0.99542221247261,-0.0483009010368377
4.97999999999999,0.3177288238605991,-0.9701505208102844,0.015825228132538
4.990000000000009,0.3216977688911581,-0.9393303462543564,0.0692582997447811
5.0,0.3235384743982548,-0.8973529746713214,0.1222787532905488
5.009999999999991,0.3179603938316969,-0.8628177438387795,0.1601996927201847
5.02000000000001,0.3024214862733582,-0.8299941169579796,0.1991459044369767
5.030000000000001,0.2831268853523638,-0.8089567001982182,0.2459756858077017
5.039999999999992,0.27446485785612,-0.7908734025291928,0.2909039077751778
5.050000000000011,0.2861613738445649,-0.7601882411977717,0.3503500289708326
5.060000000000002,0.3130196271130342,-0.7262574656013684,0.4021483368261414
5.069999999999993,0.3560667347998377,-0.6811574168615164,0.4560027325107517
5.0800000000000125,0.4004247119817989,-0.6350386362990215,0.5089540319363937
5.090000000000003,0.4485836902908938,-0.5799916343718904,0.563777143452559
5.099999999999994,0.4858569122952478,-0.5235790403342404,0.6190212631602344
5.110000000000014,0.4996618121628856,-0.4676065216688782,0.667356822179987
5.1200000000000045,0.4975287308557304,-0.3976907365456607,0.721867348291858
5.129999999999996,0.4731698872378474,-0.33151480166462,0.7836035804086079
5.140000000000015,0.4544291962959495,-0.2625971215956342,0.8439329464492208
5.150000000000006,0.4581393939082925,-0.1820267764278102,0.9066415608867254
5.159999999999997,0.4834824492574295,-0.1068736850470716,0.9620848096582826
5.169999999999988,0.5140936670988319,-0.0271010575304614,1.0193451033773515
5.180000000000007,0.5426933624628558,0.0494105905456628,1.0827496150974365
5.189999999999998,0.5598621684937259,0.122466356421981,1.1476100156867068
5.199999999999989,0.5678982958084817,0.2087856901109806,1.2274017052472892
5.210000000000008,0.5694645869022522,0.2961877577805161,1.306601324084545
5.219999999999999,0.5662597986766051,0.3744851466572708,1.3728180824464655
5.22999999999999,0.5685496516771177,0.457960604716602,1.430583063776793
5.240000000000009,0.5914691733892785,0.5658999846881937,1.4943772339475294
5.25,0.6301606132582896,0.6657714047668055,1.5462206824597022
5.259999999999991,0.6675890525445378,0.7642964522332488,1.5946189526351593
5.27000000000001,0.702989214325617,0.8685742927863672,1.647269679505972
5.280000000000001,0.7112424707826187,0.9738830739966742,1.717852022909467
5.289999999999992,0.7000004224580261,1.0691040394354698,1.783902848652308
5.300000000000011,0.6816489611793427,1.146189234161391,1.831143141592383
5.310000000000002,0.6634866587586846,1.2307006227345103,1.880221409113096
5.319999999999993,0.655751784639435,1.3028854158536636,1.9184523681029049
5.3300000000000125,0.6619934617606688,1.3761379197645085,1.941689512061092
5.340000000000003,0.679131644945282,1.4518280350504549,1.953184525550016
5.349999999999994,0.6993288653972234,1.5356257629738177,1.958136489356092
5.360000000000014,0.7083485120548293,1.6277354862103213,1.95619458144157
5.3700000000000045,0.6967834270720741,1.7106670788299727,1.9450637976175156
5.379999999999996,0.6694259296274635,1.786316139579174,1.9253267818826745
5.390000000000015,0.6181310374860636,1.8597504761166588,1.9044442000091637
5.400000000000006,0.5399744117429147,1.9330054594567667,1.8824418300800108
5.409999999999997,0.4565210925299872,1.9963803969373928,1.8611906600788417
5.419999999999988,0.3913736606320446,2.060902636112729,1.8322716932043184
5.430000000000007,0.3475494522460308,2.1206030545680354,1.8012056413115072
5.439999999999998,0.3258612669894761,2.177267167930521,1.7740396643496623
5.449999999999989,0.309961725652784,2.241011233141781,1.7342744376668011
5.460000000000008,0.297728110077193,2.306093476804771,1.6994713732134823
5.469999999999999,0.288033056471075,2.3617156077409542,1.6705766426619648
5.47999999999999,0.2721092787869207,2.416969080216305,1.6345095939123724
5.490000000000009,0.255325607412257,2.455565531982558,1.6031304432717135
5.5,0.2412959978599888,2.477362774993271,1.5625257427982002
5.509999999999991,0.2285088481267664,2.488074639302346,1.5213981126432703
5.52000000000001,0.2311896320511819,2.493183713013355,1.4857937684062643
5.530000000000001,0.2380122002387249,2.499650552170995,1.4490873115957728
5.539999999999992,0.2563291752736573,2.513084952379704,1.4128176594462385
5.550000000000011,0.2797859740684393,2.533148427379318,1.3731968746231946
5.560000000000002,0.3028395188636297,2.5507482814008555,1.332647819497535
5.569999999999993,0.3314898601874881,2.5650240658205874,1.2905800724404994
5.5800000000000125,0.3713141319120739,2.574843999607553,1.2515742483608854
5.590000000000003,0.4144899920184807,2.5770513716604637,1.2209870337761757
5.599999999999994,0.4638124789716868,2.5777204134197063,1.1930302497292518
5.610000000000014,0.5130324453365461,2.578927004445513,1.1701083001486354
5.6200000000000045,0.5418852541831225,2.584679586571235,1.1415870800809826
5.629999999999996,0.556425971482948,2.595218827869178,1.116295591524436
5.640000000000015,0.5422019432275308,2.594081364874332,1.102398705069929
5.650000000000006,0.5107505393629898,2.5786198239416325,1.0876235941456986
5.659999999999997,0.4627376238448736,2.5533055662481705,1.0743009244369308
5.669999999999988,0.3994003374039012,2.5208942177803717,1.0607584378320516
5.680000000000007,0.3293815872926059,2.487812658759143,1.0493255962445265
5.689999999999998,0.2601923817314663,2.460649407488612,1.0272504513312493
5.699999999999989,0.1961893721342565,2.434363111901613,1.001122975749971
5.710000000000008,0.1481794052999338,2.411928382465658,0.9770953387608048
5.719999999999999,0.0896959626172456,2.37838361920932,0.94146507814914
5.72999999999999,0.0277746948775278,2.3250233723150004,0.903789284258416
5.740000000000009,-0.0208573563406447,2.273107843365552,0.8676559510218732
5.75,-0.0642898434088307,2.2146987187809,0.8288255622932993
5.759999999999991,-0.0906477420991804,2.1649118527434257,0.797033206740929
5.77000000000001,-0.1030169790469271,2.1206354034146,0.7642575715963094
5.780000000000001,-0.1041684121991365,2.0707326056017736,0.729934266619775
5.789999999999992,-0.1068381764015995,2.028889318141774,0.6955987135334153
5.800000000000011,-0.1214031801683365,1.9867000925921117,0.6600761496751495
5.810000000000002,-0.1527937896470467,1.943140825762251,0.628407422021343
5.819999999999993,-0.1924174344344233,1.903625883862442,0.6029615120609381
5.8300000000000125,-0.2366399261682452,1.8690319520082328,0.5836214015358794
5.840000000000003,-0.2929714083769722,1.8317896743229105,0.560069819161622
5.849999999999994,-0.3492860099643183,1.7912093861086835,0.5377697680899844
5.860000000000014,-0.4088598319913359,1.7559721882457628,0.5151543354249091
5.8700000000000045,-0.4768149804570584,1.7256224427218454,0.4939564618151459
5.879999999999996,-0.5561913043674556,1.6907204751749685,0.4744064487924093
5.890000000000015,-0.6513043339040823,1.6624352808191492,0.4433807845496147
5.900000000000006,-0.7568919823006586,1.6367171769733762,0.4137876562078453
5.909999999999997,-0.8521630476073735,1.612385875136927,0.3977630486307429
5.919999999999988,-0.9180308369478228,1.5907996067932402,0.3824298602652972
5.930000000000007,-0.9650519235817008,1.5687946311734442,0.3704665108929492
5.939999999999998,-0.9983433820000864,1.5407788750235194,0.3376323671872465
5.949999999999989,-1.0110999950952684,1.5187697908414368,0.3011781366317459
5.960000000000008,-1.0093693278317577,1.5142089360879982,0.2522003802987509
5.969999999999999,-1.0147623836133968,1.51295191657746,0.1860160340126032
5.97999999999999,-1.0254308506621497,1.5179042788825066,0.1330664324280131
5.990000000000009,-1.0476795983025091,1.5280330610163264,0.0796324358579499
6.0,-1.0765213944608856,1.5348346636993826,0.0268871655967847
6.009999999999991,-1.0974960575845487,1.5377563956205385,-0.0201443493848495
6.02000000000001,-1.121570649758321,1.5344171253304624,-0.0595685648545844
6.030000000000001,-1.1572265774276642,1.5218075161535036,-0.1160974181961515
6.039999999999992,-1.2050948325507895,1.4924721157330485,-0.1808067799555203
6.050000000000011,-1.249927942783744,1.4516707762213714,-0.2437990733140991
6.060000000000002,-1.269034161489739,1.3992102704316929,-0.3109393174810929
6.069999999999993,-1.2520464972112144,1.3518141487010296,-0.3803258641585348
6.0800000000000125,-1.1966474971905106,1.314029046475385,-0.4365989416224319
6.090000000000003,-1.0912239547879687,1.2828077123483037,-0.5021755690027835
6.099999999999994,-0.9844065571084156,1.2601727194227033,-0.5583171154373803
6.110000000000014,-0.8636882842412079,1.246013517916712,-0.6113777981808285
6.1200000000000045,-0.7461945632193119,1.2364168520343044,-0.6784668682465315
6.129999999999996,-0.6443804368587706,1.2293087945387828,-0.7422897233906409
6.140000000000015,-0.5491146027070253,1.2196369749908056,-0.806867360044247
6.150000000000006,-0.4502564316169733,1.200015847628501,-0.872594027993561
6.159999999999997,-0.3458945830063605,1.1710782288035604,-0.9423287792381546
6.169999999999988,-0.2460820606428268,1.136588139384645,-1.017015097689724
6.180000000000007,-0.1325153257239558,1.0994685185715567,-1.107241418998143
6.189999999999998,-0.0172685301289502,1.0546416564033765,-1.2036187634322522
6.199999999999989,0.0929866918776294,1.0154526389503902,-1.2899137878605136
6.210000000000008,0.2174506578616495,0.9455040883747612,-1.4036614685885174
6.219999999999999,0.3291564476854535,0.8728275205104348,-1.5014840220023646
6.22999999999999,0.4322228023912008,0.801663983954165,-1.6018874850195597
6.240000000000009,0.5335257370291726,0.7301979207690946,-1.7206404140581586
6.25,0.5957311720987006,0.673363256917498,-1.8099486050326712
6.259999999999991,0.6452122218973155,0.6087208314266556,-1.916758055528516
6.27000000000001,0.6784304612942254,0.5557593673477865,-2.009183581919959
6.280000000000001,0.7000408705156209,0.5145732893209675,-2.0998699954067948
6.289999999999992,0.7181301770475239,0.4779225045992782,-2.187046088668523
6.300000000000011,0.7395032494894709,0.4355364702208747,-2.27566788968909
6.310000000000002,0.7671845250441877,0.3943678381924896,-2.34777687862058
6.319999999999993,0.8071923629347195,0.3552402901038611,-2.400249876791668
6.3300000000000125,0.8582707770455279,0.3179970267504551,-2.450362948880028
6.340000000000003,0.9120177537681008,0.2728002339762254,-2.493619043481984
6.349999999999994,0.9484345637840536,0.2307408886650465,-2.536138862682104
6.360000000000014,0.9796626889925716,0.200084985059126,-2.572397922415799
6.3700000000000045,1.0015861829722343,0.1745655692552251,-2.6010707721616644
6.379999999999996,1.047720570201638,0.1478685978210586,-2.607417532229601
6.390000000000015,1.1219318253042796,0.1213991800025636,-2.596965100713729
6.400000000000006,1.2079829336937384,0.0951611684192047,-2.5727140646858246
6.409999999999997,1.2841103411958943,0.0769766056102253,-2.554650103275349
6.419999999999988,1.3325482734047398,0.0646477474042178,-2.5472900651650505
6.430000000000007,1.3598542541041534,0.0407007679761111,-2.5483316681450376
6.439999999999998,1.3687499149815945,0.0174901030298406,-2.556019961772683
6.449999999999989,1.3706263130972038,-0.0165139662821074,-2.561307986175263
6.460000000000008,1.3534660247999084,-0.0530361741126222,-2.5553222968842406
6.469999999999999,1.3321889538905447,-0.0879104762334161,-2.5433190714433684
6.47999999999999,1.3087699196926563,-0.1193264026745871,-2.529124431909473
6.490000000000009,1.2917318988620512,-0.1492611777580345,-2.508902592009326
6.5,1.2928790124615293,-0.1695084307371487,-2.4849780357175115
6.509999999999991,1.3066589859458937,-0.1845151272595744,-2.4649820091736974
6.52000000000001,1.332190593349193,-0.2079042018052548,-2.444043607645669
6.530000000000001,1.3594552312466932,-0.2446541416785894,-2.427741659046628
6.539999999999992,1.3812183517727852,-0.2903054191789936,-2.406926090715481
6.550000000000011,1.4160140536500094,-0.3397571419772386,-2.3784012119206364
6.560000000000002,1.4556019081953278,-0.3834207170586343,-2.3512486535893475
6.569999999999993,1.4915443760507952,-0.4181340527837279,-2.328024630520898
6.5800000000000125,1.5287691730789377,-0.4550141990128742,-2.3072493142423447
6.590000000000003,1.5596583567883835,-0.4806075737211084,-2.2905392207963766
6.599999999999994,1.5887823562637176,-0.5100135421466916,-2.274591882424106
6.610000000000014,1.6035339108808375,-0.5390253924555146,-2.248460389069521
6.6200000000000045,1.6027754745407328,-0.5742891471029072,-2.2200056617826296
6.629999999999996,1.5981379511751137,-0.6114022954567273,-2.185818291525303
6.640000000000015,1.5927803192284344,-0.6435873600733921,-2.1472632678898744
6.650000000000006,1.5851718281336855,-0.6681084469286827,-2.1085717175927194
6.659999999999997,1.5844772435501844,-0.6884896794281773,-2.069836468607664
6.669999999999988,1.583360678291411,-0.7072532577387084,-2.0311061563591437
6.680000000000007,1.592959260683844,-0.7200510237563266,-1.993420345272154
6.689999999999998,1.614959684389685,-0.735727745849678,-1.9542738193342957
6.699999999999989,1.636505545773561,-0.7566999896854323,-1.8973701932520664
6.710000000000008,1.6591834743972422,-0.7765331706965971,-1.842320872253405
6.719999999999999,1.6930233815786129,-0.7983730215604072,-1.7911752636643523
6.72999999999999,1.7501981697231457,-0.8218307322185007,-1.7480101032609487
6.740000000000009,1.8273258918703985,-0.8373775134677851,-1.71701451251009
6.75,1.948159680126541,-0.8719593120176538,-1.6872790640622417
6.759999999999991,2.0781954485734717,-0.8850388171875836,-1.6707037522777868
6.77000000000001,2.20176061822607,-0.8839058853568545,-1.6576088203481114
6.780000000000001,2.3063273301236697,-0.9355845548599724,-1.6368437435024477
6.789999999999992,2.3598292112600783,-0.9727131556091736,-1.6149597186207567
6.800000000000011,2.366494994699881,-1.00051628421101,-1.6075788033429168
6.810000000000002,2.339977006757329,-1.036845545161109,-1.6037065379016653
6.819999999999993,2.282635798227384,-1.0718423302150346,-1.5913129719607064
6.8300000000000125,2.2173140439723493,-1.1081821189040455,-1.5678449262151275
6.840000000000003,2.162796285491279,-1.1316362603471728,-1.539691635350244
6.849999999999994,2.113245568433872,-1.1531240542342729,-1.5057876962459067
6.860000000000014,2.065584309330829,-1.1687641534891775,-1.4676131426575232
6.8700000000000045,2.0217874331834502,-1.1918844221263216,-1.419276233282178
6.879999999999996,1.987609383210472,-1.2053658172791306,-1.3722539788494783
6.890000000000015,1.9648550488892764,-1.2176576175381202,-1.3271270839887246
6.900000000000006,1.9616746218112129,-1.2297879823800997,-1.2974766000115638
6.909999999999997,1.979178188857291,-1.240879628669885,-1.269997752555983
6.919999999999988,2.009055453226857,-1.2414157817091556,-1.2382520453153405
6.930000000000007,2.0311567513414106,-1.2366063036186234,-1.2097012695480611
6.939999999999998,2.034619298288107,-1.228866648729595,-1.163682228685595
6.949999999999989,2.004179487391077,-1.218711635315985,-1.120076180780092
6.960000000000008,1.9516483303976029,-1.2083132743781118,-1.0854473738988475
6.969999999999999,1.8859224945495503,-1.2024618847191717,-1.0455149479495638
6.97999999999999,1.808495967133644,-1.2035591819381122,-1.0096534023825503
6.990000000000009,1.7587550401200898,-1.2059202818308024,-0.9900777643763228
7.0,1.742090585272145,-1.2081009479565423,-0.9848151031957026
7.009999999999991,1.7513052293779503,-1.2047598154011994,-0.9806128967570628
7.02000000000001,1.7825085522471074,-1.1988719064876736,-0.9732140407610405
7.030000000000001,1.805853029389306,-1.1844092795078056,-0.9513076973026598
7.039999999999992,1.8311827981944435,-1.1750157198476376,-0.918688405163094
7.050000000000011,1.8534936887449796,-1.168998358126547,-0.896065966934266
7.060000000000002,1.8839406662340876,-1.161230127982504,-0.8618771160509185
7.069999999999993,1.935311458908875,-1.162926219215452,-0.827189965851746
7.0800000000000125,2.007997842111368,-1.1641509810320236,-0.7873943289912027
7.090000000000003,2.101631373016987,-1.1597026996576916,-0.7492779829433031
7.099999999999994,2.180115217057743,-1.1519488524301391,-0.7127388124380096
7.110000000000014,2.2323079627557294,-1.139603367168976,-0.6704380049386048
7.1200000000000045,2.26104965922083,-1.1253455493172904,-0.6255234470615599
7.129999999999996,2.260416964922734,-1.1065722595372658,-0.5787383037115104
7.140000000000015,2.2408079617054373,-1.0819510273092665,-0.5264751787933875
7.150000000000006,2.218686400797339,-1.0477642173889152,-0.4784821039483538
7.159999999999997,2.204776539737888,-1.0065405186004186,-0.4365133549624184
7.169999999999988,2.211350443827806,-0.9742822679601296,-0.4011692261897276
7.180000000000007,2.2309207954491037,-0.936766212080162,-0.3532370384135037
7.189999999999998,2.2515616299452232,-0.8817872836578191,-0.2978686100338209
7.199999999999989,2.249549796354198,-0.8241177002353891,-0.2636905191813846
7.210000000000008,2.2216470932034507,-0.7489506281178268,-0.2198861980024236
7.219999999999999,2.192730315180823,-0.6809334175149696,-0.1899041722199518
7.22999999999999,2.1644898353358317,-0.6017788809755146,-0.16381308628954
7.240000000000009,2.1319595324933744,-0.5055309493268968,-0.1409392550778614
7.25,2.1039524684207485,-0.4004395670005107,-0.1137966372961527
7.259999999999991,2.0622181190257427,-0.2902567701578535,-0.0810225451533841
7.27000000000001,2.0069286835904085,-0.1741709419264546,-0.0398728547759333
7.280000000000001,1.9393604416497447,-0.0537924487726786,0.0150707226500892
7.289999999999992,1.8749188507217796,0.0539243919411944,0.0634700578643936
7.300000000000011,1.806544559988664,0.1734280074822639,0.1116581727769665
7.310000000000002,1.7287593283829756,0.3081385174007012,0.157322539195415
7.319999999999993,1.6624583458646114,0.4347948579580238,0.1864941586541164
7.3300000000000125,1.600313593475065,0.5678228289738951,0.2095593697271754
7.340000000000003,1.5422623508869937,0.7015840452068925,0.2283448573779168
7.349999999999994,1.4929287094429922,0.8509685548883703,0.2436245879508306
7.360000000000014,1.444799746014909,1.035460729193425,0.2662161525981147
7.370000000000003,1.4165819915165505,1.1886040476280368,0.2885401911754416
7.3799999999999955,1.405133636865224,1.3383260865236293,0.3115368070264486
7.390000000000015,1.412000534748005,1.4597756214248503,0.3289765958423806
7.400000000000006,1.4413617151819431,1.5945306793203833,0.338470343665339
7.409999999999997,1.4760756745404116,1.7238307265116717,0.3392858838774692
7.4199999999999875,1.5246383824108185,1.8383563432475696,0.3392852661638203
7.430000000000007,1.588934976745283,1.978349912237506,0.3500797500543327
7.439999999999998,1.6350606507869374,2.0815589273581434,0.3625352607662976
7.449999999999989,1.6665109222094503,2.173055321670684,0.3720765557024562
7.460000000000008,1.691703074008153,2.2694176536735413,0.3772594741872715
7.469999999999999,1.7130186945353985,2.3615421191963946,0.3791043928873183
7.47999999999999,1.7328462655845764,2.435892798610733,0.3824547492794958
7.490000000000009,1.7525953195646795,2.506592832631964,0.3768671006410438
7.5,1.7716530117355342,2.585975446040876,0.3694787979304134
7.509999999999991,1.7840605391145212,2.66024438864714,0.3571733180795742
7.52000000000001,1.7920882564870113,2.7335672177025088,0.3603800705090031
7.530000000000001,1.7891649451803222,2.802286386962189,0.3685476295832487
7.539999999999992,1.7688062546639447,2.869383527887359,0.3782768786784719
7.550000000000011,1.7345812961010263,2.9451530565208186,0.3778780445590395
7.560000000000002,1.7004285025531147,3.001504577719815,0.3571278132293344
7.569999999999993,1.671185730206996,3.055964414698503,0.331010928980479
7.5800000000000125,1.6406018017057775,3.108794078801508,0.3005782223740507
7.590000000000003,1.61703700402169,3.140669986107731,0.2773037877912819
7.599999999999994,1.5850939257914232,3.170972887588926,0.2460906324959222
7.610000000000014,1.538857113136568,3.215704545915817,0.2069666661695076
7.620000000000003,1.4667936955130978,3.2423448417660112,0.1757560345024061
7.6299999999999955,1.3831887692343132,3.253834994212243,0.145343265924981
7.640000000000015,1.300000509695786,3.267508549003197,0.1202312027486472
7.650000000000006,1.2269689616633417,3.2840726441255907,0.1133542215528488
7.659999999999997,1.1593379566374502,3.296123980422953,0.1209743582994372
7.6699999999999875,1.068862921521806,3.290359259765803,0.1338777293692466
7.680000000000007,0.9891622990390904,3.2793837445721485,0.13621008287971
7.689999999999998,0.9024442723952698,3.2641113829360333,0.1468016298857864
7.699999999999989,0.8069350961033022,3.2503362029758915,0.149435941431904
7.710000000000008,0.7302543057377062,3.2316693361179896,0.1484017586251169
7.719999999999999,0.6539731337165152,3.216550162786114,0.1492097184035431
7.72999999999999,0.5805723979235587,3.2170969085210364,0.1586159000160936
7.740000000000009,0.5110421578395952,3.2001711056012536,0.1723533947174702
7.75,0.4497903811238095,3.165691512417725,0.1849555022178411
7.759999999999991,0.3764575527342106,3.127606978762991,0.1991242731104772
7.77000000000001,0.3031591830161136,3.1035105730832497,0.2096237178627438
7.780000000000001,0.2268367617256564,3.087006100594755,0.2220130037918927
7.789999999999992,0.1399030230580167,3.0560839584671835,0.2280391551129599
7.800000000000011,0.0618065858752044,3.024772527314488,0.2314363528043543
7.810000000000002,-0.0160090993729379,2.9939209340442,0.2396320015754139
7.819999999999993,-0.0924666076616267,2.969304632443723,0.2524065381879905
7.8300000000000125,-0.15297104254098,2.9486234111127034,0.2733230248654664
7.840000000000003,-0.2220951919203362,2.9163997085018587,0.301353004199651
7.849999999999994,-0.2905027279545102,2.884227999485113,0.3271574705985356
7.860000000000014,-0.3593605268706368,2.8612658485893063,0.3483609008732456
7.870000000000003,-0.4336541670459699,2.8447841828426195,0.3637995789747277
7.8799999999999955,-0.5070861554892022,2.8292819412730594,0.3770360889464296
7.890000000000015,-0.5589984772726733,2.825516203533918,0.3937832138668724
7.900000000000006,-0.5919049382231196,2.8231522247849496,0.4049026186468398
7.909999999999997,-0.6301534687175473,2.8146945818075118,0.419157639332772
7.9199999999999875,-0.6535218756509755,2.803309616344856,0.4246268071139712
7.930000000000007,-0.6740636989425111,2.7796978567061763,0.4284959789630613
7.939999999999998,-0.6948749206860705,2.754920392057252,0.4325265115302355
7.949999999999989,-0.7243788951383352,2.731436140886634,0.4397025479354774
7.960000000000008,-0.7654034699186988,2.711775875258014,0.4454761765371309
7.969999999999999,-0.8121236171343987,2.692132585776976,0.4422857568987789
7.97999999999999,-0.8592770218466438,2.6628493755735505,0.4397213586100094
7.990000000000009,-0.8998602627635996,2.628675264793773,0.4340239434749115
8.0,-0.9354643761899646,2.5971145900793737,0.4325403520342815
8.009999999999991,-0.9794400146780144,2.567312845780096,0.4329658210169056
8.02000000000001,-1.0292687243913317,2.533834310419864,0.4302173354603297
8.030000000000001,-1.087863201784664,2.491099306289497,0.423946610984807
8.039999999999992,-1.1355109533709418,2.452643694793219,0.4256687825059774
8.050000000000011,-1.1737121760433495,2.405540881897544,0.4265621316424569
8.060000000000002,-1.1945433243432777,2.358995204692633,0.4306329268455895
8.069999999999993,-1.206294001763114,2.3202752678264456,0.4304733816907368
8.080000000000013,-1.228569951408048,2.28466638250165,0.4241052068334401
8.090000000000003,-1.2740051966555248,2.248900158043726,0.4113588898916935
8.099999999999994,-1.3434892744689906,2.202523244261856,0.3953265216041537
8.110000000000014,-1.415797997790491,2.1618712274464484,0.3779819760324104
8.120000000000005,-1.4718913139491925,2.1208485505066066,0.3604487867881975
8.129999999999995,-1.503202478768579,2.085928173266991,0.3461074707818027
8.140000000000015,-1.5186182238362995,2.060876089564726,0.328970819739829
8.150000000000006,-1.517528836122796,2.03221188069246,0.2982708831646948
8.159999999999997,-1.5093783421878442,1.9984843448030063,0.2634910271949918
8.169999999999987,-1.4955776724146468,1.9608948836030264,0.2240070606850252
8.180000000000007,-1.4925021958197542,1.915292933731227,0.1691541847542557
8.189999999999998,-1.506002180431109,1.8719970463931648,0.1254255854936255
8.199999999999989,-1.544415146501345,1.8270943463565692,0.0795113908667034
8.210000000000008,-1.593416995222224,1.784493130722572,0.0218454915739393
8.219999999999999,-1.6275159663954872,1.753853668071928,-0.0407931948369484
8.22999999999999,-1.6427022042854724,1.7343408765938295,-0.1027799479350528
8.240000000000009,-1.6267932364365774,1.710257981687609,-0.1712837467473865
8.25,-1.5724296134919835,1.6777126381813734,-0.2296731380084501
8.259999999999991,-1.4873526207918903,1.639652949649703,-0.2734064014487848
8.27000000000001,-1.3843120379285114,1.5918934356798218,-0.3213995483770441
8.280000000000001,-1.2862433811656462,1.532446826325333,-0.3766117091818439
8.289999999999992,-1.216861117011951,1.4733452290282791,-0.438778067274621
8.300000000000011,-1.1765793828130606,1.407896374765737,-0.5115225358784976
8.310000000000002,-1.171261594402493,1.35002347149311,-0.5945866995322779
8.319999999999993,-1.198235363798361,1.2858024848882967,-0.7086783474623554
8.330000000000013,-1.2675652888073394,1.2213202899562514,-0.8319395651977411
8.340000000000003,-1.3330445387660637,1.172751095880826,-0.942386115315616
8.349999999999994,-1.379248014203115,1.1202902580630048,-1.043125354819637
8.360000000000014,-1.3756802496291811,1.0683045596461436,-1.133137320455405
8.370000000000005,-1.30696784381249,1.0179659041832925,-1.2230495388142868
8.379999999999995,-1.2152255034353387,0.969751772456138,-1.280963622590496
8.390000000000015,-1.073187515266574,0.8993782935079347,-1.345528602795223
8.400000000000006,-0.9323694706161764,0.8200824848411863,-1.4026519200862075
8.409999999999997,-0.8308066221726109,0.7523910785827094,-1.456064061255691
8.419999999999987,-0.7336736942318453,0.6765564919247272,-1.5252582661271556
8.430000000000007,-0.6646184111513513,0.5841642203757565,-1.6120143745827706
8.439999999999998,-0.6256852979966236,0.5039129738858094,-1.6997100870692703
8.449999999999989,-0.6073271742338174,0.430899768942906,-1.7792989386459308
8.460000000000008,-0.5794185599902916,0.3525273935529173,-1.86936638020858
8.469999999999999,-0.5250365069615275,0.2690564305517908,-1.950615768998168
8.47999999999999,-0.4321322459709306,0.1973158874206592,-2.0237746951279654
8.490000000000009,-0.2913493097333001,0.1245067798020119,-2.100878976849721
8.5,-0.1331333662417258,0.0623615337614474,-2.172282822898153
8.509999999999991,0.0660543479695494,-0.0145980833726213,-2.2365836047467718
8.52000000000001,0.2460348250532343,-0.0798622754939466,-2.284404586593706
8.530000000000001,0.3756154632095339,-0.1383318744434252,-2.324967389716024
8.539999999999992,0.4962266847921183,-0.206438405552322,-2.367802232698178
8.550000000000011,0.5576455533047744,-0.2731409444807715,-2.419285770412935
8.560000000000002,0.5717327514133207,-0.3401148202131236,-2.4721642515753226
8.569999999999993,0.528666013529411,-0.4119204138684104,-2.5225961319422874
8.580000000000013,0.4444005670571198,-0.4894857743545052,-2.5726470298764794
8.590000000000003,0.358354157610841,-0.5522995136410451,-2.6088249536432224
8.599999999999994,0.308175943405309,-0.5947922196851708,-2.6397131629297195
8.610000000000014,0.3192097228696457,-0.617510020854385,-2.662051680351058
8.620000000000005,0.3700044966733994,-0.6300649029026137,-2.685510283020167
8.629999999999995,0.459903135568971,-0.6387648234951557,-2.706242477538087
8.640000000000015,0.560799867754818,-0.6575611909733728,-2.728401794253128
8.650000000000006,0.6398466699343655,-0.6824821575049393,-2.743972859913739
8.659999999999997,0.707811688321376,-0.7177576758738434,-2.748831503450927
8.669999999999987,0.7334323598752958,-0.7493134357569048,-2.75461652909396
8.680000000000007,0.73732703320991,-0.7887366880280821,-2.7728116729104664
8.689999999999998,0.7112817025582365,-0.819329150536579,-2.7987411842464915
8.699999999999989,0.6660122585117851,-0.8411668577114922,-2.82479010087588
8.710000000000008,0.610808553359303,-0.857211202284372,-2.851538483719421
8.719999999999999,0.5533093354246268,-0.8605185526142919,-2.877708613870956
8.72999999999999,0.5023190428578778,-0.8639553172308879,-2.8997358961958644
8.740000000000009,0.4620184274326109,-0.8586453072913472,-2.914449802167764
8.75,0.4363114482242185,-0.8592941037302182,-2.922898606453347
8.759999999999991,0.4303148320402242,-0.8581534228981035,-2.9264207590742224
8.77000000000001,0.4451508811075049,-0.8534848690579422,-2.9331906417855795
8.780000000000001,0.4583248276432958,-0.848921439975678,-2.934490411752341
8.789999999999992,0.462123262661255,-0.8428863012628345,-2.9297748535276398
8.800000000000011,0.4503970928461726,-0.8413534186379847,-2.9203207067881545
8.810000000000002,0.4166284386130761,-0.8446364466029274,-2.9090921113602968
8.819999999999993,0.3789292470298845,-0.8492292555782609,-2.9009032659139296
8.830000000000013,0.3323658682163397,-0.8521845845272604,-2.887823040065283
8.840000000000003,0.2913543049573777,-0.8565627665376093,-2.8677893475114447
8.849999999999994,0.2829524565134649,-0.8517288295311399,-2.84127454526661
8.860000000000014,0.2956540489029557,-0.8456424757753653,-2.8117363803253044
8.870000000000005,0.2951373132156037,-0.8352815252908679,-2.7693663282863765
8.879999999999995,0.2560639058538536,-0.8306423542288228,-2.725814265972725
8.890000000000015,0.2330873800787893,-0.8286220018170853,-2.694995697697783
8.900000000000006,0.2129737556281558,-0.8227385552210519,-2.6641477141944043
8.909999999999997,0.1850349479668451,-0.826004216481304,-2.647149748327754
8.919999999999987,0.160350951151628,-0.8176031152898234,-2.629719936893894
8.930000000000007,0.1518581027179893,-0.8228317040978103,-2.6092467006867945
8.939999999999998,0.1687948000889171,-0.8249018547598254,-2.5849784505366387
8.949999999999989,0.2231792039736625,-0.8252982288068501,-2.5511157906384394
8.960000000000008,0.2980893329395075,-0.8270913344465867,-2.5124908691308194
8.969999999999999,0.3980855893597819,-0.8331236784497454,-2.4710252977928584
8.97999999999999,0.5095927110146106,-0.827785313181503,-2.4282020590392874
8.990000000000009,0.6247345402469048,-0.826062392505826,-2.3874325801462297
9.0,0.7142616964504239,-0.8276490436402064,-2.355675400500726
9.009999999999993,0.7535968879984387,-0.8344280174517477,-2.3373585031945843
9.02000000000001,0.780178966917018,-0.8498364617978689,-2.3197281769808056
9.03,0.79026642696132,-0.8712399299313719,-2.305474351688316
9.039999999999992,0.7857576789007182,-0.8958924480511801,-2.2862571108394314
9.050000000000011,0.7642449693213751,-0.9203822109979212,-2.260734701433388
9.060000000000002,0.7322705501031825,-0.9439588900472438,-2.231197504934261
9.069999999999991,0.6949161231864989,-0.9639270369859376,-2.194777528325177
9.080000000000013,0.6613010026083035,-0.9768427316061,-2.163722748774462
9.090000000000003,0.6559428765726306,-0.986991053586168,-2.136114764723033
9.099999999999994,0.6688650114493812,-0.9940296650125542,-2.113084159033677
9.110000000000014,0.703564386562639,-0.999112821541174,-2.092206873474168
9.120000000000005,0.7501066992455099,-1.0082712794936557,-2.0703972498678382
9.129999999999995,0.7908313860971539,-1.0254285675067305,-2.056496538877952
9.140000000000017,0.8264848830464623,-1.0555275463002238,-2.0358832799293345
9.150000000000006,0.8382481301560589,-1.083309895468441,-2.0196522744948013
9.159999999999997,0.8352024257718802,-1.11264799545171,-2.010418502119362
9.169999999999987,0.8248075640374206,-1.143207536464951,-2.002122886497438
9.180000000000009,0.8093951823253294,-1.1679785701145031,-2.003713219300826
9.189999999999998,0.7963668925218748,-1.1851616264226714,-2.009260656657753
9.199999999999989,0.791994535526047,-1.1918029503331262,-2.0193135396633006
9.210000000000008,0.8085552796248681,-1.1965837146040732,-2.0399799745779945
9.22,0.8384804331317783,-1.196809027670484,-2.065383558970151
9.22999999999999,0.8663617415687901,-1.201184768007333,-2.082111009430489
9.240000000000007,0.8891149250525573,-1.2069188253780458,-2.093456021797876
9.25,0.910822551019584,-1.2096132788442435,-2.1104699280055343
9.259999999999993,0.9202404642336768,-1.2224673457621722,-2.1139857965820297
9.27000000000001,0.91742651506221,-1.2345985407816575,-2.116139307482755
9.28,0.8896704389253035,-1.247352602332882,-2.110964418807728
9.289999999999992,0.8400995716465982,-1.2626045431820594,-2.102394511459852
9.300000000000011,0.7968391331661782,-1.2704579297513687,-2.0987727626118584
9.310000000000002,0.7631690888698486,-1.275110567455372,-2.100455075975607
9.319999999999991,0.7394683828954965,-1.2707712816088803,-2.1107840500072403
9.330000000000013,0.7174032636632586,-1.2565163138454256,-2.1225498055866003
9.340000000000003,0.7029998284808118,-1.2348767011518962,-2.129024843808923
9.349999999999994,0.7045904841316868,-1.2127771990292997,-2.1321311122493727
9.360000000000014,0.7186066761017242,-1.1860117226949891,-2.1227208009982528
9.370000000000005,0.7406952245901586,-1.1581835896083696,-2.1063513653294006
9.379999999999995,0.770303019171387,-1.138064563286173,-2.080736730250856
9.390000000000017,0.8099127849149194,-1.1108008025439415,-2.051906052522462
9.400000000000006,0.866359617431601,-1.0858961672066918,-2.016334117300344
9.409999999999997,0.9134575495854198,-1.0617167987067542,-1.9858154472833824
9.419999999999987,0.947366889889219,-1.0317530199649014,-1.954083287989391
9.430000000000009,0.9658900286170056,-0.9961467060742876,-1.9211558979259948
9.439999999999998,0.9720922141834732,-0.9597002427194296,-1.8889908292803763
9.449999999999989,0.9826192409378004,-0.9327573356581724,-1.862186744576896
9.460000000000008,0.9962758486626694,-0.9018944164578832,-1.837960330249204
9.47,1.026622187974907,-0.8693482203258283,-1.8150439009443435
9.47999999999999,1.081156117145049,-0.8324207042742471,-1.795814580221029
9.490000000000007,1.124669277178911,-0.8063788296849682,-1.7708934606627815
9.5,1.1565673147476332,-0.7787691719663138,-1.7379426370451438
9.509999999999993,1.1898828757299085,-0.7439045830570942,-1.6976994662130234
9.52000000000001,1.2212571735085729,-0.7069464399384545,-1.666659317139702
9.53,1.2520182032831184,-0.6670900631850043,-1.6378338323224837
9.539999999999992,1.273966325821546,-0.6253845087348247,-1.6044334657070087
9.550000000000011,1.2931648682840586,-0.5768679562955228,-1.5665494638504014
9.560000000000002,1.319806202476929,-0.5272598025328191,-1.5360680395045738
9.569999999999991,1.360137867371521,-0.4782641341458961,-1.5127991998700845
9.580000000000013,1.4040198103773684,-0.4211152823690704,-1.4943043719269635
9.590000000000003,1.4384855058748487,-0.373644033366788,-1.4701290182313858
9.599999999999994,1.4671026021091322,-0.3015407163007275,-1.4265024434229248
9.610000000000014,1.4855593134399618,-0.2278762986999879,-1.37862662269811
9.620000000000005,1.517693769558914,-0.1585941257824909,-1.3273273964096883
9.629999999999995,1.5512702014973492,-0.0664374984354168,-1.2662575065224522
9.640000000000017,1.5641857472671992,0.0083880451261689,-1.2171050566042478
9.650000000000006,1.5660160229911466,0.1074207346500812,-1.1683498925173377
9.659999999999997,1.537236745817877,0.2016499467208124,-1.1134317642654885
9.669999999999987,1.500005253354464,0.2895132757761697,-1.0597549775836297
9.680000000000009,1.4623145761757943,0.3693582883233438,-1.006515931591514
9.689999999999998,1.4443852144405689,0.4614212080319617,-0.9333386981814732
9.699999999999989,1.448644000710145,0.57475616889965,-0.8361099364024376
9.710000000000008,1.4547090115481929,0.6623967057310669,-0.7544341663817753
9.72,1.4551960154192476,0.7636354231110463,-0.6627875883071264
9.72999999999999,1.4401869696976364,0.8628799951998306,-0.5564653753133804
9.740000000000007,1.408647439666023,0.9424132342306428,-0.4638715627684249
9.75,1.357424919202728,1.0259356048152768,-0.3763236804327749
9.759999999999993,1.2916444120894517,1.0996405928173332,-0.2921440509772791
9.77000000000001,1.1850450067361005,1.1880227249051014,-0.184076382080899
9.78,1.0659590499682083,1.2743029279673337,-0.0699536522712106
9.789999999999992,0.9578070834562652,1.35441120239493,0.0343116203523077
9.800000000000011,0.8619451861682039,1.431470944675783,0.1370351884726383
9.810000000000002,0.781972711682699,1.501139884070611,0.2382112647863865
9.819999999999991,0.6972455128158936,1.578262979094931,0.3600709841774426
9.830000000000013,0.6334559726969473,1.640989695996941,0.4606270089284528
9.840000000000003,0.5695603923945273,1.718140292999532,0.5838851260490678
9.849999999999994,0.5191738347981423,1.793194570384928,0.6931931144083184
9.860000000000014,0.4850605986437187,1.859758283286332,0.7756866715185262
9.870000000000005,0.4473488145865366,1.9316480394330184,0.8546240708294033
9.879999999999995,0.3961979566288465,2.0084475036248706,0.9404024082072824
9.890000000000017,0.332656449435073,2.0778348729470526,1.019064247498357
9.900000000000006,0.2696190486257786,2.1351254319631447,1.0920526605001797
9.909999999999997,0.2036469284989782,2.195443365187355,1.1644435924210927
9.919999999999987,0.1390769176718155,2.2565599241110936,1.2214168251704196
9.930000000000009,0.0925164092540989,2.3128629332843884,1.267422572842425
9.939999999999998,0.0519999398428436,2.3911580368440464,1.311564157200855
9.949999999999989,0.0152729932366412,2.459040181929034,1.351408458927953
9.960000000000008,-0.0334186251351428,2.526821325393262,1.3984812375970226
9.97,-0.1017126762568975,2.602659566167338,1.4511338207363658
9.97999999999999,-0.1621326230433305,2.670773084767976,1.500023349425622
9.990000000000007,-0.2209245907084052,2.741343221267118,1.560860182848185
10.0,-0.273812506400708,2.8005532687902304,1.6096597377508952
10.009999999999993,-0.3204776878178728,2.857033609071961,1.6511098558197637
10.02000000000001,-0.3711252844408139,2.917385177544098,1.689412000926273
10.03,-0.4346988262675425,2.986452129491787,1.7294047633298
10.039999999999992,-0.5011501822558867,3.050843221750618,1.7577760503030309
10.050000000000011,-0.5672448858521423,3.109179498113423,1.7723235061166744
10.060000000000002,-0.6416271758446654,3.160821324936652,1.7791655661023411
10.069999999999991,-0.7193809860074359,3.197082186335483,1.7861112464969926
10.080000000000013,-0.7961248513945464,3.2255137067712383,1.7774289642248902
10.090000000000003,-0.8739290494649309,3.2570509413132127,1.7504074445703386
10.099999999999994,-0.920007127967816,3.2880089064714344,1.7198307409743276
10.110000000000014,-0.962371775704701,3.3191168531924125,1.6742051888904317
10.120000000000005,-0.9760495550047924,3.326533704608375,1.6305160390854976
10.129999999999995,-0.9844485762903066,3.317755334614781,1.585976687369452
10.140000000000017,-0.9876140484117496,3.3209014648045243,1.5547117374134876
10.150000000000006,-0.9800393149789408,3.321411609836483,1.5274844079562149
10.159999999999997,-0.982707824288523,3.297273117264065,1.482841584893965
10.169999999999987,-0.9946672408648084,3.2754574176119595,1.4242979296709817
10.180000000000009,-1.0127831448228823,3.2449387145343125,1.3503693422002072
10.189999999999998,-1.018966019550659,3.2256844643701355,1.306789067444594
10.199999999999989,-1.0233172471520582,3.19323633749357,1.2717398393435186
10.210000000000008,-1.026723696219299,3.150066293546503,1.2410135714627335
10.22,-1.030242093776217,3.1163951966608834,1.2300860423274025
10.22999999999999,-1.0326213193540053,3.0722726744206525,1.2115066416188576
10.240000000000007,-1.029489415278923,3.030206392293265,1.2031168359122824
10.25,-1.0182569539314,2.973555916646727,1.1874208676163194
10.259999999999993,-0.9911005784412688,2.9216570314416184,1.1575066963431233
10.27000000000001,-0.9470110922323748,2.898081179247334,1.1326827223664586
10.28,-0.9104861872116634,2.869299833670042,1.109694760436351
10.289999999999992,-0.8812621409835768,2.847792407744973,1.0947210197464048
10.300000000000011,-0.8603792841387973,2.8044266193661063,1.0895833308625826
10.310000000000002,-0.8659146477528327,2.7561293407811456,1.0850664655184787
10.319999999999991,-0.8969672858914147,2.700860422040794,1.0850637707838389
10.330000000000013,-0.9507909900931024,2.6426757815961093,1.0791017002564525
10.340000000000003,-1.0058073731173838,2.605657181539403,1.0662832521080967
10.349999999999994,-1.0628776599080123,2.5834364002689774,1.0519277467707042
10.360000000000014,-1.130819095937495,2.559350492253016,1.0287661763523113
10.370000000000005,-1.1993623373331357,2.529140218734302,1.0118363203519138
10.379999999999995,-1.2553025102411322,2.4918645778093285,0.9863161716658724
10.390000000000017,-1.3097871567889523,2.444301438353726,0.9502591688305572
10.400000000000006,-1.3643850360526362,2.382784851296301,0.9142728995868332
10.409999999999997,-1.4007173913082762,2.3287048597441067,0.8858138413350382
10.419999999999987,-1.431113858933872,2.2727618286646893,0.8373245645547135
10.430000000000009,-1.462103621505536,2.212258452300033,0.7811604924913138
10.439999999999998,-1.4939872413354998,2.168012670388486,0.7241599110885869
10.449999999999989,-1.526673370634544,2.122573222683514,0.6570897113443136
10.460000000000008,-1.5554219341862512,2.065746796178405,0.6001209485276332
10.47,-1.5846611690345247,2.002901659228697,0.5382270029960751
10.47999999999999,-1.6129742602859698,1.9478807445717203,0.4937336703925525
10.490000000000007,-1.633467431222383,1.8891801074236387,0.451474196487079
10.5,-1.6631623475932786,1.82652601794053,0.4086998024340586
10.509999999999993,-1.6875047042536535,1.7641983844823073,0.3664245080828556
10.52000000000001,-1.7002183375401454,1.7064232082480164,0.3301668355194576
10.53,-1.6991002128513035,1.6572895261357818,0.2939610677154212
10.539999999999992,-1.6978287666337144,1.6109584490027646,0.2456877634366187
10.550000000000011,-1.692426207325591,1.5612867338914562,0.1932318460597433
10.560000000000002,-1.698737041242028,1.5077444716856183,0.139894496225361
10.569999999999991,-1.7421906990538458,1.4408750981680911,0.0758316564709306
10.580000000000013,-1.8143777467329267,1.3824641070568442,0.0181289797680748
10.590000000000003,-1.9098730762353004,1.3222174370274868,-0.0306488996898464
10.599999999999994,-1.9989986424804185,1.2639647397260714,-0.0819286934702773
10.610000000000014,-2.051103163987767,1.226908384590678,-0.1288635932410969
10.620000000000005,-2.0801720886384976,1.1958564020328042,-0.1831758018683447
10.629999999999995,-2.1002410498263147,1.168785476312394,-0.2492195263649045
10.640000000000017,-2.111728475191485,1.1329131653001,-0.3140947675054316
10.650000000000006,-2.112170824665085,1.0878216943693146,-0.3806901962211036
10.659999999999997,-2.103210900059913,1.0298181033271414,-0.4538504605051768
10.669999999999987,-2.0674170490536463,0.9779557804683132,-0.5137568814331536
10.680000000000009,-2.012042843228933,0.9325477052178248,-0.5636157500170634
10.689999999999998,-1.9463669579314316,0.8781393142433466,-0.6237835640464986
10.699999999999989,-1.897033575874848,0.8294108883528012,-0.6802832378787769
10.710000000000008,-1.862169935159363,0.7668207639490794,-0.7430953578512435
10.72,-1.846453779395753,0.7055048418389335,-0.8119606024745217
10.72999999999999,-1.8246879162668408,0.6254331114081548,-0.8909691317547289
10.740000000000007,-1.7819928186238574,0.5341387106785702,-0.9793644834345876
10.75,-1.72266424551577,0.4465638375470663,-1.0500069207035498
10.759999999999993,-1.6382267666098105,0.3510343484079137,-1.1195654281060965
10.77000000000001,-1.5296354316955425,0.2510947440124693,-1.191393686663698
10.78,-1.3937419940060316,0.1401866236941894,-1.2664392298927958
10.789999999999992,-1.287254367487066,0.0614771181485793,-1.3276452833524346
10.800000000000011,-1.186603004258809,-0.0304311520455367,-1.3998783445740453
10.810000000000002,-1.0757891448019623,-0.1188456516114689,-1.4928925909463655
10.819999999999991,-0.964111265593815,-0.1848397103218785,-1.572107973614524
10.830000000000013,-0.8363072504163945,-0.2554480973031742,-1.6424052640152604
10.840000000000003,-0.6974685820246317,-0.3265090435069309,-1.7075547000733806
10.849999999999994,-0.5761654527747275,-0.3925215919472463,-1.7654696326909165
10.860000000000014,-0.4843959822963642,-0.4504496809690935,-1.8138657621536245
10.870000000000005,-0.3948804248409107,-0.510827681109792,-1.8674039118910983
10.879999999999995,-0.327640118018198,-0.5675193430581571,-1.9226104242050777
10.890000000000017,-0.2896606860778251,-0.6058350392717833,-1.9676320289507487
10.900000000000006,-0.2703152040865683,-0.6466632808155078,-2.023209380832512
10.909999999999997,-0.2595124515415585,-0.6881354496391754,-2.08362478129572
10.919999999999987,-0.2475583363916322,-0.725380223515503,-2.156929503172239
10.930000000000009,-0.2509217393244813,-0.7618392865096616,-2.2186084191907027
10.939999999999998,-0.2438940088744186,-0.7909152094086649,-2.258299025847172
10.949999999999989,-0.2030347680114738,-0.8131888614451052,-2.2964357493623035
10.960000000000008,-0.1577301693175942,-0.8318507397534521,-2.319473173277752
10.97,-0.1223342244134182,-0.8498879966971592,-2.3305553515064474
10.97999999999999,-0.086465060648597,-0.8788561629794477,-2.342094242436405
10.990000000000007,-0.067104736579736,-0.9240241368329098,-2.347564603314335
11.0,-0.0496077273373345,-0.9754961262053234,-2.3632854872764546
11.009999999999993,-0.0428788373405089,-1.018888232846481,-2.388431835630926
11.02000000000001,-0.0640927566914431,-1.0622106576441297,-2.403690582706149
11.03,-0.0831648359708401,-1.097026554036632,-2.415503072421531
11.039999999999992,-0.0746551973924327,-1.1242187718492571,-2.4297146736667297
11.050000000000011,-0.0363583135147076,-1.153364365841276,-2.459385423272556
11.060000000000002,-0.0001367230217706,-1.1638234969220544,-2.480505983070401
11.069999999999991,0.0221098210064085,-1.1659786968427976,-2.499655385332274
11.080000000000013,0.0107749040083946,-1.162339835414519,-2.5068881005947525
11.090000000000003,-0.0336883884023366,-1.164554977343268,-2.505407537555337
11.099999999999994,-0.108710136502759,-1.1777958761699645,-2.493130355346067
11.110000000000014,-0.205588007001167,-1.2049215098081525,-2.476593961144836
11.120000000000005,-0.3067306333509635,-1.2365088191637708,-2.4615657381896523
11.129999999999995,-0.3821682517778431,-1.2397460915924194,-2.4534109207713555
11.140000000000017,-0.4520733311162262,-1.2190338290452838,-2.431229571617468
11.150000000000006,-0.4986624950168715,-1.2010275924586271,-2.400246574302621
11.159999999999997,-0.5310355480491741,-1.1853872487756911,-2.36471283033416
11.169999999999987,-0.557162487362116,-1.1667297755661563,-2.3166599358289623
11.180000000000009,-0.5976360607028174,-1.1714202537646805,-2.2646522114141807
11.189999999999998,-0.6436258795621719,-1.188897310263291,-2.207038885715684
11.199999999999989,-0.6855028637355676,-1.2103702177934486,-2.1493872761371846
11.210000000000008,-0.7034690844665352,-1.2087301475954777,-2.08331988424831
11.22,-0.6953981830601237,-1.1812966109723462,-2.033897013444916
11.22999999999999,-0.6501840126776721,-1.1462443096346917,-2.006328468191006
11.240000000000007,-0.689620386988875,-1.1168392938711216,-2.024730592076861
11.25,-0.8905947259577613,-1.1011720332446544,-2.034767105661335
11.259999999999993,-1.0618402848674913,-1.042058110106509,-2.008145291534818
11.27000000000001,-1.1230401735755526,-1.048157124694686,-1.9811371935081477
11.28,-1.1238450432737015,-1.061588245953642,-1.9399131342074127
11.289999999999992,-1.077840683151597,-1.0185883619550582,-1.9089749755703889
11.300000000000011,-0.9765408600209204,-0.9860378556992098,-1.8938569155464933
11.310000000000002,-0.8618743898580814,-0.944095709201276,-1.8788263711691968
11.319999999999991,-0.7369372804149729,-0.897463264255466,-1.8644780063281952
11.330000000000013,-0.6394385987751424,-0.8444715155191084,-1.852283354166936
11.340000000000003,-0.5606421808479972,-0.8022353537662075,-1.8491249830122425
11.349999999999994,-0.5120333114035358,-0.7778015307444739,-1.84116116774226
11.360000000000014,-0.5049471417699023,-0.7573572005985594,-1.8280339789876623
11.370000000000005,-0.5359962585956249,-0.7552365304923929,-1.805620046254547
11.379999999999995,-0.6024576738361245,-0.7598863376342261,-1.7600199241236172
11.390000000000017,-0.6750882861572345,-0.7846093170385674,-1.707828502240024
11.400000000000006,-0.7312425580763833,-0.8128773219758434,-1.6615441783670806
11.409999999999997,-0.7555797105186383,-0.802231633254806,-1.6297603896026167
11.419999999999987,-0.7518034370763826,-0.7756355149715723,-1.602998152466588
11.430000000000009,-0.7441560922647693,-0.7465175384267295,-1.5788614361124254
11.439999999999998,-0.7430046738178487,-0.7266512346349332,-1.5570783648558917
11.449999999999989,-0.7429440245280411,-0.7044914453969887,-1.5355200091205514
11.460000000000008,-0.7279076795637973,-0.6940046896336606,-1.5240768342274655
11.47,-0.7094313786597819,-0.6901127975453785,-1.5019359752396158
11.47999999999999,-0.6921897779805417,-0.6967636658855453,-1.4714047862939328
11.490000000000007,-0.6932669128860612,-0.7207078397607718,-1.444734042766305
11.5,-0.7199222521501256,-0.7389384368109277,-1.4185562790965005
11.509999999999993,-0.7518256681476843,-0.751878266116608,-1.411662958752706
11.52000000000001,-0.7934903474699978,-0.7535526082631304,-1.4123718921707251
11.53,-0.8342072646632628,-0.7387541929608373,-1.4308723021394154
11.539999999999992,-0.8582932999244076,-0.7210350829797607,-1.4579732097889002
11.550000000000011,-0.8461321376343329,-0.6962951857129112,-1.4941578162161964
11.560000000000002,-0.7989168028215817,-0.6739713974085884,-1.5259170395991275
11.569999999999991,-0.7344129314132078,-0.6520573940259782,-1.5554758155723512
11.580000000000013,-0.6762009707780783,-0.6345831737906611,-1.5756390069178452
11.590000000000003,-0.6181485426065366,-0.6150107381106318,-1.6036979686060455
11.599999999999994,-0.5499631670893692,-0.5837214448705014,-1.6432882455703737
11.610000000000014,-0.477269719626758,-0.5433244469620917,-1.7008978516461046
11.620000000000005,-0.409087504058309,-0.5123425047476957,-1.766530634843937
11.629999999999995,-0.371204895529118,-0.5003113041109449,-1.817781639615317
11.640000000000017,-0.3517820601773895,-0.5045572183370072,-1.865091939516028
11.650000000000006,-0.351253271390505,-0.5193770976302823,-1.909234620024406
11.659999999999997,-0.3689015782067713,-0.5396753299479107,-1.9456902483235228
11.669999999999987,-0.4093210988254914,-0.5594377789990285,-1.987572207898524
11.680000000000009,-0.4581094077127862,-0.5754858889441411,-2.0339386784003746
11.689999999999998,-0.5222494275741935,-0.5944781795031988,-2.0925570757223038
11.699999999999989,-0.5906152261394177,-0.6113826093295667,-2.144693049075725
11.710000000000008,-0.6389157614141034,-0.624162849732466,-2.1777049657831293
11.72,-0.6616793021855474,-0.6289639997601851,-2.200792556380297
11.72999999999999,-0.655036811474593,-0.6275988059028931,-2.2094080037901747
11.740000000000007,-0.615112120786528,-0.6203681540150152,-2.2099647589597704
11.75,-0.5598929941645225,-0.6081466894098234,-2.2045689469948275
11.759999999999993,-0.495712528727234,-0.5865594627375371,-2.195337873583856
11.77000000000001,-0.4471434790187782,-0.5733593902292452,-2.1845139852634805
11.78,-0.4449975692527881,-0.5752695288553746,-2.1701690311531348
11.789999999999992,-0.4718265593627753,-0.5941406035795707,-2.1474183783671665
11.800000000000011,-0.5233251221066808,-0.6263470919986407,-2.1165644209121397
11.810000000000002,-0.567738471969167,-0.646469048225026,-2.0767850537065544
11.819999999999991,-0.5847700780456282,-0.6478744945886235,-2.0340891914377948
11.830000000000013,-0.5743315225725646,-0.6314307358076499,-1.9827218497092112
11.840000000000003,-0.5426868067035769,-0.6065706774187754,-1.9226770122868275
11.849999999999994,-0.5059977621945183,-0.5901867529854524,-1.861381424637916
11.860000000000014,-0.4526955490423752,-0.5863788770312445,-1.7887944798937143
11.870000000000005,-0.3946343407022354,-0.588201032553104,-1.7169572693706507
11.879999999999995,-0.3187084133299829,-0.5899485579530557,-1.6380524457831107
11.890000000000017,-0.2298311827444294,-0.5759424935565711,-1.5673437612255725
11.900000000000006,-0.1365811181496635,-0.5411831646739063,-1.5112991630637775
11.909999999999997,-0.0163271701288941,-0.4831828935744784,-1.4518439253077149
11.919999999999987,0.1106202876672739,-0.4195896899345388,-1.3989017464179558
11.930000000000009,0.2239010784092036,-0.3514142002715447,-1.3553747872099051
11.939999999999998,0.327161334242289,-0.2761456750299236,-1.3117260823073005
11.949999999999989,0.4218311507446354,-0.1854564411481111,-1.264302427340428
11.960000000000008,0.514943789780149,-0.0839531746410403,-1.21977773161308
11.97,0.6041887105583643,0.0254973027335005,-1.1809433873932076
11.97999999999999,0.6938840562033687,0.1486972208050442,-1.1358271736524066
11.990000000000007,0.7725858338866571,0.2590471984336369,-1.0977101791572572
12.0,0.8654935008133473,0.379818339840962,-1.0621223674005822
12.009999999999993,0.9795366100255632,0.5214120992140086,-1.0257420468915135
12.02000000000001,1.0920170129750773,0.6364863036343535,-0.997198552308419
12.03,1.2304461772963164,0.7681199613582009,-0.9724195401519858
12.039999999999992,1.3602901247653585,0.8714631519065649,-0.9544150385247572
12.050000000000011,1.5283921502197693,0.982827538201131,-0.935640080833049
12.060000000000002,1.7089000820127025,1.0829602050261833,-0.9284734215231052
12.069999999999991,1.8711287582708616,1.157974932117436,-0.9223525758683764
12.080000000000013,1.993099838498573,1.2328716656611736,-0.9215018556318972
12.090000000000003,2.0725368485573106,1.3216881055387857,-0.937845043066306
12.099999999999994,2.117759318805559,1.4278242072428382,-0.971179700074766
12.110000000000014,2.124173033862728,1.510666723771147,-1.0061416427023382
12.120000000000005,2.0949940838614407,1.585045206152072,-1.0548551453633763
12.129999999999995,2.03334444557086,1.6471074317331784,-1.0985983606441374
12.140000000000017,1.9558034376578184,1.6844154182622135,-1.1345751564087627
12.150000000000006,1.8793612105218989,1.723695421172582,-1.1657567638658848
12.159999999999997,1.8131150906407496,1.7615706912931215,-1.1908442449658634
12.169999999999987,1.7446145719653692,1.821093581425028,-1.2115552198669548
12.180000000000009,1.6783765912752824,1.8839322699590328,-1.2255687230717398
12.189999999999998,1.5956457217093951,1.927189243257326,-1.2300974287250552
12.199999999999989,1.4958113734181613,1.9635354919982395,-1.2199713781183288
12.210000000000008,1.3788391725964697,1.996724066299786,-1.200103264255548
12.22,1.2518254754373117,2.0393296611864056,-1.1777564951163828
12.22999999999999,1.1569501294785378,2.0847232796648343,-1.155492956146664
12.240000000000007,1.062514403041454,2.14419126537441,-1.1302394979323631
12.25,0.9812382723316954,2.195610407594119,-1.0913871690215835
12.259999999999993,0.9111930128543976,2.238797119605222,-1.0479164485156318
12.27000000000001,0.8460636580822495,2.2866068667353483,-0.99639030913568
12.28,0.7759658882125992,2.325681346365027,-0.9245628077162747
12.289999999999992,0.7131935019870802,2.356737087949432,-0.8457335565206214
12.300000000000011,0.6621452204355588,2.381242898761854,-0.7669521478755232
12.310000000000002,0.6160724090525513,2.444043148449983,-0.6696776482776797
12.319999999999991,0.6246150605414789,2.468563295989592,-0.5741369052756772
12.330000000000013,0.5947143597057509,2.4618559959255624,-0.4791531763044945
12.340000000000003,0.5114376624968999,2.4778896070161145,-0.3563205737963639
12.349999999999994,0.4590176162962643,2.475508389209644,-0.2357955391004343
12.360000000000014,0.3704376980361896,2.4840125186683646,-0.0741532450594905
12.370000000000005,0.3125500966864997,2.4769217433803647,0.078974677798739
12.379999999999995,0.2783158777226691,2.456078087994216,0.2321345520489509
12.390000000000017,0.2457516675157927,2.4393073983661195,0.3973648971007648
12.400000000000006,0.2302148889535131,2.4163145045851446,0.5285094369089571
12.409999999999997,0.2165082655678116,2.379402409759776,0.6409347111750147
12.419999999999987,0.2015318259182624,2.3322956100907137,0.74756005371879
12.430000000000009,0.1688595219978201,2.2712929783677978,0.8739935791367918
12.439999999999998,0.1230265382862368,2.219682631359791,1.0026906957952808
12.449999999999989,0.0701674737557988,2.172861513661616,1.1269161503686955
12.460000000000008,0.0121594409757965,2.13452301437874,1.2503259618758948
12.47,-0.0444895311511332,2.113835964166648,1.3568096667620626
12.47999999999999,-0.1189890575337154,2.108241335567515,1.4852735256249834
12.490000000000007,-0.1880076104725315,2.1096612470787326,1.6014827055695364
12.5,-0.2349057421005576,2.10785470324581,1.6972044617624182
12.509999999999993,-0.2696469335243509,2.1181856769191487,1.7841270293552116
12.52000000000001,-0.2844720960582675,2.137483503850848,1.846176902292631
12.53,-0.2897151989214102,2.158961407571073,1.9115112686003572
12.539999999999992,-0.2784838468216056,2.1726645557005564,1.967952875689237
12.550000000000011,-0.2484066716158997,2.182343967299861,2.02384312003256
12.560000000000002,-0.2054314209825899,2.199200349669132,2.0841890000039727
12.569999999999991,-0.1667562584970449,2.228964487614125,2.159281429179365
12.580000000000013,-0.1612726429131231,2.24855619370986,2.2356226032846864
12.590000000000003,-0.1808144038204943,2.2586811498296924,2.296643255945626
12.599999999999994,-0.2183580922272144,2.2669113661296896,2.361131607799808
12.610000000000014,-0.2660158999397932,2.26930427316835,2.412115624296622
12.620000000000005,-0.3138752412169603,2.272446018081904,2.4521666141611345
12.629999999999995,-0.3592413007897647,2.2758243569483008,2.484235077215817
12.640000000000017,-0.3908634003877664,2.2815323100380924,2.512521547887454
12.650000000000006,-0.4344766826234929,2.295513757522953,2.540306540933687
12.659999999999997,-0.4812287209154968,2.300813042754097,2.5670217287413557
12.669999999999987,-0.5349878842681841,2.2952992352096317,2.5820536152883724
12.680000000000009,-0.5957673429852329,2.28691500289496,2.592304629006278
12.689999999999998,-0.6565961315593131,2.253596984263625,2.595466093097457
12.699999999999989,-0.720633592199568,2.21071275594139,2.5946525230773827
12.710000000000008,-0.7605885075360961,2.177549946640845,2.5869508248087345
12.72,-0.7875332562256974,2.138369224337741,2.571262515083549
12.72999999999999,-0.8004611926946916,2.1109606093131656,2.555693869923147
12.740000000000007,-0.80250967068743,2.084566875216376,2.529467623221053
12.75,-0.7885044146258547,2.0688826141552688,2.4962505564569226
12.759999999999993,-0.7756292326403131,2.0511197773224845,2.468364538804525
12.77000000000001,-0.7585688338116788,2.026875369402752,2.446521517064776
12.78,-0.7374515231395306,1.995884187869948,2.420981588343239
12.789999999999992,-0.71324285944188,1.9636248435475472,2.3944485953723977
12.800000000000011,-0.6872435271762464,1.926452003997731,2.3689952656764035
12.810000000000002,-0.6858446595874444,1.889085258714828,2.349543637521044
12.819999999999991,-0.689747365216848,1.8590136194493465,2.3261515504228805
12.830000000000013,-0.6887319160832192,1.8417650801171093,2.303417896028816
12.840000000000003,-0.6813597854344803,1.820028763495849,2.271518423053065
12.849999999999994,-0.6717436934308851,1.7874419625010691,2.2397459218934035
12.860000000000014,-0.6662573315435446,1.7541515954563571,2.216770695140787
12.870000000000005,-0.6517384056431987,1.7229979675997538,2.188463582241659
12.879999999999995,-0.625611224639037,1.701042828304968,2.161086291505893
12.890000000000017,-0.606242666869359,1.6862185679537005,2.130085642211608
12.900000000000006,-0.5971028623778349,1.6728506540905486,2.101115987194816
12.909999999999997,-0.6035620321021614,1.644134479171894,2.073615002715948
12.919999999999987,-0.6238327294871924,1.6108923472916636,2.054644592506385
12.930000000000009,-0.6711860381746932,1.573096282672502,2.046356767954499
12.939999999999998,-0.7427336092169008,1.540331568183926,2.0422307051163155
12.949999999999989,-0.7967820113786767,1.534459901109149,2.031113232987733
12.960000000000008,-0.8298663717292722,1.5333572527451038,2.0143893764056258
12.97,-0.8471834902588374,1.5325880601483306,2.0009072267877337
12.97999999999999,-0.8525036716064877,1.5231338846208733,1.9879841229768505
12.990000000000007,-0.8384018448878312,1.5309730627588425,1.9629635769616889
13.0,-0.8096927048078465,1.5470919638280929,1.9371996177391744
13.009999999999993,-0.7774121011413803,1.5562603794757262,1.9163787819557097
13.02000000000001,-0.7597480627047566,1.5508455573512774,1.899970084306116
13.03,-0.7639484859139624,1.535702211078082,1.891096220854976
13.039999999999992,-0.7768632433569753,1.540319543502399,1.878442574792624
13.050000000000011,-0.7803267455500341,1.552616156233869,1.8591022587291912
13.060000000000002,-0.7686857300752614,1.5763375999246367,1.8263107331691717
13.069999999999991,-0.7530389188364984,1.596643857947432,1.811516729459036
13.080000000000013,-0.7497997571123222,1.5914638678654096,1.8110120210618237
13.090000000000003,-0.7429858288336592,1.5770099926085075,1.8149844540286129
13.099999999999994,-0.7258077244002459,1.5674649795726463,1.8093926787885517
13.110000000000014,-0.7009536082937149,1.5498400547110711,1.800022885371438
13.120000000000005,-0.678205079008823,1.5243549673057273,1.7964546238169077
13.129999999999995,-0.661278945211918,1.4875857834316837,1.8049006109069428
13.140000000000017,-0.6718582780995814,1.4355523635063736,1.824269718608665
13.150000000000006,-0.6960845971991271,1.3658446106475002,1.8366898464287225
13.159999999999997,-0.7632727344817485,1.2738316806187804,1.8463808466755465
13.169999999999987,-0.8588268548850143,1.1893276218169495,1.8520028234197508
13.180000000000009,-1.0201880003314583,1.0833502145357248,1.8364625571469624
13.189999999999998,-1.182681698703376,0.9787127241369946,1.8149920898348963
13.199999999999989,-1.286219153627228,0.875001867392277,1.796974815448498
13.210000000000008,-1.368149036705167,0.7229931871130699,1.7783961550884666
13.22,-1.3815295193367791,0.5951652182422885,1.7697736304178202
13.22999999999999,-1.374711243125096,0.470484356924214,1.7570533671963546
13.240000000000007,-1.3530916897575418,0.3417118529351211,1.744445467878326
13.25,-1.3335496527140165,0.2145951916064029,1.7306751864968386
13.259999999999993,-1.3229705928742777,0.0987436033461893,1.7232178667689493
13.27000000000001,-1.3181611765145749,-0.0316000773108343,1.7152765752475474
13.28,-1.3120896978811016,-0.1575763815095337,1.7100870169931113
13.289999999999992,-1.3028170497790816,-0.262998845777626,1.6994812685883225
13.300000000000011,-1.2917062798696477,-0.3675111164450501,1.6678305271269938
13.310000000000002,-1.269687069343429,-0.4713593870874107,1.6381852902873983
13.319999999999991,-1.2317424674954895,-0.559016845168732,1.6105653207100523
13.330000000000013,-1.1544950213898642,-0.6758657982549148,1.596598475709595
13.340000000000003,-1.0697882434666337,-0.7845156504779237,1.584088744422302
13.349999999999994,-0.982153141974762,-0.8850548168598662,1.5702661978372383
13.360000000000014,-0.8796102835200867,-0.9817185084874231,1.5475876809885845
13.370000000000005,-0.791855082136224,-1.05878789357616,1.510122380123133
13.379999999999995,-0.7334290691452132,-1.1441615572585095,1.4604269724315468
13.390000000000017,-0.7006943562215445,-1.232554930290829,1.3958537618625535
13.400000000000006,-0.6773544882155859,-1.3228770923256794,1.3272164827837518
13.409999999999997,-0.6481952293506864,-1.4088080016816724,1.272686101433584
13.419999999999987,-0.5915190476300123,-1.5026980080847532,1.2396356396166
13.430000000000009,-0.5131830237622127,-1.5824543957330164,1.229268914139468
13.439999999999998,-0.4097413662495309,-1.6435502706405964,1.2120791290466464
13.449999999999989,-0.2917509566814715,-1.6895537290304452,1.1780171398717951
13.460000000000008,-0.170833317729962,-1.723355289803269,1.133329803527482
13.47,-0.0682488237713518,-1.7663240580423394,1.0621211086762363
13.47999999999999,-0.010428974686488,-1.8187134301182328,0.9819310702487746
13.490000000000007,0.0279255057375957,-1.8808713278654836,0.9061879297831622
13.5,0.0687347996756723,-1.9409447770822608,0.8332253270599467
13.509999999999993,0.1159650554715345,-1.996057244393756,0.7765095658560718
13.52000000000001,0.16912748337149,-2.0495964539646176,0.7382407500182752
13.53,0.2386854270973203,-2.112858350208273,0.6935740532523891
13.539999999999992,0.3063254549062595,-2.1655832520882816,0.653060824099692
13.550000000000011,0.3422504372557972,-2.231054788010771,0.5907217988516212
13.560000000000002,0.3433930679240589,-2.3005821029395195,0.5268687996667559
13.569999999999991,0.3421427611001643,-2.373358785189762,0.465722900895184
13.580000000000013,0.3570794897031454,-2.4540821394779644,0.4036136993283462
13.590000000000003,0.4015610076543415,-2.5278733343068933,0.3545941617883356
13.599999999999994,0.4626975265775924,-2.58301774341658,0.2997296058442791
13.610000000000014,0.5063249133916122,-2.6179432988927345,0.2407896689616741
13.620000000000005,0.5276407534734103,-2.6436161106612586,0.1770476975824357
13.629999999999995,0.5109417595675148,-2.6685902367943077,0.113646934937151
13.640000000000017,0.4577581373742939,-2.6910445795197004,0.069133283860447
13.650000000000006,0.382132643605783,-2.717112961826341,0.0250074636897725
13.659999999999997,0.3149532927742297,-2.751675192518171,-0.022402476265223
13.669999999999987,0.2437379996791777,-2.803715661592633,-0.0741851265677981
13.680000000000009,0.2073006032916619,-2.853852544460812,-0.1141333218040421
13.689999999999998,0.2035237732283415,-2.8935359920287715,-0.1392846171484172
13.699999999999989,0.212183267572833,-2.9261661879582923,-0.1597194646243463
13.710000000000008,0.223871360891875,-2.9498271087487407,-0.1721618163862682
13.72,0.2395316534371653,-2.975992487878792,-0.1911185327216809
13.72999999999999,0.2451640959518644,-2.998946482968319,-0.2032159424891486
13.740000000000007,0.2471339911209493,-3.012338661704807,-0.213296746242902
13.75,0.2437569126211907,-3.020287726378166,-0.2251831016602873
13.759999999999993,0.229018560572973,-3.020275705752816,-0.2490470986873068
13.77000000000001,0.1960621294450449,-3.012250995476774,-0.2872410450846334
13.78,0.1538551129542844,-3.0122819645190235,-0.327275648443516
13.789999999999992,0.0950233024350122,-3.012630348522194,-0.3721972132837778
13.800000000000011,0.0239161814592372,-3.0002492212600926,-0.4087265591558304
13.810000000000002,-0.0423327148763454,-2.9879013657348192,-0.4330706346450623
13.819999999999991,-0.1257284606529158,-2.9711210018280005,-0.4681064818315865
13.830000000000013,-0.185671828269945,-2.954966230450783,-0.4968848317123994
13.840000000000003,-0.2267649819333277,-2.9295286447242064,-0.5248517929439134
13.849999999999994,-0.2540497454185779,-2.902852421750145,-0.5534122140903114
13.860000000000014,-0.2727162518737508,-2.886880109988779,-0.5737128644342327
13.870000000000005,-0.2886513547973019,-2.87401600090326,-0.5963250260401644
13.879999999999995,-0.3107961347132384,-2.8567707385991903,-0.6216753400017809
13.890000000000017,-0.3551264190851442,-2.833366134237526,-0.6543007348377786
13.900000000000006,-0.4109927286525581,-2.80227178376385,-0.691338464063233
13.909999999999997,-0.4879922815199677,-2.775299187084121,-0.7222193017358476
13.919999999999987,-0.5720690502744308,-2.746959211268657,-0.7480964101067703
13.930000000000009,-0.6627993947912947,-2.717652498042855,-0.7740891102412244
13.939999999999998,-0.7627779103650164,-2.682098491805404,-0.806249134358264
13.949999999999989,-0.8852976072725768,-2.643161989237341,-0.8446905885216466
13.960000000000008,-1.02290927869086,-2.605796116251793,-0.8836285490864927
13.97,-1.1627028801758947,-2.562099417223945,-0.9248023388956652
13.97999999999999,-1.3031969104108063,-2.5212441970223938,-0.9758787116780824
13.990000000000007,-1.454978120374265,-2.476949040836556,-1.0450745462994064
14.0,-1.5817617154989996,-2.4345414649244312,-1.1105240374416747
14.009999999999993,-1.7066785427472095,-2.382917853943687,-1.1761573814690682
14.02000000000001,-1.8399878743949452,-2.31957701671621,-1.2460212625248588
14.03,-1.9661341010816056,-2.250803247908177,-1.313449988522598
14.039999999999992,-2.100438198017082,-2.16784344017117,-1.372354715049
14.050000000000011,-2.2062706456740777,-2.099180718310657,-1.4121273775621164
14.060000000000002,-2.3033019607282905,-2.027413338560721,-1.4577493940073298
14.069999999999991,-2.3929937926502687,-1.94712507308939,-1.5083535780357022
14.080000000000013,-2.471199398375408,-1.870135032812475,-1.5580248816918612
14.090000000000003,-2.553166459770712,-1.807042840101832,-1.6070783262661663
14.099999999999994,-2.6563442111805613,-1.740101262367853,-1.6600035572600007
14.110000000000014,-2.781530261190761,-1.670672133121991,-1.7155965806627442
14.120000000000005,-2.924820187051167,-1.6066973964066733,-1.7579137436953491
14.129999999999995,-3.065396564898843,-1.5419776910250296,-1.7954373835683282
14.140000000000017,-3.1768404216756285,-1.477932965493154,-1.8290907518326829
14.150000000000006,-3.248527550696573,-1.4187427779031505,-1.8549580906991427
14.159999999999997,-3.314192121493845,-1.3358517312267286,-1.8747433619423897
14.169999999999987,-3.3534509780474,-1.2663823933848386,-1.8862073427410333
14.180000000000009,-3.3827413004057987,-1.1734425742448886,-1.8973494783701377
14.189999999999998,-3.395129032276017,-1.0662001309732927,-1.8987018807839504
14.199999999999989,-3.388614025954712,-0.97221560397101,-1.8851397601606477
14.210000000000008,-3.3749097627823827,-0.885754753232102,-1.859251940634536
14.22,-3.3461328786422126,-0.7932271827152194,-1.8278038096610376
14.22999999999999,-3.313615589208436,-0.7129928346362711,-1.8035836110363137
14.240000000000007,-3.26229997044429,-0.6173754551398888,-1.7802115095526871
14.25,-3.1928652734188345,-0.5121527854960375,-1.740079858319716
14.259999999999993,-3.127152401093668,-0.4290095355848807,-1.693563738599804
14.27000000000001,-3.07031337505222,-0.3413944032132188,-1.642625180313154
14.28,-3.0111593855367262,-0.2541134460643797,-1.5804518336210442
14.289999999999992,-2.961730244989827,-0.1886709361276018,-1.517435949718918
14.300000000000011,-2.9257794655919023,-0.1360407544565995,-1.450083208450276
14.310000000000002,-2.885532727383058,-0.062061312249601,-1.37356444221443
14.319999999999991,-2.8442601178140103,0.0087826080359713,-1.3206811944998342
14.330000000000013,-2.8001685360614537,0.0868593454406469,-1.2827039668669746
14.340000000000003,-2.769801270104709,0.157959558745288,-1.256950204212786
14.349999999999994,-2.752942470146269,0.2350817456525716,-1.2353374390190637
14.360000000000014,-2.7378289419994126,0.3171173681645772,-1.2067945014578678
14.370000000000005,-2.71447087154374,0.4031046336012408,-1.1616727779433544
14.379999999999995,-2.6856512486175057,0.4926189940836599,-1.0978715861895665
14.390000000000017,-2.655694128528588,0.586457683970642,-1.0159590574684123
14.400000000000006,-2.646038312402721,0.6768025248475619,-0.913190905343295
14.409999999999997,-2.6616968622499124,0.7605978301486498,-0.8096502923479372
14.419999999999987,-2.699172812226001,0.8397510103300434,-0.7119949659071803
14.430000000000009,-2.751437033462602,0.920405397840562,-0.6054998510923565
14.439999999999998,-2.8189489930392173,0.9987557606620396,-0.499064940864969
14.449999999999989,-2.9026059645963618,1.0847378721388163,-0.3770529519916471
14.460000000000008,-2.976156025880439,1.1560995670538747,-0.254165275136831
14.47,-3.0244136658316854,1.201513970118838,-0.1378236424962742
14.47999999999999,-3.0438397212509583,1.2292398273759015,-0.0016528910462483
14.490000000000007,-3.0399841490659627,1.2436617070195777,0.1238086983065915
14.5,-3.0206498465417444,1.258782219647724,0.2739535070257619
14.509999999999993,-2.995974807856249,1.284739391065088,0.4279958252227358
14.52000000000001,-2.979150054861954,1.3198014611228464,0.6000972158299971
14.53,-2.9626735329193044,1.3474958330589704,0.7825451794057001
14.539999999999992,-2.9398046490668484,1.3483962999759571,0.922076219271302
14.550000000000011,-2.881140400939439,1.3207634710820917,1.071529698738667
14.560000000000002,-2.8069016331228265,1.2857885303896577,1.2178906308323785
14.569999999999991,-2.746137066300924,1.2495173208653467,1.3451173696828689
14.580000000000013,-2.6426827161245576,1.195213344242879,1.4631666078088736
14.590000000000003,-2.5542091126963835,1.1473679896048952,1.5766271217606869
14.599999999999994,-2.510970225833988,1.0976204393621565,1.726145367347713
14.610000000000014,-2.48969941697823,1.0563689355455197,1.860065125453255
14.620000000000005,-2.4671146396734795,1.0189560244125282,1.9710443735609615
14.629999999999995,-2.419363400344389,0.975513548237482,2.064223062297831
14.640000000000017,-2.340715263241654,0.9168930671110346,2.1501513951820974
14.650000000000006,-2.1969610113577827,0.8352789035472142,2.247992971723172
14.659999999999997,-2.057347022956256,0.770946846120889,2.314374773639683
14.669999999999987,-1.869275123954026,0.7065163297712111,2.3901330323054304
14.680000000000009,-1.7104716990727635,0.6622717862618596,2.4513281536118727
14.689999999999998,-1.6101291003751554,0.6389398366512273,2.506087290189658
14.699999999999989,-1.5220317075769974,0.6175525794866775,2.562494417813103
14.710000000000008,-1.447255313297927,0.5859311914699135,2.611025046676994
14.72,-1.368578983094508,0.5449099595207579,2.643170136448314
14.72999999999999,-1.3024678422165787,0.5096809011225298,2.6593265278124214
14.740000000000007,-1.240871619184719,0.4595241456800015,2.685293494596123
14.75,-1.182752951869531,0.4105645972263094,2.7046113626816486
14.759999999999993,-1.12797509427057,0.3657984818058293,2.724971056388736
14.77000000000001,-1.054369635522965,0.3268597938622566,2.755742087339534
14.78,-0.979078682728318,0.2964775720945982,2.789976624597992
14.789999999999992,-0.8790333187699129,0.2556512960934911,2.827002688195182
14.800000000000011,-0.7886477994158478,0.2163180518298527,2.8599696110781454
14.810000000000002,-0.6960773861074204,0.1818932946819237,2.8740471763580158
14.819999999999991,-0.5772284366261786,0.1577988323697325,2.874634493031233
14.830000000000013,-0.4811947665312567,0.1464645109756076,2.874004351194564
14.840000000000003,-0.4010434633243335,0.1417253736871044,2.866374580343463
14.849999999999994,-0.3429575654993235,0.1377914394823113,2.8530603062962188
14.860000000000014,-0.2963492763255577,0.1354846810117008,2.830107758211336
14.870000000000005,-0.2640404501487589,0.1267113392246711,2.794478939016426
14.879999999999995,-0.2470534412468799,0.1039034248312105,2.763827708023817
14.890000000000017,-0.2440849588726704,0.0783828446314893,2.743838656077133
14.900000000000006,-0.2419589351689144,0.0572019286234985,2.741084881346082
14.909999999999997,-0.2366419622872607,0.0373399628295831,2.743506334172637
14.919999999999987,-0.2215026765136167,0.028558979367948,2.7574404209955587
14.930000000000009,-0.1930850405868768,0.0209040096664671,2.7666266824670256
14.939999999999998,-0.1512132380295436,0.0109166196014892,2.7703358519893126
14.949999999999989,-0.0997534930027322,0.0019220956102464,2.7726057795684453
14.960000000000008,-0.0084887676217208,-0.0113410440411706,2.758166758771329
14.97,0.0910118438848248,-0.0245983354123218,2.743386575613385
14.97999999999999,0.1783886023808772,-0.0350332941596878,2.7396911119838983
14.990000000000007,0.2626387788645454,-0.0441669619015754,2.743608629791216
15.0,0.3205854850174235,-0.044714473516621,2.7564883813578835
15.009999999999993,0.3609841081790637,-0.047124666791958,2.779921330705407
15.02000000000001,0.3847974743705803,-0.0549402815630552,2.8058933565074744
15.03,0.392424413361257,-0.0717263349670775,2.829513033407089
15.039999999999992,0.397866821486844,-0.1009091816703609,2.857015051317108
15.050000000000011,0.4054984790060833,-0.1277931527915902,2.8771138959639138
15.060000000000002,0.4146916795282012,-0.1442381760665353,2.8962549629402377
15.069999999999991,0.4409047979809359,-0.156622960602571,2.9068625069677814
15.080000000000013,0.485864597303999,-0.1591051902884767,2.9207370805935
15.090000000000003,0.5639697556403778,-0.1662735267419761,2.9178306667316165
15.099999999999994,0.6379243476819779,-0.1775664969620872,2.909541453271706
15.110000000000014,0.721145112326425,-0.212862200395739,2.882979248550612
15.120000000000005,0.7835382714114155,-0.2405613521185578,2.865620018103822
15.129999999999995,0.8599822725195957,-0.2709848301332058,2.825264291367934
15.140000000000017,0.9051308765481764,-0.2824094334153106,2.8017801083597558
15.150000000000006,0.9969014513734464,-0.3112953206434471,2.7146785102812947
15.159999999999997,1.0620951130357024,-0.334131530925392,2.6530804969781085
15.169999999999987,1.0752897676646191,-0.347776860136635,2.634235780471293
15.180000000000009,1.129843291073266,-0.3905557366034957,2.560236674370281
15.189999999999998,1.191288657775227,-0.4400204694150116,2.4687210146287275
15.199999999999989,1.2565944987462645,-0.4892811926243468,2.3663989832899626
15.210000000000008,1.3150047805601222,-0.520655181969624,2.261698319538024
15.22,1.3864868507777786,-0.5578686919938864,2.155253796346181
15.22999999999999,1.476847069892403,-0.6026727003738012,2.050291628473728
15.240000000000007,1.574758365981331,-0.6425682605354404,1.9500348080918777
15.25,1.6555498530912447,-0.6777827316659414,1.873783882912428
15.259999999999993,1.7335535590321034,-0.7237953121423275,1.803572006794253
15.27000000000001,1.8024372635185415,-0.7846492381157194,1.732830212690681
15.28,1.8527239615071092,-0.8416690677939703,1.6756442165581364
15.289999999999992,1.9050631704624963,-0.8946511902466199,1.6254580708939772
15.300000000000011,1.949525104913963,-0.955379750287906,1.57166470315392
15.310000000000002,1.998782882400746,-1.0188551645269832,1.5066754449575344
15.319999999999991,2.032448449214441,-1.0664803433097412,1.45599954885215
15.330000000000013,2.065478774044336,-1.118075629956087,1.4017784010120904
15.340000000000003,2.1034164730892733,-1.1591273731420098,1.361018283655614
15.349999999999994,2.1275337638748333,-1.209095910274414,1.3280361254888908
15.360000000000014,2.156069626234233,-1.2777524506849969,1.2833044340157127
15.370000000000005,2.1605639281339286,-1.296580176291657,1.272939111547373
15.379999999999995,2.1641700067878187,-1.3354733322550143,1.2392996370523928
15.390000000000017,2.1483329742670465,-1.3864042457675008,1.2109767858280045
15.400000000000006,2.119243677806612,-1.4422460645367576,1.1839425163627693
15.409999999999997,2.0893432182456566,-1.5176049750003064,1.1575515227714637
15.419999999999987,2.0649202439376566,-1.5933825587652095,1.1168234971701338
15.430000000000009,2.06951281966983,-1.6545427451101762,1.0832415002405251
15.439999999999998,2.078912455370668,-1.72990441210507,1.0590779895810802
15.449999999999989,2.115347112383526,-1.8002803474703457,1.032872922298626
15.460000000000008,2.1517404135295624,-1.864839315315681,1.0142898980233896
15.47,2.1861163098518306,-1.890865455659288,0.9973869357403566
15.47999999999999,2.2361735344360643,-1.9427791636054952,0.9881285693124832
15.490000000000007,2.266405967972901,-2.0072099305593016,0.9729747706735216
15.5,2.2843829882558317,-2.0539582895515696,0.9501385647172907
15.509999999999993,2.303175269486193,-2.099166174505851,0.9115181204917427
15.52000000000001,2.309306252464852,-2.13550782772572,0.8772079972896212
15.53,2.289002614582936,-2.154699269703981,0.8484141562130252
15.539999999999992,2.2593679123875265,-2.179302781194895,0.8350980595810069
15.550000000000011,2.213664244531289,-2.2034969309105263,0.8208455751088186
15.560000000000002,2.152755248748897,-2.2109094744687257,0.800825922515768
15.569999999999991,2.085959485562917,-2.2079580784563064,0.7878764154266384
15.580000000000013,2.027410148761902,-2.2108586355850077,0.7799953549023274
15.590000000000003,1.9685296206821408,-2.209963503548594,0.7748503603717196
15.599999999999994,1.9172098796641437,-2.1972750302457587,0.7717208319745829
15.610000000000014,1.8488192135285653,-2.193658305727621,0.7602332573309146
15.620000000000005,1.775325114390493,-2.191622401063104,0.7408472090524892
15.629999999999995,1.6908555515577113,-2.181993307035272,0.7121331470443475
15.640000000000017,1.6005484502906997,-2.1613803503122293,0.695925357762988
15.650000000000006,1.5167438033552203,-2.147936119043988,0.6816463039110678
15.659999999999997,1.4212710263157646,-2.118921334831319,0.6712435767835937
15.669999999999987,1.3315905500088334,-2.1121133419036213,0.660108486240352
15.680000000000009,1.2551693988565429,-2.0988897822967374,0.6308081135268865
15.689999999999998,1.1897413749785488,-2.086647462061618,0.5913238557920443
15.699999999999989,1.1372560355912145,-2.082352600218155,0.5466594071464153
15.710000000000008,1.090912849979753,-2.063927895336872,0.5005933361137948
15.72,1.0652830249523737,-2.048220488250044,0.4556605787561166
15.72999999999999,1.0608154171297222,-2.0310739216746323,0.421157966950316
15.740000000000007,1.0682402463556542,-2.013590596885047,0.3918365805174241
15.75,1.0861185876952295,-2.000619153771109,0.3773568154178854
15.759999999999993,1.1318089189734368,-1.9824359770883144,0.3666731580354886
15.77000000000001,1.1874467523896883,-1.9685261015571296,0.360381650990743
15.78,1.2301052462798214,-1.962657141200832,0.3456953359666411
15.789999999999992,1.2649505296972214,-1.9632536942427643,0.3206972571511972
15.800000000000011,1.2994975657046874,-1.9602235369174767,0.2939024453778501
15.810000000000002,1.3345557518340088,-1.9509833950119748,0.2732483894400842
15.819999999999991,1.3577351205003727,-1.942424103152774,0.2691689558511872
15.830000000000013,1.3695108152931976,-1.9340636257670727,0.2683460853351407
15.840000000000003,1.376257848930834,-1.9302572268466045,0.2659190841599307
15.849999999999994,1.3704073597975026,-1.9215313205275544,0.2683474947717729
15.860000000000014,1.351515311663814,-1.9154962730949647,0.2755308373495939
15.870000000000005,1.3378914691786334,-1.914427060810526,0.2755239514612427
15.879999999999995,1.332582402214853,-1.9149914888361037,0.271095548658207
15.890000000000017,1.3390069179352673,-1.914886364880686,0.2497053265873395
15.900000000000006,1.3594078658037252,-1.8994669765643093,0.2338578653768557
15.909999999999997,1.396886249096342,-1.8850201144341767,0.224548103435786
15.919999999999987,1.4308194690773413,-1.8710045104338653,0.2165357688410524
