time,Gyr_X,Gyr_Y,Gyr_Z
0.0,0.002131047016685,0.0010646508437165,-0.0010646508437165
0.003499999999974,0.0042603487041181,0.002131047016685,-0.0053267448770866
0.0069999999999481,0.002131047016685,0.002131047016685,-0.0031956978604016
0.010499999999979,0.002131047016685,0.0053267448770866,-0.0053267448770866
0.0139999999999531,0.0031956978604016,0.0031956978604016,-0.0053267448770866
0.017499999999984,0.0042603487041181,-5.217422403749877e-19,-0.0031956978604016
0.0209999999999581,3.913601155782886e-19,0.0031956978604016,-0.0063913957208032
0.024499999999989,0.0053267448770866,0.0085224427374883,-0.0010646508437165
0.0279999999999631,0.0042603487041181,0.0074577918937717,-0.0031956978604016
0.031499999999994,0.002131047016685,0.002131047016685,-0.002131047016685
0.0349999999999681,0.0042603487041181,-5.217422403749877e-19,-0.002131047016685
0.038499999999999,0.0010646508437165,0.0010646508437165,-0.0042603487041181
0.0419999999999731,0.002131047016685,-0.0010646508437165,-0.0042603487041181
0.0454999999999472,-3.913601155782886e-19,-0.0031956978604016,-0.0042603487041181
0.0489999999999781,0.002131047016685,-0.002131047016685,-0.0053267448770866
0.0524999999999522,0.002131047016685,0.0031956978604016,-0.0053267448770866
0.0559999999999831,0.002131047016685,0.0042603487041181,-0.0031956978604016
0.0594999999999572,0.0053267448770866,0.0085224427374883,-0.0042603487041181
0.0629999999999881,0.0063913957208032,-7.827202311565772e-19,-0.0042603487041181
0.0664999999999622,0.0031956978604016,0.002131047016685,-0.002131047016685
0.0699999999999931,0.002131047016685,-0.002131047016685,-0.002131047016685
0.0734999999999672,0.0010646508437165,-1.3038212479669908e-19,-0.0042603487041181
0.0769999999999981,0.0074577918937717,-9.133160971414677e-19,-0.002131047016685
0.0804999999999722,0.002131047016685,0.002131047016685,-0.0042603487041181
0.0839999999999463,0.002131047016685,0.0085224427374883,-0.0063913957208032
0.0874999999999772,0.0042603487041181,0.0127827914416064,-0.002131047016685
0.0909999999999513,0.0053267448770866,0.0127827914416064,-0.0042603487041181
0.0944999999999822,0.0031956978604016,0.0106534897541733,-0.0063913957208032
0.0979999999999563,0.0074577918937717,0.013849187614575,-0.0031956978604016
0.1014999999999872,0.0053267448770866,0.0117181405978899,-0.0063913957208032
0.1049999999999613,0.0053267448770866,0.0095870935812048,-0.0053267448770866
0.1084999999999922,0.0042603487041181,0.0085224427374883,-0.0053267448770866
0.1119999999999663,0.0010646508437165,0.0106534897541733,-0.0031956978604016
0.1154999999999972,0.0010646508437165,0.0117181405978899,-0.0053267448770866
0.1189999999999713,0.0010646508437165,0.0053267448770866,-0.0053267448770866
0.1224999999999454,0.0042603487041181,0.002131047016685,0.0
0.1259999999999763,-0.0010646508437165,-0.0010646508437165,-0.002131047016685
0.1294999999999504,-9.133160971414677e-19,-0.0074577918937717,-0.0010646508437165
0.1329999999999813,-1.3046762127197565e-18,-0.0106534897541733,-0.0010646508437165
0.1364999999999554,-0.0031956978604016,-0.0106534897541733,0.002131047016685
0.1399999999999863,0.0010646508437165,-0.0085224427374883,-0.0053267448770866
0.1434999999999604,-5.217422403749877e-19,-0.0042603487041181,-0.0053267448770866
0.1469999999999913,0.0042603487041181,-0.002131047016685,0.0
0.1504999999999654,0.0031956978604016,-3.913601155782886e-19,-0.0053267448770866
0.1539999999999963,0.0031956978604016,-0.0010646508437165,-0.002131047016685
0.1574999999999704,0.002131047016685,0.0010646508437165,-0.0042603487041181
0.1609999999999445,0.0031956978604016,0.002131047016685,-0.002131047016685
0.1644999999999754,0.002131047016685,0.002131047016685,-0.0031956978604016
0.1679999999999495,0.0031956978604016,-3.913601155782886e-19,-0.002131047016685
0.1714999999999804,5.217422403749877e-19,0.0042603487041181,-0.0042603487041181
0.1749999999999545,0.002131047016685,0.002131047016685,-0.0031956978604016
0.1784999999999854,0.0031956978604016,0.0042603487041181,-0.0063913957208032
0.1819999999999595,0.0053267448770866,0.002131047016685,-0.0031956978604016
0.1854999999999904,0.0010646508437165,-0.0010646508437165,-0.0031956978604016
0.1889999999999645,0.002131047016685,-2.6097799078158957e-19,-0.0031956978604016
0.1924999999999954,0.002131047016685,-2.6097799078158957e-19,-0.002131047016685
0.1959999999999695,0.0010646508437165,0.0053267448770866,-0.002131047016685
0.1995000000000004,0.0085224427374883,0.0202405833353782,-0.0010646508437165
0.2029999999999745,0.0127827914416064,0.02769837522915,0.0
0.2064999999999486,0.0191759324916617,0.0394165158270399,0.0010646508437165
0.2099999999999795,0.0191759324916617,0.0479389585645282,0.002131047016685
0.2134999999999536,0.0298276769165831,0.0607217500061347,0.0010646508437165
0.2169999999999845,0.0340897709499532,0.0735062867769931,0.0074577918937717
0.2204999999999586,0.0330233747769847,0.0820287295144815,0.0074577918937717
0.2239999999999895,0.041545817514473,0.0809623333415129,0.0074577918937717
0.2274999999999636,0.0500682602519613,0.0809623333415129,0.0
0.2309999999999945,0.0394165158270399,0.0735062867769931,-0.0031956978604016
0.2344999999999686,0.0223716303520633,0.0639174478665363,-0.0053267448770866
0.2379999999999995,0.0085224427374883,0.0521993072686464,-0.0117181405978899
0.2414999999999736,-0.0181095363186931,0.0351544217936697,-0.0170448854749766
0.2449999999999477,-0.0234362811957798,0.0330233747769847,-0.0213052341790947
0.2484999999999786,-0.0372854688103548,0.0213052341790947,-0.0170448854749766
0.2519999999999527,-0.0330233747769847,0.01598023463126,-0.0202405833353782
0.2554999999999836,-0.0340897709499532,0.0074577918937717,-0.01598023463126
0.2589999999999577,-0.0351544217936697,4.305175012549366e-18,-0.0213052341790947
0.2624999999999886,-0.0308940730895516,-0.0149138384582915,-0.0191759324916617
0.2659999999999627,-0.0234362811957798,-0.0245026773687483,-0.0170448854749766
0.2694999999999936,-0.0085224427374883,-0.0287630260728665,-0.01598023463126
0.2729999999999677,0.0042603487041181,-0.0351544217936697,-0.01598023463126
0.2764999999999986,0.0170448854749766,-0.0308940730895516,-0.0010646508437165
0.2799999999999727,0.0234362811957798,-0.0404811666707564,0.0074577918937717
0.2834999999999468,0.0202405833353782,-0.0447432607041266,0.0063913957208032
0.2869999999999777,0.0117181405978899,-0.0319587239332681,-0.002131047016685
0.2904999999999518,-0.0031956978604016,-0.0170448854749766,-0.0063913957208032
0.2939999999999827,-0.0106534897541733,-0.0053267448770866,-0.0053267448770866
0.2974999999999568,-0.0095870935812048,0.0042603487041181,-0.0063913957208032
0.3009999999999877,-0.0127827914416064,0.0106534897541733,-0.0031956978604016
0.3044999999999618,-0.0074577918937717,0.0106534897541733,0.0
0.3079999999999927,-0.0053267448770866,0.0074577918937717,-0.002131047016685
0.3114999999999668,-0.0042603487041181,0.0074577918937717,0.0
0.3149999999999977,-0.0,0.0,-0.002131047016685
0.3184999999999718,0.0085224427374883,-0.0053267448770866,0.002131047016685
0.3219999999999459,0.013849187614575,-0.0010646508437165,0.002131047016685
0.3254999999999768,0.0223716303520633,0.0085224427374883,-0.002131047016685
0.3289999999999509,0.0170448854749766,0.013849187614575,-0.0085224427374883
0.3324999999999818,0.0106534897541733,0.02769837522915,-0.0053267448770866
0.3359999999999559,0.0053267448770866,0.0319587239332681,-0.0053267448770866
0.3394999999999868,-0.0031956978604016,0.0287630260728665,-0.0053267448770866
0.3429999999999609,-0.0106534897541733,0.0308940730895516,-0.0074577918937717
0.3464999999999918,-0.0149138384582915,0.0330233747769847,-0.0117181405978899
0.3499999999999659,-0.01598023463126,0.0106534897541733,-0.013849187614575
0.3534999999999968,-0.0149138384582915,-0.0841580312019145,-0.0213052341790947
0.3569999999999709,-0.013849187614575,-0.1693824585767977,-0.0223716303520633
0.360499999999945,-0.0095870935812048,-0.2013411825100658,-0.0213052341790947
0.3639999999999759,-0.002131047016685,-0.1374237346435295,0.0010646508437165
0.36749999999995,0.013849187614575,-0.0362208179666383,0.013849187614575
0.3709999999999809,0.0191759324916617,0.0074577918937717,-0.0053267448770866
0.374499999999955,0.01598023463126,0.0564614013020165,-0.0245026773687483
0.3779999999999859,1.0697746468975066e-17,0.0873537290623162,-0.0170448854749766
0.38149999999996,-0.0181095363186931,0.0937468701123714,0.0
0.3849999999999909,-0.0266319790561814,0.0681795418999064,0.0031956978604016
0.388499999999965,-0.0287630260728665,0.0308940730895516,0.0063913957208032
0.3919999999999959,-0.0245026773687483,0.013849187614575,0.0
0.39549999999997,-0.0202405833353782,0.0010646508437165,0.0053267448770866
0.398999999999944,-0.0149138384582915,-0.0010646508437165,0.0085224427374883
0.402499999999975,-0.0031956978604016,-0.0181095363186931,0.0106534897541733
0.405999999999949,0.0074577918937717,-0.0394165158270399,0.013849187614575
0.40949999999998,0.029827676916583,-0.0767019846373948,0.0191759324916617
0.412999999999954,0.0404811666707564,-0.0937468701123714,0.0191759324916617
0.416499999999985,0.041545817514473,-0.1139874534477496,0.02769837522915
0.4199999999999591,0.0351544217936697,-0.1182478021518678,0.0245026773687483
0.42349999999999,0.0362208179666383,-0.110790010258096,0.0340897709499532
0.4269999999999641,0.0340897709499532,-0.0926804739394028,0.0383501196540714
0.430499999999995,0.0287630260728665,-0.0617864008498512,0.0351544217936697
0.4339999999999691,0.02769837522915,-0.0458079115478431,0.0255673282124649
0.4375,0.0106534897541733,-0.0106534897541733,0.0181095363186931
0.4409999999999741,0.0031956978604016,0.013849187614575,0.0117181405978899
0.4444999999999481,6.13159346564411e-18,0.0500682602519613,0.0042603487041181
0.4479999999999791,0.002131047016685,0.0745709376207097,0.0095870935812048
0.4514999999999531,0.01598023463126,0.0980072188164895,0.0042603487041181
0.4549999999999841,0.0298276769165831,0.1129210572747811,0.0085224427374883
0.4584999999999581,0.041545817514473,0.1193124529955843,0.0053267448770866
0.4619999999999891,0.0490036094082448,0.1150521042914662,0.0063913957208032
0.4654999999999631,0.0543303542853314,0.1075943123976944,-0.0010646508437165
0.4689999999999941,0.055395005129048,0.0894847760790012,-0.002131047016685
0.4724999999999681,0.0607217500061347,0.0735062867769931,-0.0095870935812048
0.4759999999999991,0.0596570991624181,0.0628527970228197,-0.0149138384582915
0.4794999999999731,0.0447432607041266,0.0585907029894496,-0.0245026773687483
0.4829999999999472,0.02769837522915,0.0585907029894496,-0.0330233747769847
0.4864999999999781,-0.0031956978604016,0.0660484948832214,-0.0458079115478431
0.4899999999999522,-0.0404811666707564,0.069244192743623,-0.0543303542853314
0.4934999999999832,-0.096942567972773,0.0809623333415129,-0.0713752397603081
0.4969999999999572,-0.1406194325039311,0.0884201252352847,-0.083093380358198
0.5004999999999882,-0.177904901314286,0.0990718696602061,-0.0980072188164895
0.5039999999999623,-0.1747092034538843,0.1097253594143795,-0.1086607085706629
0.5074999999999932,-0.1342280367831278,0.1161167551351827,-0.1043986145372928
0.5109999999999673,-0.0841580312019145,0.1097253594143795,-0.0958761717998045
0.5144999999999982,-0.0319587239332681,0.1022693128498597,-0.0703088435873395
0.5179999999999723,-0.0095870935812048,0.0958761717998045,-0.0490036094082447
0.5214999999999463,0.0074577918937717,0.0916158230956863,-0.0202405833353782
0.5249999999999773,0.0127827914416064,0.0873537290623162,-0.0053267448770866
0.5284999999999513,0.0340897709499532,0.0862890782185996,0.013849187614575
0.5319999999999823,0.0447432607041266,0.0798976824977964,0.0287630260728665
0.5354999999999563,0.055395005129048,0.069244192743623,0.0479389585645282
0.5389999999999873,0.055395005129048,0.0639174478665363,0.0607217500061347
0.5424999999999613,0.0351544217936697,0.0511346564249298,0.0767019846373948
0.5459999999999923,0.0191759324916617,0.0426122136874415,0.0862890782185996
0.5494999999999663,0.0010646508437165,0.0351544217936697,0.1022693128498597
0.5529999999999973,-0.0010646508437165,0.0202405833353782,0.0990718696602061
0.5564999999999714,0.0319587239332681,0.0085224427374883,0.0532657034416149
0.5599999999999454,0.0767019846373948,-9.3932839974435e-18,0.0181095363186931
0.5634999999999764,0.1257055940456395,-0.0063913957208032,0.0106534897541733
0.5669999999999504,0.1139874534477496,-0.0085224427374883,0.01598023463126
0.5704999999999814,0.0607217500061347,-0.0287630260728665,0.0085224427374883
0.5739999999999554,0.0245026773687483,-0.0436768645311581,-0.002131047016685
0.5774999999999864,-0.0053267448770867,-0.0607217500061347,-0.0042603487041181
0.5809999999999604,-0.0149138384582915,-0.0735062867769931,-0.0010646508437165
0.5844999999999914,-0.0372854688103548,-0.0884201252352847,0.0063913957208032
0.5879999999999654,-0.0468725623915597,-0.0873537290623162,0.0010646508437165
0.5914999999999964,-0.0479389585645282,-0.0735062867769931,0.0053267448770866
0.5949999999999704,-0.0298276769165831,-0.055395005129048,0.0053267448770866
0.5984999999999445,0.0170448854749766,-0.0255673282124649,0.0053267448770866
0.6019999999999754,0.0713752397603081,-0.0074577918937717,0.0
0.6054999999999495,0.1480754790684509,0.0138491876145749,0.0031956978604016
0.6089999999999804,0.1970790884766957,0.0213052341790947,0.013849187614575
0.6124999999999545,0.2514094427620272,0.0106534897541733,0.0181095363186931
0.6159999999999854,0.2695207244099723,0.0063913957208032,0.0213052341790947
0.6194999999999595,0.2716500260974054,-0.0127827914416065,0.0213052341790947
0.6229999999999905,0.2684543282370038,-0.0266319790561815,0.0191759324916617
0.6264999999999645,0.2716500260974054,-0.0330233747769847,0.0255673282124649
0.6299999999999955,0.2940216564494687,-0.0330233747769847,0.0266319790561814
0.6334999999999695,0.3217200316786187,-0.0351544217936698,0.0340897709499532
0.6370000000000005,0.3483520107348002,-0.0308940730895516,0.041545817514473
0.6404999999999745,0.3792460838243518,-0.02769837522915,0.0479389585645282
0.6439999999999486,0.397355620143045,-0.0319587239332682,0.055395005129048
0.6474999999999795,0.4037470158638482,-0.0458079115478432,0.0585907029894496
0.6509999999999536,0.4037470158638482,-0.0585907029894497,0.0564614013020165
0.6544999999999845,0.4122694586013365,-0.0756355884644263,0.0511346564249298
0.6579999999999586,0.425053995372195,-0.0767019846373948,0.0479389585645282
0.6614999999999895,0.4548816722887781,-0.080962333341513,0.0564614013020165
0.6649999999999636,0.4825800475179281,-0.080962333341513,0.0745709376207097
0.6684999999999945,0.503885281697023,-0.0820287295144815,0.0852244273748831
0.6719999999999686,0.5006895838366213,-0.0884201252352847,0.0852244273748831
0.6754999999999995,0.4836446983616446,-0.0980072188164896,0.0703088435873395
0.6789999999999736,0.4783179534845579,-0.0980072188164896,0.0607217500061347
0.6824999999999477,0.4634041150262664,-0.1043986145372928,0.0564614013020165
0.6859999999999786,0.4719265577637547,-0.0937468701123714,0.0596570991624181
0.6894999999999527,0.4719265577637547,-0.0777666354811114,0.0607217500061347
0.6929999999999836,0.4772533026408414,-0.0628527970228198,0.0639174478665363
0.6964999999999577,0.4676662090596366,-0.0458079115478432,0.0745709376207097
0.6999999999999886,0.4538170214450616,-0.0383501196540714,0.0777666354811113
0.7034999999999627,0.4186608543221398,-0.0255673282124649,0.083093380358198
0.7069999999999936,0.3930952714389268,-0.0202405833353782,0.0820287295144815
0.7104999999999677,0.3579391043160051,-0.0117181405978899,0.0788312863248278
0.7139999999999986,0.3376985209806268,-4.1356141279572e-17,0.0820287295144815
0.7174999999999727,0.3206536355056502,0.0170448854749765,0.0820287295144815
0.7209999999999468,0.3185243338182171,0.0213052341790947,0.0767019846373948
0.7244999999999777,0.3217200316786187,0.0394165158270398,0.0724398906040246
0.7279999999999518,0.3366338701369103,0.043676864531158,0.0713752397603081
0.7314999999999827,0.3376985209806268,0.0468725623915596,0.0617864008498512
0.7349999999999568,0.3334381722765087,0.0543303542853314,0.0543303542853314
0.7384999999999877,0.3355692192931938,0.0639174478665362,0.0468725623915597
0.7419999999999618,0.3345028231202252,0.0745709376207096,0.041545817514473
0.7454999999999927,0.3206536355056502,0.0820287295144814,0.0308940730895516
0.7489999999999668,0.3110665419244454,0.0894847760790012,0.0223716303520633
0.7524999999999977,0.2897613077453506,0.0937468701123713,0.0063913957208032
0.7559999999999718,0.2673896773932873,0.096942567972773,-0.0010646508437165
0.7594999999999459,0.2375620004767041,0.0958761717998044,-0.0042603487041181
0.7629999999999768,0.2237128128621291,0.1033339636935762,-0.0085224427374883
0.7664999999999509,0.2077325782308691,0.1139874534477496,-0.0095870935812048
0.7699999999999818,0.1960144376329791,0.1267702448893561,-0.013849187614575
0.7734999999999559,0.1768385051413175,0.1448797812080492,-0.0095870935812048
0.7769999999999868,0.1565979218059392,0.1640557136997109,-0.0095870935812048
0.7804999999999609,0.1065296615539779,0.1757738542976009,-0.0031956978604016
0.7839999999999918,0.0681795418999065,0.177904901314286,-0.0095870935812048
0.7874999999999659,0.0181095363186931,0.1768385051413174,-0.0191759324916617
0.7909999999999968,0.0031956978604016,0.1832316461913727,-0.0213052341790947
0.7944999999999709,-0.0010646508437165,0.1896230419121759,-0.0042603487041181
0.797999999999945,0.0106534897541734,0.2066679273871525,-0.0031956978604016
0.8014999999999759,0.0053267448770867,0.2215817658454441,-0.0085224427374883
0.80499999999995,0.0031956978604016,0.2375620004767041,-0.0266319790561814
0.8084999999999809,-0.0276983752291499,0.2492801410745941,-0.0479389585645282
0.811999999999955,-0.0724398906040246,0.2482137449016255,-0.0660484948832214
0.8154999999999859,-0.1182478021518678,0.2450180470412239,-0.0926804739394028
0.81899999999996,-0.1320969897664428,0.2386266513204207,-0.0980072188164895
0.8224999999999909,-0.1693824585767976,0.2162550209683574,-0.0735062867769931
0.825999999999965,-0.1640557136997109,0.2024058333537824,-0.0617864008498512
0.8294999999999959,-0.1086607085706629,0.1938833906162941,-0.0596570991624181
0.83299999999997,-0.0447432607041266,0.1928187397725775,-0.0564614013020165
0.8364999999999441,0.0149138384582915,0.1768385051413174,-0.0521993072686464
0.839999999999975,0.0458079115478431,0.1555332709622227,-0.0532657034416149
0.8434999999999491,0.0862890782185996,0.1289012919060412,-0.0532657034416149
0.84699999999998,0.0990718696602061,0.1043986145372928,-0.0479389585645282
0.8504999999999541,0.0745709376207097,0.0479389585645282,-0.0266319790561814
0.853999999999985,0.0351544217936697,-4.305175012549366e-18,-0.0085224427374883
0.8574999999999591,-0.0223716303520633,-0.0681795418999064,0.0308940730895516
0.86099999999999,-0.069244192743623,-0.1193124529955843,0.0521993072686464
0.8644999999999641,-0.1118564064310646,-0.1885583910684593,0.0852244273748831
0.867999999999995,-0.1512729222581045,-0.247149094057909,0.1001382658331746
0.8714999999999691,-0.1992101354933808,-0.3185243338182171,0.1171831513081512
0.875,-0.2332999064433341,-0.3685925940701784,0.124639197872671
0.8784999999999741,-0.2854992137119805,-0.4303807402492816,0.1299659427497577
0.8819999999999482,-0.3249157295390204,-0.4783179534845579,0.1299659427497577
0.8854999999999791,-0.3877685265618402,-0.5390397034906926,0.1395530363309626
0.8889999999999532,-0.4271832970596281,-0.5720648235969293,0.1448797812080492
0.8924999999999841,-0.4836446983616447,-0.6210684330051741,0.1534022239455376
0.8959999999999582,-0.5209301671719997,-0.6477004120613555,0.166186760716396
0.8994999999999891,-0.5560845889656695,-0.672203089430104,0.1747092034538843
0.9029999999999632,-0.5720648235969295,-0.6775280889779386,0.1789695521580025
0.906499999999994,-0.5752605214573312,-0.6679409953967338,0.1853609478788057
0.9099999999999682,-0.5582156359823545,-0.6604849488322141,0.1874919948954908
0.9134999999999992,-0.5241258650324013,-0.6434400633572374,0.1938833906162941
0.9169999999999732,-0.4836446983616447,-0.6306555265863789,0.1981454846496642
0.9204999999999472,-0.4165315526347068,-0.6125459902676859,0.2002765316663493
0.9239999999999782,-0.3526141047681704,-0.5986968026531109,0.2066679273871525
0.9274999999999524,-0.258867234655799,-0.5752605214573311,0.2130593231079557
0.9309999999999832,-0.1842962970350893,-0.5571509851386378,0.2151903701246408
0.9344999999999573,-0.0852244273748831,-0.5305172607532044,0.2258421145495622
0.9379999999999882,-0.013849187614575,-0.5092120265741096,0.2364956043037356
0.9414999999999624,0.071375239760308,-0.4847093492053612,0.2482137449016255
0.9449999999999932,0.1278348957330726,-0.464468765869983,0.2652586303766022
0.9484999999999671,0.1960144376329791,-0.4431635316908882,0.2918906094327836
0.9519999999999982,0.2343645572870505,-0.4239875991992266,0.3110665419244454
0.9554999999999724,0.2780431671474606,-0.3994866671597301,0.3334381722765087
0.9589999999999465,0.2961527034661537,-0.3845728287014386,0.3515477085952018
0.9624999999999772,0.2993484013265554,-0.3664615470534934,0.3632658491930918
0.9659999999999512,0.2961527034661537,-0.355809802628572,0.3707236410868635
0.9694999999999824,0.2823035158515787,-0.3387649171535954,0.3728546881035486
0.9729999999999565,0.2620629325162005,-0.3270467765557054,0.3664615470534934
0.9764999999999872,0.2460844432141924,-0.3142622397848471,0.355809802628572
0.9799999999999612,0.2290395577392158,-0.2993484013265555,0.3387649171535954
0.9834999999999924,0.2226464166891606,-0.2780431671474606,0.3100018910807288
0.9869999999999663,0.2205171150017275,-0.2514094427620272,0.2812388650078622
0.9904999999999972,0.2162550209683573,-0.2162550209683574,0.2450180470412239
0.9939999999999714,0.2119946722642392,-0.1864273440517743,0.2162550209683574
0.9974999999999454,0.2002765316663493,-0.1416840833476477,0.1789695521580025
1.0009999999999764,0.1885583910684593,-0.1118564064310646,0.1587289688226243
1.0044999999999504,0.1608600158393093,-0.0564614013020165,0.1225098961852379
1.0079999999999814,0.136357338470561,-0.0191759324916617,0.1065296615539778
1.0114999999999554,0.0948115209560879,0.0351544217936697,0.0788312863248278
1.0149999999999864,0.0681795418999065,0.0820287295144815,0.0596570991624181
1.0184999999999604,0.0202405833353782,0.1448797812080492,0.0372854688103548
1.0219999999999914,-0.0117181405978899,0.2013411825100658,0.0234362811957798
1.0254999999999654,-0.0660484948832213,0.2663250265495707,0.0117181405978899
1.0289999999999964,-0.1193124529955843,0.3249157295390203,0.0031956978604016
1.0324999999999704,-0.1864273440517742,0.3856374795451551,0.0
1.0359999999999443,-0.2439533961975073,0.4218582975117935,0.0010646508437165
1.0394999999999754,-0.3110665419244453,0.4548816722887782,0.0149138384582915
1.0429999999999495,-0.357939104316005,0.4665998128866681,0.0245026773687483
1.0464999999999804,-0.4080091098972183,0.4740576047804399,0.0479389585645282
1.0499999999999543,-0.4410324846742031,0.4697955107470697,0.0671131457269379
1.0534999999999854,-0.4591437663221482,0.4591437663221483,0.1001382658331746
1.0569999999999595,-0.4676662090596366,0.4420988808471717,0.1182478021518678
1.0604999999999905,-0.4559463231324946,0.4197272504951084,0.1438151303643327
1.0639999999999643,-0.4378367868138014,0.3941599222826434,0.1629910628559944
1.0674999999999957,-0.4016177141764151,0.3494166615785168,0.1885583910684593
1.0709999999999695,-0.3685925940701784,0.3153286359578156,0.2024058333537824
1.0745000000000005,-0.3100018910807288,0.2663250265495708,0.2173214171413259
1.0779999999999743,-0.2684543282370038,0.2258421145495623,0.2301042085829324
1.0814999999999486,-0.1981454846496642,0.1821652500184042,0.2354309534600191
1.0849999999999795,-0.1448797812080492,0.150206526085136,0.2343645572870505
1.0884999999999536,-0.0756355884644262,0.1075943123976944,0.2301042085829324
1.0919999999999843,-0.0213052341790947,0.0820287295144815,0.2215817658454441
1.0954999999999586,0.041545817514473,0.0479389585645282,0.2098636252475541
1.0989999999999895,0.0862890782185996,0.0255673282124649,0.2013411825100658
1.1024999999999636,0.1214435000122694,-0.0074577918937717,0.191754088928861
1.1059999999999943,0.1406194325039311,-0.0319587239332681,0.1821652500184041
1.1094999999999686,0.136357338470561,-0.0735062867769932,0.1768385051413174
1.1129999999999995,0.1267702448893561,-0.110790010258096,0.1725781564371993
1.1164999999999736,0.0990718696602061,-0.1587289688226243,0.1651203645434275
1.1199999999999477,0.0756355884644262,-0.1938833906162941,0.1597953649955928
1.1234999999999786,0.0511346564249298,-0.2492801410745941,0.1587289688226243
1.1269999999999527,0.029827676916583,-0.2844345628682639,0.1576643179789077
1.1304999999999836,0.0063913957208031,-0.3270467765557054,0.1544686201185061
1.1339999999999577,-0.0031956978604016,-0.3590055004889736,0.152337573101821
1.1374999999999886,-0.0106534897541734,-0.3888331774055567,0.1491418752414194
1.1409999999999627,-0.013849187614575,-0.4005513180034466,0.152337573101821
1.1444999999999936,-0.0170448854749766,-0.4122694586013365,0.1608600158393093
1.1479999999999675,-0.0266319790561815,-0.4122694586013365,0.1565979218059392
1.1514999999999986,-0.0479389585645283,-0.4101401569139035,0.1565979218059392
1.1549999999999727,-0.0745709376207097,-0.4058780628805333,0.152337573101821
1.1584999999999468,-0.1182478021518678,-0.4016177141764152,0.1459461773810178
1.1619999999999775,-0.1544686201185062,-0.3898978282492732,0.1416840833476476
1.1654999999999518,-0.205601531214184,-0.3739193389472651,0.1225098961852379
1.1689999999999827,-0.2407576983371058,-0.3611348021764066,0.1139874534477496
1.1724999999999568,-0.2759121201307756,-0.3408942188410284,0.0990718696602061
1.1759999999999875,-0.3089354949077603,-0.316393286801532,0.0681795418999064
1.1794999999999618,-0.3408942188410285,-0.2897613077453505,0.0266319790561814
1.1829999999999927,-0.3547434064556035,-0.2663250265495707,-0.002131047016685
1.1864999999999668,-0.3728546881035486,-0.235430953460019,-0.0490036094082447
1.1899999999999975,-0.3824417816847534,-0.2098636252475541,-0.0841580312019145
1.1934999999999718,-0.3856374795451551,-0.1725781564371992,-0.1267702448893561
1.196999999999946,-0.3824417816847534,-0.1416840833476476,-0.1576643179789077
1.2004999999999768,-0.3717882919305801,-0.0958761717998044,-0.1949497867892626
1.2039999999999509,-0.355809802628572,-0.0607217500061346,-0.2247774637058457
1.2074999999999818,-0.3366338701369103,-0.0234362811957798,-0.2524758389349957
1.210999999999956,-0.3131975889411305,0.0298276769165831,-0.2844345628682639
1.2144999999999868,-0.302544099186957,0.0649838440395049,-0.3078708440640437
1.217999999999961,-0.2940216564494687,0.1054650107102613,-0.3249157295390203
1.2214999999999918,-0.2993484013265554,0.1310323389227263,-0.3334381722765087
1.224999999999966,-0.3110665419244454,0.1512729222581045,-0.3451563128743986
1.2284999999999968,-0.3259803803827369,0.1672514115601126,-0.3451563128743986
1.231999999999971,-0.3590055004889736,0.1842962970350893,-0.3483520107348002
1.235499999999945,-0.3813771308410369,0.1928187397725776,-0.3430252658577135
1.238999999999976,-0.4058780628805333,0.2045368803704675,-0.3227846825223353
1.24249999999995,-0.4261186462159115,0.2119946722642393,-0.3046751462036421
1.245999999999981,-0.43890318298677,0.2247774637058457,-0.2673896773932873
1.249499999999955,-0.4399678338304865,0.2301042085829324,-0.2301042085829324
1.252999999999986,-0.4367721359700849,0.2322352555996175,-0.1747092034538843
1.25649999999996,-0.427183297059628,0.2332999064433341,-0.1342280367831279
1.259999999999991,-0.4026823650201316,0.2269085107225308,-0.0777666354811113
1.263499999999965,-0.3877685265618402,0.2247774637058457,-0.029827676916583
1.266999999999996,-0.3579391043160051,0.2130593231079558,0.0127827914416064
1.27049999999997,-0.3355692192931938,0.205601531214184,0.0479389585645282
1.273999999999944,-0.300413052170272,0.1906876927558924,0.083093380358198
1.277499999999975,-0.2727164222703739,0.1800359483309711,0.1086607085706629
1.280999999999949,-0.2375620004767041,0.164055713699711,0.1193124529955843
1.28449999999998,-0.2056015312141839,0.1523375731018211,0.1299659427497577
1.287999999999954,-0.166186760716396,0.1448797812080493,0.1320969897664428
1.291499999999985,-0.1331616406101593,0.1406194325039311,0.1257055940456395
1.294999999999959,-0.1012029166768911,0.1310323389227262,0.1118564064310645
1.29849999999999,-0.083093380358198,0.1257055940456395,0.0990718696602061
1.301999999999964,-0.057526052145733,0.1235745470289545,0.0724398906040246
1.305499999999995,-0.0458079115478431,0.1267702448893561,0.0585907029894496
1.308999999999969,-0.0245026773687483,0.1289012919060412,0.0362208179666383
1.3125,-0.0117181405978899,0.1342280367831279,0.0191759324916617
1.315999999999974,0.0085224427374883,0.1352926876268444,0.0031956978604016
1.3194999999999482,0.0223716303520633,0.1342280367831279,0.0
1.322999999999979,0.0458079115478431,0.1342280367831279,-0.0117181405978899
1.3264999999999532,0.0639174478665363,0.1310323389227262,-0.0095870935812048
1.329999999999984,0.0841580312019145,0.1257055940456395,-0.01598023463126
1.3334999999999582,0.1022693128498597,0.1203788491685528,-0.013849187614575
1.336999999999989,0.1171831513081513,0.110790010258096,-0.0095870935812048
1.3404999999999632,0.1331616406101593,0.110790010258096,-0.0085224427374883
1.343999999999994,0.1544686201185061,0.1012029166768911,0.0
1.3474999999999682,0.1672514115601126,0.0990718696602061,0.0085224427374883
1.350999999999999,0.1864273440517743,0.0926804739394028,0.02769837522915
1.3544999999999732,0.1896230419121759,0.0905494269227178,0.0468725623915597
1.3579999999999472,0.1789695521580025,0.0937468701123713,0.0703088435873395
1.3614999999999782,0.1587289688226243,0.0958761717998044,0.0873537290623162
1.3649999999999525,0.1118564064310646,0.1001382658331746,0.1193124529955843
1.3684999999999832,0.0660484948832214,0.1001382658331746,0.136357338470561
1.3719999999999573,1.213280480649152e-17,0.0990718696602061,0.1651203645434275
1.3754999999999882,-0.055395005129048,0.0948115209560879,0.180035948330971
1.3789999999999625,-0.1278348957330726,0.0926804739394029,0.1960144376329791
1.3824999999999932,-0.1789695521580025,0.0937468701123714,0.2098636252475541
1.3859999999999673,-0.2375620004767041,0.0873537290623162,0.2130593231079557
1.3894999999999982,-0.2727164222703739,0.0862890782185996,0.2183860679850424
1.3929999999999725,-0.300413052170272,0.0820287295144815,0.2109282760912707
1.3964999999999463,-0.3100018910807288,0.0798976824977964,0.2024058333537824
1.3999999999999773,-0.3100018910807288,0.0841580312019146,0.1874919948954908
1.4034999999999511,-0.2982837504828389,0.0884201252352847,0.1757738542976009
1.4069999999999825,-0.2759121201307756,0.0990718696602061,0.1512729222581045
1.4104999999999563,-0.2524758389349957,0.1086607085706629,0.1320969897664428
1.4139999999999873,-0.2162550209683573,0.1257055940456396,0.1001382658331746
1.4174999999999611,-0.1885583910684593,0.1438151303643328,0.0809623333415129
1.4209999999999925,-0.1597953649955928,0.1693824585767977,0.0543303542853314
1.4244999999999663,-0.1352926876268444,0.1842962970350892,0.0351544217936697
1.4279999999999973,-0.1182478021518678,0.2077325782308691,0.013849187614575
1.4314999999999714,-0.1129210572747811,0.2226464166891606,-0.0010646508437165
1.4349999999999454,-0.1118564064310645,0.2396913021641372,-0.0191759324916617
1.4384999999999764,-0.1193124529955843,0.2514094427620272,-0.0351544217936697
1.4419999999999504,-0.1342280367831278,0.2631275833599171,-0.0564614013020165
1.4454999999999814,-0.1438151303643327,0.2684543282370038,-0.0671131457269379
1.4489999999999554,-0.1608600158393093,0.2769767709744921,-0.0820287295144815
1.4524999999999864,-0.1725781564371993,0.2801724688348938,-0.0862890782185996
1.4559999999999604,-0.1779049013142859,0.288694911572382,-0.0926804739394028
1.4594999999999914,-0.1842962970350892,0.2876302607286655,-0.0894847760790012
1.4629999999999654,-0.1821652500184041,0.2929570056057522,-0.0798976824977964
1.4664999999999964,-0.180035948330971,0.2918906094327836,-0.0596570991624181
1.4699999999999704,-0.1619246666830258,0.2950880526224372,-0.0245026773687483
1.4734999999999443,-0.1502065260851359,0.2908259585890671,0.0117181405978899
1.4769999999999754,-0.1267702448893561,0.2876302607286655,0.0713752397603081
1.4804999999999495,-0.1043986145372928,0.2823035158515788,0.1150521042914662
1.4839999999999804,-0.069244192743623,0.2705853752536888,0.1725781564371993
1.4874999999999543,-0.0426122136874415,0.2663250265495707,0.2109282760912707
1.4909999999999854,3.052801268580023e-17,0.2492801410745941,0.2567361876391139
1.4944999999999595,0.0319587239332681,0.2428870000245388,0.286565609884949
1.4979999999999905,0.0841580312019146,0.2354309534600191,0.3227846825223353
1.5014999999999643,0.1161167551351827,0.2247774637058457,0.3440916620306821
1.5049999999999957,0.1523375731018211,0.2258421145495622,0.3600701513326901
1.5084999999999695,0.177904901314286,0.2279731615662473,0.3675279432264619
1.5120000000000005,0.2066679273871526,0.2258421145495622,0.3717882919305801
1.5154999999999743,0.2130593231079558,0.2311688594266489,0.3707236410868635
1.5189999999999486,0.2205171150017276,0.2343645572870505,0.3717882919305801
1.5224999999999795,0.2173214171413259,0.2364956043037356,0.3664615470534934
1.5259999999999536,0.2109282760912707,0.2375620004767041,0.3579391043160051
1.5294999999999843,0.2002765316663493,0.233299906443334,0.3483520107348002
1.5329999999999586,0.1800359483309711,0.2364956043037356,0.3345028231202252
1.5364999999999895,0.1608600158393094,0.2343645572870505,0.3206536355056502
1.5399999999999636,0.1320969897664428,0.2311688594266489,0.302544099186957
1.5434999999999943,0.1086607085706629,0.2301042085829324,0.2908259585890671
1.5469999999999686,0.0894847760790013,0.2311688594266489,0.2780431671474606
1.5504999999999995,0.0735062867769932,0.2269085107225308,0.2695207244099723
1.5539999999999736,0.0660484948832214,0.2226464166891606,0.2599318854995155
1.5574999999999477,0.0681795418999065,0.2237128128621291,0.247149094057909
1.5609999999999786,0.0745709376207097,0.2247774637058457,0.2386266513204207
1.5644999999999527,0.0852244273748831,0.2269085107225308,0.2290395577392158
1.5679999999999836,0.1022693128498597,0.2322352555996175,0.2173214171413259
1.5714999999999577,0.1161167551351827,0.235430953460019,0.2151903701246408
1.5749999999999886,0.1267702448893561,0.2503447919183106,0.2098636252475541
1.5784999999999627,0.1310323389227263,0.2652586303766022,0.2109282760912707
1.5819999999999936,0.1203788491685529,0.2791078179911772,0.2119946722642392
1.5854999999999675,0.1012029166768912,0.2833681666952953,0.2151903701246408
1.5889999999999986,0.067113145726938,0.2940216564494687,0.2226464166891606
1.5924999999999727,0.0394165158270399,0.300413052170272,0.2311688594266489
1.5959999999999468,-0.002131047016685,0.3036087500306735,0.233299906443334
1.5994999999999775,-0.0383501196540713,0.3089354949077603,0.2375620004767041
1.6029999999999518,-0.0745709376207096,0.3195889846619337,0.2375620004767041
1.6064999999999827,-0.1075943123976943,0.3238510786953038,0.233299906443334
1.6099999999999568,-0.1459461773810178,0.3376985209806268,0.2322352555996175
1.6134999999999875,-0.1768385051413174,0.3440916620306821,0.2386266513204207
1.6169999999999618,-0.2056015312141839,0.3494166615785167,0.2450180470412239
1.6204999999999927,-0.2237128128621291,0.3526141047681703,0.2460844432141925
1.6239999999999668,-0.2450180470412239,0.3526141047681704,0.2418223491808223
1.6274999999999975,-0.2556715367953973,0.3590055004889737,0.2364956043037356
1.6309999999999718,-0.2652586303766021,0.3622011983493753,0.2215817658454441
1.634499999999946,-0.2727164222703739,0.3653968962097769,0.2109282760912707
1.6379999999999768,-0.2801724688348937,0.3717882919305801,0.2013411825100658
1.6414999999999509,-0.2844345628682638,0.3717882919305801,0.1864273440517743
1.6449999999999818,-0.2769767709744921,0.3771150368076668,0.177904901314286
1.648499999999956,-0.2716500260974053,0.3803107346680684,0.180035948330971
1.6519999999999868,-0.247149094057909,0.3760503859639503,0.1842962970350892
1.655499999999961,-0.2269085107225307,0.3739193389472652,0.1981454846496642
1.6589999999999918,-0.1832316461913726,0.3643322453660603,0.2205171150017275
1.662499999999966,-0.1374237346435294,0.3547434064556034,0.2418223491808223
1.6659999999999968,-0.0756355884644262,0.3281114273994219,0.2652586303766022
1.669499999999971,-0.0170448854749765,0.3068061932203272,0.2876302607286655
1.672999999999945,0.0596570991624182,0.2759121201307756,0.302544099186957
1.676499999999976,0.1214435000122694,0.2535404897787122,0.3068061932203272
1.67999999999995,0.1981454846496642,0.2343645572870505,0.3014794483432405
1.683499999999981,0.2450180470412239,0.2173214171413258,0.2918906094327836
1.686999999999955,0.2897613077453506,0.1992101354933807,0.2716500260974054
1.690499999999986,0.3131975889411305,0.1832316461913726,0.2428870000245388
1.69399999999996,0.3259803803827369,0.1683160624038291,0.2215817658454441
1.697499999999991,0.3217200316786187,0.1608600158393093,0.1981454846496642
1.700999999999965,0.3014794483432405,0.1534022239455376,0.1619246666830259
1.704499999999996,0.286565609884949,0.1502065260851359,0.1320969897664428
1.70799999999997,0.2514094427620272,0.1555332709622226,0.0990718696602061
1.711499999999944,0.2226464166891606,0.1640557136997109,0.0703088435873395
1.714999999999975,0.1811005991746876,0.1842962970350892,0.0383501196540714
1.718499999999949,0.1448797812080493,0.1928187397725775,0.0149138384582915
1.72199999999998,0.1033339636935763,0.2183860679850424,-0.0117181405978899
1.725499999999954,0.0713752397603081,0.233299906443334,-0.0245026773687483
1.728999999999985,0.0308940730895516,0.2567361876391139,-0.0468725623915597
1.732499999999959,0.0042603487041181,0.2716500260974054,-0.0532657034416149
1.73599999999999,-0.029827676916583,0.2854992137119804,-0.0628527970228197
1.739499999999964,-0.0479389585645282,0.2918906094327836,-0.0575260521457331
1.742999999999995,-0.0820287295144814,0.2961527034661538,-0.0511346564249298
1.746499999999969,-0.1001382658331746,0.2950880526224372,-0.0362208179666383
1.75,-0.1075943123976943,0.2876302607286655,-0.0085224427374883
1.753499999999974,-0.110790010258096,0.2716500260974054,0.0095870935812048
1.7569999999999482,-0.0980072188164895,0.2428870000245388,0.0458079115478431
1.760499999999979,-0.0916158230956863,0.2087989744038376,0.0777666354811113
1.7639999999999532,-0.055395005129048,0.1597953649955928,0.1182478021518678
1.767499999999984,-0.0266319790561814,0.1161167551351827,0.1427504795206162
1.7709999999999582,0.0170448854749766,0.0564614013020165,0.1715135055934827
1.774499999999989,0.055395005129048,0.0106534897541733,0.1896230419121759
1.7779999999999632,0.1075943123976944,-0.0458079115478431,0.2002765316663493
1.781499999999994,0.1406194325039311,-0.0916158230956863,0.2077325782308691
1.7849999999999682,0.1853609478788057,-0.1459461773810178,0.2098636252475541
1.788499999999999,0.2237128128621291,-0.1789695521580026,0.2034722295267509
1.7919999999999732,0.2599318854995155,-0.2226464166891606,0.1896230419121759
1.7954999999999472,0.290825958589067,-0.2439533961975074,0.1715135055934827
1.7989999999999782,0.3281114273994219,-0.2663250265495708,0.1427504795206162
1.8024999999999525,0.3547434064556033,-0.2769767709744922,0.1139874534477496
1.8059999999999832,0.3898978282492732,-0.2748474692870591,0.0713752397603081
1.8094999999999573,0.4101401569139034,-0.2609982816724841,0.0362208179666383
1.812999999999988,0.4367721359700849,-0.245018047041224,-0.0106534897541733
1.8164999999999625,0.4506213235846599,-0.219450718828759,-0.0532657034416149
1.8199999999999927,0.4580773701491797,-0.1789695521580026,-0.1065296615539778
1.8234999999999677,0.4676662090596366,-0.1459461773810179,-0.1470108282247343
1.8269999999999984,0.4591437663221482,-0.0990718696602061,-0.1949497867892626
1.8304999999999725,0.4442281825346047,-0.0639174478665363,-0.2269085107225308
1.8339999999999463,0.4069427137242498,-0.0074577918937718,-0.2556715367953973
1.8374999999999773,0.3803107346680683,0.0319587239332681,-0.2652586303766022
1.8409999999999516,0.3270467765557054,0.085224427374883,-0.2663250265495707
1.8444999999999825,0.2876302607286655,0.1171831513081512,-0.2663250265495707
1.8479999999999563,0.2322352555996175,0.152337573101821,-0.260998281672484
1.8514999999999875,0.1853609478788058,0.1768385051413174,-0.2599318854995155
1.8549999999999611,0.1299659427497577,0.1992101354933807,-0.258867234655799
1.8584999999999925,0.0862890782185996,0.2109282760912707,-0.2546051406224288
1.8619999999999663,0.0181095363186931,0.233299906443334,-0.2418223491808223
1.8654999999999973,-0.0223716303520632,0.2407576983371057,-0.2258421145495622
1.8689999999999716,-0.0798976824977963,0.2514094427620272,-0.2024058333537824
1.8724999999999452,-0.1171831513081512,0.2492801410745941,-0.1789695521580025
1.8759999999999764,-0.1693824585767976,0.2503447919183106,-0.1470108282247343
1.8794999999999504,-0.2002765316663493,0.2439533961975074,-0.1214435000122694
1.8829999999999811,-0.2439533961975073,0.2311688594266489,-0.0841580312019145
1.8864999999999557,-0.2663250265495707,0.2258421145495623,-0.0511346564249298
1.8899999999999864,-0.300413052170272,0.2119946722642392,-0.01598023463126
1.8934999999999604,-0.3227846825223353,0.2045368803704675,0.0095870935812048
1.8969999999999916,-0.341960615013997,0.1970790884766957,0.0426122136874415
1.9004999999999652,-0.3536787556118869,0.1874919948954909,0.0671131457269379
1.9039999999999964,-0.3611348021764067,0.1853609478788058,0.0958761717998045
1.9074999999999704,-0.355809802628572,0.1789695521580026,0.1150521042914662
1.9109999999999443,-0.3451563128743986,0.1768385051413175,0.136357338470561
1.9144999999999757,-0.3355692192931938,0.1757738542976009,0.150206526085136
1.9179999999999493,-0.3206536355056502,0.1789695521580026,0.1619246666830259
1.9214999999999804,-0.3078708440640437,0.1928187397725775,0.1715135055934827
1.9249999999999543,-0.300413052170272,0.2119946722642392,0.1842962970350892
1.9284999999999852,-0.2993484013265554,0.2183860679850425,0.1938833906162941
1.9319999999999595,-0.2918906094327836,0.2226464166891606,0.2087989744038376
1.9354999999999905,-0.2929570056057522,0.2205171150017276,0.2237128128621291
1.9389999999999643,-0.2812388650078622,0.2183860679850425,0.233299906443334
1.9424999999999957,-0.2759121201307756,0.2130593231079558,0.2386266513204207
1.9459999999999693,-0.2663250265495707,0.2045368803704675,0.2407576983371057
1.9495000000000005,-0.2641939795328856,0.1938833906162941,0.2386266513204207
1.9529999999999743,-0.258867234655799,0.177904901314286,0.2301042085829324
1.9564999999999488,-0.260998281672484,0.1576643179789078,0.2290395577392158
1.9599999999999795,-0.2695207244099723,0.1320969897664428,0.2205171150017275
1.9634999999999536,-0.2791078179911772,0.1065296615539779,0.2173214171413259
1.9669999999999843,-0.2950880526224372,0.0777666354811113,0.2077325782308691
1.9704999999999584,-0.314262239784847,0.0479389585645282,0.2077325782308691
1.973999999999989,-0.3462209637181151,0.0106534897541734,0.1960144376329791
1.977499999999964,-0.3781796876513833,-0.0213052341790947,0.1906876927558924
1.9809999999999943,-0.4271832970596281,-0.0553950051290479,0.1768385051413174
1.9844999999999688,-0.4847093492053612,-0.0809623333415129,0.1693824585767977
1.9879999999999995,-0.559280286826071,-0.1139874534477495,0.1597953649955928
1.9914999999999736,-0.628524479569694,-0.1395530363309625,0.1512729222581045
1.994999999999948,-0.7318584432632703,-0.1693824585767976,0.1416840833476476
1.9984999999999784,-0.8053647300402634,-0.1885583910684592,0.1374237346435295
2.0019999999999527,-0.917221136471328,-0.2087989744038375,0.1299659427497577
2.005499999999984,-0.9992481206565574,-0.2183860679850423,0.1320969897664428
2.0089999999999577,-1.111104527087622,-0.223712812862129,0.1299659427497577
2.0124999999999886,-1.1941979074458202,-0.2279731615662472,0.1289012919060412
2.0159999999999627,-1.3039232668601997,-0.2322352555996173,0.124639197872671
2.0194999999999936,-1.377429553637193,-0.2396913021641371,0.1203788491685528
2.022999999999968,-1.4573254908057371,-0.2471490940579088,0.1139874534477496
2.026499999999998,-1.5116558450910689,-0.2535404897787121,0.1043986145372928
2.0299999999999727,-1.5681172463930857,-0.2578025838120822,0.0937468701123714
2.033499999999947,-1.6022070173430385,-0.2578025838120822,0.0809623333415129
2.0369999999999777,-1.6288389963992198,-0.2471490940579088,0.0681795418999064
2.040499999999952,-1.6330993451033382,-0.2375620004767039,0.055395005129048
2.0439999999999827,-1.6224476006784168,-0.223712812862129,0.0351544217936697
2.047499999999957,-1.60114062117007,-0.2141239739516721,0.0234362811957798
2.050999999999988,-1.5532034079347938,-0.2024058333537822,0.0
2.054499999999962,-1.502068751509864,-0.1928187397725773,-0.0245026773687483
2.0579999999999927,-1.427497813889154,-0.1832316461913725,-0.0479389585645282
2.061499999999967,-1.3667760638830195,-0.1757738542976007,-0.0767019846373948
2.0649999999999977,-1.2858137305415065,-0.1640557136997108,-0.1129210572747811
2.068499999999972,-1.23361442327286,-0.1576643179789076,-0.1448797812080492
2.071999999999946,-1.1718262770937566,-0.1512729222581043,-0.1885583910684593
2.075499999999977,-1.1334761574396854,-0.1480754790684507,-0.2173214171413259
2.078999999999951,-1.0919285945959605,-0.1438151303643326,-0.2567361876391139
2.082499999999982,-1.065296615539779,-0.1427504795206161,-0.2876302607286655
2.085999999999956,-1.032273240762794,-0.1438151303643326,-0.3259803803827369
2.089499999999987,-1.0013791676732426,-0.1448797812080491,-0.3472873598910836
2.092999999999961,-0.9747471886170612,-0.1470108282247342,-0.3685925940701784
2.096499999999992,-0.9502445112483128,-0.1502065260851358,-0.3877685265618402
2.099999999999966,-0.921481485175446,-0.1534022239455375,-0.4037470158638482
2.103499999999997,-0.9065676467171546,-0.1587289688226242,-0.4133358547743051
2.106999999999971,-0.8937848552755481,-0.1672514115601125,-0.4186608543221398
2.110499999999945,-0.8916538082588631,-0.1757738542976008,-0.4207919013388249
2.113999999999976,-0.901240901840068,-0.1917540889288609,-0.425053995372195
2.11749999999995,-0.921481485175446,-0.207732578230869,-0.4282496932325966
2.120999999999981,-0.9630290480191712,-0.2279731615662472,-0.4314453910929982
2.124499999999955,-1.0045748655336442,-0.2418223491808222,-0.4293143440763132
2.127999999999986,-1.0695587095731491,-0.2546051406224286,-0.4282496932325966
2.13149999999996,-1.1292140634063152,-0.2652586303766021,-0.4282496932325966
2.134999999999991,-1.208047095060395,-0.2695207244099721,-0.42292294835551
2.138499999999965,-1.2708998920832149,-0.2641939795328855,-0.4197272504951083
2.141999999999996,-1.3710364125871377,-0.2567361876391137,-0.41120480775762
2.14549999999997,-1.448803048068249,-0.2471490940579088,-0.4016177141764152
2.148999999999944,-1.5563991057951954,-0.2301042085829322,-0.3920288752659583
2.152499999999975,-1.6416217878408266,-0.2247774637058455,-0.3813771308410369
2.155999999999949,-1.7385643558135997,-0.2066679273871523,-0.3685925940701784
2.15949999999998,-1.806743897713506,-0.1853609478788055,-0.3643322453660603
2.162999999999954,-1.8823794861779324,-0.1576643179789075,-0.3611348021764067
2.166499999999985,-1.931383095586177,-0.1342280367831276,-0.3590055004889736
2.169999999999959,-1.9761263562903035,-0.0980072188164893,-0.3579391043160051
2.17349999999999,-1.9953005434527131,-0.0745709376207094,-0.355809802628572
2.176999999999964,-2.015541126788092,-0.0436768645311578,-0.355809802628572
2.180499999999995,-2.0187385699777454,-0.0287630260728663,-0.3526141047681703
2.183999999999969,-2.0027583353464853,-0.0021310470166848,-0.3536787556118869
2.1875,-1.9878444968881936,0.0085224427374885,-0.3526141047681703
2.190999999999974,-1.956950423798642,0.0181095363186934,-0.3515477085952018
2.194499999999948,-1.940970189167382,0.0255673282124651,-0.3504830577514853
2.197999999999979,-1.903686465686279,0.03515442179367,-0.3451563128743986
2.201499999999953,-1.8823794861779324,0.0340897709499534,-0.3440916620306821
2.204999999999984,-1.8461604135405456,0.0383501196540716,-0.3345028231202252
2.208499999999958,-1.8131352934343088,0.0394165158270401,-0.3291760782431385
2.211999999999989,-1.7683920327301823,0.03515442179367,-0.3121311927681619
2.215499999999963,-1.7364333087969146,0.0287630260728667,-0.300413052170272
2.218999999999994,-1.684234001528268,0.0213052341790949,-0.286565609884949
2.222499999999968,-1.64481923103048,0.0106534897541735,-0.2727164222703739
2.225999999999999,-1.60114062117007,1.960831736700731e-16,-0.2567361876391139
2.229499999999973,-1.57770433997429,-0.0042603487041179,-0.2375620004767041
2.2329999999999472,-1.5521370117618252,-0.0149138384582913,-0.2130593231079557
2.236499999999978,-1.5542680587785105,-0.0245026773687482,-0.1938833906162941
2.2399999999999523,-1.5521370117618252,-0.0436768645311579,-0.1683160624038291
2.243499999999983,-1.5606594544993135,-0.0639174478665361,-0.1480754790684509
2.2469999999999573,-1.573443991270172,-0.0948115209560877,-0.1203788491685528
2.250499999999988,-1.5947492254492668,-0.1182478021518676,-0.1065296615539778
2.2539999999999623,-1.6224476006784168,-0.1502065260851358,-0.0809623333415129
2.257499999999993,-1.64481923103048,-0.1736428072809156,-0.0639174478665363
2.2609999999999677,-1.6821046998408349,-0.1949497867892624,-0.0436768645311581
2.264499999999998,-1.719388423321938,-0.2087989744038374,-0.0330233747769847
2.2679999999999723,-1.7737187776072691,-0.2269085107225305,-0.0095870935812048
2.2714999999999463,-1.8216577361717976,-0.2386266513204205,0.002131047016685
2.2749999999999773,-1.8866415802113023,-0.2599318854995153,0.0330233747769847
2.278499999999952,-1.931383095586177,-0.2780431671474604,0.0500682602519613
2.2819999999999823,-1.9857134498715088,-0.2993484013265552,0.0703088435873395
2.2854999999999563,-2.0208678716651782,-0.3185243338182169,0.0884201252352847
2.2889999999999877,-2.0506972939110133,-0.3430252658577132,0.1065296615539778
2.2924999999999613,-2.0751982259505097,-0.3579391043160048,0.1171831513081512
2.2959999999999923,-2.1018302050066917,-0.3685925940701782,0.1331616406101593
2.2994999999999663,-2.123137184515038,-0.3771150368076665,0.1416840833476476
2.3029999999999973,-2.143377767850416,-0.3803107346680681,0.1651203645434275
2.306499999999972,-2.164683002029511,-0.3835064325284697,0.1832316461913727
2.309999999999945,-2.181727887504488,-0.3845728287014383,0.2162550209683574
2.3134999999999764,-2.18918567939826,-0.3867021303888713,0.2343645572870505
2.3169999999999504,-2.194512424275346,-0.3877685265618399,0.2705853752536888
2.3204999999999814,-2.194512424275346,-0.3803107346680681,0.2982837504828389
2.3239999999999554,-2.1966417259627797,-0.3728546881035483,0.3398295679973119
2.3274999999999864,-2.1913149810856924,-0.3707236410868633,0.3792460838243518
2.3309999999999604,-2.1966417259627797,-0.3749839897909814,0.4335764381096833
2.334499999999992,-2.194512424275346,-0.3813771308410366,0.4697955107470696
2.337999999999965,-2.2030348670128346,-0.3909642244222415,0.5219948180157161
2.3414999999999964,-2.1998374238231806,-0.4048134120368165,0.5560845889656694
2.3449999999999704,-2.200903819996149,-0.4399678338304863,0.5997614534968274
2.3484999999999445,-2.195577075119062,-0.4751222556241561,0.6221330838488908
2.3519999999999754,-2.1870546323815745,-0.5187991201553143,0.6551582039551274
2.355499999999949,-2.1785321896440863,-0.5528888911052675,0.6690056462404504
2.3589999999999804,-2.16574939820248,-0.6050881983739138,0.6785944851509074
2.3624999999999545,-2.1614873041691096,-0.6381133184801506,0.6775280889779387
2.365999999999985,-2.157226955464991,-0.6956393706258837,0.6743323911175372
2.3694999999999595,-2.1593562571524245,-0.7350541411236716,0.6711366932571355
2.3729999999999905,-2.1593562571524245,-0.7915155424256881,0.6658099483800488
2.3764999999999645,-2.160422653325393,-0.8383881048172479,0.6583539018155291
2.3799999999999955,-2.162553700342078,-0.8948495061192644,0.6466357612176391
2.383499999999969,-2.158291606308708,-0.933199625773336,0.6359822714634658
2.3870000000000005,-2.1519002105879044,-0.9853989330419824,0.6189373859884891
2.3904999999999745,-2.155095908448306,-1.018424053148219,0.5997614534968274
2.3939999999999486,-2.160422653325393,-1.0557095219585737,0.5678027295635593
2.3974999999999795,-2.1785321896440863,-1.0780811523106373,0.5369104018032596
2.4009999999999536,-2.213686611437756,-1.0972553394730469,0.5006895838366213
2.4044999999999845,-2.245645335371024,-1.1068441783835037,0.4729912086074713
2.4079999999999586,-2.2914532469188678,-1.1238890638584802,0.4431635316908882
2.411499999999989,-2.324478367025104,-1.1366718553000867,0.4282496932325966
2.414999999999964,-2.366024184539577,-1.1473253450542602,0.4207919013388249
2.4184999999999945,-2.395853606785412,-1.1537167407750637,0.42292294835551
2.4219999999999686,-2.433139075595767,-1.1622391835125516,0.4410324846742031
2.4254999999999995,-2.4523132627581767,-1.1611727873395832,0.4634041150262664
2.4289999999999736,-2.4725538460935548,-1.168630579233355,0.503885281697023
2.432499999999948,-2.473620242266524,-1.1696952300770715,0.5369104018032596
2.435999999999978,-2.45870465847898,-1.1760883711271268,0.5901743599156226
2.4394999999999527,-2.4320726794227983,-1.1878065117250165,0.626395177882261
2.442999999999984,-2.3926561635957584,-1.2005893031666233,0.6668763445530174
2.4464999999999577,-2.352174996925002,-1.2197652356582849,0.6913772765925138
2.4499999999999886,-2.2882575490584656,-1.2410704698373796,0.7052264642070888
2.4534999999999627,-2.2520384764210792,-1.2602464023290414,0.7105532090841755
2.4569999999999936,-2.2072952157169525,-1.2751602407873328,0.7052264642070888
2.460499999999968,-2.1827925383482043,-1.291140475418593,0.6935083236091989
2.463999999999998,-2.164683002029511,-1.309250011737286,0.6817901830113089
2.4674999999999727,-2.1806632366607714,-1.3199035014914595,0.6562228547988439
2.470999999999947,-2.213686611437756,-1.3209681523351762,0.6231994800218592
2.4744999999999777,-2.2584298721418827,-1.3135103604414042,0.5912390107593392
2.477999999999952,-2.334065460606309,-1.2879447775581914,0.5486285424011496
2.4814999999999827,-2.3947872106124435,-1.265573147206128,0.5187991201553145
2.484999999999957,-2.46296675251235,-1.2293523292394897,0.4729912086074713
2.488499999999988,-2.50983931490391,-1.2005893031666233,0.4452945787075733
2.491999999999962,-2.5428644350101464,-1.156912438635465,0.4101401569139035
2.4954999999999927,-2.5545825756080367,-1.1281494125625984,0.3877685265618402
2.498999999999967,-2.548189434557981,-1.0866035950481254,0.3536787556118869
2.5024999999999977,-2.5364712939600915,-1.0557095219585737,0.3291760782431385
2.505999999999972,-2.527950596551855,-1.0141619591148487,0.2940216564494687
2.509499999999946,-2.5236885025184845,-0.9960524227961556,0.2727164222703739
2.512999999999977,-2.517297106797681,-0.9694204437399742,0.2428870000245388
2.516499999999951,-2.5151660597809964,-0.9502445112483124,0.2247774637058457
2.519999999999982,-2.5130350127643117,-0.9236125321921308,0.2087989744038376
2.523499999999956,-2.50238326833939,-0.9055029958734376,0.2034722295267509
2.526999999999987,-2.4757495439539565,-0.8778046206442878,0.205601531214184
2.530499999999961,-2.45124861191446,-0.8543683394485079,0.2109282760912707
2.533999999999992,-2.4054407003666167,-0.8341277561131297,0.2290395577392158
2.537499999999966,-2.3670905807125457,-0.8202785684985546,0.2460844432141925
2.540999999999997,-2.3010420858293243,-0.8160182197944365,0.2759121201307756
2.544499999999971,-2.245645335371024,-0.8202785684985547,0.300413052170272
2.547999999999945,-2.1678786998899127,-0.8373234539735314,0.3217200316786187
2.551499999999976,-2.1007655541629746,-0.854368339448508,0.3334381722765087
2.55499999999995,-2.0016936845027686,-0.8618243860130278,0.3387649171535954
2.558499999999981,-1.9186003041445707,-0.8628907821859962,0.3398295679973119
2.561999999999955,-1.806743897713506,-0.8394545009902165,0.3323735214327921
2.565499999999986,-1.730041913076111,-0.8053647300402632,0.3302424744161071
2.56899999999996,-1.6512106267512834,-0.7648835633695067,0.3270467765557054
2.572499999999991,-1.603271668186755,-0.7286627454028684,0.3323735214327921
2.575999999999965,-1.563855152359715,-0.6775280889779385,0.3366338701369103
2.579499999999996,-1.5414852673369035,-0.6295908757426623,0.341960615013997
2.58299999999997,-1.5329628245994156,-0.5624759846864723,0.341960615013997
2.586499999999944,-1.5287007305660454,-0.5060163287137077,0.3430252658577135
2.589999999999975,-1.5233739856889583,-0.4218582975117932,0.3398295679973119
2.593499999999949,-1.5212446840015257,-0.3547434064556032,0.341960615013997
2.59699999999998,-1.5073954963869507,-0.2641939795328855,0.3451563128743986
2.600499999999954,-1.4914152617556906,-0.2013411825100656,0.3547434064556034
2.603999999999985,-1.4615875848391076,-0.1235745470289543,0.3622011983493752
2.607499999999959,-1.4243021160287526,-0.0628527970228196,0.3643322453660603
2.61099999999999,-1.3721028087601062,0.01171814059789,0.3653968962097769
2.614499999999964,-1.326294897212263,0.0777666354811115,0.3643322453660603
2.617999999999995,-1.2687688450665298,0.1651203645434276,0.3749839897909817
2.621499999999969,-1.2240255843624033,0.2215817658454442,0.3824417816847534
2.625,-1.164370230529237,0.2918906094327838,0.397355620143045
2.628499999999974,-1.1270847617188822,0.3419606150139971,0.4101401569139035
2.631999999999948,-1.0770147561376688,0.3941599222826435,0.4261186462159115
2.635499999999979,-1.0312068445898257,0.4229229483555101,0.4474238803950063
2.638999999999953,-0.972616141600376,0.4452945787075734,0.4708619069200382
2.642499999999984,-0.9236125321921312,0.4516859744283766,0.4879067923950148
2.645999999999958,-0.8596950843255949,0.4516859744283766,0.5017542346803379
2.649499999999989,-0.8170828706381533,0.4495549274116915,0.5028206308533064
2.652999999999963,-0.7734060061069953,0.4389031829867701,0.5017542346803379
2.656499999999994,-0.7435765838611602,0.4335764381096834,0.4996249329929048
2.659999999999968,-0.7201403026653803,0.4335764381096834,0.492167141099133
2.663499999999999,-0.7073575112237738,0.4346410889534,0.4825800475179281
2.666999999999973,-0.709488558240459,0.4431635316908883,0.4665998128866681
2.6704999999999472,-0.715879953961262,0.4580773701491798,0.452750625272093
2.673999999999978,-0.7339894902799552,0.4719265577637548,0.4335764381096833
2.6774999999999523,-0.7467722817215617,0.4879067923950149,0.4186608543221398
2.680999999999983,-0.7638171671965384,0.5006895838366214,0.4058780628805333
2.6844999999999573,-0.7702103082465935,0.5038852816970231,0.397355620143045
2.687999999999988,-0.7606214693361366,0.5038852816970231,0.4016177141764152
2.6914999999999623,-0.7425119330174436,0.4953628389595347,0.3994866671597301
2.694999999999993,-0.7169446048049786,0.4804490005012432,0.4037470158638482
2.6984999999999677,-0.6935083236091988,0.4719265577637548,0.3994866671597301
2.701999999999998,-0.6732677402738205,0.4623394641825499,0.3920288752659583
2.7054999999999723,-0.6807255321675924,0.4527506252720931,0.3813771308410369
2.7089999999999463,-0.7212066988383489,0.4378367868138016,0.3600701513326901
2.7124999999999773,-0.7691439120736251,0.4239875991992266,0.3451563128743986
2.715999999999952,-0.8596950843255949,0.4080091098972185,0.3174579376452486
2.7194999999999823,-0.9417220685108244,0.3845728287014386,0.2940216564494687
2.7229999999999563,-1.053578474941889,0.3526141047681704,0.2705853752536888
2.7264999999999877,-1.1334761574396854,0.3259803803827371,0.2418223491808223
2.7299999999999613,-1.2325480270998914,0.2929570056057524,0.2130593231079557
2.7334999999999923,-1.2922051262623095,0.2609982816724842,0.1906876927558924
2.7369999999999663,-1.351862225424728,0.2194507188287592,0.1757738542976009
2.7404999999999973,-1.3848856002017127,0.189623041912176,0.1619246666830259
2.743999999999972,-1.4221710690120672,0.1491418752414196,0.152337573101821
2.747499999999945,-1.4360202566266425,0.1235745470289547,0.1438151303643327
2.7509999999999764,-1.4573254908057371,0.0937468701123716,0.1278348957330726
2.7544999999999504,-1.4637186318557929,0.0724398906040248,0.1129210572747811
2.7579999999999814,-1.476501423297399,0.0500682602519615,0.0873537290623162
2.7614999999999554,-1.492481657928659,0.0340897709499534,0.069244192743623
2.7649999999999864,-1.5212446840015257,0.0191759324916618,0.0351544217936697
2.7684999999999604,-1.5542680587785105,0.0106534897541735,0.0106534897541733
2.771999999999992,-1.6000759703263534,0.0021310470166852,-0.0149138384582915
2.775499999999965,-1.6394924861533935,-0.0053267448770864,-0.0255673282124649
2.7789999999999964,-1.7012788870032447,-0.0266319790561812,-0.029827676916583
2.7824999999999704,-1.7598713353219464,-0.0458079115478429,-0.0308940730895516
2.7859999999999445,-1.8589432049821528,-0.0681795418999062,-0.0426122136874415
2.7894999999999754,-1.9558857729549253,-0.0884201252352844,-0.0575260521457331
2.792999999999949,-2.095438809285888,-0.1075943123976941,-0.0756355884644262
2.7964999999999804,-2.201968470839866,-0.1289012919060409,-0.0841580312019145
2.7999999999999545,-2.3468499973771677,-0.1619246666830256,-0.0916158230956863
2.803499999999985,-2.441661518333255,-0.1789695521580022,-0.0894847760790012
2.8069999999999595,-2.546060132870548,-0.2109282760912704,-0.0809623333415129
2.8104999999999905,-2.6078465337203998,-0.2322352555996171,-0.0681795418999064
2.8139999999999645,-2.6824174713411093,-0.255671536795397,-0.0490036094082447
2.8174999999999955,-2.728225382888952,-0.2705853752536885,-0.029827676916583
2.820999999999969,-2.788947132895087,-0.2929570056057519,-0.0010646508437165
2.8245000000000005,-2.833690393599213,-0.3089354949077599,0.013849187614575
2.8279999999999745,-2.8944121436053485,-0.3355692192931934,0.041545817514473
2.8314999999999486,-2.9380890081365063,-0.3558098026285716,0.0639174478665363
2.8349999999999795,-2.984961570528066,-0.3813771308410365,0.096942567972773
2.8384999999999536,-3.0137245966009325,-0.4016177141764148,0.1203788491685528
2.8419999999999845,-3.049945414567571,-0.4154651564617378,0.1480754790684509
2.8454999999999586,-3.094686929942445,-0.4154651564617378,0.166186760716396
2.848999999999989,-3.164997518859037,-0.4058780628805329,0.1949497867892626
2.852499999999964,-3.227850315881857,-0.4101401569139031,0.2162550209683574
2.8559999999999945,-3.317335091960858,-0.4207919013388245,0.247149094057909
2.8594999999999686,-3.38338358684408,-0.4303807402492813,0.2673896773932873
2.8629999999999995,-3.4579545244647893,-0.4506213235846595,0.2833681666952953
2.8664999999999736,-3.505891737700066,-0.4623394641825494,0.2929570056057522
2.869999999999948,-3.534654763772932,-0.4804490005012426,0.3131975889411305
2.873499999999978,-3.5399815086500186,-0.4932317919428491,0.3291760782431385
2.8769999999999527,-3.5229366231750423,-0.5038852816970225,0.3579391043160051
2.880499999999984,-3.495239993275144,-0.5113430735907942,0.3813771308410369
2.8839999999999577,-3.4345182432690096,-0.5219948180157157,0.4165315526347067
2.8874999999999886,-3.375925794950308,-0.5273215628928023,0.4474238803950063
2.8909999999999627,-3.287505669715023,-0.5358440056302907,0.492167141099133
2.8944999999999936,-3.2076097325464787,-0.5390397034906922,0.5315836569261729
2.897999999999968,-3.068054950886264,-0.5401060996636609,0.5837829641948193
2.901499999999998,-2.953002846594798,-0.5390397034906923,0.6242641308655758
2.9049999999999727,-2.791078179911772,-0.5315836569261726,0.6775280889779387
2.908499999999947,-2.658981190145329,-0.5262569120490859,0.7169446048049787
2.9119999999999777,-2.490663382412248,-0.528387959065771,0.7659482142132235
2.915499999999952,-2.3670905807125457,-0.5358440056302908,0.8021690321798618
2.9189999999999827,-2.21262196059404,-0.5614113338427558,0.8415838026776498
2.922499999999957,-2.096503460129605,-0.5805872663344175,0.863955433029713
2.925999999999988,-1.9558857729549253,-0.6061545945468825,0.8820667146776582
2.929499999999962,-1.852551809261349,-0.6306555265863788,0.8948495061192646
2.9329999999999927,-1.730041913076111,-0.648765062905072,0.9076322975608712
2.936499999999967,-1.6533416737679685,-0.664745297536332,0.9193504381587612
2.9399999999999977,-1.5787707361472587,-0.6775280889779385,0.9268082300525328
2.943499999999972,-1.5468120122139906,-0.6860505317154268,0.9300039279129344
2.946999999999946,-1.5382895694765022,-0.6924436727654821,0.9278728808962494
2.950499999999977,-1.545745616041022,-0.6924436727654821,0.9268082300525328
2.953999999999951,-1.5798353869909751,-0.6860505317154268,0.9193504381587612
2.957499999999982,-1.6075337622201251,-0.6775280889779385,0.9140254386109264
2.960999999999956,-1.6469485327179132,-0.6668763445530171,0.901240901840068
2.964499999999987,-1.6757115587907798,-0.6572875056425602,0.8969805531359498
2.967999999999961,-1.7108677259137015,-0.6445047142009538,0.8937848552755481
2.971499999999992,-1.7428264498469697,-0.6338512244467804,0.8831313655213747
2.974999999999966,-1.7960904079593327,-0.6285244795696938,0.8724778757672014
2.978499999999997,-1.8312448297530024,-0.623199480021859,0.8650218292026817
2.981999999999971,-1.8845105331946173,-0.6253287817092921,0.8543683394485082
2.985499999999945,-1.920729605832004,-0.6200020368322054,0.8415838026776498
2.988999999999976,-1.966537517379847,-0.6114795940947172,0.8319967090964449
2.99249999999995,-1.9963669396256816,-0.5933700577760239,0.8245406625319252
2.995999999999981,-2.033652408436037,-0.567802729563559,0.8288010112360433
2.999499999999955,-2.069871481073423,-0.5454328445407477,0.8341277561131301
3.002999999999986,-2.117810439637952,-0.5209301671719994,0.8469105475547365
3.00649999999996,-2.1519002105879044,-0.5038852816970227,0.8607597351693115
3.009999999999991,-2.193446028102377,-0.4719265577637545,0.8820667146776582
3.013499999999965,-2.2062305648732363,-0.4442281825346044,0.8937848552755481
3.016999999999996,-2.2051641687002674,-0.4069427137242495,0.9150900894546428
3.02049999999997,-2.188119283225291,-0.3845728287014383,0.9246771830358478
3.023999999999944,-2.1455088148671013,-0.3483520107347999,0.9363953236337376
3.027499999999975,-2.113548345604581,-0.3281114273994217,0.9374617198067065
3.030999999999949,-2.062415434508903,-0.3004130521702717,0.940657417667108
3.03449999999998,-2.0304567105756357,-0.2823035158515786,0.944917766371226
3.037999999999954,-1.9857134498715088,-0.2620629325162004,0.942788464683793
3.041499999999985,-1.946296934044469,-0.241822349180822,0.944917766371226
3.044999999999959,-1.8909019289154203,-0.2215817658454439,0.9353306727900212
3.04849999999999,-1.8429629703508923,-0.2024058333537821,0.9246771830358478
3.051999999999964,-1.7545445904448598,-0.1779049013142857,0.905502995873438
3.055499999999995,-1.6948874912824414,-0.1587289688226241,0.8905874120858945
3.058999999999969,-1.6117941109242435,-0.1480754790684507,0.8628907821859965
3.0625,-1.563855152359715,-0.1384883854872458,0.8405191518339332
3.065999999999974,-1.518048986141124,-0.1384883854872458,0.8138871727777518
3.069499999999948,-1.4956773557890606,-0.1395530363309624,0.7819284488444836
3.072999999999979,-1.476501423297399,-0.1448797812080491,0.7371851881403569
3.076499999999953,-1.4626522356828238,-0.1502065260851358,0.697768672313317
3.079999999999984,-1.4456073502078477,-0.1502065260851358,0.6487650629050722
3.083499999999958,-1.4360202566266425,-0.1448797812080491,0.6104149432510009
3.086999999999989,-1.4243021160287526,-0.1374237346435293,0.5699337765802444
3.090499999999963,-1.4296288609058392,-0.1278348957330725,0.5433017975240628
3.093999999999994,-1.4402806053307606,-0.1097253594143793,0.5070809795574245
3.097499999999968,-1.4658479335432255,-0.0948115209560877,0.4825800475179281
3.100999999999999,-1.5095265434036358,-0.087353729062316,0.4538170214450616
3.104499999999973,-1.545745616041022,-0.0809623333415127,0.4378367868138015
3.1079999999999472,-1.5883578297284635,-0.0777666354811111,0.4090737607409349
3.111499999999978,-1.61285876176796,-0.0788312863248276,0.3867021303888716
3.1149999999999523,-1.6320346942596218,-0.0713752397603079,0.3611348021764067
3.118499999999983,-1.6352303921200233,-0.0575260521457329,0.3366338701369103
3.1219999999999573,-1.6341657412763066,-0.0404811666707562,0.3195889846619337
3.125499999999988,-1.6181855066450466,-0.0330233747769845,0.3068061932203272
3.1289999999999623,-1.5904888767451486,-0.0223716303520631,0.2940216564494687
3.132499999999993,-1.5574637566389118,-0.0159802346312598,0.2812388650078622
3.1359999999999677,-1.5137868921077535,-0.0031956978604014,0.2663250265495707
3.139499999999998,-1.4711746784203124,0.0053267448770868,0.2503447919183106
3.1429999999999723,-1.4168443241349806,0.0106534897541735,0.2311688594266489
3.1464999999999463,-1.3721028087601062,0.01171814059789,0.2141239739516723
3.1499999999999773,-1.310314662581003,0.0106534897541735,0.1960144376329791
3.153499999999952,-1.2634421001894431,0.0031956978604017,0.1842962970350892
3.1569999999999823,-1.215503141624915,-0.004260348704118,0.1821652500184041
3.1604999999999563,-1.2027203501833084,-0.020240583335378,0.1821652500184041
3.1639999999999877,-1.2123074437645132,-0.0340897709499531,0.1896230419121759
3.1674999999999613,-1.2400058189936634,-0.0511346564249297,0.1960144376329791
3.1709999999999923,-1.2943361732789946,-0.0767019846373946,0.2151903701246408
3.1744999999999663,-1.3529268762684443,-0.0969425679727728,0.2226464166891606
3.1779999999999973,-1.4434780485204144,-0.1214435000122692,0.2354309534600191
3.181499999999972,-1.5084601472306671,-0.1406194325039309,0.2450180470412239
3.184999999999945,-1.6085984130638418,-0.1640557136997107,0.2567361876391139
3.1884999999999764,-1.6895607464053546,-0.1821652500184039,0.260998281672484
3.1919999999999504,-1.802481803680136,-0.2056015312141837,0.2695207244099723
3.1954999999999814,-1.8919665797591367,-0.225842114549562,0.2737810731140905
3.1989999999999554,-1.9739953092736189,-0.251409442762027,0.2769767709744921
3.2024999999999864,-2.080524970827597,-0.2780431671474603,0.2673896773932873
3.2059999999999604,-2.174271840939968,-0.3057397970473584,0.2460844432141925
3.209499999999992,-2.227535799052331,-0.3238510786953035,0.2247774637058457
3.212999999999965,-2.2680169657230875,-0.3355692192931935,0.1960144376329791
3.2164999999999964,-2.3106291794105287,-0.3419606150139967,0.1576643179789077
3.2199999999999704,-2.3351318567792774,-0.3451563128743983,0.1299659427497577
3.2234999999999445,-2.3553724401146554,-0.35261410476817,0.0990718696602061
3.2269999999999754,-2.366024184539577,-0.350483057751485,0.0798976824977964
3.230499999999949,-2.36495953369586,-0.3515477085952015,0.0639174478665363
3.2339999999999804,-2.351110346081285,-0.3483520107347999,0.0490036094082447
3.2374999999999545,-2.292519643091836,-0.3451563128743983,0.0319587239332681
3.240999999999985,-2.201968470839866,-0.3462209637181149,0.0266319790561814
3.2444999999999595,-2.113548345604581,-0.3472873598910834,0.0245026773687483
3.2479999999999905,-1.9878444968881936,-0.3547434064556032,0.029827676916583
3.2514999999999645,-1.889837278071704,-0.3579391043160049,0.0404811666707564
3.2549999999999955,-1.800352501992703,-0.3643322453660601,0.0575260521457331
3.258499999999969,-1.6906253972490712,-0.3728546881035484,0.0862890782185996
3.2620000000000005,-1.6309700434159051,-0.3803107346680681,0.1065296615539778
3.2654999999999745,-1.5787707361472587,-0.3920288752659581,0.1427504795206162
3.2689999999999486,-1.5563991057951954,-0.4058780628805331,0.1725781564371993
3.2724999999999795,-1.550007710074392,-0.431445391092998,0.2151903701246408
3.2759999999999536,-1.5649215485326835,-0.4538170214450614,0.2482137449016255
3.2794999999999845,-1.6192519028180152,-0.498558536819936,0.2929570056057522
3.2829999999999586,-1.6948874912824414,-0.5369104018032593,0.3174579376452486
3.286499999999989,-1.8301801789092855,-0.5848476150385357,0.3504830577514853
3.289999999999964,-1.9622771686757288,-0.621068433005174,0.3771150368076668
3.2934999999999945,-2.172140793923283,-0.6711366932571353,0.3994866671597301
3.2969999999999686,-2.341523252500081,-0.6988350684862852,0.4101401569139035
3.3004999999999995,-2.576952460630848,-0.7286627454028682,0.42292294835551
3.3039999999999736,-2.747401315380614,-0.7425119330174433,0.42292294835551
3.307499999999948,-2.961525289332286,-0.749969724911215,0.4175962034784233
3.310999999999978,-3.113862862434108,-0.7414472821737268,0.4080091098972184
3.3144999999999527,-3.2960281124525115,-0.7371851881403565,0.397355620143045
3.317999999999984,-3.424929404358553,-0.7265316983861831,0.3867021303888716
3.3214999999999577,-3.568744534722885,-0.7201403026653799,0.3739193389472651
3.3249999999999886,-3.6529025659248,-0.722271349682065,0.3643322453660603
3.3284999999999627,-3.723213154841392,-0.7201403026653799,0.3387649171535954
3.3319999999999936,-3.741322691160085,-0.7201403026653799,0.3174579376452486
3.335499999999968,-3.705103618522698,-0.7286627454028681,0.2929570056057522
3.338999999999998,-3.646511170203997,-0.7414472821737267,0.2759121201307756
3.3424999999999727,-3.525067670191727,-0.7478386778945298,0.2631275833599171
3.345999999999947,-3.417473357794033,-0.752099026598648,0.2492801410745941
3.3494999999999777,-3.259809039815125,-0.7723396099340263,0.247149094057909
3.352999999999952,-3.1330387949257688,-0.7904508915819715,0.2524758389349957
3.3564999999999827,-2.947676101717711,-0.8224096155152397,0.260998281672484
3.359999999999957,-2.7996006226492605,-0.858628688152626,0.2695207244099723
3.363499999999988,-2.5876059503850213,-0.9033719488567526,0.2780431671474606
3.366999999999962,-2.426745934545712,-0.939592766823391,0.2876302607286655
3.3704999999999927,-2.2072952157169525,-0.9875299800586672,0.2993484013265554
3.373999999999967,-2.04749985072136,-1.0173594023045025,0.3089354949077603
3.3774999999999977,-1.8610742519988377,-1.050382777081487,0.3302424744161071
3.380999999999972,-1.74282644984697,-1.069558709573149,0.3462209637181151
3.384499999999946,-1.6171208558013304,-1.087668245891842,0.3781796876513833
3.387999999999977,-1.5521370117618254,-1.0940596416126454,0.4037470158638482
3.391499999999951,-1.499937704493179,-1.0961906886293302,0.4293143440763132
3.394999999999982,-1.488219563895289,-1.083406151858472,0.4442281825346047
3.398499999999956,-1.509526543403636,-1.0535784749418888,0.4559463231324946
3.401999999999987,-1.569181897236802,-1.022684401852337,0.4580773701491797
3.405499999999961,-1.6874296993886695,-0.9672893967232892,0.452750625272093
3.408999999999992,-1.798221454976018,-0.9278728808962492,0.4516859744283765
3.412499999999966,-1.9761263562903035,-0.8735442719401697,0.4506213235846599
3.415999999999997,-2.1220707883420697,-0.8319967090964446,0.452750625272093
3.419499999999971,-2.3095645285668125,-0.7744706569507115,0.4516859744283765
3.422999999999945,-2.443790820020688,-0.7329248394362384,0.4506213235846599
3.426499999999976,-2.6046508358599976,-0.6764634381342218,0.4484902765679749
3.42999999999995,-2.726094335872267,-0.6349176206197489,0.43890318298677
3.433499999999981,-2.876302607286655,-0.5816519171781339,0.4346410889533998
3.436999999999955,-2.987092617544751,-0.5475621462281807,0.4261186462159115
3.440499999999986,-3.1319723987528008,-0.5102766774178258,0.4261186462159115
3.44399999999996,-3.2342417116026603,-0.4857757453783293,0.4293143440763132
3.447499999999991,-3.370599050073221,-0.4644687658699826,0.4335764381096833
3.450999999999965,-3.4164069616210644,-0.4612730680095809,0.43890318298677
3.454499999999996,-3.474999409939766,-0.4612730680095809,0.4420988808471717
3.45799999999997,-3.495239993275144,-0.4644687658699825,0.4506213235846599
3.461499999999944,-3.4963046441188608,-0.477253302640841,0.4538170214450616
3.464999999999975,-3.467541618045994,-0.4900360940824474,0.4697955107470696
3.468499999999949,-3.3972310291294026,-0.516669818467881,0.4953628389595346
3.47199999999998,-3.316268695787889,-0.5475621462281806,0.5156034222949128
3.475499999999954,-3.172453565423557,-0.5986968026531105,0.547562146228181
3.478999999999985,-3.0456833205342004,-0.6391779693238671,0.5795208701614492
3.482499999999959,-2.840081789320017,-0.6945729744529151,0.6061545945468827
3.48599999999999,-2.6675036328828177,-0.745707630877845,0.6242641308655758
3.489499999999964,-2.421419189668625,-0.817082870638153,0.6391779693238674
3.492999999999995,-2.2381892888065043,-0.884196016365091,0.6413090163405525
3.496499999999969,-2.008085080223572,-0.9587669539858008,0.6391779693238674
3.5,-1.8557475071217508,-1.0035102146899273,0.630655526586379
3.503499999999974,-1.6884960955616384,-1.0471870792210856,0.616806338971804
3.506999999999948,-1.5904888767451488,-1.0674276625564638,0.6093502924072843
3.510499999999979,-1.4892859600682578,-1.0812768501710388,0.5965657556364258
3.513999999999953,-1.4317599079225245,-1.085537198875157,0.5901743599156226
3.517499999999984,-1.3731674596038228,-1.083406151858472,0.5837829641948193
3.520999999999958,-1.3412087356705549,-1.0780811523106373,0.5731294744406459
3.524499999999989,-1.312445709597688,-1.0706233604168651,0.5539552872782363
3.527999999999963,-1.3007275689997984,-1.0514474279252035,0.5347793547865746
3.531499999999994,-1.3092500117372865,-1.0386646364835972,0.5006895838366213
3.534999999999968,-1.3390776886538698,-1.0290775429023924,0.480449000501243
3.538499999999999,-1.391276995922516,-1.0333378916065106,0.4495549274116914
3.541999999999973,-1.4402806053307609,-1.0482517300648022,0.4293143440763132
3.5454999999999472,-1.5105911942473524,-1.0610362668356603,0.3984202709867616
3.548999999999978,-1.5649215485326835,-1.071688011260582,0.3728546881035486
3.5524999999999523,-1.624578647695102,-1.083406151858472,0.3366338701369103
3.555999999999983,-1.6618641165054568,-1.083406151858472,0.3121311927681619
3.5594999999999573,-1.70340993401993,-1.0844725480314403,0.2823035158515788
3.562999999999988,-1.7321729600927966,-1.0791458031543535,0.258867234655799
3.5664999999999623,-1.7726541267635532,-1.075950105293952,0.2375620004767041
3.569999999999993,-1.8141999442780257,-1.073819058277267,0.2237128128621291
3.5734999999999677,-1.879183788317531,-1.0674276625564638,0.1981454846496642
3.576999999999998,-1.9409701891673825,-1.0621009176793772,0.1832316461913727
3.5804999999999723,-2.033652408436037,-1.0535784749418888,0.1576643179789077
3.5839999999999463,-2.107156949883778,-1.0493181262377709,0.1438151303643327
3.5874999999999773,-2.208359866560669,-1.036533589466912,0.1320969897664428
3.590999999999952,-2.279735106320977,-1.0301421937461088,0.1278348957330726
3.5944999999999823,-2.354306043941687,-1.032273240762794,0.1278348957330726
3.5979999999999563,-2.3947872106124435,-1.0429249851877154,0.1331616406101593
3.6014999999999877,-2.409701049070735,-1.059969870662692,0.138488385487246
3.604999999999961,-2.3809380229978685,-1.069558709573149,0.1448797812080492
3.608499999999992,-2.2871928982147494,-1.0770147561376686,0.1544686201185061
3.6119999999999663,-2.1806632366607714,-1.0727544074335504,0.1629910628559944
3.615499999999997,-2.0016936845027686,-1.0589052198189757,0.1757738542976009
3.6189999999999714,-1.8514854130883809,-1.0461224283773691,0.1960144376329791
3.6224999999999454,-1.6373614391367086,-1.0333378916065106,0.2226464166891606
3.625999999999976,-1.4903506109119742,-1.0141619591148487,0.2450180470412239
3.6294999999999504,-1.30818536089357,-0.9896610270753526,0.2812388650078622
3.632999999999981,-1.195262558289537,-0.9683557928962578,0.3046751462036421
3.636499999999955,-1.0706233604168658,-0.9374617198067062,0.3398295679973119
3.6399999999999855,-0.9928567249357544,-0.9161547402983592,0.369657244913895
3.64349999999996,-0.8905874120858946,-0.8831313655213746,0.397355620143045
3.646999999999992,-0.8309320582527284,-0.8564993864651932,0.4186608543221398
3.650499999999965,-0.7563611206320188,-0.8266699642193581,0.4335764381096833
3.653999999999997,-0.7073575112237739,-0.8021690321798617,0.4431635316908882
3.6574999999999696,-0.6551582039551275,-0.7744706569507117,0.4442281825346047
3.660999999999945,-0.6306555265863791,-0.7606214693361366,0.4420988808471717
3.664499999999976,-0.6040235475301976,-0.7457076308778452,0.4346410889533998
3.6679999999999495,-0.5997614534968275,-0.7350541411236717,0.42292294835551
3.671499999999981,-0.6072192453905993,-0.7286627454028685,0.4069427137242498
3.6749999999999545,-0.6263951778822611,-0.7233360005257818,0.3909642244222418
3.6784999999999854,-0.667940995396734,-0.7222713496820653,0.3600701513326901
3.68199999999996,-0.7084221620674904,-0.7393162351570418,0.341960615013997
3.6854999999999913,-0.7680792612299087,-0.7936465894423734,0.3131975889411305
3.688999999999965,-0.8160182197944369,-0.8618243860130279,0.2897613077453506
3.692499999999996,-0.8724778757672015,-0.9790075373211792,0.2428870000245388
3.6959999999999695,-0.9023072980130366,-1.0716880112605822,0.1960144376329791
3.699500000000001,-0.9321349749296196,-1.202720350183308,0.1331616406101593
3.702999999999975,-0.9374617198067065,-1.2879447775581914,0.0873537290623162
3.7064999999999486,-0.9150900894546432,-1.3891476942350824,0.029827676916583
3.70999999999998,-0.8724778757672016,-1.4456073502078477,-0.0085224427374883
3.7134999999999536,-0.7872551937215705,-1.498873053649462,-0.0511346564249298
3.716999999999985,-0.6956393706258841,-1.522309334845242,-0.0809623333415129
3.720499999999959,-0.5582156359823546,-1.5372231733035338,-0.1139874534477496
3.7239999999999895,-0.4389031829867702,-1.5372231733035338,-0.1374237346435295
3.727499999999964,-0.268454328237004,-1.527636079722329,-0.1672514115601126
3.7309999999999945,-0.1363573384705612,-1.518048986141124,-0.180035948330971
3.7344999999999686,0.0468725623915595,-1.5073954963869507,-0.1970790884766957
3.738,0.1992101354933806,-1.506329100213982,-0.2109282760912707
3.7414999999999736,0.4165315526347066,-1.522309334845242,-0.2226464166891606
3.744999999999948,0.5773915684740158,-1.5532034079347938,-0.2301042085829324
3.748499999999978,0.7840577505319164,-1.6256432985388185,-0.2450180470412239
3.7519999999999527,0.9118943915942412,-1.6831693506845518,-0.2684543282370038
3.755499999999984,1.028011146729424,-1.752413543428175,-0.3089354949077603
3.7589999999999577,1.0652966155397787,-1.7928947100989312,-0.3408942188410284
3.7624999999999886,1.0493181262377709,-1.8408336686634597,-0.3888331774055567
3.7659999999999623,0.9992481206565572,-1.8632035536862708,-0.4154651564617382
3.7694999999999936,0.8831313655213745,-1.8770527413008455,-0.4399678338304866
3.772999999999968,0.7744706569507116,-1.8845105331946173,-0.4538170214450616
3.776499999999999,0.6168063389718038,-1.8706613455800425,-0.4623394641825499
3.7799999999999727,0.4974938859762194,-1.8546811109487824,-0.4634041150262664
3.783499999999947,0.3579391043160049,-1.8333758767696875,-0.4665998128866681
3.7869999999999777,0.2780431671474604,-1.8216577361717976,-0.4708619069200382
3.790499999999952,0.1992101354933805,-1.8323112259259708,-0.480449000501243
3.793999999999983,0.1619246666830257,-1.8472250643842625,-0.4942981881158181
3.797499999999957,0.142750479520616,-1.8791837883175309,-0.517734469311598
3.800999999999988,0.1512729222581043,-1.9068821635466808,-0.5422354013510943
3.804499999999962,0.1960144376329789,-1.938840887479949,-0.5656734278761262
3.8079999999999927,0.2439533961975071,-1.9612107725027603,-0.5816519171781342
3.811499999999967,0.3217200316786185,-1.9761263562903035,-0.5901743599156226
3.8149999999999977,0.3867021303888714,-1.9835824028548237,-0.5848476150385359
3.818499999999972,0.4644687658699827,-1.9835824028548237,-0.5709984274239609
3.821999999999946,0.5156034222949126,-1.9739953092736189,-0.5454328445407479
3.825499999999977,0.567802729563559,-1.956950423798642,-0.5006895838366213
3.828999999999951,0.6168063389718038,-1.944167632357036,-0.4687308599033531
3.832499999999982,0.6775280889779385,-1.9345787934465783,-0.4218582975117934
3.835999999999956,0.7478386778945301,-1.9324494917591453,-0.3909642244222418
3.839499999999987,0.8767399698005713,-1.9345787934465783,-0.3483520107348002
3.842999999999961,0.9981834698128408,-1.9399055383236652,-0.3281114273994219
3.846499999999992,1.1973936053062215,-1.9516236789215555,-0.3046751462036421
3.849999999999966,1.3689071108997042,-1.964408215692414,-0.2929570056057522
3.853499999999997,1.6139251579409284,-1.999562637486084,-0.288694911572382
3.856999999999971,1.7907636630822457,-2.0368481062964383,-0.2918906094327836
3.860499999999945,2.022998918681863,-2.10289660117966,-0.3100018910807288
3.863999999999976,2.1881192832252907,-2.15403125760459,-0.3376985209806268
3.86749999999995,2.393722559768727,-2.228600449896048,-0.38350643252847
3.870999999999981,2.5322109452559727,-2.2893221999021827,-0.4293143440763132
3.874499999999955,2.693070961095282,-2.360697439662491,-0.4953628389595346
3.877999999999986,2.7900135290680548,-2.4192898879811926,-0.5528888911052677
3.88149999999996,2.857126674794993,-2.5066436170435087,-0.6231994800218592
3.884999999999991,2.8635180705157963,-2.5769524606308485,-0.6764634381342222
3.888499999999965,2.78788248205137,-2.677090726464023,-0.7499697249112154
3.891999999999996,2.682417471341109,-2.7463349192076456,-0.8085604279006651
3.89549999999997,2.4906633824122477,-2.8230369038450407,-0.889522761242178
3.898999999999944,2.302106736673041,-2.873105164097002,-0.9545066052816829
3.902499999999975,2.030456710575635,-2.915717377784444,-1.0386646364835974
3.905999999999949,1.8163309912947103,-2.9316976124157037,-1.1079088292272203
3.90949999999998,1.5318964284264465,-2.9380890081365063,-1.1931332566021038
3.912999999999954,1.3316216420893492,-2.927435518382333,-1.2485282617311515
3.916499999999985,1.0887328967355585,-2.8912164457449467,-1.3252302463685464
3.919999999999959,0.9342660219463044,-2.841146440163733,-1.367840714726736
3.92349999999999,0.7680792612299082,-2.7633798046826223,-1.4221710690120672
3.926999999999964,0.6881815787321118,-2.6920045649223137,-1.460522933995391
3.930499999999995,0.6306555265863787,-2.584410252524619,-1.4978066574764937
3.933999999999969,0.637046922307182,-2.4927944294289333,-1.5233739856889583
3.9375,0.6945729744529151,-2.3681552315562624,-1.5521370117618252
3.940999999999974,0.775535307794428,-2.271212663583489,-1.569181897236802
3.944499999999948,0.933199625773336,-2.133788928939959,-1.5798353869909751
3.947999999999979,1.0866035950481254,-2.02406356952558,-1.587293178884747
3.951499999999953,1.328425944228948,-1.8823794861779328,-1.5947492254492668
3.954999999999984,1.5393542203202184,-1.7737187776072694,-1.599011319482637
3.958499999999958,1.834440527613404,-1.648014928890882,-1.6085984130638418
3.961999999999989,2.0666757832130216,-1.5627905015159989,-1.6160562049576137
3.965499999999963,2.3617638358354585,-1.4679789805599108,-1.6181855066450466
3.968999999999994,2.5684300178933595,-1.4211064181683513,-1.614989808784645
3.972499999999968,2.8006652734929767,-1.3859519963746816,-1.606467366047157
3.975999999999999,2.9402200551531914,-1.3816899023413116,-1.5979449233096683
3.979499999999973,3.0765773936237526,-1.3966037407996028,-1.5883578297284635
3.9829999999999472,3.1404948414902885,-1.4232374651850366,-1.5809000378346918
3.986499999999978,3.180976008161045,-1.4765014232973994,-1.5723775950972034
3.989999999999952,3.1596707739819503,-1.530831777582731,-1.5585301528118805
3.993499999999983,3.069121347059233,-1.616056204957614,-1.5297671267390138
3.996999999999957,2.9498071487343966,-1.6853003977012369,-1.504199798526549
4.000499999999988,2.7303564299056373,-1.76200063700938,-1.4594565378224222
4.003999999999962,2.520492804658083,-1.8248534340321996,-1.4296288609058392
4.007499999999993,2.1977081221357477,-1.9026200695133109,-1.3870166472183978
4.010999999999967,1.9420365853403505,-1.9612107725027603,-1.358253621145531
4.014499999999998,1.591553527588865,-2.033652408436037,-1.3273595480559794
4.017999999999972,1.3390776886538691,-2.0688068302297067,-1.3071189647206012
4.021499999999946,1.0439913813606838,-2.0975698563025733,-1.289009428401908
4.024999999999977,0.866086480046398,-2.1103526477441794,-1.2719645429269315
4.028499999999951,0.7052264642070886,-2.0997009033192584,-1.254919657451955
4.031999999999982,0.6519625060947256,-2.081589621671313,-1.2432015168540649
4.035499999999956,0.648765062905072,-2.04749985072136,-1.2282876783957732
4.038999999999987,0.7009661155029704,-2.0229989186818638,-1.2176341886416
4.042499999999961,0.8362588031298148,-1.9739953092736189,-1.2240255843624033
4.045999999999992,0.9715514907566593,-1.9431012361840676,-1.231483376256175
4.049499999999966,1.1814151160042137,-1.9175339079716025,-1.2463972147144666
4.052999999999997,1.3412087356705544,-1.899424371652909,-1.2623774493457267
4.056499999999971,1.560659454499313,-1.874923439613413,-1.284747334368538
4.059999999999945,1.7193884233219376,-1.8589432049821528,-1.3060543138768848
4.063499999999976,1.9186003041445705,-1.839767272490491,-1.3476001313913577
4.06699999999995,2.0634800853526194,-1.828049131892601,-1.374233855776791
4.070499999999981,2.242449637510622,-1.8227223870155145,-1.407257230553776
4.073999999999955,2.3670905807125453,-1.8216577361717976,-1.4413470015037293
4.077499999999986,2.5087746640601924,-1.837637970803058,-1.480763517330769
4.08099999999996,2.597194789295477,-1.853616460105066,-1.5031334023535805
4.084499999999991,2.663241538849447,-1.8909019289154207,-1.531896428426447
4.087999999999965,2.674961424776589,-1.927122746882059,-1.5446809651973052
4.091499999999996,2.6387406068099506,-1.9718642622569336,-1.550007710074392
4.09499999999997,2.586541299541304,-2.004889382363171,-1.545745616041022
4.0984999999999445,2.491729778585216,-2.052826595598447,-1.5287007305660454
4.101999999999975,2.406505351210333,-2.099700903319259,-1.4999377044931788
4.1054999999999495,2.288257549058465,-2.1721407939232837,-1.4562608399620207
4.1089999999999804,2.196641725962779,-2.2381892888065047,-1.4189753711516655
4.1124999999999545,2.0570886896318163,-2.3340654606063094,-1.356122574128846
4.1159999999999854,1.9420365853403505,-2.4011786063332474,-1.3124457095976878
4.11949999999996,1.791830059255214,-2.4842719866914447,-1.2581153553123563
4.122999999999991,1.6789072566511811,-2.541798038837178,-1.2208298865020015
4.1264999999999645,1.5350921262868484,-2.609977580737084,-1.1707616262500404
4.129999999999996,1.4370849074703589,-2.6536544452682427,-1.136671855300087
4.1334999999999695,1.3199035014914595,-2.706920148709857,-1.0961906886293304
4.1370000000000005,1.242136866010348,-2.7346167786097557,-1.0727544074335509
4.140499999999975,1.1419986001771734,-2.7569884089618184,-1.0482517300648024
4.143999999999949,1.074885454450235,-2.751661664084732,-1.0344025424502272
4.14749999999998,1.0152283552878174,-2.7133115444306606,-1.0194887039919358
4.150999999999954,1.0003145168295258,-2.671763981586936,-1.0045748655336442
4.1544999999999845,1.0077705633940457,-2.6142396747704546,-0.9939213757794708
4.157999999999959,1.0439913813606838,-2.56097397132884,-0.984334282198266
4.1614999999999895,1.115366621120992,-2.4938608256019017,-0.9800739334941478
4.164999999999964,1.1835444176916463,-2.443790820020688,-0.9768764903044942
4.1684999999999945,1.2623774493457265,-2.3809380229978685,-0.9779428864774626
4.171999999999969,1.3113810587539712,-2.3223473200084186,-0.9779428864774626
4.1755,1.378494204480909,-2.240320335823189,-0.9811385843378644
4.178999999999974,1.4328245587662407,-2.1795968404878026,-0.9758118394607777
4.182499999999948,1.512722241264037,-2.105025902867093,-0.9779428864774626
4.185999999999979,1.58196643400766,-2.058153340475533,-0.9715514907566596
4.189499999999953,1.6842340015282675,-2.0048893823631704,-0.9630290480191712
4.192999999999984,1.7620006370093793,-1.980386704994422,-0.9555712561253994
4.196499999999958,1.8472250643842625,-1.967603913552816,-0.9545066052816829
4.199999999999989,1.897293324636224,-1.9718642622569336,-0.9545066052816829
4.203499999999963,1.9303184447424604,-1.967603913552816,-0.9672893967232892
4.206999999999994,1.9345787934465783,-1.9612107725027603,-0.9811385843378644
4.210499999999968,1.919664954988287,-1.952690075094524,-0.9971170736398725
4.213999999999999,1.9015554186695935,-1.9537547259382408,-1.012032657427416
4.217499999999973,1.870661345580042,-1.9707996114132167,-1.0290775429023926
4.220999999999947,1.829115528065569,-1.992104845592312,-1.0333378916065108
4.224499999999978,1.7683920327301823,-2.027261012715233,-1.032273240762794
4.227999999999952,1.706605631880331,-2.045370549033927,-1.032273240762794
4.231499999999983,1.6064673660471565,-2.0762646221234786,-1.035468938623196
4.234999999999957,1.5116558450910689,-2.0997009033192584,-1.032273240762794
4.238499999999988,1.3742338557767908,-2.121006137498353,-1.0312068445898257
4.241999999999962,1.265573147206128,-2.129528580235841,-1.0290775429023926
4.245499999999993,1.1206916206688269,-2.147638116554534,-1.012032657427416
4.248999999999967,1.0162930061315338,-2.1636183511857947,-0.9992481206565574
4.252499999999998,0.8927184591025794,-2.185989981537858,-0.9811385843378644
4.255999999999972,0.8213432193422713,-2.2062305648732363,-0.9694204437399744
4.259499999999946,0.7446429800341285,-2.220078007158559,-0.9491798604045962
4.262999999999977,0.7009661155029704,-2.2243401011919293,-0.9438531155275096
4.266499999999951,0.6828548338550252,-2.2115573097503227,-0.940657417667108
4.269999999999982,0.6892479749050805,-2.200903819996149,-0.9353306727900212
4.273499999999956,0.7382515843133252,-2.193446028102377,-0.9236125321921312
4.276999999999987,0.7925801932694047,-2.1795968404878026,-0.9236125321921312
4.280499999999961,0.882066714677658,-2.155095908448306,-0.9236125321921312
4.283999999999992,0.9587669539858008,-2.136986372129613,-0.9310703240859032
4.287499999999966,1.069558709573149,-2.116745788794235,-0.9363953236337376
4.290999999999997,1.1537167407750637,-2.0997009033192584,-0.9363953236337376
4.294499999999971,1.279422334820703,-2.0783939238109115,-0.9321349749296196
4.297999999999945,1.376363157464224,-2.065611132369305,-0.9353306727900212
4.301499999999976,1.5169825899681553,-2.060284387492218,-0.9374617198067065
4.30499999999995,1.61712085580133,-2.0645447361963365,-0.9363953236337376
4.308499999999981,1.7385643558135992,-2.0762646221234786,-0.9278728808962494
4.311999999999955,1.8163309912947108,-2.0858517157046834,-0.9225478813484148
4.315499999999986,1.878119137473814,-2.094374158442172,-0.9097633445775564
4.31899999999996,1.8951640229487905,-2.101830205006692,-0.8959141569629812
4.322499999999991,1.882379486177932,-2.12207078834207,-0.875673573627603
4.325999999999965,1.840833668663459,-2.1391156738170465,-0.8596950843255949
4.329499999999996,1.755609241288576,-2.162553700342078,-0.8351924069568466
4.33299999999997,1.6661244652095746,-2.1870546323815745,-0.8234742663589566
4.336499999999944,1.5372231733035335,-2.2062305648732363,-0.7979069381464917
4.339999999999975,1.4285624647328703,-2.213686611437756,-0.7776663548111135
4.343499999999949,1.2783559386477346,-2.2179487054711258,-0.7584921676487036
4.34699999999998,1.1643702305292367,-2.221144403331528,-0.7499697249112154
4.350499999999954,1.0173594023045025,-2.21262196059404,-0.7382515843133254
4.353999999999985,0.914025438610926,-2.2051641687002674,-0.7350541411236718
4.357499999999959,0.7893844954090031,-2.18918567939826,-0.727598094559152
4.36099999999999,0.7062911150508051,-2.185989981537858,-0.7307937924195538
4.364499999999964,0.6125459902676856,-2.176401142627401,-0.7297291415758372
4.367999999999995,0.5560845889656691,-2.160422653325393,-0.7350541411236718
4.371499999999969,0.5134723752782275,-2.147638116554534,-0.7478386778945303
4.375,0.5028206308533062,-2.1284639293921246,-0.7563611206320187
4.378499999999974,0.512407724434511,-2.0997009033192584,-0.7691439120736251
4.381999999999948,0.5358440056302909,-2.0826560178442817,-0.780862052671515
4.385499999999979,0.5827165680218506,-2.069871481073423,-0.7936465894423735
4.388999999999953,0.6221330838488905,-2.0613490383359347,-0.8085604279006651
4.392499999999984,0.6849858808717103,-2.04004380415684,-0.8256053133756417
4.395999999999958,0.7275980945591518,-2.019803220821462,-0.8447812458673034
4.399499999999989,0.7915155424256881,-1.9974315904693984,-0.8543683394485082
4.402999999999963,0.8415838026776495,-1.9793220541507053,-0.8554329902922247
4.406499999999994,0.9044365997004692,-1.9505590280778389,-0.8575640373089098
4.409999999999968,0.9545066052816826,-1.9324494917591457,-0.8522372924318231
4.413499999999999,1.018424053148219,-1.922860652848689,-0.8415838026776498
4.416999999999973,1.0631655685230936,-1.9154046062841688,-0.8245406625319252
4.420499999999947,1.1281494125625984,-1.9196649549882876,-0.8053647300402634
4.423999999999978,1.180348719831245,-1.9260563507090904,-0.7893844954090034
4.427499999999952,1.2410704698373796,-1.927122746882059,-0.7712749590903102
4.430999999999983,1.2751602407873328,-1.929252048569492,-0.7606214693361367
4.434499999999957,1.3060543138768843,-1.929252048569492,-0.753165422771617
4.437999999999988,1.3124457095976876,-1.9335141426028624,-0.7467722817215618
4.441499999999962,1.2975318711393964,-1.920729605832004,-0.7489033287382468
4.444999999999993,1.2783559386477346,-1.9239270490216576,-0.7574257714757352
4.448499999999967,1.2176341886415998,-1.9377744913069803,-0.7478386778945303
4.451999999999998,1.15904348565215,-1.928187397725776,-0.727598094559152
4.455499999999972,1.0663630117127474,-1.922860652848689,-0.697768672313317
4.458999999999946,0.9981834698128408,-1.9303184447424608,-0.6668763445530174
4.462499999999977,0.914025438610926,-1.9356451896195477,-0.6466357612176391
4.465999999999951,0.8533036886047914,-1.9420365853403505,-0.6381133184801508
4.469499999999982,0.7797974018277982,-1.966537517379847,-0.6317219227593476
4.472999999999956,0.7212066988383486,-1.9889091477319103,-0.6391779693238674
4.476499999999987,0.6413090163405523,-2.015541126788092,-0.6572875056425604
4.479999999999961,0.5752605214573309,-2.034717059279753,-0.6785944851509074
4.483499999999992,0.4921671410991327,-2.0688068302297067,-0.709488558240459
4.486999999999966,0.433576438109683,-2.093307762269203,-0.7382515843133254
4.490499999999997,0.3632658491930915,-2.118875090481668,-0.7734060061069953
4.493999999999971,0.3270467765557051,-2.140182069990015,-0.7968422873027752
4.497499999999945,0.2908259585890668,-2.158291606308708,-0.8224096155152401
4.500999999999976,0.2737810731140902,-2.160422653325393,-0.8415838026776498
4.50449999999995,0.2641939795328853,-2.134855325112928,-0.8575640373089098
4.507999999999981,0.2588672346557987,-2.109287996900463,-0.8564993864651933
4.511499999999955,0.267389677393287,-2.065611132369305,-0.8447812458673034
4.514999999999986,0.292957005605752,-2.0293903144026664,-0.8266699642193582
4.51849999999996,0.3430252658577133,-1.9814531011673904,-0.7936465894423735
4.521999999999991,0.4069427137242496,-1.947363330217437,-0.7680792612299085
4.525499999999965,0.5145387714511961,-1.9111425122507988,-0.7286627454028686
4.528999999999996,0.6136106411114022,-1.897293324636224,-0.6998997193300021
4.53249999999997,0.7606214693361365,-1.8759880904571289,-0.6647452975363323
4.5359999999999445,0.8671511308901145,-1.8632035536862703,-0.6413090163405525
4.539499999999975,1.006705912550329,-1.8450940173675776,-0.605088198373914
4.5429999999999495,1.0972553394730469,-1.837637970803058,-0.5795208701614492
4.5464999999999804,1.1952625582895366,-1.830180178909286,-0.5422354013510943
4.5499999999999545,1.2474618655581828,-1.832311225925971,-0.5145387714511963
4.5534999999999854,1.2943361732789944,-1.834440527613404,-0.4729912086074713
4.55699999999996,1.315641407458089,-1.834440527613404,-0.4516859744283765
4.560499999999991,1.3103146625810027,-1.825918084875916,-0.425053995372195
4.5639999999999645,1.2868783813852227,-1.81739738746768,-0.4080091098972184
4.567499999999996,1.2623774493457265,-1.8088749447301915,-0.3845728287014385
4.5709999999999695,1.237874771976978,-1.809939595573908,-0.3728546881035486
4.5745000000000005,1.21017814207708,-1.8110042464176244,-0.355809802628572
4.577999999999975,1.1973936053062215,-1.8184620383113963,-0.3515477085952018
4.581499999999949,1.192066860429135,-1.8365715746300892,-0.3440916620306821
4.58499999999998,1.1878065117250165,-1.8482897152279791,-0.3345028231202252
4.588499999999954,1.1771530219708433,-1.857878554138436,-0.3515477085952018
4.5919999999999845,1.1579770894791817,-1.8600078558258688,-0.3685925940701784
4.595499999999959,1.1004510373334486,-1.853616460105066,-0.4037470158638482
4.5989999999999895,1.032273240762794,-1.852551809261349,-0.4367721359700849
4.602499999999964,0.9044365997004692,-1.8632035536862703,-0.4761869064678729
4.6059999999999945,0.7893844954090031,-1.8727923925967276,-0.503885281697023
4.609499999999969,0.6274598287259773,-1.8951640229487907,-0.5369104018032596
4.613,0.5081473757303928,-1.9090114652341137,-0.5550199381219528
4.616499999999974,0.3472873598910834,-1.931383095586177,-0.5901743599156226
4.619999999999948,0.2269085107225305,-1.9590814708153272,-0.6093502924072843
4.623499999999979,0.0809623333415127,-2.0070186840506032,-0.6338512244467807
4.626999999999953,-0.021305234179095,-2.044304152860958,-0.6466357612176391
4.630499999999984,-0.1352926876268446,-2.109287996900463,-0.6594185526592456
4.633999999999958,-0.2077325782308693,-2.160422653325393,-0.6615495996759307
4.637499999999989,-0.2695207244099726,-2.2328625439294174,-0.6572875056425604
4.640999999999963,-0.2961527034661541,-2.285061851198064,-0.6498314590780407
4.644499999999994,-0.2993484013265557,-2.342587903343797,-0.6349176206197492
4.647999999999968,-0.2727164222703742,-2.387331164047924,-0.6242641308655758
4.651499999999999,-0.213059323107956,-2.4427261691769715,-0.605088198373914
4.654999999999973,-0.1502065260851363,-2.4842719866914447,-0.5880433128989375
4.658499999999947,-0.0415458175144733,-2.550320481574666,-0.5678027295635593
4.661999999999978,0.0458079115478428,-2.596128393122509,-0.5528888911052677
4.665499999999952,0.1672514115601122,-2.646198398703723,-0.5347793547865746
4.668999999999983,0.2492801410745938,-2.679221773480708,-0.5187991201553145
4.672499999999957,0.3547434064556031,-2.7250296850285505,-0.4996249329929048
4.675999999999988,0.4346410889533995,-2.7644462008555903,-0.4793843496575265
4.679499999999962,0.5411707505073774,-2.8081230653867486,-0.4506213235846599
4.682999999999993,0.6231994800218589,-2.842212836336702,-0.4378367868138015
4.686499999999967,0.7265316983861833,-2.87417156026997,-0.4122694586013365
4.689999999999998,0.8011026360068929,-2.8912164457449467,-0.3994866671597301
4.693499999999972,0.8692821779067994,-2.902934586342836,-0.3856374795451551
4.696999999999946,0.8959141569629808,-2.917848424801128,-0.3792460838243518
4.700499999999977,0.8937848552755477,-2.9327622632594195,-0.369657244913895
4.703999999999951,0.8682175270630829,-2.9380890081365063,-0.3653968962097769
4.707499999999982,0.8117561257610663,-2.94874249789068,-0.3611348021764067
4.710999999999956,0.7542300736153332,-2.9540692427677664,-0.3611348021764067
4.714499999999987,0.6711366932571352,-2.953002846594798,-0.3685925940701784
4.717999999999961,0.5997614534968271,-2.939153658980223,-0.3877685265618402
4.721499999999992,0.4964292351325028,-2.9146527269407265,-0.4303807402492817
4.724999999999966,0.3973556201430447,-2.8912164457449467,-0.4740576047804398
4.728499999999997,0.243953396197507,-2.8571266747949933,-0.5369104018032596
4.731999999999971,0.1107900102580957,-2.827297252549158,-0.5741958706136145
4.735499999999945,-0.0681795418999068,-2.791078179911772,-0.6114795940947174
4.738999999999976,-0.197079088476696,-2.755923758118102,-0.6338512244467807
4.74249999999995,-0.3579391043160054,-2.726094335872267,-0.6498314590780407
4.745999999999981,-0.4527506252720933,-2.690939914078597,-0.6540918077821589
4.749499999999955,-0.5369104018032599,-2.661112237162014,-0.6562228547988439
4.752999999999986,-0.5678027295635596,-2.633413861932864,-0.6540918077821589
4.75649999999996,-0.5678027295635596,-2.6078465337203998,-0.6466357612176391
4.759999999999991,-0.5443664483677797,-2.5865412995413046,-0.644504714200954
4.763499999999965,-0.4879067923950151,-2.56097397132884,-0.6434400633572375
4.766999999999996,-0.4367721359700853,-2.5449937366975792,-0.6434400633572375
4.77049999999997,-0.3600701513326905,-2.527950596551855,-0.6338512244467807
4.773999999999944,-0.305739797047359,-2.5215574555018,-0.6210684330051742
4.777499999999975,-0.2269085107225311,-2.518361757641398,-0.6018925005135125
4.780999999999949,-0.1779049013142863,-2.5194281538143666,-0.5837829641948193
4.78449999999998,-0.1182478021518681,-2.510905711076878,-0.5646070317031576
4.787999999999954,-0.0809623333415132,-2.508774664060193,-0.5507578440885826
4.791499999999985,-0.04687256239156,-2.4949254764456184,-0.533712958613606
4.794999999999959,-0.0255673282124652,-2.4853383828644136,-0.5305172607532044
4.79849999999999,-0.0266319790561817,-2.466162450372752,-0.5294526099094878
4.801999999999964,-0.0362208179666386,-2.453379658931145,-0.5401060996636612
4.805499999999995,-0.0767019846373951,-2.4246166328582786,-0.5401060996636612
4.808999999999969,-0.1129210572747814,-2.397982908472845,-0.5443664483677794
4.8125,-0.171513505593483,-2.363893137522892,-0.5496931932448661
4.815999999999974,-0.2056015312141842,-2.326609414041789,-0.5507578440885826
4.819499999999948,-0.2322352555996177,-2.270148012739772,-0.5518242402615512
4.822999999999979,-0.240757698337106,-2.227535799052331,-0.5646070317031576
4.826499999999953,-0.2375620004767044,-2.1806632366607714,-0.5837829641948193
4.829999999999984,-0.2247774637058459,-2.152964861431621,-0.5965657556364258
4.833499999999958,-0.1928187397725778,-2.1284639293921246,-0.6189373859884891
4.836999999999989,-0.159795364995593,-2.113548345604581,-0.630655526586379
4.840499999999963,-0.116116755135183,-2.1103526477441794,-0.6370469223071823
4.843999999999994,-0.090549426922718,-2.1103526477441794,-0.6487650629050722
4.847499999999968,-0.0660484948832216,-2.11461474177755,-0.6562228547988439
4.850999999999999,-0.0660484948832216,-2.1220707883420697,-0.6668763445530174
4.854499999999973,-0.0948115209560882,-2.132724278096243,-0.6711366932571355
4.857999999999947,-0.129965942749758,-2.146573465710818,-0.6722030894301041
4.861499999999978,-0.1949497867892629,-2.168945096062881,-0.6690056462404504
4.864999999999952,-0.2482137449016258,-2.1870546323815745,-0.6668763445530174
4.868499999999983,-0.321720031678619,-2.219013356314843,-0.6604849488322142
4.871999999999957,-0.3728546881035489,-2.236058241789819,-0.6583539018155291
4.875499999999988,-0.4303807402492819,-2.259494522985599,-0.6583539018155291
4.878999999999962,-0.4655351620429518,-2.2722790597564577,-0.6647452975363323
4.882499999999993,-0.499624932992905,-2.289322199902182,-0.670072042413419
4.885999999999967,-0.5092120265741099,-2.3031713875167568,-0.6817901830113089
4.889499999999998,-0.5134723752782281,-2.331934413589624,-0.709488558240459
4.892999999999972,-0.5081473757303934,-2.350045695237569,-0.7297291415758372
4.896499999999946,-0.4911024902554167,-2.3809380229978685,-0.7702103082465936
4.899999999999977,-0.4644687658699832,-2.419289887981192,-0.7968422873027752
4.903499999999951,-0.416531552634707,-2.4725538460935548,-0.8319967090964449
4.906999999999982,-0.3643322453660607,-2.5204928046580832,-0.8575640373089098
4.910499999999956,-0.2876302607286659,-2.5886723465579893,-0.8841960163650913
4.913999999999987,-0.2237128128621295,-2.6355449089495493,-0.905502995873438
4.917499999999961,-0.1320969897664431,-2.7015934038327707,-0.9342660219463046
4.920999999999992,-0.0692441927436233,-2.7527280602577004,-0.952375558264998
4.924499999999966,0.0063913957208028,-2.8166455081242368,-0.9779428864774626
4.927999999999997,0.0607217500061343,-2.8635180705157968,-0.9885963762316362
4.931499999999971,0.1118564064310642,-2.9263708675386164,-1.000314516829526
4.934999999999945,0.1416840833476473,-2.9700477320697747,-1.0035102146899275
4.938499999999976,0.1480754790684505,-3.010528898740531,-1.000314516829526
4.94199999999995,0.1406194325039307,-3.041422971830083,-1.000314516829526
4.945499999999981,0.1086607085706625,-3.061663555165461,-0.9896610270753528
4.948999999999955,0.0490036094082444,-3.0648592530258623,-0.9939213757794708
4.952499999999986,-0.060721750006135,-3.061663555165461,-1.0035102146899275
4.95599999999996,-0.1704471094205145,-3.052076461584256,-1.002443818516959
4.959499999999991,-0.3440916620306825,-3.0211823884947044,-0.9992481206565574
4.962999999999965,-0.4793843496575269,-2.991354711578121,-0.9907256779190692
4.966499999999996,-0.6647452975363326,-2.9466114508739945,-0.9768764903044942
4.96999999999997,-0.7936465894423739,-2.9114570290803248,-0.972616141600376
4.9734999999999445,-0.9470488133879114,-2.8592577218116784,-0.9811385843378644
4.976999999999975,-1.031206844589826,-2.827297252549158,-0.9917920740920376
4.9804999999999495,-1.0972553394730475,-2.785751435034685,-1.0290775429023926
4.9839999999999804,-1.0993863864897326,-2.7644462008555903,-1.0727544074335509
4.9874999999999545,-1.0471870792210862,-2.746334919207645,-1.1409322040042051
4.9909999999999854,-0.9726161416003763,-2.746334919207645,-1.192066860429135
4.99449999999996,-0.825605313375642,-2.7548573619451338,-1.25705070446864
4.997999999999991,-0.6988350684862858,-2.7633798046826223,-1.29646722029568
5.0014999999999645,-0.5092120265741099,-2.775097945280512,-1.3390776886538696
5.004999999999996,-0.3685925940701788,-2.791078179911772,-1.3625139698496491
5.0084999999999695,-0.1853609478788061,-2.804927367526347,-1.3827562985142796
5.011999999999944,-0.0660484948832217,-2.8166455081242368,-1.383820949357996
5.015499999999975,0.0639174478665359,-2.824101554688757,-1.383820949357996
5.018999999999949,0.1395530363309622,-2.8294282995658437,-1.3731674596038226
5.02249999999998,0.2013411825100655,-2.827297252549158,-1.3454708297039246
5.025999999999954,0.2247774637058453,-2.836886091459615,-1.3220328031788928
5.0294999999999845,0.2322352555996171,-2.836886091459615,-1.2836826835248214
5.032999999999959,0.2183860679850421,-2.840081789320017,-1.253855006608238
5.0364999999999895,0.1874919948954904,-2.849668882901222,-1.2165695377978836
5.039999999999964,0.1597953649955924,-2.85819132563871,-1.1846108138646152
5.0434999999999945,0.107594312397694,-2.867780164549167,-1.1558477877917488
5.046999999999969,0.0681795418999061,-2.8752362111136867,-1.1494546467416935
5.0505,-0.0117181405978902,-2.8731051640970016,-1.1590434856521503
5.053999999999974,-0.0777666354811116,-2.866713768376198,-1.176088371127127
5.057499999999948,-0.1992101354933811,-2.856060278622025,-1.2069806988874263
5.060999999999979,-0.2940216564494691,-2.84647318504082,-1.2304187254124583
5.064499999999953,-0.4335764381096836,-2.8475378358845367,-1.2794223348207032
5.067999999999984,-0.5379750526469764,-2.854995627778308,-1.3188371053184913
5.071499999999958,-0.6658099483800491,-2.8826940030074586,-1.3721028087601062
5.074999999999989,-0.7371851881403573,-2.9210441226615296,-1.4189753711516655
5.078499999999963,-0.8096250787443819,-2.974309826103145,-1.4786324703140838
5.081999999999994,-0.8405191518339336,-3.0329005290925943,-1.5244403818619272
5.085499999999968,-0.8511726415881069,-3.101080070992501,-1.5745086421138883
5.088999999999999,-0.8426501988506185,-3.1575397269652656,-1.6181855066450466
5.092499999999973,-0.8021690321798622,-3.223588221848487,-1.6554709754554016
5.095999999999947,-0.7755353077944288,-3.26939613339633,-1.6895607464053546
5.099499999999978,-0.7350541411236723,-3.312008347083772,-1.7268462152157096
5.102999999999952,-0.7180110009779477,-3.3343799774358347,-1.7428264498469697
5.106499999999983,-0.7137489069445775,-3.3450317218607566,-1.7609359861656628
5.109999999999957,-0.7222713496820659,-3.34396707101704,-1.7662627310427494
5.113499999999988,-0.7563611206320191,-3.3258575346983466,-1.752413543428175
5.116999999999962,-0.7968422873027756,-3.313072997927488,-1.7364333087969146
5.120499999999993,-0.8650218292026821,-3.283245321010905,-1.7098013297407328
5.123999999999967,-0.92041683433173,-3.2544822949380383,-1.695952142126158
5.127499999999998,-0.9939213757794712,-3.20654333637351,-1.677842605807465
5.130999999999972,-1.0439913813606845,-3.161801820998636,-1.6735822571033467
5.134499999999946,-1.0876682458918427,-3.101080070992501,-1.6639934181928897
5.137999999999977,-1.110039876243906,-3.0574014611320908,-1.6533416737679685
5.141499999999951,-1.105777782210536,-2.99561506028224,-1.649079579734598
5.144999999999982,-1.0908639437522445,-2.947676101717711,-1.648014928890882
5.148499999999956,-1.0418603343439996,-2.8954767944490647,-1.6533416737679685
5.151999999999987,-0.9822032351815811,-2.861387023499112,-1.6629287673491733
5.155499999999961,-0.8724778757672017,-2.830494695738812,-1.6821046998408349
5.158999999999992,-0.7659482142132238,-2.8177101589679534,-1.7023452831762131
5.162499999999966,-0.6040235475301978,-2.8155791119512683,-1.725781564371993
5.165999999999997,-0.4825800475179284,-2.8134498102638354,-1.7428264498469697
5.169499999999971,-0.3653968962097772,-2.8166455081242368,-1.7609359861656628
5.172999999999945,-0.2269085107225311,-2.821972253001324,-1.7843722673614426
5.176499999999976,-0.1182478021518681,-2.8177101589679534,-1.8120706425905928
5.17999999999995,-0.0575260521457334,-2.8102541124034337,-1.8323112259259708
5.183499999999981,-0.0106534897541737,-2.798535971805544,-1.8461604135405456
5.186999999999955,0.0308940730895512,-2.791078179911772,-1.8546811109487824
5.190499999999986,0.0447432607041262,-2.779360039313882,-1.857878554138436
5.19399999999996,0.0362208179666379,-2.751661664084732,-1.8472250643842625
5.197499999999991,0.0138491876145746,-2.716507242291062,-1.8365715746300888
5.200999999999965,-0.0436768645311584,-2.652589794424526,-1.8046128506968209
5.204499999999996,-0.1012029166768915,-2.6014551379995963,-1.771589475919836
5.20799999999997,-0.1949497867892629,-2.5258195495351696,-1.7161927254615363
5.211499999999944,-0.2780431671474609,-2.4725538460935548,-1.6714512100866616
5.214999999999975,-0.3952245731263602,-2.409701049070735,-1.6107294600805269
5.218499999999949,-0.4911024902554167,-2.36495953369586,-1.575575038286857
5.22199999999998,-0.6285244795696944,-2.294648944779269,-1.5468120122139906
5.225499999999954,-0.7275980945591523,-2.233927194773134,-1.5404188711639353
5.228999999999985,-0.843714849694335,-2.155095908448306,-1.5382895694765022
5.232499999999959,-0.90869869373384,-2.1007655541629746,-1.5489413139014236
5.23599999999999,-0.964093698862888,-2.0219342678381467,-1.5766396891305736
5.239499999999964,-0.9715514907566596,-1.9729306584299016,-1.6096630639075584
5.242999999999995,-0.9331996257733364,-1.923927049021657,-1.6629287673491733
5.246499999999969,-0.88100031850469,-1.8919665797591367,-1.7012788870032447
5.25,-0.7670146103861922,-1.8674656477196407,-1.752413543428175
5.253499999999974,-0.663680646692616,-1.8514854130883809,-1.7833076165177262
5.256999999999948,-0.5028206308533066,-1.8365715746300888,-1.811004246417624
5.260499999999979,-0.377115036807667,-1.8312448297530024,-1.825918084875916
5.263999999999953,-0.2056015312141842,-1.829115528065569,-1.8333758767696875
5.267499999999984,-0.0788312863248281,-1.8216577361717976,-1.8376379708030577
5.270999999999958,0.0724398906040244,-1.818462038311396,-1.825918084875916
5.274499999999989,0.1736428072809156,-1.8237887831884827,-1.816330991294711
5.277999999999963,0.2854992137119802,-1.829115528065569,-1.7982214549760178
5.281499999999994,0.3504830577514851,-1.829115528065569,-1.7801119186573249
5.284999999999968,0.4122694586013363,-1.8323112259259708,-1.7470867985510878
5.288499999999999,0.4335764381096831,-1.841898319507176,-1.7225858665115914
5.291999999999973,0.4399678338304864,-1.8568121579654675,-1.684234001528268
5.295499999999947,0.4197272504951081,-1.8727923925967276,-1.6597330694887715
5.298999999999978,0.3515477085952016,-1.8919665797591367,-1.6416217878408266
5.302499999999952,0.2748474692870588,-1.903686465686279,-1.6320346942596218
5.305999999999983,0.1299659427497575,-1.9122071630945157,-1.626707949382535
5.309499999999957,-2.336560959186589e-16,-1.9079468143903973,-1.6224476006784168
5.312999999999988,-0.1896230419121761,-1.894097626775822,-1.6256432985388185
5.316499999999962,-0.3387649171535956,-1.8845105331946173,-1.6309700434159051
5.319999999999993,-0.5241258650324014,-1.860007855825869,-1.648014928890882
5.323499999999967,-0.6562228547988441,-1.8514854130883809,-1.6671891160532917
5.326999999999998,-0.7947112402860903,-1.8355069237863724,-1.706605631880331
5.330499999999972,-0.8692821779068,-1.8216577361717976,-1.7311083092490798
5.333999999999946,-0.936395323633738,-1.8046128506968209,-1.769458428903151
5.337499999999977,-0.9545066052816832,-1.7907636630822457,-1.7971568041323012
5.340999999999951,-0.9300039279129348,-1.7779808716406391,-1.822722387015514
5.344499999999982,-0.8799356676609734,-1.772654126763553,-1.8365715746300888
5.347999999999956,-0.7691439120736253,-1.7598713353219464,-1.8397672724904908
5.351499999999987,-0.6668763445530176,-1.7513488925844578,-1.8333758767696875
5.354999999999961,-0.5124077244345114,-1.739630751986568,-1.8237887831884827
5.358499999999992,-0.3984202709867618,-1.7364333087969146,-1.8173973874676796
5.361999999999966,-0.2514094427620274,-1.7225858665115914,-1.8078085485572224
5.365499999999997,-0.1565979218059394,-1.7087366788970164,-1.792894710098931
5.368999999999971,-0.0458079115478433,-1.686365048544953,-1.7683920327301823
5.372499999999945,0.0170448854749764,-1.6607977203324882,-1.7481531947240565
5.375999999999976,0.0820287295144813,-1.61712085580133,-1.705540981036615
5.37949999999995,0.115052104291466,-1.5819664340076602,-1.6714512100866616
5.382999999999981,0.1331616406101591,-1.5350921262868489,-1.61712085580133
5.386499999999955,0.1299659427497575,-1.4999377044931788,-1.573443991270172
5.389999999999986,0.1001382658331744,-1.453065142101619,-1.5084601472306671
5.39349999999996,0.0575260521457329,-1.4168443241349806,-1.4701100275765957
5.396999999999991,-0.0149138384582917,-1.3752985066205077,-1.4147150224475475
5.400499999999965,-0.0916158230956865,-1.3529268762684443,-1.3848856002017127
5.403999999999996,-0.1992101354933809,-1.3294905950726643,-1.3465354805476413
5.40749999999997,-0.2908259585890673,-1.3230991993518617,-1.3230991993518617
5.4109999999999445,-0.3994866671597302,-1.3081853608935698,-1.300727568999798
5.414499999999975,-0.4729912086074714,-1.2954008241227113,-1.286878381385223
5.4179999999999495,-0.5571509851386379,-1.28048698566442,-1.2762248916310497
5.4214999999999804,-0.6029588966864811,-1.2762248916310497,-1.2740955899436164
5.4249999999999545,-0.6359822714634659,-1.2634421001894431,-1.284747334368538
5.4284999999999854,-0.6498314590780409,-1.259181751485325,-1.2954008241227113
5.43199999999996,-0.6477004120613558,-1.2645067510331598,-1.3188371053184913
5.435499999999991,-0.6359822714634659,-1.2698334959102464,-1.3433397826872395
5.4389999999999645,-0.6189373859884892,-1.275160240787333,-1.369971761743421
5.442499999999996,-0.6008278496697961,-1.2858137305415065,-1.395539089955886
5.4459999999999695,-0.5837829641948195,-1.2879447775581916,-1.4221710690120672
5.449499999999944,-0.5773915684740162,-1.2911404754185931,-1.4445426993641308
5.452999999999975,-0.5827165680218509,-1.2879447775581916,-1.4701100275765957
5.456499999999949,-0.5923054069323077,-1.289009428401908,-1.4786324703140838
5.45999999999998,-0.6295908757426626,-1.2858137305415065,-1.4882195638952889
5.463499999999954,-0.6658099483800489,-1.2815516365081363,-1.4956773557890606
5.4669999999999845,-0.7286627454028687,-1.2794223348207032,-1.483959215191171
5.470499999999959,-0.7893844954090035,-1.273029193770648,-1.4711746784203124
5.4739999999999895,-0.8820667146776583,-1.25705070446864,-1.4424116523474455
5.477499999999964,-0.9598333501587696,-1.2421368660103482,-1.413648626274579
5.4809999999999945,-1.0738190582772675,-1.2208298865020015,-1.358253621145531
5.484499999999969,-1.162239183512552,-1.202720350183308,-1.310314662581003
5.488,-1.2772912878040186,-1.1856754647083316,-1.231483376256175
5.491499999999974,-1.3667760638830198,-1.17821767281456,-1.1696952300770718
5.494999999999948,-1.474370376280714,-1.1675659283896385,-1.0780811523106375
