time,Gyr_X,Gyr_Y,Gyr_Z
0.0,0.0084749526165104,-0.003152779422279,0.0001878947867993
0.0099999999999909,0.0162896450349737,-0.0047164762918194,0.0009046329645072
0.0199999999999818,0.0188403627866636,0.0015801710054561,0.0041120872872515
0.0300000000000011,0.026508907912421,-0.000512741023597,0.0032470528475038
0.039999999999992,0.0269868506526886,0.0032481207745955,0.006414965960386
0.0499999999999829,0.0208664505115923,-0.0011982886391604,0.0087507344726153
0.0600000000000022,0.0193551108311936,0.001210627904498,0.0134248356768773
0.0699999999999931,0.024348566703194,0.0060366054785389,0.0151269264128426
0.079999999999984,0.0377587823508825,0.0060413393145253,0.0222865913677779
0.0900000000000034,0.0408556367247716,0.0068037834694005,0.0189888160614821
0.0999999999999943,0.0384511870074869,0.0041198559594742,0.0303769122795493
0.1099999999999852,0.0354235636932996,0.0030291206763911,0.0337566103408348
0.1200000000000045,0.0169406992415068,0.0065139603186323,0.0298281286044095
0.1299999999999954,0.0158303327079556,0.0048893716919278,0.027136580097327
0.1399999999999863,0.015120891210896,0.0049302116160322,0.0188636427151673
0.1500000000000056,0.0127609990832877,0.0071888707442558,0.0180987896682904
0.1599999999999966,0.0002185727558802,0.0102895778269285,0.0146752036516119
0.1699999999999875,0.003786636110674,0.0050034735038276,0.0082082607930542
0.1799999999999784,0.007338930938051,0.0051877164987554,0.017289998031684
0.1899999999999977,-0.011708632873484,-0.0022667871664683,0.0122433603595282
0.1999999999999886,0.001528938642034,-0.0058570213792488,0.0134602503390872
0.2099999999999795,-0.0015197308012046,-1.8090092613911977e-05,0.0152447427117854
0.2199999999999988,0.0052102986456159,-0.0051775982353887,0.0059063343297243
0.2299999999999897,0.00799642256452,-0.0035771207146705,0.0072723875766758
0.2399999999999806,0.0150402126781009,-0.0043409422915205,0.0080909791220863
0.25,0.0165358892459471,-0.0018189771046706,0.007085713142999
0.2599999999999909,0.0139966458420875,-0.0075673008106831,0.0050980540892275
0.2699999999999818,0.0110055326408672,-0.0007055554943802,0.0060931087845092
0.2800000000000011,0.0161460470947974,-0.0112705182686323,0.0065730262875346
0.289999999999992,0.0176333420450558,-0.0245371457054452,0.0055822690955894
0.2999999999999829,0.0194607982891211,-0.019247358082721,0.0082317036886782
0.3100000000000023,0.0368776273419714,-0.0161766780365658,0.0110061437429083
0.3199999999999932,0.0522520132692646,-0.0066811183377874,0.0119211216644046
0.3299999999999841,0.0634301219754072,-0.0079267420223998,0.0083691213840781
0.3400000000000034,0.0673747015849277,-0.0052454961010752,0.021021089020802
0.3499999999999943,0.0666272408704194,-0.0095384226843863,0.0091023430082601
0.3599999999999852,0.0541698942749788,-0.0168479777399334,0.0081431974603622
0.3700000000000045,0.0441783035860828,-0.0139312422120737,0.0014829439692561
0.3799999999999954,0.0196619107720633,-0.0166106748508228,-0.0046651192791733
0.3899999999999863,0.0120447938629655,-0.0155632480840193,-0.0144646274667621
0.4000000000000057,-0.0032064439786117,-0.0138922705215988,-0.0203512984916129
0.4099999999999966,-0.0094293330214857,-0.0130194187485139,-0.0225550519647201
0.4199999999999875,-0.0085630163723107,-0.0130436217189436,-0.0252821091069228
0.4299999999999784,-0.0033819015211063,-0.0120735850060682,-0.0178152717594874
0.4399999999999977,-0.0117713630757003,-0.0170885809655518,-0.0206302409236411
0.4499999999999886,-0.0081648607138735,-0.0184624312416806,-0.0175296711552539
0.4599999999999795,-0.0113245027529727,-0.0161230089089547,-0.0061811302223865
0.4699999999999988,-0.0040826961400574,-0.0158590957110637,0.0042191595197719
0.4799999999999897,-0.0014873188491003,-0.0110121876666599,0.0072414644321061
0.4899999999999807,-0.0103843292137243,-0.0114554785183476,0.008414765557198
0.5,-0.0108975585340773,-0.0126906359601071,0.013863056202519
0.5099999999999909,-0.0087945864315821,-0.0124774978645776,0.0197745710840996
0.5199999999999818,-0.0077028333422049,-0.017343114227209,0.0266740280208212
0.5300000000000011,-0.0005692160734748,-0.0183450028201373,0.0272697325603777
0.539999999999992,-0.004372607942948,-0.0219693520360676,0.0282068041116378
0.549999999999983,-0.0071149821202491,-0.0239044602988062,0.0287367786910811
0.5600000000000023,0.01322613140303,-0.026873794439504,0.0276897660746683
0.5699999999999932,0.0144566040629902,-0.0244516782617724,0.0286460026981013
0.5799999999999841,0.0164248570440934,-0.0178797551262173,0.0275547521258207
0.5900000000000034,0.0332003337073653,-0.0197255617231806,0.0189939419148238
0.5999999999999943,0.0564403079881006,-0.0182448688985594,0.0137908055489255
0.6099999999999852,0.0678863698536448,-0.0182319303757043,0.0069314683882044
0.6200000000000045,0.0663732904796421,-0.0166891649745858,0.01032540937137
0.6299999999999955,0.0673068270589717,-0.015042754082781,0.0155224828755877
0.6399999999999864,0.0670203664229631,-0.0179277903165542,0.0223027036794044
0.6500000000000057,0.0683596852063548,-0.0129954016210945,0.0267059708231092
0.6599999999999966,0.0759776934969912,-0.0123294272268896,0.0332398641861628
0.6699999999999875,0.0843998887915699,-0.0204822803334028,0.0339537939881564
0.6799999999999784,0.0905577799523574,-0.0135468371166793,0.0337366893508052
0.6899999999999977,0.0902176797387132,-0.0115456879642022,0.0329423711030871
0.6999999999999886,0.0896240174258683,-0.0201370470157293,0.0321906323158911
0.7099999999999795,0.0888298893985618,-0.0128277738141323,0.0339806383879785
0.7199999999999989,0.1066610870708899,-0.0101521294822473,0.03447953192228
0.7299999999999898,0.1191898560818826,-0.0094236104452426,0.0345432185169985
0.7399999999999807,0.133085362778518,-0.0139401898996622,0.0344296391701071
0.75,0.1498979999285841,-0.0102299715231288,0.0324674412443804
0.7599999999999909,0.1669605912914201,-0.0115767885596776,0.030165758121702
0.7699999999999818,0.1599955119165797,-0.0105203081536957,0.0357902829332333
0.7800000000000011,0.1418593236167498,-0.0166440920742973,0.0333598941632729
0.789999999999992,0.1432956435715397,-0.0202354820794712,0.04143488454515
0.799999999999983,0.1235755176938639,-0.0359367929835457,0.0539911861385499
0.8100000000000023,0.1174847830653937,-0.0408561688662831,0.062650984609677
0.8199999999999932,0.1191102994024613,-0.0475375780174695,0.0636507486636283
0.8299999999999841,0.1204337659951079,-0.0481496267038173,0.0767385482969019
0.8400000000000034,0.1410620007302065,-0.0479867257717848,0.0833837836909994
0.8499999999999943,0.1465721359935539,-0.042530377867343,0.0876107493393536
0.8599999999999852,0.1435190619766007,-0.0466823055065482,0.0885463701348287
0.8700000000000045,0.1554920928565914,-0.049764188411459,0.0849542252263989
0.8799999999999955,0.1536376433459277,-0.0416821511666916,0.0780117748800626
0.8899999999999864,0.1521408289850086,-0.0394535854770891,0.0690187630671044
0.9000000000000057,0.1479111138758744,-0.0338644349320671,0.0608915945162213
0.9099999999999966,0.1436204129180065,-0.0342772013609313,0.0618677929034305
0.9199999999999876,0.138221751550945,-0.0199009257615448,0.0592244266692718
0.9299999999999784,0.1146368831189753,-0.0224789717219262,0.0493388260889757
0.9399999999999976,0.0832609474992957,-0.0149962892583048,0.0460066722236983
0.9499999999999886,0.0634623266609006,-0.0143939736209546,0.041415262075294
0.9599999999999796,0.0434499212844182,-0.0061540084760484,0.0417292432636869
0.9699999999999988,0.0138840465266565,4.606451733399037e-05,0.0424527522850798
0.9799999999999898,-0.0079759438018318,0.0055313699018129,0.0471348436854744
0.9899999999999808,-0.0336818082197545,0.0044809511312642,0.0448842218920913
1.0,-0.0545145383713446,0.0071958108140451,0.044307125405298
1.009999999999991,-0.0761980365113961,0.0081399065533884,0.0528575197416063
1.0199999999999818,-0.1028058287950676,-0.0022015483119505,0.0560887411422437
1.0300000000000011,-0.1197345698763952,-0.0079696329485838,0.0571529834843066
1.039999999999992,-0.135961345065574,-0.015598309313991,0.0582105888733751
1.049999999999983,-0.1378407669595496,-0.0311593894692607,0.0650667698922603
1.0600000000000025,-0.1592085923620997,-0.0384155145556786,0.0729132605702008
1.0699999999999932,-0.1581018930542657,-0.0499199583364792,0.0756663337532692
1.079999999999984,-0.1612757998427802,-0.0579435295635103,0.0762824441552861
1.0900000000000034,-0.1673770981641128,-0.066748116226821,0.0764024621659457
1.0999999999999943,-0.1794841263668298,-0.0792761990943162,0.077602486867949
1.1099999999999852,-0.1874546836070129,-0.0844869273694466,0.072337062304924
1.1200000000000043,-0.1701072592600532,-0.094195366497713,0.0588182419841213
1.1299999999999957,-0.1620779277288314,-0.0917837294876774,0.0414182169491825
1.1399999999999864,-0.1406155148270261,-0.0944731830937992,0.0293605065777752
1.1500000000000057,-0.1182732157301767,-0.1088276287924699,0.0150605417906893
1.1599999999999966,-0.0897692066320276,-0.1188177688218163,0.0086931550912909
1.1699999999999875,-0.0669228236181433,-0.1162049935788112,0.0176205059062785
1.1799999999999784,-0.0343115183272952,-0.1078635063057282,0.0320316693697795
1.1899999999999975,-0.0062260499947204,-0.0967238213340216,0.0420332692745167
1.1999999999999886,0.0257053544134127,-0.0876489468522958,0.0624929373174167
1.2099999999999795,0.0492038505538961,-0.0646649213712434,0.0819534478724145
1.2199999999999989,0.077976762552031,-0.0466506141423794,0.0948275729350356
1.2299999999999898,0.094513700722435,-0.0331765038893448,0.1132638372714828
1.239999999999981,0.094868031796699,-0.010317576858152,0.1160194762951759
1.25,0.0850463789018378,-0.0132938397049002,0.1224236797463696
1.259999999999991,0.0580909726374065,-0.001491293529975,0.1163491997464675
1.2699999999999818,0.012165751996583,-0.0063667842374346,0.1101954525405452
1.2800000000000011,-0.0298971612654408,-0.0077674817003059,0.0905458388052123
1.289999999999992,-0.0720120798072147,0.0017071925766921,0.0825035485829357
1.299999999999983,-0.1153998520802464,0.0227963624384185,0.0676003354082911
1.3100000000000025,-0.148843854755719,0.0375904913513765,0.0527556999157068
1.3199999999999932,-0.1653789556456827,0.0458016967505436,0.042747616027744
1.329999999999984,-0.1641170868013004,0.0730931262247771,0.0280988861461173
1.3400000000000034,-0.1672457349272036,0.0858438226345105,0.0262694665998875
1.3499999999999943,-0.1545588810540571,0.0933227549789778,0.02960194300009
1.3599999999999852,-0.1373191597545525,0.1036693698815044,0.0314978604721114
1.3700000000000043,-0.125533522015092,0.1234194517701889,0.0203339469122444
1.3799999999999957,-0.1264207646383269,0.1253621661874674,0.0148206766428646
1.3899999999999864,-0.1364434797015499,0.1049600686162873,0.0158621989059444
1.4000000000000057,-0.1253159127491371,0.0829198232651431,0.007642663127654
1.4099999999999966,-0.113875035610348,0.0669678099385979,0.0029592891503221
1.4199999999999875,-0.0772393513545922,0.0446798379413626,-0.0161107640914342
1.4299999999999784,-0.0438857205127007,0.0257900626970203,-0.0291916671519235
1.4399999999999975,0.0012379943240001,0.0169770841883449,-0.0433004852371072
1.4499999999999886,0.0376325562560955,0.0092714470184217,-0.0553835555846795
1.4599999999999795,0.080594788209677,0.0028523194047057,-0.0706320536781665
1.4699999999999989,0.1003377614300994,-0.0116647027875332,-0.0785884220993298
1.4799999999999898,0.1156297556417363,-0.0178711859994528,-0.0930022080644995
1.489999999999981,0.1054237289170615,-0.0295133333871955,-0.0935891500707745
1.5,0.0910445573817269,-0.0547807179388537,-0.1012017157523307
1.509999999999991,0.0913791785324302,-0.0652298962351077,-0.1150819183487688
1.5199999999999818,0.0794811624687897,-0.0734339076986724,-0.1165100520731987
1.5300000000000011,0.0887938849679278,-0.0986002747070269,-0.1253655335151828
1.539999999999992,0.1254325639789839,-0.0983572545951729,-0.1225344370855237
1.549999999999983,0.1799053091635855,-0.0886352285677444,-0.1241124481589537
1.5600000000000025,0.2222522914323222,-0.0649556702419318,-0.1061742163857894
1.5699999999999932,0.2500852007059376,-0.0451366653158495,-0.081653535490215
1.579999999999984,0.2631220937909668,-0.0333014782955383,-0.0729123331643933
1.5900000000000034,0.2623035380279206,-0.0196714701945826,-0.0619900756583568
1.5999999999999943,0.2689417311420214,-0.0085285111916816,-0.0584219761894319
1.6099999999999852,0.2563869810821701,0.0089457798346734,-0.0510074810037081
1.6200000000000043,0.2386422993360839,0.0121071273575729,-0.0597179340214788
1.6299999999999957,0.2153933862087584,0.0139693231529218,-0.0540878943326143
1.6399999999999864,0.1973006309410937,0.0083886458734362,-0.0528383884084924
1.6500000000000057,0.1891711348556248,0.0056754633788288,-0.0554726405390181
1.6599999999999966,0.1943925789304734,0.005317300750993,-0.0662335015243513
1.6699999999999875,0.2085491293146902,0.0001678833866833,-0.0677007126330923
1.6799999999999784,0.2293755060078641,-0.0169144896632835,-0.0686808097092449
1.6899999999999975,0.2356615311355575,-0.0119648030521738,-0.0722819167085169
1.6999999999999886,0.220279782986335,-0.0056123174843792,-0.0760852103717647
1.7099999999999795,0.2085672740441174,-0.0257240205730237,-0.0664266451390866
1.7199999999999989,0.20498174606223,-0.0454039101164009,-0.0653888670551768
1.7299999999999898,0.2353343432292002,-0.0517410882617614,-0.0794041242188902
1.739999999999981,0.2503607922459646,-0.0636787699647518,-0.0912095628861477
1.75,0.2665208814956791,-0.0750981804612352,-0.0896230052341762
1.759999999999991,0.2507964827314624,-0.0934480900667614,-0.0866116283769427
1.7699999999999818,0.2409450200816378,-0.1022549362538813,-0.0854799347434199
1.7800000000000011,0.2119327506795683,-0.0972016892052774,-0.0963304220322284
1.789999999999992,0.1947105301809867,-0.1096152593805865,-0.1023654301251271
1.799999999999983,0.1877941611174802,-0.1070808495598595,-0.1189493683306607
1.8100000000000025,0.1787770738037127,-0.1073182499084677,-0.1325143058032426
1.8199999999999927,0.1806954224837065,-0.1129232195774178,-0.1390699917880325
1.829999999999984,0.1773649704184861,-0.1119113359131236,-0.1523395536175148
1.8400000000000036,0.1708736621746272,-0.1097750085480502,-0.1602624730777504
1.8499999999999943,0.1673680671088746,-0.1150313786157339,-0.1732540385179399
1.8599999999999848,0.1457031182140471,-0.1106248365030087,-0.1737717848797864
1.8700000000000043,0.1403917199203008,-0.1000758654316941,-0.1660861669592602
1.8799999999999957,0.1384178819814344,-0.0891830536185555,-0.1734214636515302
1.8899999999999864,0.1366116049463381,-0.0651494843947064,-0.1746459075894883
1.9000000000000057,0.149597194431925,-0.0444615076631029,-0.1825828411511364
1.9099999999999968,0.1507261555394888,-0.0357235371318335,-0.1888523417508898
1.9199999999999875,0.13682100411141,-0.0214022116789193,-0.1947371959214224
1.9299999999999784,0.1139825227416974,-0.0140059783287881,-0.2008972896036745
1.9399999999999975,0.0840504543241133,0.00419234791362,-0.2079769123224811
1.9499999999999889,0.03704189490117,0.0115542591314443,-0.2208214414651675
1.9599999999999795,-0.0180686860628402,0.026713875295283,-0.2211182350774109
1.9699999999999989,-0.0764121115313647,0.0346556325593392,-0.2233647115916458
1.9799999999999895,-0.129717668192221,0.0348008187389507,-0.2378674837503176
1.989999999999981,-0.1713789445808114,0.0520020122502979,-0.2591503435706939
2.0,-0.2083117155914132,0.0532042301952761,-0.2807770456546331
2.009999999999991,-0.23924495194709,0.0637486687246176,-0.2877612084156769
2.019999999999982,-0.2791256065078594,0.063620990869984,-0.3050785989730972
2.030000000000001,-0.3235271846010177,0.0549419511989507,-0.3151524400729434
2.039999999999992,-0.3546399135853826,0.0418405520381205,-0.3152652351807568
2.049999999999983,-0.3786902826385741,0.0274859935306018,-0.328862091292458
2.0600000000000023,-0.3928306520955198,0.0100874346087143,-0.3494937655458532
2.069999999999993,-0.3756092237867641,-0.0145635686869313,-0.3620791962829925
2.079999999999984,-0.3652518491732311,-0.0401959941679793,-0.3722286521996306
2.0900000000000034,-0.3388287884927557,-0.0628816579896086,-0.3863337683530605
2.0999999999999943,-0.2992812299782641,-0.0808382368439428,-0.4061408348175664
2.109999999999985,-0.249209700590462,-0.0928442585177383,-0.4155018527331781
2.1200000000000045,-0.2215727650281987,-0.1068302825047955,-0.424219224841063
2.1299999999999955,-0.1984561693816948,-0.1161271597010535,-0.4310392756126057
2.1399999999999864,-0.1721728407467458,-0.1376713951571509,-0.4373688247474958
2.1500000000000057,-0.1632514030594694,-0.147890634531624,-0.4412235178029927
2.1599999999999966,-0.1411662902815634,-0.165345968650758,-0.4413614319819516
2.1699999999999875,-0.123651770434357,-0.1711377398702567,-0.4402567054621985
2.1799999999999784,-0.1018133915636826,-0.1754091540190834,-0.4456245641190443
2.1899999999999977,-0.0786974985193968,-0.1907315941543316,-0.4499769438106977
2.1999999999999886,-0.0331622415986353,-0.2035560306799264,-0.4384765046796425
2.2099999999999795,-0.0075471433802534,-0.2230138467213065,-0.4174392181796867
2.219999999999999,0.0148160354367861,-0.23425085139905,-0.4080722755696808
2.2299999999999898,0.0399551074451468,-0.2541483067158245,-0.3978499571938742
2.2399999999999807,0.0540435501723978,-0.2743823521734234,-0.3782634222289228
2.25,0.0616336625385902,-0.2881288158243914,-0.3645621079989443
2.259999999999991,0.0415684281123395,-0.3062064662684175,-0.3555619647917037
2.269999999999982,-0.0031100514609115,-0.3161939407530427,-0.3592702804269979
2.280000000000001,-0.0442166309780045,-0.3287637914119089,-0.3486763641006624
2.289999999999992,-0.0958987640205737,-0.3494237471923226,-0.3279405673271955
2.299999999999983,-0.1402814718381992,-0.349436503274911,-0.3107550200279464
2.3100000000000023,-0.181359895074875,-0.3517763372035205,-0.3015187389463721
2.319999999999993,-0.2104179098773117,-0.3499142605093752,-0.2995029005682154
2.329999999999984,-0.2312529608484222,-0.3417211445801066,-0.3027501202321291
2.3400000000000034,-0.2423247332704169,-0.329994572063709,-0.2978378746133642
2.3499999999999943,-0.2508435298859389,-0.312351230368248,-0.2817425454596809
2.359999999999985,-0.2671511926693387,-0.289472593711133,-0.2575213890244385
2.3700000000000045,-0.2779299222054349,-0.2541100269676635,-0.2391606472652662
2.3799999999999955,-0.3065878531203028,-0.2335203112481802,-0.2092281385416778
2.3899999999999864,-0.3373496602942693,-0.214164011837456,-0.1890647840617323
2.4000000000000057,-0.3602386154430239,-0.1960974680675992,-0.1684778060994405
2.4099999999999966,-0.3930496599214602,-0.1774241521473442,-0.1520008797882996
2.4199999999999875,-0.4102697522298396,-0.1662134207917303,-0.1399994297902371
2.4299999999999784,-0.4284559137487195,-0.1648194745651451,-0.1298486169718513
2.4399999999999977,-0.4410993204875089,-0.1630024078197213,-0.1132393200683065
2.4499999999999886,-0.4246294845521065,-0.169707815350929,-0.0958177183038897
2.4599999999999795,-0.4226241768721506,-0.1762347949101369,-0.0817971597265439
2.469999999999999,-0.4028019527805944,-0.1803578941040103,-0.0709833850270235
2.4799999999999898,-0.3660591516778592,-0.184997181561211,-0.0626272620617926
2.4899999999999807,-0.323120650242482,-0.1896021997078349,-0.0619721835459625
2.5,-0.2716149494798601,-0.1882894069794463,-0.0631344781712768
2.509999999999991,-0.2256428120851685,-0.1862036219451535,-0.0592930584145263
2.519999999999982,-0.1790007115159011,-0.1783434721471333,-0.0560436630294449
2.530000000000001,-0.1428870807198088,-0.1835399220763219,-0.0559623906695464
2.539999999999992,-0.1250995472719454,-0.1848672131034513,-0.0475387793174123
2.549999999999983,-0.1166543294451852,-0.1927949215231678,-0.0408511991651558
2.5600000000000023,-0.137507677777573,-0.1930994251200647,-0.0258154437355232
2.569999999999993,-0.136060427397337,-0.2033325471220077,-0.0034771334815284
2.579999999999984,-0.1258288379651943,-0.2018468393737263,0.0103821925191761
2.5900000000000034,-0.1119128014263625,-0.1930116703391509,0.0363650597183484
2.5999999999999943,-0.1130910276456841,-0.1925493425732563,0.0562293352770576
2.609999999999985,-0.112881604191264,-0.1777880359790168,0.083178506185816
2.6200000000000045,-0.0935506845996117,-0.1718863295925071,0.1123360499578843
2.6299999999999955,-0.0872208290042955,-0.1659184443709175,0.142030048173176
2.6399999999999864,-0.0817594828534051,-0.1585312286837653,0.1775945663520624
2.6500000000000057,-0.0916510436211842,-0.1507667491042556,0.202655159014517
2.6599999999999966,-0.094252579638432,-0.1280218357572291,0.2140801024358747
2.6699999999999875,-0.0967954614355738,-0.1149682679358142,0.227317779663832
2.6799999999999784,-0.1127030921769549,-0.1039530883510882,0.2411415599232386
2.6899999999999977,-0.1090993719034906,-0.1037553978339935,0.2492030929179076
2.6999999999999886,-0.1107180157389725,-0.1055877888186676,0.2787457799683736
2.7099999999999795,-0.1287627609271475,-0.0954860193176588,0.3074903576041349
2.719999999999999,-0.1597162934484126,-0.1123170159263582,0.3463307313136244
2.7299999999999898,-0.1873351705576219,-0.1214920546540593,0.3902094984636007
2.7399999999999807,-0.2270246635529275,-0.1343155580948922,0.4339745118387804
2.75,-0.2624610713446191,-0.1421393091559417,0.4719839478265015
2.759999999999991,-0.3003634162966028,-0.1457237080148304,0.5027708763558464
2.769999999999982,-0.3295057582770329,-0.1689694620171379,0.5349977521170064
2.780000000000001,-0.3420163448360872,-0.1842822425779527,0.5632843482904575
2.789999999999992,-0.3254516972742423,-0.1924180492981517,0.580187674213416
2.799999999999983,-0.3022293362592716,-0.1935733025084491,0.5951621299316621
2.8100000000000023,-0.2588245886348965,-0.184854522586314,0.617273650085974
2.819999999999993,-0.2321559731820798,-0.1897562687071858,0.6339146019928318
2.829999999999984,-0.2089618178816282,-0.1904150077749792,0.6440564017521848
2.8400000000000034,-0.1737806152597734,-0.1942103714151478,0.6671213782240581
2.8499999999999943,-0.1386886321664691,-0.1844036995224552,0.6969720278208718
2.859999999999985,-0.1264494977016315,-0.1822656455845251,0.7298718183680082
2.8700000000000045,-0.110126608576835,-0.1856523707947123,0.7693738214245393
2.8799999999999955,-0.0913770705417468,-0.1641381095942095,0.8097269106845718
2.8899999999999864,-0.072676496142709,-0.1406256798964522,0.8588767896379975
2.9000000000000057,-0.0502927710056798,-0.1101065439650913,0.9071538152975483
2.9099999999999966,-0.0340621311178735,-0.0819093521734642,0.95463857274443
2.9199999999999875,-0.0110079153895133,-0.0682622037673723,1.013021495750777
2.9299999999999784,-0.0029953317661514,-0.0589402033381993,1.060895549908628
2.9399999999999977,-0.0029292365147989,-0.0488088793929,1.1037692009671272
2.9499999999999886,0.0130438021380862,-0.0452822139949527,1.1349623137638218
2.9599999999999795,0.0320787048653396,-0.0455415572282638,1.1584214286923726
2.969999999999999,0.0458996216614491,-0.042492727318445,1.1815743453976395
2.9799999999999898,0.0484998888209899,-0.0426639538830777,1.1954771934832682
2.9899999999999807,0.0438544936557185,-0.0494341174659934,1.2108254291986276
3.0,0.0243483372004547,-0.0492377145332888,1.229875739210576
3.009999999999991,0.0084876980810678,-0.0420542314250256,1.2662217569839496
3.019999999999982,0.0098458853926718,-0.036020348500587,1.296998801608093
3.030000000000001,0.0210273192014115,-0.0303521315353755,1.3181028489247366
3.039999999999992,0.0207150387395444,-0.0290256108526984,1.3251750102607394
3.049999999999983,0.0253904492675935,-0.0272715990345842,1.3234812793234458
3.0600000000000023,0.0244430307942268,-0.0193936730887136,1.3198475308082294
3.069999999999993,0.0199534394212879,-0.007584874585114,1.3346301539026306
3.079999999999984,0.0201336440818963,0.0035214887754643,1.34275969913313
3.0900000000000034,0.0300599178150569,0.0207643159813134,1.3516004020093637
3.0999999999999943,0.0427787173550701,0.0467402332039852,1.372650377501438
3.109999999999985,0.049886990525777,0.0675384191602422,1.3899729619878014
3.1200000000000045,0.0503084359514578,0.0879070303436422,1.3958704323538862
3.1299999999999955,0.0317403617160866,0.1014745825939226,1.3957576683918775
3.1399999999999864,-0.0006421045886263,0.1150269325438262,1.3861510453634407
3.1500000000000057,-0.0438713013144486,0.1302827950353515,1.377173155879179
3.1599999999999966,-0.079658824256941,0.1466089599128316,1.362091924370639
3.1699999999999875,-0.1123364924796257,0.1673848514051716,1.3434364012577575
3.1799999999999784,-0.1590429151860276,0.1599077692369485,1.3243730921026742
3.1899999999999977,-0.1860286933552938,0.1542281771026809,1.309499340535289
3.1999999999999886,-0.2085556969141517,0.1438523547768106,1.2908595867346278
3.2099999999999795,-0.246488536665217,0.1425856091810051,1.2766181685657294
3.219999999999999,-0.3004073559767167,0.1443536054207339,1.2667884524900106
3.2299999999999898,-0.3765084243688315,0.1743562353446693,1.2788178402389887
3.2399999999999807,-0.4665701519254292,0.1801250298023768,1.3048795126306592
3.25,-0.5661198734352982,0.1921500520397336,1.326688387254045
3.259999999999991,-0.6220930697653649,0.2024985105750879,1.360734214637371
3.269999999999982,-0.631729387580648,0.1874804990511155,1.3862411373809576
3.280000000000001,-0.6119443543264794,0.1770509741309918,1.3916034662539831
3.289999999999992,-0.5670265851261219,0.1726032754511215,1.3916535842679685
3.299999999999983,-0.5390696831360569,0.1738324066477176,1.394815221608105
3.3100000000000023,-0.5701615544922498,0.1832079096476369,1.3915936030993814
3.319999999999993,-0.6236581459469095,0.1937705706524675,1.4074665469673069
3.329999999999984,-0.6953073933101833,0.185811513328199,1.4337992606534278
3.3400000000000034,-0.785042839779907,0.1679774191516001,1.47465160620334
3.3499999999999943,-0.8382175255194875,0.1473998259258448,1.5055494733121102
3.359999999999985,-0.859323153604632,0.1362000865968565,1.5210726522126796
3.3700000000000045,-0.885670046048842,0.1433417500201743,1.5389663247387784
3.3799999999999955,-0.9180509986649394,0.1576132068433886,1.545326753474818
3.3899999999999864,-0.983000832016828,0.1659667054344977,1.5594487723343882
3.4000000000000057,-1.081920404147355,0.1788773742968154,1.5578936216881918
3.4099999999999966,-1.1603436978121926,0.1889573451624165,1.5548627723643271
3.4199999999999875,-1.1800788202124035,0.2023276522876596,1.540147765336659
3.4299999999999784,-1.1426793355640297,0.2128465839352856,1.52215480642807
3.4399999999999977,-1.0563717255660754,0.2280141765031035,1.4959596288005872
3.4499999999999886,-0.9417086109261318,0.2476698518515774,1.4603867092089255
3.4599999999999795,-0.8283412494948968,0.2569787620673177,1.4159921779761562
3.469999999999999,-0.7203040285138017,0.2647169837242987,1.3654003585937504
3.4799999999999898,-0.6489920545003743,0.2534339648966368,1.315416351035293
3.4899999999999807,-0.5966341346612142,0.2416951060169387,1.259705762981924
3.5,-0.5653188101139802,0.2355519105428913,1.200994091918617
3.509999999999991,-0.567889087791057,0.2326236818257331,1.1348917197915056
3.519999999999982,-0.5633006343513032,0.232316960371059,1.0407591449728546
3.530000000000001,-0.5461509592205279,0.232621585033228,0.9435981287595162
3.539999999999992,-0.5313536829115805,0.2265975845328632,0.855718090612098
3.549999999999983,-0.4909780510090478,0.2292451907540333,0.7760012723746046
3.5600000000000023,-0.4599686527224809,0.2178109755052076,0.7113156184559789
3.569999999999993,-0.4368244591144574,0.1964633280769911,0.6425607901968428
3.579999999999984,-0.4329816561490083,0.1842359098616111,0.5822442165265458
3.5900000000000034,-0.4315543728894917,0.1624117822700439,0.5182283691360454
3.5999999999999943,-0.4279212234009941,0.1422637115355376,0.4523231648246609
3.609999999999985,-0.4403486096434895,0.1287783274654089,0.393550531158487
3.620000000000005,-0.4323491423723463,0.1237233962245434,0.3223515359479892
3.629999999999996,-0.4347083046094722,0.1188055707669274,0.249017559096473
3.6399999999999855,-0.4500763407979393,0.1096216189297248,0.165853027870666
3.6500000000000057,-0.4764900929399177,0.0922312119538353,0.0890081539607606
3.6599999999999966,-0.551592899239612,0.0661739819743192,0.0358450429015578
3.669999999999988,-0.6665299850029611,0.009224233177404,-0.0060884620155313
3.6799999999999775,-0.7769703933736405,-0.0388106673624614,-0.0398717564599579
3.6899999999999977,-0.8849254711001063,-0.0867321081602526,-0.0717590914731046
3.6999999999999886,-0.9769711150678558,-0.1207134326527896,-0.1036601233088971
3.70999999999998,-1.022379024958641,-0.1249478324027115,-0.1211962147212148
3.719999999999999,-1.0350029874909876,-0.1272295692045229,-0.1572730925693092
3.7299999999999898,-1.0096763469908798,-0.1175596476255841,-0.1785713032937554
3.7399999999999807,-0.9802971865297666,-0.1031083756582783,-0.1936032185746462
3.75,-0.9514749689065518,-0.0691076553455393,-0.2075222594299895
3.759999999999991,-0.921252036085046,-0.0479166912859949,-0.1943143696993599
3.769999999999982,-0.879002702021946,-0.0264807884693076,-0.1762017123887496
3.780000000000001,-0.8275504921923921,-0.0063725155465724,-0.1431530459059282
3.789999999999992,-0.7578001865259024,0.0129983755420419,-0.1171485354181628
3.799999999999983,-0.6791535874803502,0.0408129690539286,-0.1018291761386313
3.8100000000000014,-0.6113357276016136,0.0534769342481772,-0.0871169923138848
3.819999999999993,-0.5577631241538419,0.0538586345575995,-0.0662351721888181
3.829999999999984,-0.5464660706834513,0.0391818670363031,-0.0457103233174362
3.8400000000000034,-0.5455438360295126,0.0226303746223953,-0.0173473942761046
3.8499999999999934,-0.5468827150796186,0.0151407599511474,0.012062461743106
3.859999999999985,-0.5648885494282037,0.0182465584154936,0.0180339603686811
3.870000000000005,-0.5793625293567111,0.0216895218087629,0.0116416316375031
3.879999999999996,-0.5735925013116895,0.0397414235880757,0.0006471952444211
3.8899999999999855,-0.5458020069103463,0.0549669496338971,-0.0004162910746071
3.9000000000000057,-0.4739292534232061,0.0718488159641941,-0.0119558068151989
3.9099999999999966,-0.4126536424665497,0.091317862572671,-0.0234958605673112
3.919999999999988,-0.378112422076139,0.1005727228756964,-0.0236125584766214
3.9299999999999775,-0.3574476640031907,0.1067870173091146,-0.0106176528887368
3.9399999999999977,-0.3581858982971151,0.0914026648576535,-0.0109356259109723
3.9499999999999886,-0.3652963960293878,0.0796838906522246,-0.0108966918695174
3.95999999999998,-0.374845019284921,0.0718427991851092,-0.0150473680344329
3.969999999999999,-0.3712689937262131,0.0554654907215708,-0.0249159454860072
3.9799999999999898,-0.3279897900863918,0.0520698990026876,-0.0493098553121929
3.9899999999999807,-0.2443010235601599,0.054446056652574,-0.0854538690585849
4.0,-0.1368893909174144,0.0473190371250898,-0.1097889754355729
4.009999999999991,-0.0133299268525592,0.0431653237191091,-0.1453909626148413
4.019999999999982,0.0883701710687189,0.0388848258569673,-0.179133459563248
4.030000000000001,0.1500306184149268,0.0284476060339366,-0.2136125800791228
4.039999999999992,0.1906115177882973,0.0273950491004424,-0.2526439706291911
4.049999999999983,0.2115331052379472,0.0319010129853171,-0.2919228422027187
4.060000000000002,0.2054792777331407,0.0464883638080121,-0.3315434397912821
4.069999999999993,0.1861206210917939,0.0618785447055217,-0.389149126585595
4.079999999999984,0.1715203393597364,0.0665769006765865,-0.4414000154604112
4.090000000000003,0.168811323120189,0.0750587546757656,-0.4935880261762111
4.099999999999994,0.1956676646660309,0.0669345623527209,-0.5536652891716661
4.109999999999985,0.253650980720154,0.0642081165781035,-0.6059735572927715
4.1200000000000045,0.3403337815302618,0.0513789375010837,-0.6526683136408192
4.129999999999996,0.4291209907151206,0.0319068373430108,-0.7144181505603954
4.139999999999986,0.494795644232942,0.0144420378718183,-0.7604767278759125
4.150000000000006,0.5477701900074708,-0.0223296951307337,-0.8129525875510298
4.159999999999997,0.5711667216113951,-0.0669903435356909,-0.8702958826648817
4.169999999999988,0.5649254314950366,-0.1142767224869104,-0.9280452648152056
4.179999999999978,0.5476578368365215,-0.1729239388910503,-0.9711825843700392
4.189999999999998,0.5254414819435146,-0.2382726115709046,-1.004422117384954
4.199999999999989,0.4814324216529657,-0.3053457653466067,-1.044899463026277
4.20999999999998,0.4525813364383231,-0.3670866601924683,-1.085913826009298
4.219999999999999,0.4079022793012368,-0.4272242401659813,-1.1353599468417286
4.22999999999999,0.3726487473057008,-0.4816526981220959,-1.199042359627293
4.239999999999981,0.3390278686385217,-0.5284430700435169,-1.259327782717554
4.25,0.3174918040206622,-0.5693209534211715,-1.3232262927602187
4.259999999999991,0.3327855305860717,-0.6193007371615513,-1.3860274812905948
4.269999999999982,0.369301840144019,-0.6436360281480378,-1.4508928227754088
4.280000000000001,0.4412685387061518,-0.6829925933071136,-1.51052233172331
4.289999999999992,0.5047781762953497,-0.7155918827065616,-1.5620959600073536
4.299999999999983,0.5595670691269421,-0.7452244086584505,-1.5985018897061252
4.310000000000002,0.5980617960397,-0.7772673458475567,-1.622444600473344
4.319999999999993,0.6201337384611962,-0.8130848650462221,-1.6341170828817897
4.329999999999984,0.6190982623818532,-0.8452942947298239,-1.652695936669302
4.340000000000003,0.595983799924641,-0.882080001517975,-1.6540844025304198
4.349999999999994,0.5586015793409002,-0.9139610668870034,-1.6552509790199157
4.359999999999985,0.5113283239073187,-0.9296943737154184,-1.663556370404915
4.3700000000000045,0.4567223716597696,-0.9407964158091356,-1.670805282263062
4.379999999999996,0.4183149938892057,-0.9432168090131066,-1.6860792564474134
4.389999999999986,0.3850588910924054,-0.9467739248072834,-1.6877246169725386
4.400000000000006,0.3724645877417885,-0.9476408697032236,-1.684700722921764
4.409999999999997,0.3651438916816255,-0.9434006630863132,-1.6792013172236957
4.419999999999988,0.3678370518241722,-0.9413337416971344,-1.663417112521973
4.429999999999978,0.3845836662911407,-0.9378500575324252,-1.6506920994065557
4.439999999999998,0.407010698049592,-0.9210974457411708,-1.641620605345924
4.449999999999989,0.4424499622092245,-0.9157182928766094,-1.6367878064362176
4.45999999999998,0.4769362475721062,-0.905907473680236,-1.6333337171213478
4.469999999999999,0.5171091840247869,-0.8970408950246344,-1.6268389915162051
4.47999999999999,0.5074790891406035,-0.9093392097890892,-1.6017411535093484
4.489999999999981,0.4798387685958259,-0.9203505494857672,-1.580728860869638
4.5,0.4299609431017412,-0.9336742325207392,-1.5353126048171228
4.509999999999991,0.3584928962930406,-0.9469471817462768,-1.4885024585011732
4.519999999999982,0.2894786395568735,-0.9723101873317538,-1.4409134507389123
4.530000000000001,0.2183477261989484,-0.980245320782617,-1.3929353179895092
4.539999999999992,0.1705893822936781,-0.9914438278480568,-1.3486359979756488
4.549999999999983,0.1294524273048887,-0.9912778546098198,-1.310047282514296
4.560000000000002,0.0999070797414892,-0.993015119321432,-1.292607585185504
4.569999999999993,0.0836914839612776,-0.9905952690150366,-1.2865977459382278
4.579999999999984,0.0972387265508466,-0.9787049254995815,-1.2697769547701585
4.590000000000003,0.1047149122674575,-0.9525578909295848,-1.2564437229656318
4.599999999999994,0.1014347270974352,-0.9306590049014494,-1.220386184412095
4.609999999999985,0.0921905149692001,-0.9085062733366872,-1.18933094938034
4.6200000000000045,0.0708072224040974,-0.8848372166915265,-1.1511645679199465
4.629999999999996,0.0367324971138472,-0.8704073302066849,-1.1076879753707067
4.639999999999986,0.0052899498038412,-0.8582161407538434,-1.0706961616610928
4.650000000000006,-0.0187433310620323,-0.8444178818348117,-1.0389404715616923
4.659999999999997,-0.0357424082394841,-0.8382677496491414,-1.0169970192402462
4.669999999999988,-0.0382912569808929,-0.8366030263707931,-0.9960670792142045
4.679999999999978,-0.0293883693473916,-0.8327414894235948,-0.971285037871386
4.689999999999998,-0.0168121128044055,-0.8364098693224201,-0.9513529380042446
4.699999999999989,-0.0122183713694453,-0.8438464995496056,-0.9238704029417332
4.70999999999998,0.0046908361870759,-0.8485045882632466,-0.8860907858636835
4.719999999999999,0.0250085733891018,-0.8673463091278417,-0.8580280784869591
4.72999999999999,0.0454133183000066,-0.8855207046147178,-0.8139756160286337
4.739999999999981,0.0789006441440836,-0.91181743713608,-0.7769491361952058
4.75,0.1126494288392,-0.931660653579038,-0.7390652806205662
4.759999999999991,0.1399527502637667,-0.9466148193159022,-0.7063318761486623
4.769999999999982,0.1551325158522859,-0.9740286080576008,-0.6728598594244789
4.780000000000001,0.1574512061869642,-0.9864711748637036,-0.6544063645635328
4.789999999999992,0.1640566717736168,-1.0138127640879016,-0.625757326924551
4.799999999999983,0.1545308353979914,-1.0325133204860126,-0.6038607043383148
4.810000000000002,0.1368896325492455,-1.0542697677033788,-0.5691795334643587
4.819999999999993,0.121918120360385,-1.0656672574641617,-0.5359574771803629
4.829999999999984,0.1121301944862165,-1.0773782203593818,-0.5006424369816161
4.840000000000003,0.1171366986876877,-1.0880982660283922,-0.4601965255557261
4.849999999999994,0.1265448458503558,-1.090541567912466,-0.4328647548988295
4.859999999999985,0.1421752337551313,-1.0912511223449122,-0.3909480577256146
4.8700000000000045,0.1554781192519575,-1.0837233960340793,-0.361111449465962
4.879999999999996,0.1720354055748406,-1.0816243546223558,-0.3308946452906653
4.889999999999986,0.1915404069947321,-1.0811118296686717,-0.2983080012708356
4.900000000000006,0.2084468736042284,-1.06637924651895,-0.2687412354537439
4.909999999999997,0.2386031382396229,-1.0520772557932978,-0.2449175650082777
4.919999999999988,0.2678874434416353,-1.0459753861095435,-0.215394968255762
4.929999999999978,0.2982501210738963,-1.036652822064685,-0.1851145725538421
4.939999999999998,0.3197828122801028,-1.0149882487425947,-0.1381185209659257
4.949999999999989,0.3255276410630982,-0.9929603398938672,-0.0783292734396566
4.95999999999998,0.3234792240749672,-0.9799959620373996,-0.024392699694141
4.969999999999999,0.3380345201168286,-0.9524885266277462,0.0357930253584631
4.97999999999999,0.3439405705827662,-0.9253344243617226,0.0923826539747431
4.989999999999981,0.3331614758311352,-0.8877746168391695,0.1320935997434053
5.0,0.3326217505961038,-0.8420457443663498,0.1805348762913522
5.009999999999991,0.3060449387846509,-0.8228599737634034,0.2329650048066399
5.019999999999982,0.2968119658692056,-0.8043809590122113,0.2728228534444178
5.030000000000001,0.2932684552250806,-0.7733771208179738,0.330636034497157
5.039999999999992,0.3092261896770061,-0.7362461095837023,0.383489923652107
5.049999999999983,0.3448109696679722,-0.6983307297990868,0.4405674957816162
5.060000000000002,0.3996622207744063,-0.646578379946669,0.4936856972748584
5.069999999999993,0.4389215389015883,-0.5983513592516135,0.5487149488308969
5.079999999999984,0.4867904167066956,-0.5432104482734731,0.6035477218548141
5.090000000000003,0.5068488000332413,-0.4763185593065355,0.6594777977148979
5.099999999999994,0.5068517094020243,-0.4145519169044528,0.7135707037612915
5.109999999999985,0.4938724480854926,-0.3568665806607288,0.7593246565105488
5.1200000000000045,0.4737396543051546,-0.2875453584562797,0.8261391962670507
5.129999999999996,0.4628267658482277,-0.2142928209504901,0.8807605660539964
5.139999999999986,0.4776493089542635,-0.1336241417968757,0.9414365033044262
5.150000000000006,0.5103105332316042,-0.0631912899730463,0.9996523583962112
5.159999999999997,0.5406252346822669,0.0142032711123198,1.0584036434436848
5.169999999999988,0.5634825209801488,0.0962298958929393,1.1332678603984676
5.179999999999978,0.5811413847109542,0.1713639944389248,1.1964288510245449
5.189999999999998,0.5892780403551034,0.2440298171633391,1.268994358358819
5.199999999999989,0.5838931371540903,0.335921014973174,1.3410882777286373
5.20999999999998,0.580933154381601,0.4161941478156977,1.4091688457111513
5.219999999999999,0.5903598248459231,0.5048688005698564,1.4659927299677835
5.22999999999999,0.622837278719533,0.6056636859036035,1.5273662773005088
5.239999999999981,0.6554253771309307,0.6931130679291693,1.5707709323536916
5.25,0.6993839488381082,0.7929870351388357,1.6085720247423825
5.259999999999991,0.7193757349489717,0.886573301059448,1.6752975620787594
5.269999999999982,0.7180821635292798,0.9758381794499464,1.722626957631523
5.280000000000001,0.7184957550841923,1.0699558302497316,1.784700619608848
5.289999999999992,0.6962414032639179,1.1538225448300383,1.8489900817726188
5.299999999999983,0.6843971286361843,1.232826470850925,1.8960298634883357
5.310000000000002,0.6695213132394058,1.3115062769780068,1.9306994822032564
5.319999999999993,0.6798490336196815,1.3840831449279745,1.95590157391125
5.329999999999984,0.7037282529304031,1.4723159448710736,1.9670773986808157
5.340000000000003,0.7185222204418024,1.5646368360993377,1.9706836166558896
5.349999999999994,0.7208345155973095,1.6484383847186153,1.9680419790993968
5.359999999999985,0.7089844940602729,1.740763137075857,1.9594241896546611
5.3700000000000045,0.6723572186888288,1.8157504567473437,1.9380922697311835
5.379999999999996,0.5957473723382577,1.8890554155427104,1.9151575754300656
5.389999999999986,0.5217443830811018,1.952881839205857,1.8924986627940483
5.400000000000006,0.4553596575386679,2.010302752045697,1.8755401492128256
5.409999999999997,0.404390242319894,2.0736747577487304,1.848445675741584
5.419999999999988,0.3633127107648014,2.131282401872119,1.8146006038636693
5.429999999999978,0.3376205170274032,2.1904737566052668,1.7818759421170447
5.439999999999998,0.3306662795601838,2.247456372868629,1.7512951214070902
5.449999999999989,0.3111598043177569,2.3095196292202846,1.7136139622943225
5.45999999999998,0.3028730050495007,2.3580933332470058,1.6842714457784531
5.469999999999999,0.2897629771069513,2.402617096029892,1.6560667627068404
5.47999999999999,0.2741738644016202,2.4364217603260365,1.6194670457319356
5.489999999999981,0.2558378378053108,2.4622767868655537,1.5789872856198623
5.5,0.248871464185669,2.4766326473471367,1.539668119820233
5.509999999999991,0.2420187340651979,2.4755443367208896,1.4969982541492266
5.519999999999982,0.2656969930108657,2.4817852043142747,1.4608591038430712
5.530000000000001,0.2836218349865609,2.4981048867622446,1.4232006234145922
5.539999999999992,0.3010867169368933,2.5208358378348525,1.3857281097345575
5.549999999999983,0.3275040222121583,2.5277657563959397,1.345193714351435
5.560000000000002,0.3583048655509707,2.5451491959802075,1.2970604384626978
5.569999999999993,0.3952607652501511,2.5535187342759658,1.2666849929744914
5.579999999999984,0.4426350018116384,2.555929076551367,1.2277982827472864
5.590000000000003,0.4953297654423229,2.5443862692175188,1.2046369065646756
5.599999999999994,0.5279085174849765,2.557426294575452,1.1863472148898746
5.609999999999985,0.5603892112316716,2.5609637017057,1.1537553451044609
5.6200000000000045,0.5640338526536395,2.565968761376761,1.1325872411956108
5.629999999999996,0.533897376801734,2.563627332349858,1.121466472485961
5.639999999999986,0.4862337864436751,2.5377568673469875,1.1007271333148925
5.650000000000006,0.4408064052214555,2.5073525241148578,1.086881634381032
5.659999999999997,0.3771768061192372,2.4735860561121323,1.0794984747188976
5.669999999999988,0.3119265545200294,2.4462550953118267,1.0630903213241227
5.679999999999978,0.2496448110590471,2.423209545215614,1.0373410140795878
5.689999999999998,0.1861780414849194,2.401794702918549,1.010479677871691
5.699999999999989,0.1351308010637148,2.3710302008976987,0.97931690356212
5.70999999999998,0.0786982425839952,2.3327781480192504,0.951280114751937
5.719999999999999,0.0278672558723091,2.281275367120764,0.9131059587389312
5.72999999999999,-0.0185702389474288,2.230362801352693,0.8783020652274263
5.739999999999981,-0.0558192201176668,2.1768563944498385,0.8490349578793756
5.75,-0.0781336036336158,2.124226933869504,0.8158444241329632
5.759999999999991,-0.0851196512622709,2.077028247927279,0.775474687875033
5.769999999999982,-0.0839269306746733,2.026787340308663,0.7445121543412001
5.780000000000001,-0.1021893001306915,1.9834650084869856,0.7007105314188672
5.789999999999992,-0.1246635012889239,1.9454088836639305,0.6655304145725611
5.799999999999983,-0.1534800006225326,1.899144661830365,0.6414244294310244
5.810000000000002,-0.1996489639163962,1.8551917125836,0.6137365955014402
5.819999999999993,-0.2487669882159773,1.8203489940032795,0.6000333962545784
5.829999999999984,-0.3076388259515227,1.777542762924958,0.5659207634772028
5.840000000000003,-0.3698201429374848,1.7462990726866765,0.5450441999615252
5.849999999999994,-0.4358948417472774,1.7072574220145382,0.5240520700194555
5.859999999999985,-0.5261591655697245,1.674203480947926,0.4957871120857892
5.8700000000000045,-0.6191141205707944,1.6411669288052335,0.473993509646688
5.879999999999996,-0.7160054743620246,1.6086537234106246,0.4438419614152224
5.889999999999986,-0.8097999724267974,1.5897485344254594,0.4274798808722764
5.900000000000006,-0.8819948126428667,1.567010133025392,0.4118980397258466
5.909999999999997,-0.9342469651473252,1.5421498810568204,0.3971301064976686
5.919999999999988,-0.9713656024029472,1.5188870429411458,0.374874581415218
5.929999999999978,-0.9813259274769284,1.498663789756896,0.3377414230976064
5.939999999999998,-0.9911679127452871,1.4851126082525408,0.2967055448177985
5.949999999999989,-0.9943128820843088,1.4793561940872668,0.2404297759141342
5.95999999999998,-0.999326792122749,1.479259597367865,0.193605049796336
5.969999999999999,-1.028539839062509,1.4824136007013828,0.1245961869287241
5.97999999999999,-1.0484352581566645,1.4927778932850195,0.0637912003259679
5.989999999999981,-1.0738262863094412,1.502998021262277,0.0179280844294696
6.0,-1.095747142222762,1.4988676425999294,-0.0301189948538827
6.009999999999991,-1.1336223482658478,1.4907216706143402,-0.079357341067908
6.019999999999982,-1.172510495080635,1.4656169365976957,-0.1471453754441092
6.030000000000001,-1.2259327876848374,1.4273511809323791,-0.2165979600429111
6.039999999999992,-1.2564996513689126,1.3729740987848582,-0.2877623798101903
6.049999999999983,-1.2415640306939535,1.3220258160931044,-0.3528201264610626
6.060000000000002,-1.195718305776866,1.2765398637047505,-0.42067516567179
6.069999999999993,-1.1163051356258624,1.2446891098194162,-0.4778256772747691
6.079999999999984,-1.0030193474838704,1.2262240746940918,-0.528547550278217
6.090000000000003,-0.8889328258295855,1.2032711721408895,-0.5903181307415741
6.099999999999994,-0.7757123650688108,1.1876900296197126,-0.6468971440889396
6.109999999999985,-0.6659058751795888,1.1845590927630516,-0.7185495612879367
6.1200000000000045,-0.5575839453610837,1.166721332190632,-0.7852426761255138
6.129999999999996,-0.4474003438212466,1.154741744445195,-0.8600837980981816
6.139999999999986,-0.3507928372197832,1.1330557311953768,-0.9252466585337914
6.150000000000006,-0.2529772845720782,1.088935878119545,-0.9905265105263537
6.159999999999997,-0.1572671460443639,1.058594717836545,-1.0736611712181447
6.169999999999988,-0.0435207416045489,1.0195737463258814,-1.16321627791035
6.179999999999978,0.0724947045178709,0.969053929933221,-1.2598935913180045
6.189999999999998,0.1766412528660808,0.9063746759617232,-1.362104438388899
6.199999999999989,0.2908803340419566,0.8363036858727625,-1.467435721236804
6.20999999999998,0.3908048019362407,0.7750139289405849,-1.5596843972788286
6.219999999999999,0.480387473963429,0.7064080898835399,-1.659386692969034
6.22999999999999,0.5528388615386931,0.6419355281155965,-1.7613533485924084
6.239999999999981,0.6043687618980774,0.5852850399453188,-1.8564751129470465
6.25,0.6475229480806991,0.5282641501553567,-1.9629497456261829
6.259999999999991,0.669238770920965,0.4676864490050893,-2.0584800915387502
6.269999999999982,0.6885174637360858,0.4288700776346707,-2.1569848179652817
6.280000000000001,0.703005742428966,0.3896787178669278,-2.2381204691776504
6.289999999999992,0.7367210901938602,0.3412016665704184,-2.314672052865782
6.299999999999983,0.7752359202607513,0.2970690047307043,-2.377716645681144
6.310000000000002,0.8261966779867322,0.2511454138449327,-2.431173268362469
6.319999999999993,0.8739252002547226,0.2139662968335658,-2.47750635667464
6.329999999999984,0.9093891966244146,0.1770946562985764,-2.512970251471615
6.340000000000003,0.9312012680609656,0.1311629831092678,-2.5562822761898487
6.349999999999994,0.9723698000860448,0.1087550472432464,-2.5851179795480377
6.359999999999985,1.0220535629312368,0.0872354130885951,-2.591394767825033
6.3700000000000045,1.084296743524811,0.0614465442893738,-2.5797196496411914
6.379999999999996,1.1670519831521604,0.0406559811981475,-2.560346651939841
6.389999999999986,1.2403479857995885,0.0187287109143877,-2.540331787987969
6.400000000000006,1.2947426041691166,0.0042490443280646,-2.533042817784244
6.409999999999997,1.3161121101796425,-0.0097675677909393,-2.532699352611147
6.419999999999988,1.3307857126250862,-0.0301677938644162,-2.5459678335319227
6.429999999999978,1.331396116056549,-0.0613363602864667,-2.545850920476474
6.439999999999998,1.3173215338902358,-0.0980799593033838,-2.5456257140166616
6.449999999999989,1.298388408632063,-0.1290719013503072,-2.528807531815696
6.45999999999998,1.2785124149426714,-0.1673179323971274,-2.5225289315786115
6.469999999999999,1.2604226407463093,-0.1986792036682875,-2.4970626533005653
6.47999999999999,1.25715397315914,-0.2193893412472104,-2.4722349312379146
6.489999999999981,1.2741208371223272,-0.2398612742822689,-2.452311478130732
6.5,1.3028122640474142,-0.2600041683246308,-2.4248996688153723
6.509999999999991,1.3208966104340556,-0.2953067496762283,-2.4142667354274736
6.519999999999982,1.344187057036042,-0.3472787485044573,-2.392003240368526
6.530000000000001,1.3804084744884106,-0.3873168110867043,-2.3662339484516166
6.539999999999992,1.42129939929063,-0.4301313493255903,-2.337325791775846
6.549999999999983,1.4586033380685934,-0.4676987895031634,-2.3132888308470028
6.560000000000002,1.4947450035137333,-0.5007737043817123,-2.289202168295568
6.569999999999993,1.5220094059960072,-0.5271250303131235,-2.274986805764184
6.579999999999984,1.5457721951990506,-0.5520807799304447,-2.258301316228033
6.590000000000003,1.561838326870549,-0.580523414673694,-2.232019272187926
6.599999999999994,1.564788674497417,-0.6252444541249099,-2.2073799919715538
6.609999999999985,1.5569990053788636,-0.6557282534415613,-2.1631415759485293
6.6200000000000045,1.5465637463243067,-0.6821477796321969,-2.1295196650136354
6.629999999999996,1.5550383761857676,-0.7020905200088633,-2.0967724017825176
6.639999999999986,1.5431226739339516,-0.7265264727298069,-2.058626586999337
6.650000000000006,1.53990321504018,-0.7367234173546904,-2.023464048808511
6.659999999999997,1.5621146907171428,-0.7536020386190134,-1.9811801720112237
6.669999999999988,1.5808249780267756,-0.7658070711108473,-1.931971225386418
6.679999999999978,1.5980588778566678,-0.7864686397875619,-1.883465300230264
6.689999999999998,1.623307818200442,-0.8122829900656959,-1.8284106180953883
6.699999999999989,1.6612676281618364,-0.8232870811390971,-1.783662636837428
6.70999999999998,1.7124527124914637,-0.8531598690542147,-1.747801325544338
6.719999999999999,1.792891900096113,-0.8664258790289457,-1.715275710867681
6.72999999999999,1.9064245779828923,-0.8980694529321221,-1.686870725043406
6.739999999999981,2.037249670307023,-0.903724152316726,-1.66483931669517
6.75,2.1742738719980808,-0.9134226924488654,-1.64620650620118
6.759999999999991,2.270277136189084,-0.967613295810796,-1.6220888856479507
6.769999999999982,2.3096055853159974,-0.9967262604300609,-1.6092108874978377
6.780000000000001,2.3155891508652355,-1.0339277678341368,-1.606371612769683
6.789999999999992,2.2749085064772987,-1.0743563222333734,-1.5977283833509144
6.799999999999983,2.2182795912234754,-1.1124749933937803,-1.5818634211622549
6.810000000000002,2.155420421283536,-1.143515023588073,-1.5540004111957575
6.819999999999993,2.1039248307607887,-1.1657420558508609,-1.5257035834382644
6.829999999999984,2.051926440654252,-1.1902747773644156,-1.4787887360418297
6.840000000000003,2.0089201692338694,-1.2080614704362824,-1.4354634087932496
6.849999999999994,1.9767555908781624,-1.225596383810536,-1.38981914427774
6.859999999999985,1.951560000736961,-1.2298136402322597,-1.3477100592724158
6.8700000000000045,1.9320379374104133,-1.24164043321059,-1.313858557181312
6.879999999999996,1.9412447286342007,-1.2599297101463276,-1.2802808355505082
6.889999999999986,1.9579796341349385,-1.2607200929998374,-1.2486795876079313
6.900000000000006,1.9855121657438388,-1.2641239287493111,-1.2233845668028411
6.909999999999997,2.007734664778307,-1.2545758282653672,-1.1904858562086005
6.919999999999988,1.9985792402436375,-1.2466894761631406,-1.147243528593235
6.929999999999978,1.9727175048671732,-1.2329637051252311,-1.1123413542069327
6.939999999999998,1.9149761725535264,-1.2253338380729832,-1.0761885570456704
6.949999999999989,1.8411570164258404,-1.2212563773859877,-1.0350877803077585
6.95999999999998,1.770938946086626,-1.2220074024911458,-1.0036491304233983
6.969999999999999,1.7311833231827063,-1.2292369223181758,-0.98162556618994
6.97999999999999,1.7186607637648712,-1.2210583375137134,-0.976635396448806
6.989999999999981,1.7396218997675483,-1.2169554638214322,-0.9711550167768442
7.0,1.772777110074036,-1.206546880952006,-0.9596114524321844
7.009999999999991,1.793491936879236,-1.1988002824756534,-0.9338258282506496
7.019999999999982,1.8207365015853727,-1.1949649908130382,-0.9024449671107916
7.030000000000001,1.8374003018310985,-1.186242911586191,-0.8800397184431492
7.039999999999992,1.864990509469979,-1.1818131901700042,-0.8524113187605392
7.049999999999983,1.9275202521574752,-1.182146733702645,-0.8184166219708738
7.060000000000002,2.006184082779668,-1.183921962041243,-0.7766051486318055
7.069999999999993,2.0973107514922784,-1.1689566491800425,-0.7401494219017223
7.079999999999984,2.171222861287477,-1.1625653324192498,-0.6986755263905156
7.090000000000003,2.2162999181505785,-1.1545370035398703,-0.6486548499918258
7.099999999999994,2.2381996322973428,-1.134783460918544,-0.6049577132188799
7.109999999999985,2.2236719171403525,-1.1131984690611745,-0.5589851263430473
7.1200000000000045,2.2072429346675224,-1.0871523912105816,-0.50465989730456
7.129999999999996,2.188508384465793,-1.0431542730642227,-0.4622353110330597
7.139999999999986,2.186615988613287,-0.9945742596308782,-0.4331191831331574
7.150000000000006,2.1924598864607807,-0.963512069428603,-0.3809179868024005
7.159999999999997,2.208261587427251,-0.9142479006373152,-0.3326529956322003
7.169999999999988,2.226767886306572,-0.8675905487990986,-0.2873546161369056
7.179999999999978,2.2246756113504347,-0.8030502953671165,-0.2461640688249221
7.189999999999998,2.196108241432841,-0.7453775945801873,-0.216153751731789
7.199999999999989,2.168202512216465,-0.6708160974058327,-0.1868517022780086
7.2099999999999795,2.1368732155024324,-0.5915139254119309,-0.1505374616148628
7.219999999999999,2.109425761645526,-0.4986146056971242,-0.1305263077898056
7.22999999999999,2.075259620941473,-0.3874685922276153,-0.1084940799533926
7.239999999999981,2.029689616453602,-0.2679247184820448,-0.0646563660877696
7.25,1.9732703780364549,-0.1464118341106723,-0.0222586715627707
7.259999999999991,1.9010012183492613,-0.031483761765825,0.0329703590416197
7.269999999999982,1.83138523490859,0.0912291625694118,0.0889228148062295
7.280000000000001,1.759598423078701,0.2138519218141837,0.1294847660640055
7.289999999999992,1.6899671098976872,0.3402242934328588,0.1811764206297095
7.299999999999983,1.6209933658163964,0.481272660928324,0.2196586880964321
7.310000000000002,1.5548946812315605,0.6290382177416449,0.2413532588740364
7.319999999999993,1.4986540096770284,0.7780348457298228,0.2652041945746383
7.329999999999984,1.449964163213455,0.9335547017348164,0.2786445676229659
7.340000000000003,1.4114467745928871,1.09296224013542,0.2902251929781045
7.349999999999994,1.3985404536271244,1.2334986346843917,0.3182769512477222
7.359999999999985,1.4006300234420732,1.3715210646718536,0.3367778024401624
7.370000000000003,1.4154903816309783,1.504524629842631,0.3565473020412497
7.3799999999999955,1.440358663585214,1.629962808696846,0.3603999622393751
7.389999999999986,1.4787353512732866,1.7386596890803974,0.3610704878845326
7.400000000000006,1.5268831021542808,1.8567577043441423,0.3713651166079167
7.409999999999997,1.5786414867364582,1.9634505207309492,0.3733910685251101
7.4199999999999875,1.622604231609368,2.0619210769572343,0.3925493044347129
7.429999999999978,1.6567873403804112,2.1732219890933604,0.4000040501305042
7.439999999999998,1.682344928474858,2.2659155843251377,0.4066989482739584
7.449999999999989,1.7025678250376606,2.35470536727119,0.4103149305583087
7.4599999999999795,1.7175419606250473,2.428497428823403,0.4082723080871749
7.469999999999999,1.7360340479975953,2.5008936172210503,0.3977814585894052
7.47999999999999,1.7542969482180146,2.579109152204805,0.3895070972849609
7.489999999999981,1.759907043962298,2.656976610657933,0.3896335113530741
7.5,1.7633529959353889,2.719535138133184,0.3883326837736694
7.509999999999991,1.756276413941034,2.7824798424118637,0.3981956555318631
7.519999999999982,1.7386512529632254,2.847673446318733,0.4092108641128188
7.530000000000001,1.706127562212311,2.909771065074785,0.3992736070538684
7.539999999999992,1.6706773638177714,2.9752330337850403,0.3776669250419632
7.549999999999983,1.6366439656003908,3.027002044262739,0.3510128837041323
7.560000000000002,1.6148634524898555,3.0688025200049887,0.3234270965562065
7.569999999999993,1.58262826333457,3.0995616485892725,0.2946801898586821
7.579999999999984,1.544875529775428,3.138066006154804,0.253586877106286
7.590000000000003,1.48944305264961,3.172986634265816,0.2240950324621648
7.599999999999994,1.4175284727444823,3.1929955774561365,0.1954301095438894
7.609999999999985,1.336086325900204,3.2043886146779905,0.1679692616059689
7.620000000000003,1.263350008780592,3.2179816987686283,0.1373949136355139
7.6299999999999955,1.1919720504245843,3.2303984065335394,0.1294790901224649
7.639999999999986,1.1168842439503777,3.242419972771034,0.1550283738625412
7.650000000000006,1.0371169277163106,3.2311146975353795,0.1690444340006915
7.659999999999997,0.9585857549754948,3.217124322585668,0.1664333802511836
7.6699999999999875,0.8798772123795063,3.212292541867744,0.1792783763798237
7.679999999999978,0.7953019661510669,3.193193657171022,0.1815168098740765
7.689999999999998,0.7078880625838616,3.173329122520821,0.1752575004873997
7.699999999999989,0.62962975495345,3.17055914563745,0.1820460524454205
7.7099999999999795,0.5621120164502527,3.165489640829963,0.1925385115950486
7.719999999999999,0.4897353308512639,3.1350830565836043,0.2017206366785308
7.72999999999999,0.4234416467925668,3.0999713736466763,0.2178031916550763
7.739999999999981,0.3542430218853677,3.065539399108028,0.2346644695999851
7.75,0.2694464287474295,3.0509282423906634,0.239222996418666
7.759999999999991,0.1925346924898593,3.0180874454143742,0.2509746483698306
7.769999999999982,0.1019913358885021,2.993914630896913,0.2579563001610318
7.780000000000001,0.0225227795343544,2.9525441208592818,0.2647957022809508
7.789999999999992,-0.0472918513687123,2.921200097233664,0.2755929901710783
7.799999999999983,-0.1213555980058822,2.897377276796566,0.2970279250593791
7.810000000000002,-0.1810145949863603,2.8709311107880944,0.3194039932943164
7.819999999999993,-0.245805835108203,2.848689552840355,0.3410617681546228
7.829999999999984,-0.3047241924035734,2.819902279147547,0.3700536321035189
7.840000000000003,-0.378320285437849,2.8035778848707684,0.383887415136014
7.849999999999994,-0.4500205061472902,2.792705134409444,0.3901339560965141
7.859999999999985,-0.5073051006177437,2.7804619282869494,0.4040433037808615
7.870000000000003,-0.5617845837968308,2.776729180974635,0.422133431189797
7.8799999999999955,-0.5922339784080105,2.778530192140203,0.439448121149367
7.889999999999986,-0.6237696808636396,2.7685995147668963,0.4452162342716492
7.900000000000006,-0.6407920505037166,2.7547871311096164,0.4475140986237526
7.909999999999997,-0.6622131652676726,2.7346057939076216,0.4505097644645948
7.9199999999999875,-0.6895839160228816,2.71035291099053,0.4520816206626004
7.929999999999978,-0.7228565882048206,2.681072828494822,0.4647594269734016
7.939999999999998,-0.7661104214686139,2.6632225596077235,0.4669911440810956
7.949999999999989,-0.8175070475033326,2.6343321388170446,0.4695366362838201
7.9599999999999795,-0.8619924492224988,2.6087279583213463,0.4607774259983875
7.969999999999999,-0.9012543185348584,2.573762655555335,0.4593018165068094
7.97999999999999,-0.9378738522493916,2.5430415861403297,0.4594490154373013
7.989999999999981,-0.9826588693965276,2.5036664574650698,0.4566912291325439
8.0,-1.0251147203100628,2.475587587580005,0.456299498512037
8.009999999999991,-1.078770608890726,2.44492711146685,0.4417638981419107
8.019999999999982,-1.1193390903734683,2.4004346303244417,0.4440675064642294
8.030000000000001,-1.161326865364247,2.358715654547351,0.4456460914772222
8.039999999999992,-1.1793938129678674,2.315080417210825,0.4470636310690888
8.049999999999983,-1.1947672528313935,2.2715985761929165,0.4553450795257216
8.060000000000002,-1.2182720148841335,2.236290913661485,0.4459373434611761
8.069999999999993,-1.2743682967714478,2.193554215570312,0.4364984324130773
8.079999999999984,-1.3433621212134403,2.1467782589076143,0.4160778637293086
8.090000000000003,-1.4096501345258228,2.1124630445140027,0.3975582670084267
8.099999999999994,-1.4558230983117488,2.0749701818227715,0.3841188723915866
8.109999999999985,-1.4835630372196966,2.0478807562946977,0.3655353413370747
8.120000000000005,-1.4973067867257974,2.014588961470181,0.3486193467175537
8.129999999999995,-1.4963276689999656,1.9865054155411832,0.3172432377995786
8.139999999999986,-1.4874609875739455,1.9548114625710475,0.2890864220394405
8.150000000000006,-1.4740067664503451,1.917976661390686,0.2417142570252338
8.159999999999997,-1.4700628407628225,1.875075826580539,0.2044744972743876
8.169999999999987,-1.4910599277248342,1.8340071559548523,0.1452593681416334
8.179999999999978,-1.5371855820855211,1.781441967476129,0.0871858618529353
8.189999999999998,-1.5753769674643854,1.7413552808964747,0.0369659824076384
8.199999999999989,-1.6082793389182892,1.7117929781568346,-0.0373456929819914
8.20999999999998,-1.6231582858874305,1.6789318259780086,-0.1045602629779294
8.219999999999999,-1.600910833921679,1.663781323908685,-0.1647672780378645
8.22999999999999,-1.5380375624360647,1.62646801068095,-0.2204201920369008
8.23999999999998,-1.4465802524672826,1.5840653690935362,-0.273799022553124
8.25,-1.3398198015733829,1.531048743030446,-0.3166074970036442
8.259999999999991,-1.2480704272370242,1.4769410008435462,-0.37994470340067
8.269999999999982,-1.1817818028421236,1.4050777572227695,-0.4446181097856672
8.280000000000001,-1.1601279712871244,1.3279631203440387,-0.5324987252520569
8.289999999999992,-1.1750722154977498,1.27116233828803,-0.6339242176216525
8.299999999999983,-1.2148152303494757,1.2159734122249832,-0.7432014513420044
8.310000000000002,-1.2825981619783466,1.151017585742809,-0.8539698352614735
8.319999999999993,-1.342588409453227,1.1045812000002615,-0.9566260085003176
8.329999999999984,-1.3792376687096886,1.0556391329371526,-1.0482887402104737
8.340000000000003,-1.3737431122585368,1.0090452220831,-1.1270043295416063
8.349999999999994,-1.3075625626488514,0.9684882628133894,-1.2011407823175146
8.359999999999985,-1.2156056257888133,0.9108085695875524,-1.2683757057080112
8.370000000000005,-1.094760759985252,0.8463061821231888,-1.322865757884282
8.379999999999995,-0.9724567636383258,0.780239760501057,-1.3741050730206397
8.389999999999986,-0.8535716767189193,0.7107296810291053,-1.435787057979106
8.400000000000006,-0.7532377294443551,0.629156089268923,-1.505518087044747
8.409999999999997,-0.6858830973422746,0.5437057235274421,-1.5905897031035918
8.419999999999987,-0.6450612389834992,0.4528724240870132,-1.6780241661253703
8.429999999999978,-0.6233048866152386,0.3764114588107108,-1.7701533978318755
8.439999999999998,-0.5916423543215478,0.2943038836331215,-1.8565420507556207
8.449999999999989,-0.5257845941866836,0.211225281198021,-1.9438123372677596
8.45999999999998,-0.4178839464412043,0.1354117959832936,-2.017033461227133
8.469999999999999,-0.2876371988563775,0.0652238903025218,-2.093331963752253
8.47999999999999,-0.1282123028768481,0.0051570912984599,-2.164545936646878
8.48999999999998,0.0305481128914263,-0.0585839009242092,-2.219459003778985
8.5,0.1909840655352117,-0.1152693049267155,-2.2623484757170758
8.509999999999991,0.3381444023568984,-0.1765331804338558,-2.3019898811188257
8.519999999999982,0.4533753755726847,-0.2469025503373079,-2.3475146233285966
8.530000000000001,0.524131890938931,-0.3174193284291733,-2.3928373285975275
8.539999999999992,0.5401454531863555,-0.3891262338093127,-2.4591133014724726
8.549999999999983,0.4927715917191103,-0.4616225488312322,-2.5061627146731835
8.560000000000002,0.4117929790890151,-0.540451089017426,-2.561795473412163
8.569999999999993,0.3323807804424197,-0.6038030409384508,-2.5919041748912166
8.579999999999984,0.3013561902930806,-0.6403765379527909,-2.623415833058997
8.590000000000003,0.3099021280783143,-0.6613692764809772,-2.6480605254535803
8.599999999999994,0.3513404655163001,-0.6801453891938789,-2.6664245770311816
8.609999999999985,0.4353124744087705,-0.6893244097548191,-2.693580003836653
8.620000000000005,0.5234433773273862,-0.7099070058893278,-2.715495878157121
8.629999999999995,0.6091850470018054,-0.7331726239510751,-2.732179618184169
8.639999999999986,0.6629746498913586,-0.7575071705849943,-2.730441215305736
8.650000000000006,0.6982423893705171,-0.7865808726388912,-2.748522626092238
8.659999999999997,0.7124788240687709,-0.8240759964074279,-2.757218644364366
8.669999999999987,0.6914827795140577,-0.8606354701010857,-2.7733738401105192
8.679999999999978,0.6490102929052549,-0.8864556742796094,-2.803986966347312
8.689999999999998,0.5876831467293913,-0.9087367933129862,-2.833255341067911
8.699999999999989,0.5264032835439272,-0.9108196272116692,-2.8652214913647627
8.70999999999998,0.4715571579434471,-0.9144259731801792,-2.882092316122816
8.719999999999999,0.4388229234257451,-0.9109197855087048,-2.8988645926578087
8.72999999999999,0.410910083117,-0.9142785803698836,-2.907141493010887
8.73999999999998,0.4098346190739389,-0.9097014556164844,-2.9109235698061178
8.75,0.4205424686000543,-0.9114088038628406,-2.9154691026583746
8.759999999999991,0.4328628124305086,-0.8967866733513827,-2.9154243350969025
8.769999999999982,0.4332944995084603,-0.8919948027229624,-2.914526380214568
8.780000000000001,0.4087413040539057,-0.8955495733410158,-2.8978399536799144
8.789999999999992,0.3867238155512842,-0.8922708593613375,-2.8881446932496564
8.799999999999983,0.3533916659602558,-0.9019838110335432,-2.890972813849972
8.810000000000002,0.3046941576733929,-0.9024983878227536,-2.870855205559951
8.819999999999993,0.2737027693548976,-0.9122472169403656,-2.85435921161854
8.829999999999984,0.266789146051158,-0.9008141194758934,-2.8295654954574045
8.840000000000003,0.2755188360669598,-0.8892728334347267,-2.804721183068367
8.849999999999994,0.2778349639704792,-0.8819909787170659,-2.7697824826477744
8.859999999999985,0.2421834004708608,-0.8770354930540221,-2.7278175034013423
8.870000000000005,0.216113046903719,-0.8711210061627107,-2.6991281740197954
8.879999999999995,0.1963051461843427,-0.8750295613686389,-2.6607790120288946
8.889999999999986,0.1733671304582138,-0.8758844677417177,-2.6376504287013582
8.900000000000006,0.1556343338390644,-0.8678284306615316,-2.6200712732631435
8.909999999999997,0.1436425885103344,-0.8666952405775963,-2.595888921542632
8.919999999999987,0.1448082058254046,-0.8704618262845218,-2.5728741889074502
8.929999999999978,0.1961079841600642,-0.8703228513375036,-2.54656715140376
8.939999999999998,0.2693441417986889,-0.8717661117681121,-2.508216523051291
8.949999999999989,0.3708271752729074,-0.8759988750876936,-2.4642183519886327
8.95999999999998,0.481647187061752,-0.8728840452783693,-2.4222681365125243
8.969999999999999,0.5789029779075004,-0.8711932210310946,-2.389234378488089
8.97999999999999,0.661363459992764,-0.8692541669171083,-2.351656867313248
8.98999999999998,0.7131624779536352,-0.8641345554502979,-2.3247341252832245
9.0,0.7436894583076207,-0.8873984107290294,-2.3096206606279948
9.009999999999993,0.7670115555243151,-0.901960364224025,-2.29595707517562
9.019999999999982,0.7642289511399549,-0.9224947273438876,-2.276431067216772
9.03,0.7445664313545193,-0.949474036057867,-2.2561742884091744
9.039999999999992,0.7158313330962524,-0.9705853621458844,-2.2242504000609813
9.049999999999985,0.6813662022880117,-0.9884779464541106,-2.1913017465414883
9.060000000000002,0.6528615090872578,-1.0051471008853845,-2.158210312993506
9.069999999999991,0.6402921925525652,-1.0249125665205383,-2.136754713390931
9.079999999999984,0.6437539652474301,-1.03600960573603,-2.110863050668283
9.090000000000003,0.6693683726400862,-1.0423649754030078,-2.086211698058301
9.099999999999994,0.7111251616576268,-1.04860276128672,-2.0647397959958544
9.109999999999983,0.7562675864255103,-1.0654256199787229,-2.048923326233344
9.120000000000005,0.7951906713113378,-1.0890378871883435,-2.030162792895433
9.129999999999995,0.8100948443313424,-1.1119623431563013,-2.0143387602078584
9.139999999999986,0.8147733029255088,-1.1347584743160997,-2.0038712879316782
9.150000000000006,0.8033597922718976,-1.1686384152201303,-1.9876448135596363
9.159999999999997,0.8012282322142031,-1.2007283947588905,-1.9935156763370905
9.169999999999987,0.7887200434680123,-1.2125648721293307,-1.994796482961618
9.179999999999978,0.7726352358595294,-1.2257849928376168,-2.009954294267782
9.189999999999998,0.7921618227413033,-1.233595279984171,-2.0178426160227967
9.199999999999989,0.8061799655397546,-1.2384090954610965,-2.04580037518035
9.20999999999998,0.8338607729896772,-1.2367363267043563,-2.072290500820828
9.22,0.8581865948237852,-1.2383943557201675,-2.080310273110608
9.22999999999999,0.8785052186192002,-1.2443985807485345,-2.094895442478855
9.23999999999998,0.901250041610682,-1.252098687844862,-2.1018016200425067
9.25,0.8954568395913709,-1.2735528718907485,-2.1085732602446234
9.259999999999993,0.8727327772964837,-1.2868754820393005,-2.10579320974475
9.269999999999982,0.8332160354087433,-1.2896876721872006,-2.0955824302800896
9.28,0.7966974418105812,-1.3012178183472822,-2.090044980720272
9.289999999999992,0.7683412207340757,-1.3135936337516336,-2.0919179169382383
9.299999999999985,0.7312901408684882,-1.3147094340639005,-2.092885260590484
9.310000000000002,0.7071551295390835,-1.3022953340886876,-2.1073649672471837
9.319999999999991,0.6941227093566038,-1.291435481887667,-2.121126114634573
9.329999999999984,0.6939778824341131,-1.2665962712778078,-2.1229738490003704
9.340000000000003,0.6922733128263433,-1.2325642170339532,-2.1156331350133346
9.349999999999994,0.7132169140469714,-1.208157922164295,-2.0999795308814706
9.359999999999983,0.7439743475150276,-1.184597261314664,-2.075486645322095
9.370000000000005,0.7834114601462028,-1.1616337007156268,-2.0499399342822096
9.379999999999995,0.8367580287259545,-1.1377387827300154,-2.0154340215971334
9.389999999999986,0.8862955067293125,-1.1071854712306004,-1.983115567627597
9.400000000000006,0.913972969804974,-1.074341718891866,-1.9496488676983683
9.409999999999997,0.938502595973015,-1.0284913333420576,-1.9184052510783465
9.419999999999987,0.9540953176729376,-0.9852199870223602,-1.8849829854950209
9.429999999999978,0.9519546250231636,-0.9647441395634628,-1.854083689898501
9.439999999999998,0.9748782994863432,-0.9302209530227566,-1.831602241640262
9.449999999999989,0.9940126242852578,-0.8994713048260515,-1.8076113968729517
9.45999999999998,1.041864985426446,-0.8595741638555946,-1.7890548946686369
9.47,1.0916720888340024,-0.8401426144444746,-1.764983283091909
9.47999999999999,1.1212661226417775,-0.8122934284644505,-1.7340485414056002
9.48999999999998,1.1626095300461965,-0.7790381317433562,-1.6967922459487073
9.5,1.1919623067749805,-0.7481860068885733,-1.6675567024489468
9.509999999999993,1.229713885534775,-0.7000686225512249,-1.6313144985369472
9.519999999999982,1.255063711442802,-0.6572721922193238,-1.6014882623819664
9.53,1.2729672188978376,-0.6127552582320422,-1.5646332488144126
9.539999999999992,1.294200487880288,-0.5657435718359652,-1.53318514447419
9.549999999999985,1.326546865905326,-0.5137552075593123,-1.5034890485518797
9.560000000000002,1.3771290820457764,-0.4577316904026919,-1.4860776120539667
9.569999999999991,1.4036661466263218,-0.4092458989098719,-1.4595453136211811
9.579999999999984,1.4277724832373648,-0.3412338177156491,-1.4256084435444762
9.590000000000003,1.4520013310209752,-0.2755563564538998,-1.3877453734115563
9.599999999999994,1.4807873684860011,-0.2066036505549263,-1.3364168282276152
9.609999999999983,1.5080375244809616,-0.1304893144041845,-1.288177940900489
9.620000000000005,1.5297040793147294,-0.0458832641825288,-1.225504534885405
9.629999999999995,1.5438339914195711,0.0465608656417012,-1.1785498519044335
9.639999999999986,1.5251568193953005,0.1331318172494068,-1.1253225627311447
9.650000000000006,1.4840128928362086,0.2294044337481743,-1.0709806367345245
9.659999999999997,1.4435783575296175,0.3243417598990954,-1.012859511420393
9.669999999999987,1.420572291753123,0.4080831838682967,-0.9408839538271494
9.679999999999978,1.419768164825136,0.5010829773818661,-0.8640531124032754
9.689999999999998,1.4239610777299072,0.6005541029471347,-0.7736937038499921
9.699999999999989,1.4201069008795664,0.7011281724828795,-0.6838475717838873
9.70999999999998,1.4209883472888056,0.7989685108861846,-0.5843733983800179
9.72,1.3981570793503977,0.8956277921423257,-0.4795567381943927
9.72999999999999,1.348625186672743,0.984016712907675,-0.3812219357258886
9.73999999999998,1.2832682024642943,1.065389919275619,-0.283259239741036
9.75,1.192921535134905,1.1477743674786152,-0.1945615833182598
9.759999999999993,1.0824287290133263,1.2238747764762017,-0.09125436951393
9.769999999999982,0.982476303262551,1.3051023036642624,0.0162952618729139
9.78,0.8816211487404888,1.3818067810494647,0.1153012809222789
9.789999999999992,0.7900790438448124,1.4612103787652069,0.2326590971573514
9.799999999999985,0.7213184304592919,1.522869941254186,0.342749402238278
9.810000000000002,0.6607011659776963,1.595540256679638,0.4489763895900224
9.819999999999991,0.6014939552717058,1.669608555900555,0.5505274791267979
9.829999999999984,0.5497099430315758,1.7326550380340568,0.6514222607996474
9.840000000000003,0.511767480729628,1.8000938034391196,0.7537756515199383
9.849999999999994,0.4771475724253564,1.875212818739336,0.8406300974462456
9.859999999999983,0.4308981738974275,1.955020070791852,0.9216581868473036
9.870000000000005,0.372265565942913,2.0301931975883774,1.0088779471609457
9.879999999999995,0.3001507273725239,2.0947760473364063,1.0983478605171433
9.889999999999986,0.2283064982225038,2.1557888335348454,1.1698353275006783
9.900000000000006,0.1623538216481644,2.2206021741973747,1.2297151581823946
9.909999999999997,0.1125374187247623,2.277329181440824,1.2815922447596508
9.919999999999987,0.0683849404953782,2.3490319680486254,1.3219195709143496
9.929999999999978,0.0341119676609716,2.4227723334602653,1.365375349309638
9.939999999999998,-0.008756722111419,2.500139803889941,1.4134499789338182
9.949999999999989,-0.0727610715260855,2.5679834118420835,1.4600074324649637
9.95999999999998,-0.1326446015016308,2.6372763488161417,1.5131109239854017
9.97,-0.1906038357212594,2.700917880493889,1.575713156933854
9.97999999999999,-0.2383701773542084,2.764142766378518,1.6188999910186936
9.98999999999998,-0.2902261154233295,2.827099719716508,1.6655120526928875
10.0,-0.348497702072729,2.894772293545839,1.712646834430001
10.009999999999993,-0.4053445840121751,2.9587938893323438,1.7454671715284429
10.019999999999982,-0.4673706773505587,3.021707394963252,1.7774346635993636
10.03,-0.5410785586034478,3.078321151325154,1.7888132981356375
10.039999999999992,-0.6118330702262215,3.119872637798764,1.8003237485793298
10.049999999999985,-0.688005649798564,3.1641601564873043,1.8002054128368357
10.060000000000002,-0.7638473776794119,3.1941843377867247,1.8012651033350944
10.069999999999991,-0.8336890603843211,3.220761008567641,1.782668505600015
10.079999999999984,-0.8896929333878256,3.249038728886439,1.745192359992719
10.090000000000003,-0.9283204215424476,3.2828882857997552,1.709558790078608
10.099999999999994,-0.9484088428488904,3.288918893057576,1.671960585030683
10.109999999999983,-0.9550382042263468,3.282057662809234,1.6244504344467536
10.120000000000005,-0.9533800686010452,3.281171059518661,1.5830087932038537
10.129999999999995,-0.953846897910869,3.2815271336926526,1.5593111476915238
10.139999999999986,-0.9546754406924404,3.269522657859896,1.526890534300261
10.150000000000006,-0.95885319457254,3.247055891659689,1.470347442015367
10.159999999999997,-0.9799468641397432,3.219911319594354,1.4078394868067543
10.169999999999987,-0.997595645059606,3.1977655824870648,1.3543637854002384
10.179999999999978,-1.0030537307933312,3.1740742266807715,1.3122552674499923
10.189999999999998,-1.0014283429372324,3.1323301416586,1.2779889440942604
10.199999999999989,-1.0051249731920795,3.0969246607887504,1.2601661613283837
10.20999999999998,-1.0084293977609875,3.053273004069508,1.241282276211216
10.22,-1.005776881603892,3.003793730961869,1.232599743706624
10.22999999999999,-0.9981978283108366,2.9520267435125733,1.2204839145650623
10.23999999999998,-0.9831350686645448,2.897519480503491,1.195478187845477
10.25,-0.9529976568622756,2.8712514296454805,1.1733021046830587
10.259999999999993,-0.9085789144609404,2.845269831477565,1.1456582831856768
10.269999999999982,-0.8778384069688986,2.818828808208403,1.1195769813939322
10.28,-0.8509632092154698,2.794485240220322,1.11148463765935
10.289999999999992,-0.8434455377367,2.744988243472109,1.1125108792104397
10.299999999999985,-0.8551847390332964,2.6914041591861864,1.1080418574084785
10.310000000000002,-0.8945968875382992,2.6403387896486645,1.1034447533459106
10.319999999999991,-0.9421920301500766,2.591322410301764,1.097544488211631
10.329999999999984,-1.0035063994764937,2.5636419695009764,1.086915245072235
10.340000000000003,-1.0716400222172762,2.5393961947902697,1.065226180067569
10.349999999999994,-1.1342940117005471,2.505623660644108,1.0435096641160586
10.359999999999983,-1.2052391898241028,2.4725273071056866,1.0184908879456605
10.370000000000005,-1.2551889894960004,2.438440197718736,0.9889704580467072
10.379999999999995,-1.3186171846913717,2.375377948368603,0.9509152993742938
10.389999999999986,-1.361080462188056,2.3077693534146837,0.92061672913699
10.400000000000006,-1.394490812020074,2.2627479848035006,0.8775764957912625
10.409999999999997,-1.4327571096298175,2.196723622452363,0.8278539538404764
10.419999999999987,-1.4549049018389903,2.141455173808459,0.7637114834596057
10.429999999999978,-1.4821202061857024,2.1022273247606487,0.7070251739786032
10.439999999999998,-1.5190858136349124,2.052501518098798,0.64502909057759
10.449999999999989,-1.5511355559071616,1.989545567245453,0.5841700727130447
10.45999999999998,-1.584099233397821,1.935752962905,0.536297467641483
10.47,-1.6050912512488558,1.8689777214132333,0.4825978570379189
10.47999999999999,-1.6325216352685188,1.8020911603857253,0.4388236902985146
10.48999999999998,-1.6635929391582394,1.7427571590534876,0.3997211803570298
10.5,-1.6728250325988452,1.6791430331515982,0.3593994170415319
10.509999999999993,-1.673611766438914,1.6319400903008638,0.3285136734673285
10.519999999999982,-1.6731192399357857,1.5845334779167564,0.2821518377400488
10.53,-1.6720400309200758,1.5450138602994927,0.2342693241019858
10.539999999999992,-1.67269203380555,1.4885031974684513,0.1815858818935072
10.549999999999985,-1.705775214799519,1.4269058968713446,0.1054215412652214
10.560000000000002,-1.757751174596593,1.3692206432401552,0.0531393247188941
10.569999999999991,-1.8429527834358328,1.3102898315919718,-0.0015180590495433
10.579999999999984,-1.937472454205983,1.251931130231877,-0.0508837965693139
10.590000000000003,-1.997466411187992,1.2071500955859935,-0.0962326808654905
10.599999999999994,-2.044351311775348,1.1685498291755332,-0.1503035854198624
10.609999999999983,-2.073740314880877,1.1357026785025943,-0.2066803727719948
10.620000000000005,-2.086005872577509,1.109866476939506,-0.2712681778565778
10.629999999999995,-2.085821441148282,1.0724489736151177,-0.3303580749664982
10.639999999999986,-2.090856228536032,1.025617172708268,-0.3970586697245207
10.650000000000006,-2.0736793742033006,0.9730707966754448,-0.4568416414703204
10.659999999999997,-2.0325404734441226,0.9247746570885704,-0.5119982963956362
10.669999999999987,-1.978587119316568,0.8761044125554109,-0.5700094632847139
10.679999999999978,-1.9094727118883643,0.8252046420179411,-0.6251314283727549
10.689999999999998,-1.866339930508888,0.7641860526746537,-0.6908372562696853
10.699999999999989,-1.836987680336208,0.7018272559577355,-0.7629126886387207
10.70999999999998,-1.8163156967041736,0.6306970305689668,-0.8357006581606974
10.72,-1.7986049883761877,0.5423976871862547,-0.9139165506652784
10.72999999999999,-1.751000059608195,0.4646230032027089,-0.9941454673535968
10.73999999999998,-1.6922798688154266,0.3765873541255452,-1.0637934519288488
10.75,-1.612910748580616,0.2849169897702263,-1.1257654429484252
10.759999999999993,-1.503871603805902,0.1920273070035908,-1.1890987399619832
10.769999999999982,-1.392465219056869,0.1038732206077933,-1.2575145017773162
10.78,-1.294411318028742,0.0176470819745345,-1.3194803930222605
10.789999999999992,-1.1931084919035784,-0.0550505771992227,-1.3820570413277582
10.799999999999985,-1.1007200265342332,-0.1419324423569944,-1.456620560239062
10.810000000000002,-0.9865902640874578,-0.2193173413830436,-1.54173987473047
10.819999999999991,-0.8520701251519789,-0.2877963583290676,-1.625233689123995
10.829999999999984,-0.7160106589314188,-0.3588722931453614,-1.6963445774483965
10.840000000000003,-0.5919904559223762,-0.4224920088130456,-1.747238307256615
10.849999999999994,-0.4757139878640669,-0.491677814326653,-1.8036244074229268
10.859999999999983,-0.3843662922501081,-0.5532822492160046,-1.858256297816346
10.870000000000005,-0.3261080888032827,-0.6038411573739477,-1.9108369831872272
10.879999999999995,-0.2924178544243879,-0.6421515800642561,-1.9665402045097289
10.889999999999986,-0.2750799321182671,-0.6841356436421986,-2.016475072687569
10.900000000000006,-0.2759199686489606,-0.7301138746782635,-2.0808121002115367
10.909999999999997,-0.2575071332255531,-0.761220568970813,-2.14520207241255
10.919999999999987,-0.2549145289885741,-0.7939919029491268,-2.197692904688503
10.929999999999978,-0.2491503300956871,-0.8253177790533248,-2.2442283164313688
10.939999999999998,-0.2209006195821341,-0.8513571968427903,-2.276898216177764
10.949999999999989,-0.1785106984594473,-0.8699549026937834,-2.3068068090429263
10.95999999999998,-0.1367548189756805,-0.8883434910851791,-2.3227597296390528
10.97,-0.1007476255092744,-0.9234272125183276,-2.326410100718735
10.97999999999999,-0.0757020152113848,-0.9657692368642484,-2.334709022590831
10.98999999999998,-0.0567420546177171,-1.0189244615925508,-2.350665258367273
11.0,-0.0513012596306938,-1.0707916006484046,-2.383269977779553
11.009999999999993,-0.0749487674632218,-1.1083826603497535,-2.391043110709847
11.019999999999982,-0.0757805651408356,-1.144489189544768,-2.403268021873585
11.03,-0.0798439744910034,-1.1745074073754385,-2.4281432852881872
11.039999999999992,-0.0408904427415147,-1.205069870262346,-2.444912851801643
11.049999999999985,-0.0090426112435065,-1.2070249156052486,-2.4639030169565985
11.060000000000002,0.0138419426949923,-1.2138834772698532,-2.4851085933652293
11.069999999999991,0.0056832516906313,-1.21427997291572,-2.4940716090441657
11.079999999999984,-0.0329238689732203,-1.2093462213085673,-2.497411467004031
11.090000000000003,-0.096246528175037,-1.222231248570419,-2.4933340367837875
11.099999999999994,-0.1916546381241333,-1.2479561295511423,-2.4734644168712148
11.109999999999983,-0.2859750184627202,-1.2821608950694132,-2.4628291814270926
11.120000000000005,-0.3672200524175324,-1.2917452360992263,-2.4462331074105474
11.129999999999995,-0.4251774626900625,-1.278523185454009,-2.438584784676236
11.139999999999986,-0.4721256081662934,-1.2597349895268843,-2.407171543469503
11.150000000000006,-0.5196335507755002,-1.2449045609084215,-2.3656805278541637
11.159999999999997,-0.5579294421914095,-1.225965661500441,-2.330344101523239
11.169999999999987,-0.5953086543014657,-1.216306164123501,-2.2827712258350883
11.179999999999978,-0.6368869092394835,-1.2331569236461424,-2.2169655727173985
11.189999999999998,-0.6817714576390738,-1.2465155170688618,-2.1572429304910736
11.199999999999989,-0.7056802730586257,-1.2568862181492593,-2.103345968098083
11.20999999999998,-0.7092809214548432,-1.237789865392896,-2.044032341854145
11.22,-0.6808224695912607,-1.2069779876621276,-2.009474027351402
11.22999999999999,-0.6545033065368193,-1.1775780509968428,-2.003271306562336
11.23999999999998,-0.7782250813964007,-1.169185342958733,-2.0232409640696565
11.25,-0.9494777081697336,-1.134375954868393,-2.016392736806913
11.259999999999993,-1.0727656606813267,-1.091154287447761,-1.9944650499742709
11.269999999999982,-1.1194965723613166,-1.101944352849347,-1.967931834440239
11.28,-1.1184801484277749,-1.091899645168868,-1.9328051626138816
11.289999999999992,-1.0685357597881668,-1.0602235500038513,-1.9042596105872969
11.299999999999985,-0.9622831285046958,-1.0128570546164186,-1.8814631017454857
11.310000000000002,-0.8446852904598424,-0.963924289497751,-1.871060327699956
11.319999999999991,-0.7312992903325821,-0.9230585878356332,-1.8551907236573824
11.329999999999984,-0.6299188281817836,-0.866899514279681,-1.842944923236285
11.340000000000003,-0.5501418565851427,-0.8191357423774847,-1.8325004710288093
11.349999999999994,-0.5123086287332029,-0.8022096519586391,-1.8267531658181893
11.359999999999983,-0.5119238129399492,-0.7836003359258576,-1.8195904035766732
11.370000000000005,-0.5697107978250399,-0.7915446756757901,-1.7810082390122686
11.379999999999995,-0.6455196353308625,-0.8047055712954025,-1.730180444443134
11.389999999999986,-0.7020815758503671,-0.8219850195885067,-1.6899015798436194
11.400000000000006,-0.7392103067087091,-0.8471094637848914,-1.6537452131047194
11.409999999999997,-0.7584412826041002,-0.8309394106891572,-1.6172311009468785
11.419999999999987,-0.7536927190709873,-0.805536345719005,-1.5899398808134848
11.429999999999978,-0.7444944371751888,-0.7744135212268374,-1.5636430196531563
11.439999999999998,-0.7408693612875992,-0.7494046190711338,-1.541929094441191
11.449999999999989,-0.7380057928871249,-0.7313076327917212,-1.5226323511040902
11.45999999999998,-0.7274719136259443,-0.7183647587042653,-1.5075422901614552
11.47,-0.7070432698085024,-0.7181432359538314,-1.485050525888142
11.47999999999999,-0.6923110067321278,-0.7263574313615475,-1.4603700127162007
11.48999999999998,-0.7043374094709761,-0.7515093145125571,-1.4345660548583898
11.5,-0.7247246215014519,-0.7660538712293474,-1.4078529697015976
11.509999999999993,-0.7595055910957524,-0.7780305415243295,-1.400988320422736
11.519999999999982,-0.8023493448455785,-0.7763611868414816,-1.405427058775122
11.53,-0.8488189403191672,-0.7661624618985141,-1.422368033309556
11.539999999999992,-0.8650938488241308,-0.7469473180029503,-1.454788030479798
11.549999999999985,-0.837446769593584,-0.7233019369360677,-1.48692441904172
11.560000000000002,-0.7892161553031536,-0.705866248125923,-1.5199838813848163
11.569999999999991,-0.727204030206168,-0.6812118475091675,-1.5512763803119805
11.579999999999984,-0.6673491349459519,-0.6623692846183337,-1.5716733551644204
11.590000000000003,-0.6042876371197928,-0.6407403474889706,-1.5999373740707232
11.599999999999994,-0.5421295890059842,-0.6073347117280092,-1.6429601138238816
11.609999999999983,-0.4686819578200931,-0.5725643081341799,-1.6967675170254963
11.620000000000005,-0.4192189984618285,-0.5481654792238493,-1.7534904626070935
11.629999999999995,-0.3765815285022644,-0.541656902815605,-1.806377626594836
11.639999999999986,-0.3561467486257437,-0.5437166774669209,-1.8550461673251295
11.650000000000006,-0.3571212859032369,-0.5598412218291281,-1.8967382309709813
11.659999999999997,-0.376743308310543,-0.5799757599892887,-1.9405216396047804
11.669999999999987,-0.4313054647985781,-0.5995432721060309,-1.985739145699895
11.679999999999978,-0.4827754671209093,-0.6138304166031648,-2.0373354300020337
11.689999999999998,-0.5531637501122474,-0.6336600382724814,-2.090241381349122
11.699999999999989,-0.611944852638708,-0.6584001839047681,-2.135477677850524
11.70999999999998,-0.6543993598239032,-0.6734072577891136,-2.1675427700772723
11.72,-0.6826529241345076,-0.6723157939040183,-2.1812606993185137
11.72999999999999,-0.6665922643785106,-0.6719602601628989,-2.1964236245924704
11.73999999999998,-0.6245042853018283,-0.6659275782175769,-2.1952302489573423
11.75,-0.5823644324743078,-0.646152275254633,-2.195822572149649
11.759999999999993,-0.5143373850365907,-0.6338350868891865,-2.192047870190181
11.769999999999982,-0.463513925890658,-0.6168717624511385,-2.1721124922059603
11.78,-0.4588844375829476,-0.6151418405668839,-2.1604250702307635
11.789999999999992,-0.4770660047106598,-0.6363924621076206,-2.131811253994261
11.799999999999985,-0.5380561295069309,-0.6690145813743664,-2.106415600314885
11.810000000000002,-0.5798292073011068,-0.6890021040119495,-2.0644806168638574
11.819999999999991,-0.5944557808241635,-0.6827209054838537,-2.014126599375297
11.829999999999984,-0.5876342545784667,-0.6661705472108521,-1.9736082132997084
11.840000000000003,-0.5477236002108617,-0.6427796424445137,-1.9078370525788024
11.849999999999994,-0.4979810400660953,-0.6245252949424293,-1.8377079182073897
11.859999999999983,-0.4542440305932872,-0.6191022370460829,-1.769320281582018
11.870000000000005,-0.3877699211883987,-0.6221707927200074,-1.7008545581116843
11.879999999999995,-0.3230172645880764,-0.621308005140745,-1.6367684071641784
11.889999999999986,-0.2430568149006331,-0.6103525459590471,-1.5653902808375642
11.900000000000006,-0.1408437255473842,-0.563083107329672,-1.5076748024504876
11.909999999999997,-0.027753634592178,-0.5128236293224163,-1.4442657048616538
11.919999999999987,0.0970205864017424,-0.455102490631787,-1.3885176580630434
11.929999999999978,0.2217306223245792,-0.3770463404818923,-1.342324854199727
11.939999999999998,0.3282332056639161,-0.2964678485604843,-1.2908127380012395
11.949999999999989,0.4161537338592843,-0.2037819095992771,-1.2508399297591275
11.95999999999998,0.4940868162161607,-0.1101853112521786,-1.2052207157710402
11.97,0.5877994753435866,-0.0040767680189029,-1.1692923400028934
11.97999999999999,0.667251285599831,0.113040468649699,-1.1210285745149309
11.98999999999998,0.7553503910486878,0.2339441941578672,-1.0880080171221955
12.0,0.8514178524689158,0.3441723982737711,-1.055029282567873
12.009999999999993,0.9456368572279972,0.468299042772805,-1.0225432762751765
12.019999999999982,1.064625522664205,0.5995090085348344,-0.9870577623706716
12.03,1.1874986861340655,0.7283934093993674,-0.965534364076152
12.039999999999992,1.3377234589673468,0.8479576923723439,-0.9414540638271064
12.049999999999985,1.4932237826458996,0.9439063620932708,-0.9246160068673676
12.060000000000002,1.6581633024415496,1.0362210387364752,-0.9159293367686266
12.069999999999991,1.800969220443939,1.1049867644854456,-0.9073281490826204
12.079999999999984,1.9297978957650488,1.1779266439275176,-0.9044362117101836
12.090000000000003,2.0083332184928597,1.250951936040741,-0.9106586244525906
12.099999999999994,2.0591157458389238,1.339734405321253,-0.9362001611326902
12.109999999999983,2.0810185142388478,1.4271439995606972,-0.9709682193990506
12.120000000000005,2.061011051756708,1.5028929344617548,-1.017639193037977
12.129999999999995,2.016787076659748,1.5702928152676756,-1.0645117840883749
12.139999999999986,1.9396071338889105,1.6206218291108017,-1.1022655195250726
12.150000000000006,1.8571808906420384,1.6670787350308125,-1.138307353779148
12.159999999999997,1.7812351936315898,1.6961036730030228,-1.1710178897745778
12.169999999999987,1.7198288101773451,1.7540209647544636,-1.1913175765857422
12.179999999999978,1.657701808627569,1.8091623090569195,-1.2048176977406169
12.189999999999998,1.5920478095921324,1.856472942547908,-1.2008193455985017
12.199999999999989,1.5002568675107988,1.8927606749010208,-1.207248560293805
12.20999999999998,1.4034845820824664,1.92107541863776,-1.191760357953629
12.22,1.3017404177952534,1.957706891787304,-1.176711858386074
12.22999999999999,1.1900341800748648,1.9959370980342792,-1.1590336641407064
12.23999999999998,1.1004324050009349,2.042457626017972,-1.1314709688805311
12.25,1.0214390568243654,2.0910387258393897,-1.1109722784065923
12.259999999999993,0.95179225991962,2.1355961488573,-1.0751627968065582
12.269999999999982,0.8805286106565112,2.193172031986657,-1.0272432460220051
12.28,0.8088645212172848,2.23929746913069,-0.9633840072295092
12.289999999999992,0.7402744987702161,2.276611629138668,-0.8918585750053794
12.299999999999985,0.6872065418739627,2.305810199492924,-0.8077180124719063
12.310000000000002,0.6249927363852092,2.3484825014856217,-0.7153066532665873
12.319999999999991,0.6021249178366834,2.4029372370531448,-0.6170203113532503
12.329999999999984,0.6025906722687968,2.4010528749277054,-0.5202283948784975
12.340000000000003,0.5457364945291179,2.4147623746240985,-0.4130516051535729
12.349999999999994,0.4749702911076581,2.419544845371718,-0.2968644236972246
12.359999999999983,0.416790125071694,2.4250810166362338,-0.1737577876614872
12.370000000000005,0.3523898455614062,2.4330324458878034,-0.0421977567870175
12.379999999999995,0.3084807067240483,2.4303285239413435,0.1168125185381556
12.389999999999986,0.275586464758105,2.407863387140197,0.2913966591911381
12.400000000000006,0.2457378901356457,2.3981242754074823,0.4408641860158735
12.409999999999997,0.2286111754560595,2.37326957503479,0.5809358817178271
12.419999999999987,0.2191471961336106,2.3327205144772227,0.6969679649135725
12.429999999999978,0.201604376137681,2.2812869234224644,0.8111049007206681
12.439999999999998,0.1671418045138362,2.227837818899541,0.9343468723872
12.449999999999989,0.1245466342839333,2.183158830139724,1.051854668155132
12.45999999999998,0.0775999321704482,2.140850169917502,1.1706668932012467
12.47,0.0242525141551382,2.104178622628578,1.2940980306100376
12.47999999999999,-0.0478907832541252,2.0900989734265423,1.4083160251215492
12.48999999999998,-0.1074272157348418,2.091821971587409,1.5268500722409557
12.5,-0.1693387614223694,2.087486316804031,1.6382944229074985
12.509999999999993,-0.2098384438454582,2.092159128461549,1.7282272815831616
12.519999999999982,-0.2386259839644137,2.1057430266748125,1.8101704237364995
12.53,-0.2522801765379756,2.1384605257199296,1.88386984620768
12.539999999999992,-0.2552519617846716,2.149847855044163,1.940406918713456
12.549999999999985,-0.2412823473580201,2.1657666402192475,1.992773266168801
12.560000000000002,-0.2063391613439041,2.174650731777397,2.045275397795335
12.569999999999991,-0.1741997074308484,2.189894560108649,2.1024287933979893
12.579999999999984,-0.1410839997734331,2.2264388351669604,2.1651378242206047
12.590000000000003,-0.1211530394909848,2.242207836817091,2.2297984467950864
12.599999999999994,-0.1346075276290682,2.252966624922625,2.302747705528723
12.609999999999983,-0.1670890968992129,2.265331290360994,2.3622262134304544
12.620000000000005,-0.2083602785417121,2.2659088935601144,2.417509414070142
12.629999999999995,-0.2601698604125348,2.2721409961574666,2.4693133053397456
12.639999999999986,-0.3060015851591844,2.279809111153903,2.5009670240927515
12.650000000000006,-0.3489588135460478,2.2846908448738823,2.53119634999634
12.659999999999997,-0.3782004426254888,2.297894336466745,2.5534351298895865
12.669999999999987,-0.4227043691600317,2.2979454542074764,2.578477420027202
12.679999999999978,-0.4787113336068203,2.292947477254012,2.5992044447644265
12.689999999999998,-0.5489662314776945,2.2897360243519933,2.6034422545557576
12.699999999999989,-0.6152663631638957,2.2548275737977472,2.6126512930266497
12.70999999999998,-0.6733839382215363,2.215484979077447,2.613996025275431
12.72,-0.7104887894622743,2.189045908921678,2.607428120037272
12.72999999999999,-0.7384319282602644,2.158852627845678,2.592216258445721
12.73999999999998,-0.7619771339717727,2.126418257268666,2.5779789627518763
12.75,-0.7672536686470826,2.095668344948275,2.551693856551343
12.759999999999993,-0.7602978215332081,2.073001088097574,2.5237495860080266
12.769999999999982,-0.7431862845583241,2.055949153397681,2.489243472576248
12.78,-0.7289283962289764,2.0348980494124405,2.4694667013277063
12.789999999999992,-0.7028742260715195,2.005547685368492,2.4404462753679863
12.799999999999985,-0.685014384708967,1.963496107562964,2.409544344494124
12.810000000000002,-0.6551600598138252,1.9287756037244823,2.3874674102120763
12.819999999999991,-0.6533983167004161,1.893502400984828,2.3618600785444475
12.829999999999984,-0.6594713754939906,1.8636915444601176,2.339611930184552
12.840000000000003,-0.6529157179533118,1.8408012848798463,2.314702714680342
12.849999999999994,-0.6525212296318125,1.819199035271553,2.28722555730405
12.859999999999983,-0.6453077764298798,1.78986155907572,2.2582748705451663
12.870000000000005,-0.638576099237074,1.7584509476861363,2.235504735267461
12.879999999999995,-0.6164323278866705,1.72922583730899,2.205034902509897
12.889999999999986,-0.5919714573760959,1.7014735314532836,2.1774408323735
12.900000000000006,-0.5707672127569603,1.6846891288080448,2.141368262666626
12.909999999999997,-0.5623247936296902,1.6682776639271035,2.116408850139734
12.919999999999987,-0.5667262893762331,1.6489416051791903,2.0881961270338545
12.929999999999978,-0.5971141346191299,1.6089934257889238,2.0631989636954438
12.939999999999998,-0.6436449097366712,1.5791379459991968,2.0533496624812324
12.949999999999989,-0.7046560642638076,1.5529571648677218,2.0541853859067816
12.95999999999998,-0.7655803000375772,1.5356418968115209,2.041599243431558
12.97,-0.8104672271310357,1.541427800477932,2.0236465435851128
12.97999999999999,-0.8157744939251863,1.534071708903987,2.014600402397297
12.98999999999998,-0.8196587104467711,1.5297975848002394,1.993427798108693
13.0,-0.8052650432481279,1.5360241376411603,1.9708218974215648
13.009999999999993,-0.7648594910593167,1.5527311921305802,1.943060093914912
13.019999999999982,-0.7478395711567255,1.5596046552940346,1.922492586588569
13.03,-0.7381406763166662,1.54646389431842,1.9166333283879933
13.039999999999992,-0.7406009429882121,1.540916375042371,1.89804151308556
13.049999999999985,-0.7545475295723841,1.5451192923757548,1.88639476149072
13.060000000000002,-0.7462639029323457,1.5578788964612986,1.8636644909772573
13.069999999999991,-0.7413344791347004,1.579088079893173,1.8446851386734655
13.079999999999984,-0.7306858815721494,1.585115202345461,1.826997456479461
13.090000000000003,-0.7201717287597662,1.5877720863384224,1.8222077103251837
13.099999999999994,-0.7176835651931703,1.5748661636423378,1.830667797042134
13.109999999999983,-0.6948310319291223,1.5555034707774806,1.8193228307930025
13.120000000000005,-0.6754031273514002,1.5399556993744854,1.8163573857268625
13.129999999999995,-0.6500292823366834,1.503966198370624,1.8153089169296657
13.139999999999986,-0.6393159351048767,1.4721440989528507,1.8261537288465663
13.150000000000006,-0.6460420644482864,1.4146250033144352,1.8413682059007763
13.159999999999997,-0.6822468978302912,1.3497573030221897,1.8476974258200896
13.169999999999987,-0.7577172237478306,1.2629524171274276,1.8568465262136284
13.179999999999978,-0.8714153265487532,1.1656205590708353,1.8588864001378655
13.189999999999998,-1.0254989440303708,1.067276492064414,1.843222434223149
13.199999999999989,-1.1607935590105096,0.9638381168321212,1.8258730089909605
13.20999999999998,-1.265119341002853,0.8610061161869742,1.802201506290831
13.22,-1.3283169231030405,0.7339384164756151,1.791978079188291
13.22999999999999,-1.33335102311413,0.5998487806124195,1.7799813393603514
13.23999999999998,-1.3288884878335172,0.4626729653226242,1.76870120462579
13.25,-1.3131849404322775,0.3365930441527413,1.7546407995375004
13.259999999999993,-1.2904418287025192,0.2156748091194488,1.742002469036588
13.269999999999982,-1.2812715912357746,0.0943425871958476,1.7318025125474708
13.28,-1.2792104681370318,-0.036740475042833,1.724532833379764
13.289999999999992,-1.2685597890859068,-0.1664318015908461,1.720042968714351
13.299999999999985,-1.2480808268520769,-0.275192196939549,1.7001199336794028
13.310000000000002,-1.2419334530423267,-0.3822316173670499,1.6696060973909947
13.319999999999991,-1.2209856216110644,-0.4855912060948845,1.6337903433999994
13.329999999999984,-1.1640387498189166,-0.5770924153755936,1.612858313459831
13.340000000000003,-1.094605664767479,-0.6806034343942527,1.5998701670889068
13.349999999999994,-1.006762431037485,-0.7885353295976937,1.58918969361266
13.359999999999983,-0.914258219836792,-0.8845585995468378,1.570451136171019
13.370000000000005,-0.8131060446624777,-0.9734212565872276,1.5409789330530146
13.379999999999995,-0.7363643409088626,-1.0761877329431562,1.4990610880938475
13.389999999999986,-0.6934174247261882,-1.1691772659521242,1.4392081350025734
13.400000000000006,-0.6648528389182208,-1.2539059659364338,1.37257274381082
13.409999999999997,-0.639247122621347,-1.3451433222700926,1.3119769656981977
13.419999999999987,-0.6021051861788883,-1.4265468380587392,1.263912457526786
13.429999999999978,-0.5379507251317713,-1.5016312055114942,1.238673256915624
13.439999999999998,-0.4343219624468097,-1.5794902293428517,1.2269429319241842
13.449999999999989,-0.3231233132132411,-1.6406997071120184,1.2078448951700695
13.45999999999998,-0.1847018766943661,-1.680658048462889,1.1623012840514668
13.47,-0.0752248605161393,-1.7187602110153168,1.1035863778834232
13.47999999999999,-0.0060332870900268,-1.7719869877881629,1.024251305268461
13.48999999999998,0.0479188646691754,-1.8354168407672315,0.9409015381109598
13.5,0.0866305488505762,-1.900371191069237,0.8652116959184889
13.509999999999993,0.126605579671355,-1.955687643627104,0.7994251659060457
13.519999999999982,0.1805310927656817,-2.004813473303701,0.7517998422953166
13.53,0.2420338960989536,-2.0650642862739685,0.716309880747507
13.539999999999992,0.3029919310775159,-2.117886768917367,0.6752039262847989
13.549999999999985,0.3494142164778011,-2.176698916372987,0.6249099858784747
13.560000000000002,0.3568433492693008,-2.235110902845125,0.564224115267357
13.569999999999991,0.3544611334927159,-2.3130595313527285,0.5067948819656329
13.579999999999984,0.3644214636498946,-2.390980317767304,0.4415613230481934
13.590000000000003,0.3965001702937237,-2.4674884067537035,0.3873260358461256
13.599999999999994,0.4609265857998212,-2.5363752264166384,0.3283065574773022
13.609999999999983,0.5080008769700459,-2.5804170654741565,0.269628649192688
13.620000000000005,0.5344646832573234,-2.610029314801074,0.2036032887007148
13.629999999999995,0.531505063768236,-2.6346886235140388,0.1263208831862995
13.639999999999986,0.4932086726998176,-2.6543869984634547,0.0861694539729765
13.650000000000006,0.4358186664322239,-2.681597331638071,0.0416825414509093
13.659999999999997,0.3601670889394018,-2.720649138233993,-0.0086102109363879
13.669999999999987,0.2900267641520983,-2.7593161577259284,-0.0522619650446024
13.679999999999978,0.2426751374196054,-2.812954407515666,-0.0999924431698703
13.689999999999998,0.2247052561489146,-2.8510720127479354,-0.1307364670043111
13.699999999999989,0.2192574857276442,-2.888823937440936,-0.1507198372390249
13.70999999999998,0.2303673741728829,-2.906976441465752,-0.1695485570753626
13.72,0.2450393308899894,-2.931008086965608,-0.183826815223035
13.72999999999999,0.2517096106650707,-2.962419737607645,-0.2027491640185267
13.73999999999998,0.250491878586413,-2.9777225194699484,-0.2137659915816511
13.75,0.2519580197151323,-2.9948818423704635,-0.2254670757203014
13.759999999999993,0.2413150198836311,-2.998198897988708,-0.2398960820317622
13.769999999999982,0.2182213081057791,-2.9939629584850347,-0.2790500933834587
13.78,0.1847735138078933,-2.993343819199344,-0.3149244551699855
13.789999999999992,0.1299472938372954,-2.992359490950117,-0.3560298816865188
13.799999999999985,0.0613054198393906,-2.9864887340638515,-0.3974276234946072
13.810000000000002,-0.0093196156787665,-2.974756332844955,-0.4256361243455409
13.819999999999991,-0.0821075709631021,-2.964440562565001,-0.4599973270265013
13.829999999999984,-0.1485168191854613,-2.940038806517878,-0.4894987589679746
13.840000000000003,-0.1957124556769781,-2.9216485414696995,-0.5201549159305688
13.849999999999994,-0.2314504875123665,-2.90279573870015,-0.5472880142503682
13.859999999999983,-0.24820325857747,-2.876047373073773,-0.5673512918188365
13.870000000000005,-0.2638391147581708,-2.856183719515788,-0.5970802580476023
13.879999999999995,-0.2902592195024077,-2.841875784385641,-0.6200992924763143
13.889999999999986,-0.3308123403689693,-2.823854882341198,-0.6474884645725308
13.900000000000006,-0.3800465472996781,-2.791964960150188,-0.6898935451255888
13.909999999999997,-0.4457834398023992,-2.7669910038664813,-0.7210267676150482
13.919999999999987,-0.5390647929242048,-2.749564624667781,-0.7491823659686232
13.929999999999978,-0.6310587439061361,-2.720139192766012,-0.7736617035671283
13.939999999999998,-0.7347926568951335,-2.680384445626831,-0.8055708664433906
13.949999999999989,-0.8590418739934694,-2.642179295811566,-0.8423937128339176
13.95999999999998,-0.9866010288615944,-2.605665700189621,-0.8807848760197869
13.97,-1.1393327758926797,-2.564619095654982,-0.9223415666579108
13.97999999999999,-1.2976241941635605,-2.5176828322804563,-0.9859157152187986
13.98999999999998,-1.4338068519937983,-2.485664698143638,-1.050549961790053
14.0,-1.5715719257437295,-2.4395717125381857,-1.1088680336452157
14.009999999999993,-1.7063038438087743,-2.3903796105703727,-1.1799007978205935
14.019999999999982,-1.830201064342428,-2.326897678485043,-1.2490769740048595
14.03,-1.943169694838334,-2.267579300907935,-1.3148449618399551
14.039999999999992,-2.055565330694244,-2.2015205934967352,-1.3592714289807886
14.049999999999985,-2.167534453553261,-2.131776586530614,-1.4032576250062754
14.060000000000002,-2.2654442124751224,-2.060886439608368,-1.450790064376014
14.069999999999991,-2.361594651002716,-1.9892707111367949,-1.4943421592630737
14.079999999999984,-2.4473851411294425,-1.9092677398038016,-1.555722275519895
14.090000000000003,-2.5398330128213447,-1.8326673516720944,-1.6052866217146773
14.099999999999994,-2.634004826259145,-1.7684849824056657,-1.6572152594123282
14.109999999999983,-2.7518727392844555,-1.700984930948832,-1.7120556145838477
14.120000000000005,-2.8876447662342115,-1.63890307626713,-1.7533828176276984
14.129999999999995,-3.023420677362842,-1.585011368063462,-1.784835247551875
14.139999999999986,-3.135490745143415,-1.5286726906404573,-1.8219980481723688
14.150000000000006,-3.2181691627704185,-1.4597683411693343,-1.84634037352044
14.159999999999997,-3.2727799941557474,-1.3894018413117788,-1.868061793854105
14.169999999999987,-3.314116405450686,-1.3234386620197212,-1.8804755789741716
14.179999999999978,-3.34803979007403,-1.243962509043712,-1.890195655784147
14.189999999999998,-3.357344154248881,-1.1499674494366796,-1.8939160414442335
14.199999999999989,-3.358125917045208,-1.0476075053152751,-1.8772292872299132
14.20999999999998,-3.346467817606359,-0.9416058674296932,-1.856376243451996
14.22,-3.321021557776626,-0.8540548209399755,-1.823367716787951
14.22999999999999,-3.2895273343063702,-0.7665142570685918,-1.8022388461664007
14.23999999999998,-3.237244308560115,-0.671811543490271,-1.7697882809374816
14.25,-3.1669643677805794,-0.5738903750663267,-1.73346863570098
14.259999999999993,-3.105531427592358,-0.48419514959692,-1.6886070293095494
14.269999999999982,-3.0410495035386376,-0.3810956377994883,-1.6376027442325591
14.28,-2.9880748027394035,-0.2961133061650651,-1.5753177300032004
14.289999999999992,-2.936424863408821,-0.2297472318774289,-1.5045701706609482
14.299999999999985,-2.8968344470924707,-0.1628903288053639,-1.4384580664179354
14.310000000000002,-2.86227750579293,-0.0996858630071864,-1.3693038401473523
14.319999999999991,-2.8116241803750426,-0.0315624317872222,-1.3164166197877296
14.329999999999984,-2.769101091664941,0.0395173057542636,-1.277194930194636
14.340000000000003,-2.743736305506149,0.1196039703754014,-1.2477621822899532
14.349999999999994,-2.724994593262129,0.2025607598543066,-1.2227162340885511
14.359999999999983,-2.7030865781899838,0.2881367482306043,-1.187172843735361
14.370000000000005,-2.6815516841249645,0.3702602572365842,-1.140879258644936
14.379999999999995,-2.654991088317612,0.4586418237032904,-1.0821073116422049
14.389999999999986,-2.6277049242465917,0.5483041257626164,-0.9974125875415896
14.400000000000006,-2.6212326251310683,0.6371054182027368,-0.8970841800284348
14.409999999999997,-2.6418382724286555,0.7256354093143048,-0.7970986594594763
14.419999999999987,-2.672124335419495,0.8066644711532808,-0.6833080002933561
14.429999999999978,-2.729480863736953,0.9031661130742435,-0.5701276537322015
14.439999999999998,-2.8117614210062385,0.9880196018280148,-0.450350442969652
14.449999999999989,-2.8958351701633687,1.064023262672953,-0.3283179664254876
14.45999999999998,-2.963856077020639,1.1363439249027494,-0.2070461037178613
14.47,-2.994890549144597,1.1739597068621976,-0.0784869027428382
14.47999999999999,-2.9998964423536125,1.1974473195756332,0.0565761065458666
14.48999999999998,-2.9845536550418874,1.216265205462127,0.2055194973397352
14.5,-2.962584908766676,1.2458442850901097,0.3547688422519149
14.509999999999993,-2.942979552067184,1.268909965191806,0.5073857698055172
14.519999999999982,-2.929037540466608,1.297802713333737,0.6641865561590778
14.53,-2.908096870531735,1.3218157880072352,0.818273309966489
14.539999999999992,-2.8811539941380406,1.324767202726822,0.9688584071923576
14.549999999999985,-2.808928078924044,1.2989579894167391,1.1180823580210568
14.560000000000002,-2.734027202190585,1.2602651961163758,1.2667214556977249
14.569999999999991,-2.6586693513968025,1.2243868081369718,1.4020533287286687
14.579999999999984,-2.542822358285844,1.1685737032658228,1.5279154855343853
14.590000000000003,-2.4750816571510854,1.126122719637422,1.6595828463701543
14.599999999999994,-2.45238279137211,1.076309336967327,1.7877653940683065
14.609999999999983,-2.430144083652699,1.044818998273005,1.9003628996726527
14.620000000000005,-2.3933313773022173,1.0059032417360907,2.0084682543810657
14.629999999999995,-2.3371453370730157,0.9593475905113704,2.1005875117292847
14.639999999999986,-2.24781852660539,0.902235903969708,2.1880698801121694
14.650000000000006,-2.1167920923418024,0.8298703694015785,2.2685241532915903
14.659999999999997,-1.9610227324677276,0.7749936798957452,2.340779426657454
14.669999999999987,-1.8024585665753212,0.72744869222826,2.397512072053468
14.679999999999978,-1.6605994743298964,0.6851022288862922,2.454962695059849
14.689999999999998,-1.5499370839612123,0.659718418219852,2.5168193779158425
14.699999999999989,-1.4605049597193844,0.640095885883412,2.569690288943675
14.70999999999998,-1.3821071952387565,0.607937289149567,2.6222152436930384
14.72,-1.307665404030702,0.5608459518321088,2.653354319550952
14.72999999999999,-1.231340957624205,0.5197004876875705,2.6719746590388764
14.73999999999998,-1.1673870866902998,0.4766915588527431,2.6947575376321224
14.75,-1.113124747938255,0.4227396195289525,2.723906927293656
14.759999999999993,-1.0467946145292422,0.3820863919126224,2.7409224976292945
14.769999999999982,-0.9745758150955346,0.3502866785815915,2.7700003476045465
14.78,-0.893057553934263,0.3185818839924816,2.803213958348015
14.789999999999992,-0.819450374546447,0.2864434029390109,2.83461320181058
14.799999999999985,-0.7364411056089362,0.2533225679034688,2.8660785080967046
14.810000000000002,-0.6318851738359438,0.2216375182065015,2.880332387249771
14.819999999999991,-0.5159429060593185,0.1938639239554992,2.882496282866951
14.829999999999984,-0.4086145821776224,0.1900437061684198,2.8828823838824613
14.840000000000003,-0.3341473796742284,0.183479215696186,2.872449939389572
14.849999999999994,-0.2769332480659983,0.1770069039150589,2.853939491022777
14.859999999999983,-0.2348241294882437,0.1785997284177705,2.829931305023494
14.870000000000005,-0.2168279390324836,0.1598170788224419,2.796246647790654
14.879999999999995,-0.2016255930119138,0.1323294648119152,2.765429042535225
14.889999999999986,-0.1907418483500265,0.1160295124883352,2.748159820852556
14.900000000000006,-0.1905377534480246,0.0932955579324082,2.754267482575011
14.909999999999997,-0.1792082832824496,0.0707917393955675,2.757862408000173
14.919999999999987,-0.1546955057028549,0.0607634133248072,2.767003824467906
14.929999999999978,-0.1265600916384802,0.0521902900807322,2.7792136057325294
14.939999999999998,-0.0792909063931057,0.0496197758218097,2.7823077772820777
14.949999999999989,-0.0070721323384769,0.0368208233220742,2.771306265233491
14.95999999999998,0.0898758586284026,0.0277051720581748,2.757837897884012
14.97,0.185871696020345,0.0074402321013361,2.7496590187763927
14.97999999999999,0.2736432234233906,0.0017111160364494,2.74923083153099
14.98999999999998,0.3360766115391801,0.0019418327592245,2.761309298461102
15.0,0.3837615380430517,-0.0030979540910074,2.7709651974516936
15.009999999999993,0.4153456114036229,-0.0046187850949549,2.7952821361610005
15.019999999999982,0.4196258351750327,-0.0153026003793759,2.815826196977949
15.03,0.4422243319023335,-0.0295182697665627,2.844167053364961
15.039999999999992,0.4414217480717637,-0.0574714548256724,2.865162285242998
15.049999999999985,0.4521950391931506,-0.0892045201359917,2.895185081221243
15.060000000000002,0.4731289103977874,-0.1027297037828528,2.911502015688129
15.069999999999991,0.5019554257996501,-0.1053078864144684,2.918416400290188
15.079999999999984,0.5620038057442581,-0.1095129571520058,2.9249365717770743
15.090000000000003,0.628808221908195,-0.1200338719112003,2.9169545429633805
15.099999999999994,0.7010094060986419,-0.139267648000553,2.904232587211012
15.109999999999983,0.771770903421382,-0.1718548192713216,2.8870169518081394
15.120000000000005,0.838961128535547,-0.1941378948944146,2.867794529152122
15.129999999999995,0.8918716578273674,-0.2242776944573309,2.8315405728917327
15.139999999999986,0.9539378931708546,-0.2374936928920778,2.802695412477261
15.150000000000006,1.0036631627910642,-0.2490172312200287,2.74713358347745
15.159999999999997,1.0613441451645511,-0.277112561268047,2.690512072400973
15.169999999999987,1.1182448751314171,-0.3082089735084818,2.6285745282484685
15.179999999999978,1.1729029413218015,-0.3508484136068643,2.552723637163669
15.189999999999998,1.231000462095109,-0.3999663676116967,2.470247890712961
15.199999999999989,1.2831884379827083,-0.4458955772191746,2.3736287604315094
15.20999999999998,1.3428766052627108,-0.4741072797574373,2.2767512527436264
15.22,1.3991370910704972,-0.5063546908688321,2.173606163388432
15.22999999999999,1.4793459532926727,-0.5528656860784955,2.079571441200084
15.23999999999998,1.5611882023251669,-0.5915351294418569,1.9878665571113168
15.25,1.6488439430138744,-0.6190100918101948,1.900786848593984
15.259999999999993,1.7372516279878167,-0.6677379927045775,1.8269852304758456
15.269999999999982,1.8035898872458975,-0.7246294392467717,1.7538966684390829
15.28,1.8603660943141251,-0.7898243786622995,1.6970339839767226
15.289999999999992,1.9116866531401635,-0.8500189265582497,1.6424276884450897
15.299999999999985,1.956356458044104,-0.9170868672367836,1.5802652943508135
15.310000000000002,2.0033797917814544,-0.9748309368015532,1.5220606395257457
15.319999999999991,2.040161065900141,-1.0391004613762975,1.4633768285580389
15.329999999999984,2.069133014538837,-1.0921783101402982,1.416463319135847
15.340000000000003,2.105361173320382,-1.133415349966397,1.368533235729042
15.349999999999994,2.125187916333364,-1.186057061792419,1.3348578584664694
15.359999999999983,2.157759026859828,-1.2301458043609903,1.3004313923420794
15.370000000000005,2.1715158453063665,-1.2790594050655837,1.2696218487833726
15.379999999999995,2.1556305141422083,-1.321783153158384,1.242229912779483
15.389999999999986,2.141948643945246,-1.3713528523405742,1.2125418265344277
15.400000000000006,2.107903261275577,-1.44221749885918,1.1873892436495723
15.409999999999997,2.072820452505368,-1.527656312629407,1.1417501366516265
15.419999999999987,2.0681232853936926,-1.5871372426191317,1.1083826915599322
15.429999999999978,2.07720551013296,-1.666852430691772,1.0820025861784623
15.439999999999998,2.096461495374773,-1.736300935968804,1.0509253167742871
15.449999999999989,2.138062386519411,-1.7936287474317378,1.031608997874328
15.45999999999998,2.161614971950605,-1.8369645232458656,1.0101957711638927
15.47,2.2086547641949923,-1.880902678667778,0.9983755512289868
15.47999999999999,2.247071058696537,-1.9434046131027547,0.9883147060132548
15.48999999999998,2.2589303716575504,-1.9942906631511248,0.9764382801162896
15.5,2.2803002828384065,-2.021635476271998,0.9504951865458856
15.509999999999993,2.299546564909697,-2.0701055926468106,0.915342163892247
15.519999999999982,2.303402823432984,-2.1097560142264355,0.8815637499762853
15.53,2.2842178108456674,-2.115025823188382,0.8534149085289727
15.539999999999992,2.258029866585884,-2.1404658598837014,0.8426455678167362
15.549999999999985,2.2084409014681325,-2.1657645569928965,0.8281411366217568
15.560000000000002,2.1420869165202894,-2.172306731842994,0.8092763585942145
15.569999999999991,2.075840267924612,-2.167082918446932,0.7937684526868787
15.579999999999984,2.0216535974255527,-2.1700024469139128,0.7858420572820296
15.590000000000003,1.964491995912897,-2.1728852472568683,0.7782670320856548
15.599999999999994,1.8963982357502909,-2.1595068399653004,0.7775981831949668
15.609999999999983,1.836202840035975,-2.157029069735912,0.7576667975550045
15.620000000000005,1.7498951675098795,-2.162587962847464,0.7346969731253411
15.629999999999995,1.659570282722336,-2.1418338037916858,0.7164051647048855
15.639999999999986,1.5770227151844722,-2.1184458236250623,0.7012923045236379
15.650000000000006,1.4873478545416143,-2.106691113430549,0.684386647855212
15.659999999999997,1.39658387663504,-2.0956581704988597,0.677691252027938
15.669999999999987,1.3151850322718568,-2.0822655521639915,0.6618214690385729
15.679999999999978,1.2471448775665304,-2.064433226002556,0.6206981425381822
15.689999999999998,1.1863747492055905,-2.057592454484677,0.5869440280864838
15.699999999999989,1.128086917159017,-2.0495735452523887,0.5309456155379507
15.70999999999998,1.0873257626727355,-2.031606369567721,0.489594594835166
15.72,1.0672683195062116,-2.014943193993061,0.4533857159650395
15.72999999999999,1.074140857035022,-1.996625299586669,0.4153320563010688
15.73999999999998,1.0937868276455058,-1.9862649240664976,0.3926679977869502
15.75,1.132022940505237,-1.9675753040690425,0.3815504030608502
15.759999999999993,1.1814476868642128,-1.9538587907555625,0.3826855000267684
15.769999999999982,1.2182776195276497,-1.947303019292055,0.3639715263079763
15.78,1.252320651762716,-1.9420509616820407,0.3490888915408294
15.789999999999992,1.2807027531212194,-1.9410459964177245,0.3267256630138287
15.799999999999985,1.3099669130788998,-1.935637004174924,0.2985939744444251
15.810000000000002,1.3305525906695506,-1.9265912897754296,0.2826433002982542
15.819999999999991,1.363946302982268,-1.9225644649446236,0.2771766394870069
15.829999999999984,1.3724594381795046,-1.911244024736355,0.2815179859043329
15.840000000000003,1.376184342324876,-1.9120055144757728,0.2777244289639728
15.849999999999994,1.362628921436767,-1.9023390554254016,0.28427889018661
15.859999999999983,1.3479906094394078,-1.9021936197154288,0.2806992680194831
15.870000000000005,1.3337831599746923,-1.9014812654219049,0.2874588025956197
15.879999999999995,1.3290438830934088,-1.89086160822024,0.2749238206071669
15.889999999999986,1.3465721421235637,-1.890162506896694,0.2517141150227266
15.900000000000006,1.3771403950549777,-1.8775001655083932,0.234728434077835
15.909999999999997,1.4233486891491745,-1.8563140239123848,0.2284143262536166
15.919999999999987,1.4539578681322098,-1.8381054474432763,0.2275317858733507
