time,Gyr_X,Gyr_Y,Gyr_Z
0.0,0.002131047016685,0.002131047016685,-0.0042603487041181
0.0035000000000025,0.0010646508437165,0.0031956978604016,-0.0031956978604016
0.007000000000005,0.0031956978604016,0.0042603487041181,-0.0042603487041181
0.0105000000000075,1.3038212479669908e-19,0.0010646508437165,-0.0053267448770866
0.0139999999999957,0.0063913957208032,0.002131047016685,-0.002131047016685
0.0174999999999982,0.0031956978604016,0.0031956978604016,-0.0053267448770866
0.0210000000000007,0.0031956978604016,0.002131047016685,-0.0031956978604016
0.0245000000000032,0.0031956978604016,0.0042603487041181,-0.0010646508437165
0.0280000000000057,0.0053267448770866,-6.523381063598781e-19,-0.0053267448770866
0.0315000000000083,0.0031956978604016,0.002131047016685,-0.0031956978604016
0.0349999999999965,0.002131047016685,0.002131047016685,-0.0063913957208032
0.038499999999999,0.0042603487041181,0.002131047016685,-0.0031956978604016
0.0420000000000015,0.0053267448770866,-0.0010646508437165,-0.002131047016685
0.045500000000004,0.0010646508437165,0.002131047016685,-0.0031956978604016
0.0490000000000065,0.0042603487041181,0.0010646508437165,-0.0010646508437165
0.052500000000009,0.002131047016685,0.002131047016685,-0.0042603487041181
0.0559999999999973,0.0010646508437165,0.0031956978604016,-0.0031956978604016
0.0594999999999998,0.0010646508437165,0.0085224427374883,-0.0031956978604016
0.0630000000000023,-0.0042603487041181,0.0447432607041266,-0.0053267448770866
0.0665000000000048,-0.0181095363186931,0.0767019846373948,-0.013849187614575
0.0700000000000073,-0.0330233747769846,0.1012029166768912,-0.0085224427374883
0.0735000000000098,-0.0340897709499532,0.0990718696602061,-0.0063913957208032
0.0769999999999981,-0.0266319790561814,0.0777666354811113,-0.002131047016685
0.0805000000000006,-0.01598023463126,0.0543303542853314,0.0
0.0840000000000031,-0.0085224427374883,0.0202405833353782,-0.0042603487041181
0.0875000000000056,-0.01598023463126,-0.0085224427374883,-0.0031956978604016
0.0910000000000081,-0.0085224427374883,-0.0330233747769847,-0.0053267448770866
0.0944999999999964,-3.7834327721743786e-18,-0.0308940730895516,-0.0074577918937717
0.0979999999999989,0.0266319790561814,-0.0170448854749766,-0.0053267448770866
0.1015000000000014,0.041545817514473,-0.002131047016685,-0.0042603487041181
0.1050000000000039,0.0458079115478431,0.0127827914416064,-0.002131047016685
0.1085000000000064,0.0383501196540714,0.0223716303520633,-0.0010646508437165
0.1120000000000089,0.0181095363186931,0.0095870935812048,-0.002131047016685
0.1154999999999972,0.0117181405978899,-0.0085224427374883,-0.0031956978604016
0.1189999999999997,-0.0074577918937717,-0.0181095363186931,-0.0031956978604016
0.1225000000000022,-0.0127827914416064,-0.0181095363186931,-0.0042603487041181
0.1260000000000047,-0.0181095363186931,-0.0095870935812048,0.0
0.1295000000000072,-0.01598023463126,1.9570143190796347e-18,-0.0042603487041181
0.1330000000000097,-0.002131047016685,0.013849187614575,-0.002131047016685
0.136499999999998,0.0053267448770866,0.01598023463126,-0.0063913957208032
0.1400000000000005,0.0149138384582915,0.01598023463126,-0.0010646508437165
0.143500000000003,0.0149138384582915,0.0085224427374883,-0.0063913957208032
0.1470000000000055,0.0127827914416064,-0.0063913957208032,-0.0042603487041181
0.150500000000008,0.0149138384582915,-0.0117181405978899,-0.0042603487041181
0.1539999999999963,0.0149138384582915,-0.01598023463126,-0.0063913957208032
0.1574999999999988,0.0117181405978899,-0.0170448854749766,-0.002131047016685
0.1610000000000013,0.0117181405978899,-0.0170448854749766,0.0
0.1645000000000038,0.0149138384582915,-0.0181095363186931,-0.002131047016685
0.1680000000000063,0.01598023463126,-0.0202405833353782,0.0
0.1715000000000088,0.0191759324916616,-0.0202405833353782,-0.002131047016685
0.1749999999999971,0.0287630260728665,-0.0255673282124649,0.0
0.1784999999999996,0.0287630260728665,-0.0223716303520633,-0.0042603487041181
0.1820000000000021,0.0255673282124649,-0.0106534897541733,0.0
0.1855000000000046,0.02769837522915,-0.0085224427374883,-0.002131047016685
0.1890000000000071,0.0234362811957798,0.0010646508437165,-0.0042603487041181
0.1925000000000096,0.0223716303520633,-2.739734550236212e-18,-0.002131047016685
0.1959999999999979,0.0117181405978899,-0.002131047016685,-0.0031956978604016
0.1995000000000004,-0.0010646508437165,-0.0010646508437165,-0.0010646508437165
0.2030000000000029,-0.0095870935812048,0.0010646508437165,-0.0053267448770866
0.2065000000000054,-0.0127827914416064,0.0074577918937717,-0.0010646508437165
0.2100000000000079,-0.002131047016685,0.002131047016685,-0.0042603487041181
0.2134999999999962,-0.0106534897541733,0.0053267448770866,-0.002131047016685
0.2169999999999987,-0.0063913957208032,0.0085224427374883,-0.0053267448770866
0.2205000000000012,-0.0053267448770866,0.0127827914416064,-0.0063913957208032
0.2240000000000037,0.002131047016685,0.0053267448770866,-0.002131047016685
0.2275000000000062,0.0085224427374883,0.0031956978604016,-0.002131047016685
0.2310000000000087,0.0031956978604016,0.0042603487041181,-0.0042603487041181
0.234499999999997,-0.002131047016685,0.0053267448770866,-0.0053267448770866
0.2379999999999995,-0.0117181405978899,0.0127827914416064,-0.0042603487041181
0.241500000000002,-0.0074577918937717,0.0095870935812048,-0.002131047016685
0.2450000000000045,-0.0053267448770866,0.0042603487041181,0.0
0.248500000000007,-0.0053267448770866,0.0074577918937717,0.0
0.2520000000000095,-0.0106534897541733,0.0095870935812048,-0.0063913957208032
0.2554999999999978,-0.0170448854749766,0.0074577918937717,-0.0063913957208032
0.2590000000000003,-0.0053267448770866,0.0053267448770866,-0.002131047016685
0.2625000000000028,0.0010646508437165,0.0042603487041181,-0.0031956978604016
0.2660000000000053,0.0063913957208032,0.0031956978604016,-0.0042603487041181
0.2695000000000078,1.3046762127197565e-18,0.0106534897541733,-0.0042603487041181
0.2729999999999961,0.0117181405978899,0.0031956978604016,-0.0031956978604016
0.2764999999999986,0.0063913957208032,0.002131047016685,-0.0031956978604016
0.2800000000000011,0.0063913957208032,0.0010646508437165,-0.0042603487041181
0.2835000000000036,0.0085224427374883,0.0031956978604016,-0.0042603487041181
0.2870000000000061,0.0042603487041181,0.002131047016685,-0.0031956978604016
0.2905000000000086,0.013849187614575,-0.0063913957208032,-0.002131047016685
0.2939999999999969,0.0191759324916617,-0.0053267448770866,-0.002131047016685
0.2974999999999994,0.0426122136874415,-0.0181095363186931,0.0010646508437165
0.3010000000000019,0.0905494269227178,-0.0543303542853314,0.0010646508437165
0.3045000000000044,0.1235745470289545,-0.0703088435873395,0.0053267448770866
0.3080000000000069,0.1299659427497577,-0.0479389585645282,0.0053267448770866
0.3115000000000094,0.1267702448893561,-0.0308940730895516,0.0
0.3149999999999977,0.0937468701123714,-0.0085224427374883,-0.0117181405978899
0.3185000000000002,0.0756355884644262,-0.0053267448770867,-0.0127827914416064
0.3220000000000027,0.0479389585645282,0.0106534897541733,0.0
0.3255000000000052,0.0202405833353782,0.0245026773687483,0.0117181405978899
0.3290000000000077,0.0053267448770866,0.0063913957208032,-0.0042603487041181
0.332499999999996,-0.0181095363186931,2.217778568673033e-18,-0.0074577918937717
0.3359999999999985,-0.0223716303520633,-0.0031956978604016,0.0085224427374883
0.339500000000001,-0.0223716303520633,-0.0031956978604016,0.0053267448770866
0.3430000000000035,-0.0117181405978899,0.0191759324916617,-0.0074577918937717
0.346500000000006,-0.0053267448770866,0.041545817514473,-0.0053267448770866
0.3500000000000085,-0.0063913957208032,0.069244192743623,-0.0053267448770866
0.3534999999999968,-0.0042603487041181,0.0756355884644262,-0.0063913957208032
0.3569999999999993,0.0010646508437165,0.0660484948832214,-0.0053267448770866
0.3605000000000018,-0.0074577918937717,0.0532657034416149,-0.0053267448770866
0.3640000000000043,-0.0149138384582915,0.0266319790561814,0.0
0.3675000000000068,-0.0362208179666383,0.0149138384582915,-0.0042603487041181
0.3710000000000093,-0.0585907029894496,0.013849187614575,-0.0031956978604016
0.3744999999999976,-0.0735062867769931,0.0255673282124649,-0.0042603487041181
0.3780000000000001,-0.0703088435873395,0.0404811666707564,-0.002131047016685
0.3815000000000026,-0.0639174478665363,0.0500682602519613,-0.0031956978604016
0.3850000000000051,-0.043676864531158,0.055395005129048,-0.0031956978604016
0.3885000000000076,-0.041545817514473,0.0585907029894496,-0.0063913957208032
0.3919999999999959,-0.0245026773687483,0.0479389585645282,-0.0085224427374883
0.3954999999999984,-0.013849187614575,0.0383501196540714,-0.0074577918937717
0.3990000000000009,1.5654404623131544e-18,0.0127827914416064,-0.0074577918937717
0.4025000000000034,0.0074577918937717,0.0031956978604016,-0.002131047016685
0.4060000000000059,0.0085224427374883,-0.0063913957208032,-0.0063913957208032
0.4095000000000084,0.0149138384582915,-0.0053267448770866,-0.0085224427374883
0.4129999999999967,0.0085224427374883,-1.0436982219381666e-18,-0.0063913957208032
0.4164999999999992,0.013849187614575,0.002131047016685,-0.0063913957208032
0.4200000000000017,0.013849187614575,-0.002131047016685,-0.0085224427374883
0.4235000000000042,0.013849187614575,-0.0085224427374883,-0.0095870935812048
0.4270000000000067,0.0170448854749766,-0.013849187614575,-0.0053267448770866
0.4305000000000092,0.0255673282124649,-0.0181095363186931,-0.0031956978604016
0.4339999999999975,0.0287630260728665,-0.0202405833353782,-0.002131047016685
0.4375,0.0319587239332681,-0.0234362811957798,-0.0063913957208032
0.4410000000000025,0.0372854688103548,-0.0245026773687483,-0.002131047016685
0.444500000000005,0.0330233747769847,-0.0213052341790947,-0.002131047016685
0.4480000000000075,0.0255673282124649,-0.0149138384582915,0.0
0.4514999999999958,0.0149138384582915,-0.0127827914416064,-0.002131047016685
0.4549999999999983,0.0042603487041181,-0.01598023463126,0.0
0.4585000000000008,-0.0031956978604016,-0.0202405833353782,0.0
0.4620000000000033,0.002131047016685,-0.0266319790561814,-0.0010646508437165
0.4655000000000058,0.0095870935812048,-0.0308940730895516,0.0
0.4690000000000083,0.0191759324916616,-0.0340897709499532,0.002131047016685
0.4724999999999966,0.0255673282124649,-0.029827676916583,-0.0010646508437165
0.4759999999999991,0.0266319790561814,-0.0234362811957798,0.0
0.4795000000000016,0.0287630260728665,-0.0106534897541733,-0.002131047016685
0.4830000000000041,0.0287630260728665,-0.0042603487041181,-0.002131047016685
0.4865000000000066,0.0319587239332681,-0.002131047016685,-0.0053267448770866
0.4900000000000091,0.0340897709499532,-0.0074577918937717,0.0
0.4934999999999974,0.0287630260728665,-0.0085224427374883,0.0
0.4969999999999999,0.0191759324916617,-0.0085224427374883,0.0
0.5005000000000024,0.0074577918937717,-0.0074577918937717,-0.0031956978604016
0.5040000000000049,-0.0010646508437165,-0.0031956978604016,-0.002131047016685
0.5075000000000074,-0.0031956978604016,0.0010646508437165,-0.0053267448770866
0.5110000000000099,-0.0063913957208032,0.0095870935812048,-0.0031956978604016
0.5144999999999982,-0.0074577918937717,0.0170448854749766,-0.0074577918937717
0.5180000000000007,-0.0053267448770866,0.0181095363186931,-0.0085224427374883
0.5215000000000032,-0.0010646508437165,0.013849187614575,-0.0063913957208032
0.5250000000000057,3.913601155782886e-19,0.0031956978604016,-0.0053267448770866
0.5285000000000082,-0.0010646508437165,-0.0031956978604016,-0.0106534897541733
0.5319999999999965,-1.8264184530947443e-18,-0.0149138384582915,-0.0085224427374883
0.535499999999999,0.002131047016685,-0.0127827914416064,-0.0074577918937717
0.5390000000000015,0.0031956978604016,-0.0042603487041181,-0.0095870935812048
0.542500000000004,0.002131047016685,-2.6097799078158957e-19,-0.0095870935812048
0.5460000000000065,7.827202311565772e-19,0.0063913957208032,-0.0063913957208032
0.549500000000009,-0.0074577918937717,0.0117181405978899,-0.0053267448770866
0.5529999999999973,-0.0031956978604016,0.0085224427374883,-0.0010646508437165
0.5564999999999998,-0.0042603487041181,0.0053267448770866,0.0
0.5600000000000023,-0.0042603487041181,0.0010646508437165,-0.0010646508437165
0.5635000000000048,-0.0085224427374883,-0.0042603487041181,-0.0031956978604016
0.5670000000000073,-0.0042603487041181,-0.0010646508437165,-0.0010646508437165
0.5705000000000098,0.0053267448770866,-0.0031956978604016,-0.0031956978604016
0.5739999999999981,0.0127827914416064,0.0031956978604016,-0.0042603487041181
0.5775000000000006,0.01598023463126,0.0053267448770866,0.0
0.5810000000000031,0.0095870935812048,0.0074577918937717,-0.0010646508437165
0.5845000000000056,0.0074577918937717,0.0117181405978899,-0.0042603487041181
0.5880000000000081,0.0063913957208032,0.0042603487041181,-0.0042603487041181
0.5914999999999964,0.002131047016685,-0.002131047016685,-0.0010646508437165
0.5949999999999989,-0.0031956978604016,3.913601155782886e-19,-0.0031956978604016
0.5985000000000014,-0.0074577918937717,-0.002131047016685,-0.002131047016685
0.6020000000000039,-0.0053267448770866,0.0010646508437165,-0.0010646508437165
0.6055000000000064,-0.0010646508437165,0.0031956978604016,-0.0042603487041181
0.6090000000000089,0.0010646508437165,0.0031956978604016,-0.0053267448770866
0.6124999999999972,0.002131047016685,0.0063913957208032,-0.002131047016685
0.6159999999999997,0.0063913957208032,0.0063913957208032,-0.0031956978604016
0.6195000000000022,0.0074577918937717,0.0010646508437165,-0.0031956978604016
0.6230000000000047,0.0074577918937717,-9.133160971414677e-19,-0.0053267448770866
0.6265000000000072,0.0063913957208032,-0.002131047016685,-0.0063913957208032
0.6300000000000097,0.0053267448770866,0.0010646508437165,-0.0085224427374883
0.633499999999998,6.523381063598781e-19,0.0053267448770866,-0.0042603487041181
0.6370000000000005,-0.002131047016685,0.0053267448770866,-0.0074577918937717
0.640500000000003,-0.002131047016685,0.0063913957208032,-0.0063913957208032
0.6440000000000055,-0.002131047016685,0.0063913957208032,-0.002131047016685
0.647500000000008,-0.0031956978604016,0.0010646508437165,-0.0063913957208032
0.6509999999999962,0.002131047016685,-0.0010646508437165,-0.002131047016685
0.6544999999999987,0.0010646508437165,-1.3038212479669908e-19,-0.0031956978604016
0.6580000000000013,0.0053267448770866,-6.523381063598781e-19,-0.0031956978604016
0.6615000000000038,0.0074577918937717,-9.133160971414677e-19,-0.0042603487041181
0.6650000000000063,0.0085224427374883,0.0042603487041181,-0.0031956978604016
0.6685000000000088,0.0085224427374883,0.0031956978604016,-0.0010646508437165
0.671999999999997,0.0063913957208032,0.0010646508437165,-0.002131047016685
0.6754999999999995,0.0031956978604016,0.002131047016685,-0.0031956978604016
0.679000000000002,1.3038212479669908e-19,0.0010646508437165,0.0
0.6825000000000045,0.0,0.0,0.0
0.686000000000007,-0.0010646508437165,0.002131047016685,-0.0053267448770866
0.6895000000000095,3.913601155782886e-19,0.0031956978604016,-0.0042603487041181
0.6929999999999978,5.217422403749877e-19,0.0042603487041181,-0.0042603487041181
0.6965000000000003,6.523381063598781e-19,0.0053267448770866,-0.0042603487041181
0.7000000000000028,0.0053267448770866,0.0053267448770866,-0.002131047016685
0.7035000000000053,0.0063913957208032,0.0031956978604016,-0.002131047016685
0.7070000000000078,0.0468725623915597,-0.0319587239332681,0.0085224427374883
0.7104999999999961,0.1459461773810178,-0.1065296615539779,0.0191759324916617
0.7139999999999986,0.357939104316005,-0.2428870000245389,0.0330233747769847
0.7175000000000011,0.4676662090596366,-0.2876302607286656,0.0511346564249298
0.7210000000000036,0.5134723752782278,-0.2098636252475542,0.0585907029894496
0.7245000000000061,0.519865516328283,-0.1374237346435295,0.029827676916583
0.7280000000000086,0.5773915684740161,-0.0969425679727731,-0.0053267448770866
0.7314999999999969,0.6200020368322057,-0.0990718696602061,-0.0234362811957798
0.7349999999999994,0.616806338971804,-0.1097253594143795,-0.0181095363186931
0.7385000000000019,0.5976321518093943,-0.1310323389227263,0.0
0.7420000000000044,0.5454328445407479,-0.1587289688226243,0.0074577918937717
0.7455000000000069,0.4847093492053612,-0.1768385051413175,0.0085224427374883
0.7490000000000094,0.4101401569139035,-0.2024058333537824,0.0053267448770866
0.7524999999999977,0.3408942188410284,-0.2141239739516723,0.0
0.7560000000000002,0.2876302607286655,-0.1832316461913727,0.0010646508437165
0.7595000000000027,0.2727164222703739,-0.1384883854872461,-0.0031956978604016
0.7630000000000052,0.2279731615662473,-0.0873537290623162,0.002131047016685
0.7665000000000077,0.1832316461913727,-0.0649838440395049,-0.0010646508437165
0.769999999999996,0.1129210572747811,-0.0436768645311581,-0.0074577918937717
0.7734999999999985,0.0543303542853314,-0.0319587239332681,-0.0181095363186931
0.777000000000001,0.0053267448770866,-0.0095870935812048,-0.0127827914416064
0.7805000000000035,-0.0149138384582915,1.8264184530947443e-18,-0.0042603487041181
0.784000000000006,-0.0191759324916617,0.0127827914416064,-0.0031956978604016
0.7875000000000085,1.9570143190796347e-18,0.01598023463126,-0.0063913957208032
0.7909999999999968,0.0213052341790947,0.0266319790561814,-0.0117181405978899
0.7944999999999993,0.0308940730895516,0.0266319790561814,-0.0085224427374883
0.7980000000000018,0.01598023463126,0.0308940730895516,-0.013849187614575
0.8015000000000043,-0.0170448854749766,0.041545817514473,-0.01598023463126
0.8050000000000068,-0.1012029166768911,0.0713752397603081,-0.0170448854749766
0.8085000000000093,-0.191754088928861,0.1043986145372928,-0.0085224427374883
0.8119999999999976,-0.3483520107348002,0.1597953649955928,-0.0117181405978899
0.8155000000000001,-0.4761869064678729,0.2066679273871526,-0.0063913957208032
0.8190000000000026,-0.6508961099217573,0.2620629325162006,0.0
0.8225000000000051,-0.7691439120736251,0.3025440991869571,0.0031956978604016
0.8260000000000076,-0.8767399698005716,0.3174579376452487,-0.0010646508437165
0.8294999999999959,-0.8533036886047917,0.2940216564494688,-0.01598023463126
0.8329999999999984,-0.6935083236091989,0.2620629325162007,-0.0585907029894496
0.8365000000000009,-0.5656734278761262,0.2801724688348938,-0.0735062867769931
0.8400000000000034,-0.6242641308655758,0.3941599222826434,-0.0031956978604016
0.8435000000000059,-0.6828548338550254,0.39522457312636,0.0490036094082447
0.8470000000000084,-0.4367721359700849,0.1832316461913727,-0.0404811666707564
0.8504999999999967,-0.0649838440395048,0.0447432607041266,-0.110790010258096
0.8539999999999992,0.2407576983371057,0.0543303542853314,-0.01598023463126
0.8575000000000017,0.3068061932203272,0.0191759324916616,0.0639174478665363
0.8610000000000042,0.1587289688226243,-0.0617864008498512,0.0404811666707564
0.8645000000000067,-0.0298276769165831,-0.1001382658331746,-0.02769837522915
0.8680000000000092,-0.1427504795206162,-0.0894847760790012,-0.0287630260728665
0.8714999999999975,-0.1395530363309626,-0.0362208179666383,-0.0010646508437165
0.875,-0.0362208179666383,0.0245026773687483,0.0
0.8785000000000025,0.0394165158270399,0.0383501196540713,-0.0010646508437165
0.882000000000005,0.02769837522915,0.0660484948832214,0.0053267448770866
0.8855000000000075,0.0031956978604016,0.0511346564249298,-0.0095870935812048
0.8889999999999958,-0.0330233747769847,0.0010646508437165,-0.0063913957208032
0.8924999999999983,-0.0479389585645282,-0.0245026773687483,0.0074577918937717
0.8960000000000008,0.0202405833353782,-0.041545817514473,-0.0117181405978899
0.8995000000000033,0.0713752397603081,-0.0372854688103548,-0.0255673282124649
0.9030000000000058,0.0617864008498512,-0.0085224427374883,0.002131047016685
0.9065000000000084,0.0308940730895516,-0.0010646508437165,0.002131047016685
0.9099999999999966,0.0085224427374883,0.0117181405978899,-0.0191759324916617
0.9134999999999992,0.0127827914416064,0.0191759324916617,-0.0117181405978899
0.9170000000000016,-0.0085224427374883,0.0351544217936697,0.0106534897541733
0.920500000000004,-0.0074577918937717,0.0245026773687483,0.0010646508437165
0.9240000000000066,-0.0106534897541733,-0.0010646508437165,-0.013849187614575
0.9275000000000092,-0.0287630260728665,-0.0181095363186931,-0.0063913957208032
0.9309999999999974,-0.0436768645311581,-0.0308940730895516,0.0
0.9345,-0.0245026773687483,-0.029827676916583,-0.002131047016685
0.9380000000000024,0.0213052341790947,-0.0085224427374883,0.0
0.9415000000000048,0.0404811666707564,0.0191759324916616,0.0031956978604016
0.9450000000000074,0.055395005129048,0.0308940730895516,-0.0063913957208032
0.94850000000001,0.0426122136874415,0.0340897709499532,-0.0085224427374883
0.9519999999999982,0.0191759324916617,0.0191759324916616,0.0
0.9555000000000008,0.0127827914416064,0.0117181405978899,0.0095870935812048
0.9590000000000032,0.0042603487041181,-0.0031956978604016,-0.0117181405978899
0.9625000000000056,-0.0042603487041181,-0.0106534897541733,-0.0095870935812048
0.9660000000000082,-0.0330233747769847,-0.0181095363186931,0.0053267448770866
0.9694999999999964,-0.0426122136874415,-0.0095870935812048,0.0010646508437165
0.972999999999999,-0.01598023463126,-0.0010646508437165,-0.0106534897541733
0.9765000000000016,0.0042603487041181,0.0106534897541733,-0.0095870935812048
0.980000000000004,0.0127827914416064,0.0213052341790947,-0.002131047016685
0.9835000000000064,0.0181095363186931,0.0127827914416064,-0.0010646508437165
0.987000000000009,0.0191759324916617,0.0074577918937717,-0.0095870935812048
0.9904999999999972,0.0319587239332681,-0.0074577918937717,-0.0106534897541733
0.9939999999999998,0.02769837522915,-0.0127827914416064,-0.0085224427374883
0.9975000000000024,0.0213052341790947,-0.0170448854749766,-0.0085224427374883
1.0010000000000048,0.0127827914416064,-0.0117181405978899,-0.0095870935812048
1.0045000000000073,0.0095870935812048,-0.0074577918937717,-0.0085224427374883
1.0080000000000098,0.0042603487041181,-0.002131047016685,-0.0085224427374883
1.011499999999998,-0.002131047016685,0.0031956978604016,-0.0010646508437165
1.0150000000000006,9.133160971414677e-19,0.0074577918937717,-0.0053267448770866
1.018500000000003,0.013849187614575,-0.0074577918937717,-0.0191759324916617
1.0220000000000056,0.0713752397603081,-0.0543303542853314,-0.0191759324916617
1.025500000000008,0.1320969897664428,-0.0990718696602061,-0.0117181405978899
1.0289999999999964,0.193883390616294,-0.1203788491685529,0.0053267448770866
1.0324999999999989,0.2034722295267509,-0.0958761717998045,0.0127827914416064
1.0360000000000014,0.1704471094205142,-0.0436768645311581,-0.0031956978604016
1.039500000000004,0.1182478021518678,0.0053267448770866,-0.0181095363186931
1.0430000000000064,0.0330233747769847,0.0660484948832214,-0.0245026773687483
1.0465000000000089,-0.0394165158270399,0.0948115209560879,-0.0255673282124649
1.0499999999999972,-0.1086607085706629,0.0990718696602061,-0.0255673282124649
1.0534999999999997,-0.1544686201185061,0.0841580312019145,-0.0213052341790947
1.0570000000000022,-0.1938833906162941,0.0543303542853315,-0.013849187614575
1.0605000000000049,-0.2130593231079557,0.02769837522915,-0.0095870935812048
1.0640000000000072,-0.2226464166891606,0.0053267448770867,0.01598023463126
1.0675000000000097,-0.1938833906162941,-0.0042603487041181,0.0255673282124649
1.070999999999998,-0.1342280367831279,0.0063913957208032,-0.01598023463126
1.0745000000000005,-0.0852244273748831,0.0340897709499532,-0.0308940730895516
1.078000000000003,-0.0383501196540713,0.0671131457269379,-0.0202405833353782
1.0815000000000057,-0.0042603487041181,0.0788312863248278,-0.0117181405978899
1.085000000000008,0.0266319790561814,0.0788312863248278,-0.0095870935812048
1.0884999999999962,0.0426122136874415,0.069244192743623,-0.0127827914416064
1.0919999999999987,0.0330233747769847,0.0479389585645282,-0.0127827914416064
1.0955000000000013,0.0010646508437165,0.0234362811957798,-0.01598023463126
1.0990000000000038,-0.0511346564249298,6.2621893316290014e-18,-0.0063913957208032
1.1025000000000065,-0.0777666354811113,-0.02769837522915,-0.0127827914416064
1.1060000000000088,-0.0809623333415129,-0.0426122136874415,-0.0053267448770866
1.109499999999997,-0.0575260521457331,-0.0383501196540713,0.0053267448770866
1.1129999999999995,-0.0245026773687483,-0.0170448854749766,0.0042603487041181
1.116500000000002,0.0106534897541733,-0.0031956978604016,0.0085224427374883
1.1200000000000043,0.0511346564249298,0.0170448854749766,0.0170448854749766
1.123500000000007,0.0660484948832214,0.0362208179666383,0.0127827914416064
1.1270000000000095,0.0703088435873395,0.041545817514473,0.0117181405978899
1.1304999999999978,0.0607217500061347,0.0394165158270399,0.0117181405978899
1.1340000000000003,0.0330233747769847,0.0181095363186931,0.0170448854749766
1.1375000000000028,0.0042603487041181,0.0063913957208032,0.0149138384582915
1.1410000000000051,-0.0372854688103548,-0.0095870935812048,0.002131047016685
1.1445000000000078,-0.0521993072686464,-0.0191759324916616,0.0010646508437165
1.147999999999996,-0.0575260521457331,-0.0181095363186931,0.0106534897541733
1.1514999999999986,-0.0500682602519613,-0.0095870935812048,0.0127827914416064
1.1550000000000011,-0.0223716303520633,0.0063913957208032,0.0042603487041181
1.1585000000000036,0.0031956978604016,0.0191759324916617,0.0
1.162000000000006,0.029827676916583,0.0340897709499532,0.0053267448770866
1.1655000000000086,0.0436768645311581,0.0308940730895516,0.0
1.168999999999997,0.0447432607041266,0.029827676916583,-0.002131047016685
1.1724999999999994,0.0383501196540714,0.0245026773687483,-0.0010646508437165
1.176000000000002,0.0181095363186931,0.0074577918937717,-0.0031956978604016
1.1795000000000044,-0.0042603487041181,5.217422403749877e-19,0.0
1.183000000000007,-0.0340897709499532,-0.0031956978604016,0.0
1.1865000000000094,-0.0426122136874415,-0.0031956978604016,0.0074577918937717
1.1899999999999975,-0.0266319790561814,-0.0063913957208032,-0.0095870935812048
1.1935000000000002,-0.0191759324916617,-0.0031956978604016,-0.0106534897541733
1.1970000000000027,-0.0042603487041181,0.0031956978604016,0.0031956978604016
1.2005000000000052,0.013849187614575,0.0010646508437165,-0.0042603487041181
1.2040000000000075,0.0330233747769847,0.0074577918937717,-0.0106534897541733
1.207499999999996,0.0426122136874415,0.0042603487041181,-0.0042603487041181
1.2109999999999983,0.0394165158270399,-4.8271309941125444e-18,-0.0063913957208032
1.214500000000001,0.0319587239332681,-0.0010646508437165,-0.013849187614575
1.2180000000000035,0.0106534897541733,-0.0010646508437165,-0.0074577918937717
1.221500000000006,0.002131047016685,-0.0095870935812048,-0.0085224427374883
1.2250000000000083,-0.0031956978604016,-0.0149138384582915,-0.0085224427374883
1.2284999999999968,-0.0063913957208032,-0.0223716303520633,-0.0117181405978899
1.231999999999999,-0.0042603487041181,-0.0330233747769847,-0.0106534897541733
1.2355000000000018,0.0063913957208032,-0.0362208179666383,-0.0106534897541733
1.2390000000000043,0.0223716303520633,-0.0287630260728665,-0.0095870935812048
1.2425000000000068,0.0383501196540714,-0.0234362811957798,-0.0074577918937717
1.246000000000009,0.0639174478665363,-0.0085224427374883,-0.0042603487041181
1.2494999999999976,0.0713752397603081,-0.0042603487041181,-0.0063913957208032
1.253,0.0745709376207097,-9.132306006661912e-18,-0.0042603487041181
1.2565000000000026,0.0703088435873395,-0.002131047016685,-0.002131047016685
1.2600000000000051,0.0521993072686464,-0.0074577918937717,0.0
1.2635000000000076,0.0351544217936697,-0.0127827914416064,0.0
1.266999999999996,0.0106534897541733,-0.01598023463126,-0.0042603487041181
1.2704999999999984,-0.0106534897541733,-0.0170448854749766,-0.0053267448770866
1.274000000000001,-0.0127827914416064,-0.0127827914416064,-0.002131047016685
1.2775000000000034,-0.0085224427374883,-0.0063913957208032,-0.0031956978604016
1.281000000000006,-0.0010646508437165,0.0053267448770866,-0.0042603487041181
1.2845000000000084,0.0074577918937717,0.0106534897541733,-0.0031956978604016
1.2879999999999967,0.0117181405978899,0.0106534897541733,-0.0010646508437165
1.2914999999999992,0.01598023463126,0.0085224427374883,-0.0042603487041181
1.2950000000000017,0.0191759324916617,0.0010646508437165,-0.0031956978604016
1.2985000000000042,0.0170448854749766,-0.0063913957208032,-0.0042603487041181
1.3020000000000067,0.0170448854749766,-0.0085224427374883,-0.0031956978604016
1.3055000000000092,0.0202405833353782,-0.0063913957208032,-0.002131047016685
1.3089999999999975,0.01598023463126,-0.0053267448770866,-0.0031956978604016
1.3125,0.0117181405978899,-0.0010646508437165,-0.0010646508437165
1.3160000000000025,0.0063913957208032,0.0010646508437165,-0.002131047016685
1.319500000000005,0.0010646508437165,0.0010646508437165,0.0
1.3230000000000075,-0.002131047016685,0.0031956978604016,-0.0042603487041181
1.3264999999999958,7.827202311565772e-19,0.0063913957208032,-0.0031956978604016
1.3299999999999983,0.0010646508437165,-1.3038212479669908e-19,-0.0031956978604016
1.3335000000000008,0.0010646508437165,-1.3038212479669908e-19,0.0
1.3370000000000033,0.0095870935812048,-0.0042603487041181,-0.002131047016685
1.3405000000000058,0.0053267448770866,0.0010646508437165,-0.0010646508437165
1.3440000000000083,0.0063913957208032,0.0053267448770866,-0.0042603487041181
1.3474999999999966,0.0063913957208032,0.0053267448770866,-0.0010646508437165
1.350999999999999,0.0042603487041181,0.0031956978604016,-0.0010646508437165
1.3545000000000016,0.0031956978604016,0.0053267448770866,-0.0042603487041181
1.358000000000004,0.002131047016685,0.0031956978604016,-0.0031956978604016
1.3615000000000066,-0.0031956978604016,0.0010646508437165,-0.0010646508437165
1.365000000000009,-0.0053267448770866,0.0010646508437165,0.0
1.3684999999999974,-1.3038212479669908e-19,-0.0010646508437165,-0.002131047016685
1.372,0.0053267448770866,-0.0010646508437165,-0.0042603487041181
1.3755000000000024,0.0031956978604016,0.002131047016685,-0.0031956978604016
1.3790000000000049,0.0053267448770866,0.0042603487041181,0.0
1.3825000000000074,0.002131047016685,0.0053267448770866,-0.0063913957208032
1.38600000000001,0.0053267448770866,-0.0010646508437165,-0.0031956978604016
1.3894999999999982,0.0085224427374883,0.002131047016685,-0.0042603487041181
1.393000000000001,0.0031956978604016,0.0031956978604016,-0.0063913957208032
1.3965000000000032,0.002131047016685,-2.6097799078158957e-19,-0.0042603487041181
1.4000000000000057,0.0010646508437165,-1.3038212479669908e-19,-0.0042603487041181
1.4035000000000082,2.6097799078158957e-19,0.002131047016685,-0.0010646508437165
1.4069999999999965,0.0010646508437165,0.002131047016685,-0.0031956978604016
1.410499999999999,0.0010646508437165,0.0042603487041181,-0.002131047016685
1.4140000000000017,-0.0010646508437165,0.0010646508437165,-0.0063913957208032
1.417500000000004,0.0,0.0,0.0
1.4210000000000065,0.0053267448770866,0.0031956978604016,-0.002131047016685
1.424500000000009,0.0053267448770866,0.0053267448770866,-0.0031956978604016
1.4279999999999973,3.913601155782886e-19,0.0031956978604016,-0.0010646508437165
1.4314999999999998,0.0095870935812048,-1.1740803467348658e-18,-0.0042603487041181
1.4350000000000025,0.0063913957208032,-7.827202311565772e-19,-0.0063913957208032
1.4385000000000048,0.0063913957208032,0.002131047016685,-0.0042603487041181
1.4420000000000073,6.523381063598781e-19,0.0053267448770866,-0.0031956978604016
1.4455000000000098,3.913601155782886e-19,0.0031956978604016,-0.0053267448770866
1.448999999999998,3.913601155782886e-19,0.0031956978604016,-0.002131047016685
1.4525000000000006,6.523381063598781e-19,0.0053267448770866,-0.0042603487041181
1.456000000000003,2.6097799078158957e-19,0.002131047016685,-0.002131047016685
1.4595000000000056,-0.0010646508437165,0.0042603487041181,-0.0042603487041181
1.463000000000008,0.0053267448770866,0.0010646508437165,-0.0042603487041181
1.4664999999999964,0.0053267448770866,0.0031956978604016,-0.0053267448770866
1.4699999999999989,0.0053267448770866,0.0042603487041181,-0.0085224427374883
1.4735000000000014,0.0042603487041181,0.0031956978604016,-0.0010646508437165
1.477000000000004,0.0042603487041181,0.0010646508437165,-0.0063913957208032
1.4805000000000064,0.0042603487041181,0.0042603487041181,-0.0031956978604016
1.4840000000000089,0.0031956978604016,0.0031956978604016,-0.0042603487041181
1.4874999999999972,0.0042603487041181,0.002131047016685,-0.0063913957208032
1.4909999999999997,-0.0010646508437165,0.0010646508437165,-0.0042603487041181
1.4945000000000022,0.0031956978604016,0.002131047016685,-0.0053267448770866
1.4980000000000049,0.002131047016685,0.0010646508437165,-0.002131047016685
1.5015000000000072,0.0042603487041181,0.0010646508437165,-0.002131047016685
1.5050000000000097,0.0042603487041181,0.002131047016685,-0.0063913957208032
1.508499999999998,0.0031956978604016,-3.913601155782886e-19,-0.0031956978604016
1.5120000000000005,0.0053267448770866,0.002131047016685,-0.002131047016685
1.515500000000003,0.0053267448770866,0.0010646508437165,-0.0085224427374883
1.5190000000000057,0.0042603487041181,-5.217422403749877e-19,-0.0063913957208032
1.522500000000008,0.0031956978604016,0.0042603487041181,-0.002131047016685
1.5259999999999962,0.0053267448770866,0.0042603487041181,-0.0053267448770866
1.5294999999999987,0.002131047016685,0.0053267448770866,-0.0010646508437165
1.5330000000000013,0.002131047016685,0.002131047016685,-0.002131047016685
1.5365000000000038,5.217422403749877e-19,0.0042603487041181,-0.0010646508437165
1.5400000000000065,2.6097799078158957e-19,0.002131047016685,-0.0053267448770866
1.5435000000000088,0.0042603487041181,0.0042603487041181,-0.0031956978604016
1.546999999999997,0.0031956978604016,0.0031956978604016,-0.0053267448770866
1.5504999999999995,0.002131047016685,-2.6097799078158957e-19,-0.002131047016685
1.554000000000002,0.0010646508437165,0.002131047016685,-0.0042603487041181
1.5575000000000043,0.0074577918937717,0.002131047016685,-0.0053267448770866
1.561000000000007,0.0053267448770866,-6.523381063598781e-19,-0.0042603487041181
1.5645000000000095,0.002131047016685,0.0053267448770866,-0.0031956978604016
1.5679999999999978,0.0031956978604016,0.0010646508437165,-0.0031956978604016
1.5715000000000003,2.6097799078158957e-19,0.002131047016685,-0.0010646508437165
1.5750000000000028,0.0031956978604016,0.0010646508437165,-0.002131047016685
1.5785000000000051,5.217422403749877e-19,0.0042603487041181,-0.0053267448770866
1.5820000000000078,3.913601155782886e-19,0.0031956978604016,-0.0053267448770866
1.585499999999996,5.217422403749877e-19,0.0042603487041181,-0.0053267448770866
1.5889999999999986,0.0074577918937717,0.0170448854749766,-0.0074577918937717
1.5925000000000011,0.0074577918937717,0.0351544217936697,-0.0074577918937717
1.5960000000000036,0.0085224427374883,0.0436768645311581,-0.002131047016685
1.599500000000006,0.01598023463126,0.0447432607041266,-0.0053267448770866
1.6030000000000086,0.0074577918937717,0.0458079115478431,-0.0053267448770866
1.606499999999997,0.0063913957208032,0.0340897709499532,-0.0053267448770866
1.6099999999999994,-0.0042603487041181,0.0063913957208032,-0.0053267448770866
1.613500000000002,-0.0085224427374883,-0.0095870935812048,-0.0031956978604016
1.6170000000000044,-0.0031956978604016,-0.0202405833353782,-0.002131047016685
1.620500000000007,-0.0042603487041181,-0.0213052341790947,-0.0053267448770866
1.6240000000000094,0.002131047016685,-0.0127827914416064,-0.002131047016685
1.6274999999999975,0.0042603487041181,0.0042603487041181,-0.0074577918937717
1.6310000000000002,0.0106534897541733,0.0202405833353782,-0.0042603487041181
1.6345000000000027,0.0191759324916617,0.0181095363186931,-0.002131047016685
1.6380000000000052,0.0117181405978899,0.0170448854749766,-0.0042603487041181
1.6415000000000075,0.0042603487041181,0.0127827914416064,-0.0031956978604016
1.644999999999996,0.0,0.0,0.0
1.6484999999999983,-0.0063913957208032,-0.0063913957208032,-0.002131047016685
1.652000000000001,-0.0042603487041181,-0.0042603487041181,-0.0042603487041181
1.6555000000000035,-0.0031956978604016,3.913601155782886e-19,-0.0031956978604016
1.659000000000006,-0.0053267448770866,0.0117181405978899,-0.0042603487041181
1.6625000000000083,-0.002131047016685,0.0170448854749766,-0.0042603487041181
1.6659999999999968,0.0042603487041181,0.0085224427374883,-0.0053267448770866
1.669499999999999,0.0042603487041181,-5.217422403749877e-19,-0.0042603487041181
1.6730000000000018,0.0053267448770866,-0.0170448854749766,-0.002131047016685
1.6765000000000043,0.0010646508437165,-0.0255673282124649,-0.002131047016685
1.6800000000000068,0.0074577918937717,-0.0351544217936697,0.0
1.683500000000009,0.0106534897541733,-0.041545817514473,0.0010646508437165
1.6869999999999976,0.0223716303520633,-0.0426122136874415,0.0031956978604016
1.6905,0.0255673282124649,-0.0383501196540714,0.0031956978604016
1.6940000000000026,0.0223716303520633,-0.01598023463126,-0.002131047016685
1.6975000000000051,0.0127827914416064,-0.0053267448770866,0.0010646508437165
1.7010000000000076,0.0074577918937717,0.0127827914416064,-0.0031956978604016
1.704499999999996,0.0042603487041181,0.01598023463126,-0.0031956978604016
1.7079999999999984,0.0031956978604016,0.0127827914416064,-0.0031956978604016
1.711500000000001,0.0042603487041181,0.0053267448770866,-0.0042603487041181
1.7150000000000034,-0.0042603487041181,-0.0010646508437165,-0.0042603487041181
1.718500000000006,-0.0074577918937717,-0.002131047016685,-0.0074577918937717
1.7220000000000084,-0.0042603487041181,-0.0053267448770866,-0.0063913957208032
1.7254999999999967,-1.0436982219381666e-18,-0.0085224427374883,-0.0085224427374883
1.7289999999999992,0.0085224427374883,-1.0436982219381666e-18,-0.0042603487041181
1.7325000000000017,0.0127827914416064,0.0031956978604016,-0.0042603487041181
1.7360000000000042,0.0117181405978899,0.0106534897541733,-0.0042603487041181
1.7395000000000067,0.0117181405978899,0.0127827914416064,-0.0042603487041181
1.7430000000000092,0.0106534897541733,0.0095870935812048,-0.0042603487041181
1.7464999999999975,0.0074577918937717,-9.133160971414677e-19,0.0
1.75,0.0042603487041181,-0.0042603487041181,-0.0010646508437165
1.7535000000000025,0.0010646508437165,-0.0042603487041181,-0.0031956978604016
1.757000000000005,-0.002131047016685,-0.0010646508437165,-0.0010646508437165
1.7605000000000075,0.0010646508437165,-0.002131047016685,-0.0042603487041181
1.7639999999999958,0.0010646508437165,0.0031956978604016,-0.0063913957208032
1.7674999999999983,0.0095870935812048,0.0053267448770866,-0.0042603487041181
1.7710000000000008,0.0095870935812048,0.0031956978604016,-0.0042603487041181
1.7745000000000033,0.0042603487041181,-0.0479389585645282,-0.01598023463126
1.7780000000000058,-0.0095870935812048,-0.136357338470561,-0.0266319790561814
1.7815000000000083,-0.0159802346312601,-0.2578025838120824,-0.0127827914416064
1.7849999999999966,-0.0042603487041181,-0.2716500260974054,0.0117181405978899
1.788499999999999,0.0234362811957798,-0.1938833906162941,0.0202405833353782
1.7920000000000016,0.0490036094082447,-0.1225098961852379,0.0031956978604016
1.795500000000004,0.0617864008498512,-0.0362208179666383,0.0
1.7990000000000066,0.0543303542853314,0.0202405833353782,0.0053267448770866
1.802500000000009,0.041545817514473,0.055395005129048,0.0191759324916617
1.8059999999999972,0.0436768645311581,0.0479389585645282,0.013849187614575
1.8095,0.02769837522915,0.0362208179666383,-0.0106534897541733
1.8130000000000024,0.0149138384582915,0.0394165158270399,-0.0266319790561814
1.8165000000000049,-0.0010646508437165,0.0543303542853314,-0.01598023463126
1.8200000000000076,-0.0095870935812048,0.0596570991624181,-0.0053267448770866
1.823499999999996,-0.0074577918937717,0.0532657034416149,0.0
1.8269999999999984,0.002131047016685,0.0426122136874415,-0.0031956978604016
1.830500000000001,0.0085224427374883,0.0245026773687483,-0.0010646508437165
1.8340000000000032,-0.0010646508437165,-0.0042603487041181,0.0
1.8375000000000057,-0.0202405833353782,-0.0394165158270399,-0.002131047016685
1.841000000000008,-0.0298276769165831,-0.0479389585645282,-0.0042603487041181
1.8444999999999965,-0.013849187614575,-0.029827676916583,-0.0053267448770866
1.847999999999999,0.0063913957208032,-0.0031956978604016,0.002131047016685
1.8515000000000013,0.0308940730895516,0.0372854688103548,0.0063913957208032
1.855000000000004,0.0330233747769847,0.0607217500061347,0.0085224427374883
1.8585000000000065,0.0191759324916617,0.0841580312019145,0.0117181405978899
1.862000000000009,0.0042603487041181,0.0958761717998045,0.0202405833353782
1.8654999999999973,-0.0202405833353782,0.1075943123976944,0.0383501196540714
1.869,-0.0149138384582915,0.1129210572747811,0.041545817514473
1.8725000000000025,-0.0010646508437165,0.1267702448893561,0.0362208179666383
1.8760000000000048,0.013849187614575,0.1427504795206162,0.029827676916583
1.8795000000000075,0.0245026773687484,0.1587289688226243,0.0287630260728665
1.8830000000000096,0.0362208179666383,0.1651203645434275,0.0255673282124649
1.886499999999998,0.0681795418999065,0.1672514115601126,0.0117181405978899
1.8900000000000008,0.0926804739394029,0.1534022239455376,0.0042603487041181
1.893500000000003,0.1182478021518678,0.1352926876268444,0.0
1.8970000000000056,0.1171831513081513,0.1214435000122694,-0.0063913957208032
1.900500000000008,0.0820287295144815,0.1022693128498597,0.0
1.9039999999999964,0.0319587239332681,0.0873537290623162,-0.002131047016685
1.9074999999999989,6.3925714564257004e-18,0.0521993072686464,-0.0074577918937717
1.9110000000000011,-0.0213052341790947,0.0458079115478431,-0.0117181405978899
1.914500000000004,-0.0564614013020165,0.02769837522915,-0.0202405833353782
1.9180000000000064,-0.096942567972773,0.01598023463126,-0.0213052341790947
1.9215000000000089,-0.1448797812080492,0.013849187614575,-0.0362208179666383
1.9249999999999967,-0.177904901314286,0.0095870935812048,-0.0458079115478431
1.9285,-0.2024058333537824,0.0117181405978899,-0.069244192743623
1.9320000000000024,-0.2301042085829324,0.0181095363186931,-0.0820287295144815
1.9355000000000049,-0.2237128128621291,2.739691801998573e-17,-0.1139874534477496
1.9390000000000072,-0.2013411825100658,0.0042603487041181,-0.1374237346435295
1.9425000000000097,-0.1619246666830259,0.0319587239332681,-0.138488385487246
1.945999999999998,-0.1054650107102613,0.0511346564249298,-0.1395530363309626
1.9495000000000005,0.0085224427374883,0.0809623333415129,-0.1342280367831279
1.953000000000003,0.0777666354811113,0.1033339636935762,-0.1193124529955843
1.9565000000000052,0.136357338470561,0.1214435000122694,-0.0916158230956863
1.960000000000008,0.1427504795206162,0.1267702448893561,-0.0703088435873395
1.963499999999996,0.1320969897664428,0.1075943123976944,-0.041545817514473
1.9669999999999987,0.1054650107102613,0.0724398906040246,-0.0127827914416064
1.9705000000000013,0.0905494269227178,0.0511346564249298,0.0053267448770866
1.974000000000004,0.0884201252352847,0.02769837522915,0.0181095363186931
1.9775000000000065,0.096942567972773,0.0031956978604016,0.029827676916583
1.9810000000000088,0.1171831513081512,-0.0085224427374883,0.0330233747769847
1.984499999999997,0.1448797812080492,-0.0308940730895516,0.0468725623915597
1.9879999999999995,0.1821652500184041,-0.0500682602519613,0.0575260521457331
1.991500000000002,0.2247774637058457,-0.0756355884644262,0.0607217500061347
1.9950000000000043,0.2599318854995155,-0.0894847760790013,0.0532657034416149
1.998500000000007,0.2908259585890671,-0.1097253594143795,0.02769837522915
2.002000000000009,0.302544099186957,-0.1235745470289545,0.0095870935812048
2.005499999999998,0.3270467765557054,-0.1320969897664428,-0.0095870935812048
2.0090000000000003,0.3376985209806268,-0.1448797812080493,-0.02769837522915
2.012500000000003,0.3408942188410284,-0.1661867607163961,-0.0426122136874415
2.0160000000000053,0.3270467765557054,-0.177904901314286,-0.0575260521457331
2.019500000000008,0.2929570056057522,-0.191754088928861,-0.0756355884644262
2.022999999999996,0.2492801410745941,-0.2024058333537824,-0.0873537290623162
2.026499999999998,0.1768385051413174,-0.2119946722642392,-0.0990718696602061
2.030000000000001,0.1320969897664428,-0.2119946722642392,-0.0958761717998045
2.033500000000004,0.0884201252352847,-0.1906876927558924,-0.0852244273748831
2.037000000000006,0.0681795418999064,-0.1597953649955928,-0.0767019846373948
2.0405000000000086,0.0703088435873395,-0.1097253594143795,-0.0575260521457331
2.043999999999997,0.0841580312019145,-0.0671131457269379,-0.0372854688103548
2.0474999999999994,0.1171831513081512,-0.0042603487041181,-0.0042603487041181
2.051000000000002,0.1555332709622227,0.0340897709499532,0.0170448854749766
2.0545000000000044,0.2151903701246408,0.0862890782185996,0.0362208179666383
2.058000000000007,0.2652586303766022,0.1086607085706629,0.0490036094082447
2.061500000000009,0.3206536355056502,0.1278348957330726,0.0585907029894496
2.0649999999999977,0.3462209637181151,0.138488385487246,0.0724398906040246
2.0685,0.3792460838243518,0.1459461773810177,0.0798976824977964
2.0720000000000027,0.3930952714389268,0.1502065260851359,0.0873537290623162
2.075500000000005,0.4080091098972184,0.138488385487246,0.0862890782185996
2.079000000000008,0.4101401569139035,0.1171831513081512,0.0937468701123714
2.082499999999996,0.4069427137242498,0.1033339636935762,0.096942567972773
2.0859999999999985,0.3984202709867616,0.0958761717998044,0.0926804739394028
2.089500000000001,0.3771150368076668,0.099071869660206,0.0809623333415129
2.0930000000000035,0.3526141047681703,0.1054650107102613,0.0767019846373948
2.096500000000006,0.3110665419244454,0.1161167551351827,0.0735062867769931
2.1000000000000085,0.2631275833599171,0.1065296615539778,0.0713752397603081
2.103499999999997,0.1747092034538843,0.0841580312019145,0.0607217500061347
2.1069999999999998,0.0788312863248279,0.0671131457269379,0.0404811666707564
2.110500000000002,-0.1075943123976944,0.0106534897541734,0.0127827914416064
2.1140000000000043,-0.2673896773932873,-0.0447432607041266,-0.0010646508437165
2.117500000000007,-0.5017542346803379,-0.1299659427497577,-0.0340897709499532
2.1210000000000093,-0.6924436727654824,-0.2024058333537823,-0.0681795418999064
2.1244999999999976,-0.9023072980130364,-0.304675146203642,-0.1150521042914662
2.128,-1.0237507980253058,-0.385637479545155,-0.150206526085136
2.1315000000000026,-1.1409322040042051,-0.5049499325407394,-0.1938833906162941
2.135000000000005,-1.2282876783957732,-0.6178727351447725,-0.2247774637058457
2.138500000000008,-1.3156414074580896,-0.7670146103861919,-0.260998281672484
2.141999999999996,-1.3412087356705549,-0.8703468287505162,-0.2737810731140905
2.1454999999999984,-1.3326862929330665,-0.9917920740920376,-0.2844345628682639
2.149000000000001,-1.3039232668602,-1.069558709573149,-0.2769767709744921
2.1525000000000034,-1.25278861043527,-1.1654348813729534,-0.2620629325162006
2.156000000000006,-1.2016556993395922,-1.22189628267497,-0.2375620004767041
2.1595000000000084,-1.144129647193859,-1.2826180326811047,-0.2098636252475541
2.1629999999999967,-1.098321735646016,-1.3135103604414042,-0.1832316461913727
2.166499999999999,-1.049318126237771,-1.3294905950726643,-0.1512729222581045
2.1700000000000017,-1.025880099712739,-1.325230246368546,-0.1289012919060412
2.173500000000004,-1.015228355287818,-1.2985965219831128,-0.1065296615539778
2.1770000000000067,-1.0269464958857075,-1.2826180326811047,-0.0937468701123714
2.180500000000009,-1.063165568523094,-1.2602464023290414,-0.0777666354811113
2.183999999999997,-1.098321735646016,-1.2549196574519548,-0.0756355884644262
2.1875,-1.139867553160489,-1.25705070446864,-0.0703088435873395
2.1910000000000025,-1.162239183512552,-1.267704194222813,-0.0767019846373948
2.194500000000005,-1.1718262770937569,-1.2836826835248212,-0.0873537290623162
2.1980000000000075,-1.1611727873395836,-1.304987917703916,-0.1054650107102613
2.201499999999996,-1.112169177931339,-1.346535480547641,-0.1150521042914662
2.2049999999999983,-1.058905219818976,-1.381689902341311,-0.1257055940456395
2.208500000000001,-0.9545066052816832,-1.423237465185036,-0.1470108282247343
2.2120000000000037,-0.8735442719401701,-1.4498694442412174,-0.1608600158393093
2.215500000000006,-0.7403808860007587,-1.4786324703140838,-0.1747092034538843
2.2190000000000083,-0.6413090163405527,-1.5010041006661472,-0.1832316461913727
2.2224999999999966,-0.5092120265741098,-1.5116558450910689,-0.1811005991746876
2.225999999999999,-0.4144005056180218,-1.518048986141124,-0.1736428072809158
2.2295000000000016,-0.2844345628682641,-1.512722241264037,-0.1672514115601126
2.233000000000004,-0.1853609478788059,-1.498873053649462,-0.1512729222581045
2.2365000000000066,-0.064983844039505,-1.4615875848391076,-0.1299659427497577
2.240000000000009,0.0191759324916615,-1.4168443241349806,-0.1086607085706629
2.2434999999999974,0.1257055940456394,-1.351862225424728,-0.0756355884644262
2.247,0.2024058333537822,-1.2932697771060262,-0.0447432607041266
2.2505000000000024,0.2812388650078621,-1.2027203501833084,-0.0085224427374883
2.254000000000005,0.3313071252598235,-1.1238890638584804,0.0255673282124649
2.2575000000000074,0.3611348021764066,-1.002443818516959,0.055395005129048
2.260999999999996,0.3547434064556033,-0.9065676467171546,0.0735062867769931
2.264499999999998,0.3100018910807287,-0.7819284488444836,0.1012029166768912
2.2680000000000007,0.2546051406224286,-0.683921230027994,0.1161167551351827
2.271500000000003,0.1491418752414194,-0.5528888911052677,0.1427504795206162
2.2750000000000057,0.0660484948832213,-0.4580773701491797,0.1565979218059392
2.278500000000008,-0.0490036094082448,-0.3387649171535954,0.1640557136997109
2.2819999999999965,-0.1310323389227263,-0.2492801410745941,0.1704471094205142
2.285499999999999,-0.2151903701246408,-0.138488385487246,0.166186760716396
2.289000000000001,-0.2716500260974054,-0.0628527970228197,0.1565979218059392
2.292500000000004,-0.3185243338182171,0.0298276769165831,0.1225098961852379
2.2960000000000065,-0.3376985209806268,0.0958761717998045,0.0958761717998045
2.299500000000009,-0.3504830577514853,0.1651203645434275,0.0532657034416149
2.3029999999999973,-0.3462209637181151,0.2141239739516723,0.0308940730895516
2.3065,-0.3217200316786187,0.2652586303766022,0.0
2.3100000000000023,-0.2993484013265554,0.3014794483432405,-0.0149138384582915
2.3135000000000048,-0.260998281672484,0.3376985209806269,-0.0351544217936697
2.3170000000000077,-0.235430953460019,0.3600701513326902,-0.0394165158270399
2.3205000000000098,-0.2034722295267508,0.3824417816847534,-0.0383501196540714
2.323999999999998,-0.1853609478788057,0.4005513180034466,-0.0308940730895516
2.327500000000001,-0.166186760716396,0.4144005056180216,-0.0095870935812048
2.331000000000003,-0.1587289688226242,0.4239875991992265,0.0181095363186931
2.3345000000000056,-0.1640557136997109,0.4154651564617382,0.0596570991624181
2.338000000000008,-0.1725781564371992,0.4058780628805333,0.0926804739394028
2.3414999999999964,-0.1842962970350891,0.3792460838243518,0.1459461773810178
2.344999999999999,-0.1960144376329791,0.3579391043160051,0.1864273440517743
2.3485000000000014,-0.1960144376329791,0.3195889846619337,0.2364956043037356
2.352000000000004,-0.1928187397725775,0.2908259585890671,0.2791078179911772
2.3555000000000064,-0.1832316461913726,0.2386266513204207,0.3376985209806268
2.359000000000009,-0.1715135055934827,0.191754088928861,0.3781796876513833
2.362499999999997,-0.1480754790684509,0.1161167551351827,0.4069427137242498
2.366,-0.1299659427497577,0.0500682602519613,0.4133358547743051
2.369500000000002,-0.1118564064310646,-0.0607217500061347,0.4069427137242498
2.3730000000000047,-0.1033339636935763,-0.1576643179789077,0.4005513180034466
2.376500000000007,-0.096942567972773,-0.2918906094327836,0.3771150368076668
2.3800000000000097,-0.1001382658331747,-0.4058780628805333,0.3515477085952018
2.383499999999998,-0.0990718696602061,-0.5507578440885826,0.3068061932203272
2.3870000000000005,-0.1054650107102614,-0.6594185526592456,0.2599318854995155
2.390500000000003,-0.1289012919060413,-0.8000379851631767,0.1949497867892626
2.394000000000005,-0.1555332709622228,-0.905502995873438,0.1310323389227262
2.397500000000008,-0.2215817658454442,-1.045056032204401,0.0447432607041266
2.400999999999996,-0.3014794483432406,-1.1494546467416935,-0.0213052341790947
2.4044999999999987,-0.4399678338304867,-1.286878381385223,-0.1065296615539778
2.4080000000000013,-0.5731294744406461,-1.3848856002017127,-0.1715135055934827
2.411500000000004,-0.7787327509840821,-1.4999377044931788,-0.2599318854995155
2.4150000000000063,-0.9491798604045965,-1.5777043399742898,-0.3249157295390203
2.4185000000000088,-1.2027203501833086,-1.6586666733158029,-0.4026823650201317
2.421999999999997,-1.4051261835370912,-1.7012788870032445,-0.4623394641825499
2.4254999999999995,-1.6895607464053548,-1.7364333087969144,-0.5379750526469761
2.429000000000002,-1.918600304144571,-1.746022147707371,-0.5912390107593392
2.4325000000000045,-2.236058241789819,-1.743891100690686,-0.6572875056425604
2.436000000000007,-2.489598731568531,-1.7215194703386227,-0.7020307663466872
2.439500000000009,-2.833690393599213,-1.6799736528241491,-0.753165422771617
2.442999999999998,-3.094686929942445,-1.6384260899804244,-0.7819284488444836
2.4465000000000003,-3.431320800079356,-1.568117246393085,-0.8074957770569485
2.450000000000003,-3.6731431492601785,-1.5052644493702652,-0.8266699642193582
2.4535000000000053,-3.9746225976034175,-1.4168443241349802,-0.8501062454151381
2.457000000000008,-4.181290524990572,-1.350795829251759,-0.8724778757672014
2.460499999999996,-4.449744853227576,-1.268768845066529,-0.8948495061192646
2.463999999999998,-4.632976499418947,-1.209111745904111,-0.9140254386109264
2.467500000000001,-4.873734197756053,-1.139867553160488,-0.940657417667108
2.471000000000004,-5.050572702897371,-1.0834061518584714,-0.9545066052816829
2.474500000000006,-5.272154468742816,-1.017359402304502,-0.972616141600376
2.4780000000000086,-5.4319498337384085,-0.966224745879572,-0.9832696313545496
2.481499999999997,-5.630095318388072,-0.9012409018400672,-0.9885963762316362
2.4849999999999994,-5.763256958998232,-0.8490415945714209,-0.9917920740920376
2.488500000000002,-5.925181625681258,-0.7936465894423728,-0.9896610270753528
2.4920000000000044,-6.027449193201865,-0.7638171671965377,-0.984334282198266
2.495500000000007,-6.111608969733032,-0.7318584432632695,-0.972616141600376
2.499000000000009,-6.153154787247505,-0.7201403026653795,-0.9577023031420844
2.5024999999999977,-6.1435676936663,-0.705226464207088,-0.940657417667108
2.506,-6.1052175740122285,-0.6945729744529147,-0.9193504381587612
2.5095000000000027,-5.992294771408195,-0.6807255321675916,-0.9001762509963515
2.513000000000005,-5.872982318412611,-0.6679409953967332,-0.8863270633817765
2.516500000000008,-5.6865549743608375,-0.6487650629050715,-0.863955433029713
2.519999999999996,-5.534217401259016,-0.6327865736030635,-0.8469105475547365
2.5234999999999985,-5.339267614469754,-0.6210684330051736,-0.8256053133756417
2.527000000000001,-5.208237020876279,-0.6178727351447719,-0.8117561257610666
2.5305000000000035,-5.089989218724411,-0.6295908757426618,-0.8011026360068932
2.534000000000006,-5.045245958020285,-0.6519625060947252,-0.8011026360068932
2.5375000000000085,-5.07081328623275,-0.677528088977938,-0.8085604279006651
2.540999999999997,-5.157102364451349,-0.7009661155029699,-0.8234742663589566
2.5444999999999998,-5.354183198257297,-0.7244023966987498,-0.8469105475547365
2.548000000000002,-5.550197635890276,-0.7435765838611595,-0.8767399698005716
2.5515000000000043,-5.868720224379241,-0.7574257714757345,-0.9076322975608712
2.555000000000007,-6.135045250928812,-0.7670146103861912,-0.9363953236337376
2.5585000000000093,-6.518551683457281,-0.772339609934026,-0.958766953985801
2.5619999999999976,-6.801921595481829,-0.7819284488444828,-0.9694204437399744
2.5655,-7.167318491691606,-0.8128207766047822,-0.9513109074212812
2.5690000000000026,-7.416596887436948,-0.8522372924318222,-0.9342660219463046
2.572500000000005,-7.68185551781355,-0.9310703240859022,-0.901240901840068
2.576000000000008,-7.837388788775773,-1.000314516829525,-0.8788692714880046
2.579499999999996,-7.962029731977696,-1.1121691779313378,-0.8469105475547365
2.5829999999999984,-7.983334966156791,-1.195262558289536,-0.8181475214818699
2.586500000000001,-7.933266705904829,-1.3092500117372854,-0.8011026360068932
2.5900000000000034,-7.840586231965426,-1.3966037407996017,-0.7893844954090034
2.593500000000006,-7.673334820405314,-1.5244403818619263,-0.7819284488444836
2.5970000000000084,-7.509277361376351,-1.6277743455555027,-0.7680792612299085
2.6004999999999967,-7.261063616474725,-1.7758498246239536,-0.7329248394362388
2.603999999999999,-7.037350803612597,-1.885575184038333,-0.7062911150508053
2.6075000000000017,-6.713501470246545,-2.0187385699777445,-0.670072042413419
2.611000000000004,-6.447176443696974,-2.1092879969004623,-0.642373667184269
2.6145000000000067,-6.06899675604559,-2.223275450348212,-0.6082838962343158
2.618000000000009,-5.788824287210697,-2.3010420858293235,-0.5827165680218508
2.621499999999997,-5.41916529696755,-2.38839581489164,-0.5369104018032596
2.625,-5.157102364451349,-2.4480529140540583,-0.4953628389595346
2.6285000000000025,-4.837513379789415,-2.513035012764311,-0.4303807402492817
2.632000000000005,-4.623389405837743,-2.546060132870548,-0.3781796876513833
2.6355000000000075,-4.371978217746464,-2.580149903820501,-0.3036087500306735
2.638999999999996,-4.2068578532030365,-2.596128393122509,-0.2482137449016255
2.6424999999999983,-4.007647717709656,-2.6131732785974857,-0.1619246666830259
2.646000000000001,-3.873419680926528,-2.6195646743182888,-0.0916158230956863
2.6495000000000037,-3.694450128768525,-2.6312828149161787,0.0074577918937717
2.653000000000006,-3.560222091985397,-2.6461983987037225,0.0905494269227178
2.6565000000000083,-3.3684697483857886,-2.6611122371620137,0.1992101354933808
2.6599999999999966,-3.216132175283968,-2.6706993307432185,0.2823035158515788
2.663499999999999,-2.993484013265555,-2.688808867061912,0.3877685265618402
2.6670000000000016,-2.808123065386749,-2.695202008111967,0.4634041150262664
2.670500000000004,-2.54499373669758,-2.706920148709857,0.561411333842756
2.6740000000000066,-2.3340654606063094,-2.7228986380118654,0.6295908757426625
2.677500000000009,-2.0517619447547304,-2.738878872643125,0.709488558240459
2.6809999999999974,-1.8355069237863728,-2.750597013241015,0.7584921676487036
2.6845,-1.5532034079347945,-2.7697712004034254,0.8256053133756417
2.6880000000000024,-1.3465354805476415,-2.7964049247888583,0.8682175270630832
2.691500000000005,-1.070623360416866,-2.820905856828355,0.917221136471328
2.6950000000000074,-0.8628907821859968,-2.8443421380241345,0.942788464683793
2.698499999999996,-0.5837829641948197,-2.868844815392884,0.9651583497066044
2.701999999999998,-0.3739193389472655,-2.8848250500241432,0.9768764903044942
2.7055000000000007,-0.0948115209560883,-2.89760784146575,0.9853989330419826
2.709000000000003,0.1129210572747807,-2.90932598206364,0.9917920740920376
2.7125000000000057,0.3888331774055564,-2.901868190169868,0.9971170736398725
2.716000000000008,0.5880433128989372,-2.893347492761632,1.0035102146899275
2.7194999999999965,0.8511726415881062,-2.8773672581303718,1.0173594023045027
2.722999999999999,1.0375999856398803,-2.865649117532482,1.021619751008621
2.726500000000001,1.2826180326811043,-2.841146440163733,1.0237507980253058
2.730000000000004,1.4733057254369968,-2.814514461107552,1.0248154488690224
2.7335000000000065,1.7236505173553076,-2.7623151538389057,1.022684401852337
2.737000000000009,1.913273559267484,-2.718638289307748,1.0258800997127389
2.7404999999999973,2.178532189644086,-2.665372585866133,1.032273240762794
2.744,2.38839581489164,-2.6291535132287462,1.043991381360684
2.7475000000000023,2.671763981586935,-2.586541299541305,1.067427662556464
2.7510000000000048,2.886954351711576,-2.5577782734684384,1.0908639437522438
2.7545000000000077,3.1756510086132104,-2.536471293960092,1.1206916206688269
2.7580000000000098,3.396166378285686,-2.5226238516747683,1.1419986001771738
2.761499999999998,3.679536290310233,-2.5183617576413986,1.1654348813729536
2.765000000000001,3.890464566401504,-2.517297106797682,1.17821767281456
2.768500000000003,4.182355175834288,-2.5226238516747683,1.192066860429135
2.7720000000000056,4.394349848098528,-2.5354066431163758,1.208047095060395
2.775500000000008,4.681980108827193,-2.5886723465579897,1.2389411681499467
2.7789999999999964,4.897170478951834,-2.6366095597932664,1.267704194222813
2.782499999999999,5.18373434350753,-2.7154425914473466,1.3220328031788928
2.7860000000000014,5.395729015771769,-2.7761643414534807,1.3667760638830195
2.789500000000004,5.6865549743608375,-2.848604232057506,1.4147150224475475
2.7930000000000064,5.916659182943769,-2.8944121436053494,1.453065142101619
2.796500000000009,6.243705959499475,-2.959394242315602,1.502068751509864
2.799999999999997,6.510029240719794,-2.996679711125957,1.5404188711639353
2.8035,6.89886241812535,-3.05420576327169,1.5904888767451486
2.807000000000002,7.217386751943567,-3.0968179769591315,1.629903647242937
2.8105000000000047,7.669072726371944,-3.159670773981951,1.6821046998408349
2.814000000000007,8.01848938795046,-3.2086743833901963,1.7172591216345048
2.8175000000000097,8.478697805116326,-3.269396133396331,1.765196334869781
2.820999999999998,8.827049815851126,-3.3130729979274887,1.7918300592552143
2.8245000000000005,9.2723443945587,-3.373794747933624,1.8141999442780257
2.828000000000003,9.592999775393602,-3.417473357794034,1.8216577361717976
2.831500000000005,9.987157952346992,-3.492042550085492,1.808874944730191
2.835000000000008,10.252418328052846,-3.541047904822989,1.7854369182051593
2.838499999999996,10.57200731271478,-3.61455244627073,1.7449557515344027
2.8419999999999987,10.765890703331074,-3.67314314926018,1.7076702827240478
2.8455000000000013,10.96297153713702,-3.773281415093354,1.6607977203324882
2.849000000000004,11.056716661920142,-3.838265259132859,1.6256432985388185
2.8525000000000063,11.089741782026378,-3.912836196753569,1.575575038286857
2.8560000000000088,11.068434802518032,-3.959708759145128,1.5372231733035338
2.859499999999997,10.977885375595314,-4.0065813215366886,1.486088516878604
2.8629999999999995,10.894791995237116,-4.049193535224131,1.450934095084934
2.866500000000002,10.795718380247656,-4.099263540805342,1.4040615326933743
2.8700000000000045,10.738194073431176,-4.135482613442729,1.361449319005933
2.873500000000007,10.679601625112475,-4.161049941655194,1.3081853608935698
2.877000000000009,10.649773948195891,-4.1812905249905725,1.2687688450665298
2.880499999999998,10.59970568794393,-4.184486222850974,1.2218962826749702
2.8840000000000003,10.550700333206432,-4.191944014744745,1.1835444176916468
2.887500000000003,10.429256833194165,-4.194073316432179,1.1270847617188822
2.8910000000000053,10.305682286165208,-4.194073316432179,1.0802104539980706
2.894500000000008,10.09049191604057,-4.185552619023943,1.0088369595670144
2.897999999999996,9.901935270301362,-4.1812905249905725,0.9534402091087144
2.901499999999998,9.630285244203955,-4.169572384392683,0.875673573627603
2.905000000000001,9.42468196766052,-4.154658545934391,0.8213432193422715
2.908500000000004,9.179663920619296,-4.116306680951068,0.7425119330174437
2.912000000000006,9.011346112886214,-4.0864790040344845,0.6892479749050807
2.9155000000000086,8.841965399638669,-4.055584930944932,0.6221330838488908
2.918999999999997,8.736500388928407,-4.048128884380413,0.5720648235969293
2.9224999999999994,8.619317237620256,-4.041735743330357,0.5145387714511963
2.926000000000002,8.526636763680854,-4.055584930944932,0.4655351620429515
2.9295000000000044,8.383886284160237,-4.081152259157397,0.3930952714389268
2.933000000000007,8.23474615424807,-4.10032819164906,0.3398295679973119
2.936500000000009,8.002510898648453,-4.131222264738611,0.2641939795328856
2.9399999999999977,7.794778320417582,-4.16211459249891,0.2151903701246408
2.9435,7.502885965655547,-4.200466457482234,0.1470108282247343
2.9470000000000027,7.279173152793417,-4.222836342505046,0.1065296615539778
2.950500000000005,6.989413590377319,-4.255861462611282,0.0521993072686464
2.954000000000008,6.788072407867253,-4.268644254052888,0.0117181405978899
2.957499999999996,6.553706105250951,-4.266514952365456,-0.0404811666707564
2.9609999999999985,6.404565975338784,-4.26438390534877,-0.0820287295144815
2.964500000000001,6.224530027007812,-4.246274369030077,-0.1470108282247343
2.9680000000000035,6.110542573560062,-4.218575993800927,-0.1938833906162941
2.971500000000006,5.968858490212415,-4.165310290359312,-0.2663250265495707
2.9750000000000085,5.881504761150099,-4.123764472844839,-0.3249157295390203
2.978499999999997,5.77071300556275,-4.070498769403224,-0.4122694586013365
2.9819999999999998,5.699339511131694,-4.0321486497491525,-0.4879067923950148
2.985500000000002,5.626897875198417,-3.965035504022215,-0.6018925005135125
2.9890000000000043,5.584287406840228,-3.9117698005806,-0.6988350684862855
2.992500000000007,5.552326937577709,-3.834003165099488,-0.8341277561131301
2.9960000000000093,5.547001938029873,-3.781803857830842,-0.9310703240859032
2.9994999999999976,5.5778942657901736,-3.685927686031037,-1.083406151858472
3.003,5.602396943158921,-3.6486422172206825,-1.1398675531604887
3.0065000000000026,5.688686021377522,-3.5538306962645945,-1.231483376256175
3.010000000000005,5.772844052579436,-3.4845865035209718,-1.2762248916310497
3.013500000000008,5.906005693189596,-3.4068198680398605,-1.3081853608935698
3.016999999999996,6.009339656883172,-3.358880909475332,-1.3092500117372865
3.0204999999999984,6.118000365453835,-3.302421253502568,-1.3124457095976878
3.024000000000001,6.164872927845395,-3.2608736906588427,-1.3209681523351764
3.0275000000000034,6.153154787247505,-3.2065433363735107,-1.340144084826838
3.031000000000006,6.098824432962173,-3.1639328680153214,-1.356122574128846
3.0345000000000084,5.947553256033321,-3.1138628624341083,-1.3731674596038226
3.0379999999999967,5.809064870546075,-3.08190413850084,-1.3944744391121693
3.041499999999999,5.574698567929772,-3.05420576327169,-1.4349556057829258
3.0450000000000017,5.3765530832801085,-3.0360962269529965,-1.4658479335432255
3.048500000000004,5.083596077674356,-3.0115952949135,-1.525505032705644
3.0520000000000067,4.846035822526903,-2.993484013265555,-1.575575038286857
3.055500000000009,4.512597650250394,-2.970047732069775,-1.6554709754554016
3.058999999999997,4.24840367071751,-2.9487424978906804,-1.730041913076111
3.0625,3.887268868541102,-2.908261331219924,-1.852551809261349
3.0660000000000025,3.607094654376956,-2.8677801645491674,-1.9622771686757288
3.069500000000005,3.231046013742258,-2.7964049247888587,-2.134855325112928
3.0730000000000075,2.9561985444551997,-2.7218339871681496,-2.270148012739772
3.076499999999996,2.5993240909829103,-2.618500023474573,-2.448052914054059
3.0799999999999983,2.356437090958372,-2.536471293960092,-2.5790835076475327
3.083500000000001,2.070937877246392,-2.4118320960874207,-2.737812476470157
3.0870000000000037,1.897293324636224,-2.315955924287616,-2.854995627778308
3.090500000000006,1.7076702827240475,-2.1966417259627797,-3.0020064560030426
3.0940000000000083,1.6107294600805266,-2.1103526477441794,-3.105340419696619
3.0974999999999966,1.51911363698484,-2.0208678716651782,-3.2331753154296914
3.100999999999999,1.4796971211578005,-1.9665375173798472,-3.331184279575433
3.1045000000000016,1.4562608399620205,-1.9036864656862795,-3.461150222325191
3.108000000000004,1.4488030480682488,-1.8632035536862708,-3.551699649247909
3.1115000000000066,1.4445426993641306,-1.8227223870155145,-3.651837915081084
3.115000000000009,1.4402806053307604,-1.7950257571156163,-3.711495014243501
3.1184999999999974,1.438151303643327,-1.7620006370093797,-3.766890019372549
3.122,1.4306935117495556,-1.7460221477073714,-3.793521998428731
3.1255000000000024,1.4125839754308624,-1.7321729600927966,-3.805240139026621
3.129000000000005,1.3955390899558855,-1.7279108660594262,-3.807371186043306
3.1325000000000074,1.3646450168663342,-1.74282644984697,-3.7945883946017
3.135999999999996,1.3337526891060345,-1.753478194271891,-3.780739206987125
3.139499999999998,1.2645067510331596,-1.7694584289031512,-3.7658253685288328
3.1430000000000007,1.1995246523229066,-1.7737187776072694,-3.7647589723558648
3.146500000000003,1.087668245891842,-1.7833076165177264,-3.771150368076668
3.1500000000000057,0.9779428864774624,-1.7854369182051597,-3.784999555691243
3.153500000000008,0.8224096155152398,-1.7854369182051593,-3.809502233059992
3.1569999999999965,0.6935083236091987,-1.779045522484356,-3.834003165099488
3.160499999999999,0.5156034222949126,-1.7481531947240565,-3.8798110766473295
3.164000000000001,0.3824417816847532,-1.706605631880331,-3.925618988195174
3.167500000000004,0.2098636252475539,-1.6437528348575114,-3.991667483078396
3.1710000000000065,0.0926804739394027,-1.5947492254492668,-4.054520280101215
3.174500000000009,-0.0532657034416151,-1.525505032705644,-4.12696017070524
3.1779999999999973,-0.1523375731018212,-1.4850238660348871,-4.188748316884343
3.1815,-0.2641939795328858,-1.4402806053307606,-4.2729063480862575
3.1850000000000023,-0.3440916620306822,-1.4221710690120672,-4.3261703061986205
3.1885000000000048,-0.4431635316908884,-1.4147150224475475,-4.385827405361039
3.1920000000000077,-0.5124077244345114,-1.421106418168351,-4.419917176310992
3.1955000000000098,-0.6168063389718043,-1.4424116523474455,-4.436962061785969
3.198999999999998,-0.7094885582404592,-1.4679789805599106,-4.427373222875512
3.202500000000001,-0.8703468287505165,-1.4967420066327772,-4.414590431433905
3.206000000000003,-1.0088369595670146,-1.5041997985265487,-4.4209818271547086
3.2095000000000056,-1.2186988394853169,-1.524440381861927,-4.445484504523457
3.213000000000008,-1.391276995922516,-1.55426805877851,-4.461462993825465
3.2164999999999964,-1.6501442305783152,-1.579835386990975,-4.485965671194213
3.219999999999999,-1.8589432049821528,-1.6117941109242433,-4.497683811792104
3.2235000000000014,-2.1593562571524245,-1.6458838818741963,-4.51472869726708
3.227000000000004,-2.3969182576291286,-1.6576020224720864,-4.527511488708687
3.2305000000000064,-2.738878872643125,-1.6757115587907794,-4.537100327619143
3.234000000000009,-3.008397851723846,-1.6703848139136928,-4.54562102502738
3.237499999999997,-3.379121492810709,-1.6629287673491728,-4.5552098639378364
3.241,-3.6656871026956575,-1.6746469079470627,-4.5679926553794425
3.244500000000002,-4.045997837363727,-1.6842340015282675,-4.582908239166986
3.2480000000000047,-4.3155185617737,-1.7193884233219374,-4.570123702396128
3.251500000000007,-4.6500213848939245,-1.779045522484355,-4.559470212641955
3.2550000000000097,-4.868407452878968,-1.8110042464176237,-4.574385796429499
3.258499999999998,-5.091053869568127,-1.8632035536862697,-4.61273591608357
3.2620000000000005,-5.212497369580397,-1.9058157673737115,-4.64043429131272
3.265500000000003,-5.2934597029219095,-1.9516236789215544,-4.665999874195933
3.269000000000005,-5.32115807815106,-1.9761263562903029,-4.685175806687595
3.272500000000008,-5.305179588849052,-2.009149731067288,-4.715003483604177
3.275999999999996,-5.267894120038697,-2.0549576426151317,-4.736310463112525
3.2794999999999987,-5.21143271873668,-2.128463929392124,-4.745897556693729
3.2830000000000013,-5.165624807188838,-2.187054632381574,-4.746963952866698
3.286500000000004,-5.116621197780592,-2.279735106320977,-4.746963952866698
3.2900000000000063,-5.088924567880694,-2.3702862785729466,-4.739506160972925
3.2935000000000088,-5.0814667759869225,-2.4906633824122477,-4.716069879777145
3.296999999999997,-5.097445265288931,-2.5854749033683357,-4.696893947285484
3.3004999999999995,-5.153906666590947,-2.719702940151463,-4.645759290860553
3.304000000000002,-5.231673302072059,-2.8187765551409214,-4.593559983591907
3.3075000000000045,-5.375488432436391,-2.954069242767766,-4.520055442144167
3.311000000000007,-5.517172515784039,-3.051010065411287,-4.457202645121346
3.314500000000009,-5.76006126113783,-3.1980208936360213,-4.348541936550684
3.317999999999998,-5.962467094491612,-3.305616951362967,-4.269710650225856
3.3215000000000003,-6.273533636416058,-3.455823477448104,-4.163180988671878
3.325000000000003,-6.551576803563519,-3.5730066287562545,-4.079021212140711
3.3285000000000053,-6.983022194656517,-3.743453738176769,-3.9788846916367886
3.332000000000008,-7.354810486587098,-3.887268868541101,-3.897922358295276
3.335499999999996,-7.876805304602814,-4.071565165576191,-3.741322691160085
3.338999999999998,-8.276291971762543,-4.182355175834287,-3.627336983041587
3.342500000000001,-8.747153878682582,-4.300602977986155,-3.5037624360126327
3.346000000000004,-9.043304836819482,-4.367717869042345,-3.391906029581568
3.349500000000006,-9.345850681335692,-4.425243921188078,-3.2821806701671887
3.3530000000000086,-9.506708951845749,-4.448680202383858,-3.168193216719439
3.356499999999997,-9.667568967685058,-4.459333692138031,-3.0137245966009325
3.3599999999999994,-9.760251186953711,-4.455071598104661,-2.901868190169868
3.363500000000002,-9.824168634820252,-4.426308572031794,-2.8315593465825284
3.3670000000000044,-9.833755728401457,-4.386892056204754,-2.784686784190969
3.370500000000007,-9.789012467697328,-4.324041004511186,-2.6930709610952825
3.374000000000009,-9.725096765160044,-4.254796811767564,-2.652589794424526
3.3774999999999977,-9.604717915991491,-4.132286915582325,-2.5694964140663283
3.381,-9.512035696722837,-4.022561556167946,-2.535406643116375
3.3845000000000027,-9.35117742621278,-3.855310144607833,-2.541798038837178
3.388000000000005,-9.22547183216714,-3.726408852701792,-2.527950596551855
3.391500000000008,-9.07632995692572,-3.5698091855666005,-2.50238326833939
3.394999999999996,-8.984714133830034,-3.4622148731689064,-2.476815940126925
3.3984999999999985,-8.894164706907315,-3.3215954406649755,-2.4555089606185785
3.402000000000001,-8.854748191080276,-3.2278503158818563,-2.4246166328582786
3.4055000000000035,-8.85261714406359,-3.1213206543278784,-2.3852001170312387
3.409000000000006,-8.88031551929274,-3.0584678573050583,-2.362828486679175
3.4125000000000085,-8.95488645691345,-2.994550409438522,-2.327674064885506
3.415999999999997,-9.050762628713256,-2.9636563363489703,-2.3116938302542454
3.4194999999999998,-9.22120973813377,-2.972178779086458,-2.289322199902182
3.423000000000002,-9.384200800989763,-3.0052021538634426,-2.2722790597564577
3.4265000000000043,-9.654786176243451,-3.080839487657121,-2.256298825125197
3.430000000000007,-9.880628290793014,-3.167128565875721,-2.2520384764210792
3.4335000000000093,-10.181043088292538,-3.29602811245251,-2.2584298721418827
3.4369999999999976,-10.39623345841718,-3.4153423107773464,-2.257363475968914
3.4405,-10.651903249883324,-3.5889851180582624,-2.2424496375106227
3.4440000000000026,-10.8042425683144,-3.7061682693664135,-2.240320335823189
3.447500000000005,-10.941664557628677,-3.86809293604944,-2.240320335823189
3.451000000000008,-11.007713052511898,-4.009777019397087,-2.249907429404394
3.454499999999996,-11.05458736023271,-4.231358785242531,-2.2424496375106227
3.4579999999999984,-11.069501198691,-4.418850780138022,-2.231797893085701
3.461500000000001,-11.075892594411805,-4.669197317385585,-2.2051641687002674
3.4650000000000034,-11.052456313216023,-4.840709077649815,-2.18918567939826
3.468500000000006,-10.958709443103652,-5.055899447774456,-2.190250330241976
3.4720000000000084,-10.841528037124752,-5.2124973695803964,-2.190250330241976
3.4754999999999967,-10.62633592167086,-5.39892471363217,-2.188119283225291
3.478999999999999,-10.432452531054563,-5.520368213644439,-2.1827925383482043
3.4825000000000017,-10.143757619482182,-5.679097182467064,-2.176401142627401
3.486000000000004,-9.897674921597243,-5.789888938054412,-2.1678786998899127
3.4895000000000067,-9.538669421108269,-5.930508370558343,-2.158291606308708
3.493000000000009,-9.249972764206635,-6.024253495341463,-2.144442418694133
3.496499999999997,-8.848356795359472,-6.147828042370417,-2.1199414866546364
3.5,-8.55220409189332,-6.225594677851529,-2.09863450714629
3.5035000000000025,-8.163370914487762,-6.301232011645206,-2.0613490383359347
3.507000000000005,-7.894914840921507,-6.33105968856179,-2.034717059279753
3.5105000000000075,-7.584914695170029,-6.363018412495058,-2.0006272883298
3.513999999999996,-7.397422700274538,-6.364084808668027,-1.975059960117335
3.5174999999999983,-7.223778147664372,-6.353431318913854,-1.952690075094524
3.521000000000001,-7.13429337158537,-6.340646782142995,-1.920729605832004
3.5245000000000037,-7.065049178841747,-6.33105968856179,-1.866400996875924
3.528000000000006,-7.032025804064762,-6.323601896668018,-1.8035481998531044
3.5315000000000083,-7.002196381818927,-6.3044277095056085,-1.6895607464053546
3.5349999999999966,-6.98515149634395,-6.29164317273475,-1.5926181784325817
3.538499999999999,-6.962781611321139,-6.285251777013947,-1.4424116523474455
3.5420000000000016,-6.931887538231587,-6.298036313784806,-1.3177724544747746
3.545500000000004,-6.855185553594192,-6.316145850103498,-1.1569124386354652
3.5490000000000066,-6.764636126671475,-6.298036313784806,-1.045056032204401
3.552500000000009,-6.606971808692568,-6.25648875094108,-0.9118943915942412
3.5559999999999974,-6.46102563131155,-6.211747235566206,-0.8245406625319252
3.5595,-6.217072235114042,-6.114804667593433,-0.7169446048049787
3.5630000000000024,-5.992294771408196,-6.023188844497746,-0.6402426201675839
3.566500000000005,-5.635420317935908,-5.890027203887587,-0.5315836569261729
3.5700000000000074,-5.329680520888549,-5.787757891037727,-0.452750625272093
3.573499999999996,-4.887581640041377,-5.6439427606733945,-0.3440916620306821
3.576999999999998,-4.539229629306578,-5.5363484482757,-0.2673896773932873
3.5805000000000007,-4.071565165576192,-5.399989364475887,-0.1597953649955928
3.584000000000003,-3.729604550562195,-5.299852843971964,-0.0798976824977964
3.5875000000000057,-3.298159159469197,-5.167755854205522,0.0106534897541733
3.591000000000008,-3.004137503019728,-5.063355494338977,0.0756355884644262
3.5944999999999965,-2.641936304670353,-4.937651645622591,0.1608600158393093
3.597999999999999,-2.392656163595759,-4.844971171683187,0.2226464166891606
3.601500000000001,-2.0773292729671957,-4.72991906739172,0.3068061932203272
3.605000000000004,-1.84083366866346,-4.646825687033522,0.3739193389472651
3.6085000000000074,-1.5223093348452428,-4.550949515233718,0.4719265577637547
3.612000000000009,-1.2868783813852234,-4.494488113931702,0.5518242402615512
3.615499999999997,-0.9736807924440932,-4.434831014769284,0.6764634381342222
3.619,-0.7393162351570425,-4.402872290836015,0.7819284488444836
3.6225000000000014,-0.449554927411692,-4.387958452377724,0.933199625773336
3.6260000000000048,-0.2450180470412244,-4.386892056204755,1.0567741728022906
3.6295000000000073,-0.0042603487041186,-4.390089499394409,1.22935232923949
3.6330000000000098,0.1470108282247338,-4.399676592975614,1.3550579232851294
3.636499999999998,0.3057397970473581,-4.403936941679732,1.5233739856889583
3.640000000000001,0.3994866671597295,-4.40074124381933,1.6437528348575114
3.643500000000003,0.4911024902554159,-4.375173915606865,1.8014171528364191
3.6470000000000056,0.548628542401149,-4.33788844679651,1.9143382101112003
3.650500000000008,0.5986968026531103,-4.265448556192486,2.053892991771415
3.653999999999997,0.6210684330051737,-4.204726806186351,2.144442418694133
3.657499999999999,0.6359822714634652,-4.118437727967751,2.273343710600174
3.661000000000002,0.6370469223071819,-4.045997837363727,2.366024184539577
3.664500000000004,0.6317219227593471,-3.953317363424324,2.4842719866914447
3.6680000000000064,0.6221330838488903,-3.8808774728202993,2.558842924312154
3.671500000000009,0.5901743599156222,-3.780739206987125,2.645132002530754
3.674999999999997,0.5592802868260706,-3.7040372223497298,2.686679565374479
3.6785,0.5017542346803374,-3.6092257013936417,2.735683174782724
3.682000000000002,0.451685974428376,-3.538916857806302,2.753792711101417
3.6855000000000047,0.3781796876513829,-3.437713941129411,2.7687065495597087
3.689000000000007,0.3313071252598232,-3.365272305196134,2.7633798046826223
3.6925000000000097,0.2908259585890667,-3.267265086379645,2.743139221347244
3.695999999999998,0.2833681666952949,-3.192694148758935,2.7303564299056373
3.699500000000001,0.3100018910807284,-3.1096025137299894,2.707984799553574
3.703000000000003,0.3717882919305797,-3.0605989043217443,2.6962666589556843
3.7065000000000055,0.5038852816970226,-3.015855643617618,2.6760260756203054
3.710000000000008,0.655158203955127,-2.997746107298924,2.668568283726534
3.713499999999996,0.8447812458673031,-2.983896919684349,2.6675036328828177
3.716999999999999,1.1664995322166696,-2.968983081226058,2.6536544452682427
3.720500000000001,1.5574637566389111,-2.953002846594798,2.6398052576536672
3.724000000000004,1.9036864656862784,-2.928501914555302,2.6238267683516594
3.7275000000000063,2.418223491808223,-2.905065633359522,2.6142396747704546
3.7310000000000088,2.837950742303331,-2.8720405132532854,2.6014551379995963
3.734499999999997,3.43345184709604,-2.817710158967954,2.583345601680903
3.738,3.896855962122307,-2.7676418987159925,2.5652343200329577
3.741500000000002,4.524315790848285,-2.7101158465702597,2.5364712939600915
3.745000000000005,5.010091536226614,-2.6696346798995028,2.511970361920594
3.748500000000007,5.643942760673395,-2.617435372630857,2.471489195249838
3.7520000000000095,6.098824432962173,-2.571627461083014,2.4171588409645066
3.755499999999998,6.666628907854984,-2.510905711076879,2.3223473200084186
3.759,7.0607888301376285,-2.4661624503727526,2.2307314969127323
3.762500000000003,7.411271887889113,-2.421419189668626,2.129528580235841
3.766000000000005,7.844846580669545,-2.376677674293751,1.9814531011673904
3.769500000000008,8.216634872600125,-2.350045695237569,1.8365715746300888
3.772999999999996,8.458457221780947,-2.33832755463968,1.7311083092490798
3.776499999999999,8.662994102151414,-2.33832755463968,1.6192519028180152
3.780000000000001,8.87285772739897,-2.3553724401146563,1.4722410745932808
3.783500000000004,8.979387388952947,-2.375611278120783,1.3646450168663344
3.787000000000006,9.053958326573657,-2.402245002506216,1.2410704698373798
3.7905000000000086,9.073134259065318,-2.42461663285828,1.1185623189813938
3.793999999999997,9.053958326573657,-2.4427261691769724,1.032273240762794
3.7975,9.008150415025812,-2.4544443097748627,0.9363953236337376
3.801000000000002,8.947428665019679,-2.4608357054956658,0.8799356676609732
3.804500000000005,8.885642264169828,-2.483207335847729,0.8266699642193582
3.808000000000007,8.857943888940678,-2.488534080724816,0.8138871727777518
3.8115000000000094,8.850487842376157,-2.499185825149737,0.8149518236214683
3.8149999999999977,8.869662029538567,-2.5077082678872253,0.8298656620797599
3.8185,8.912274243226008,-2.513035012764312,0.8543683394485082
3.8220000000000023,8.980453785125915,-2.508774664060194,0.8937848552755481
3.825500000000005,9.0688739103612,-2.500252221322706,0.940657417667108
3.829000000000008,9.135987056088137,-2.490663382412249,0.9715514907566596
3.832499999999996,9.206295899675478,-2.473620242266525,1.002443818516959
3.8359999999999994,9.312825561229456,-2.456575356791548,1.051447427925204
3.839500000000001,9.40444138432514,-2.443790820020689,1.095126037785614
3.843000000000004,9.545060816829071,-2.4352683772832013,1.157977089479182
3.846500000000006,9.662243968137226,-2.4214191896686263,1.2112427929207967
3.850000000000009,9.816710842926478,-2.4182234918082246,1.275160240787333
3.853499999999997,9.931764692547196,-2.403309653349933,1.3199035014914595
3.8569999999999993,10.075578077582277,-2.3883958148916418,1.3816899023413112
3.860500000000002,10.179978437448822,-2.38093802299787,1.4264331630454377
3.864000000000004,10.32911856736099,-2.3766776742937514,1.480763517330769
3.867500000000007,10.44630171866914,-2.3766776742937514,1.5191136369848404
3.871000000000009,10.614619526402224,-2.391591512752043,1.569181897236802
3.8744999999999976,10.7520415157165,-2.4118320960874216,1.6022070173430385
3.878,10.936337812751589,-2.4352683772832013,1.6362967882929915
3.8815000000000026,11.069501198691,-2.456575356791548,1.6512106267512834
3.885000000000005,11.219707724776136,-2.4927944294289346,1.6533416737679685
3.888500000000008,11.299605407273932,-2.522623851674769,1.6512106267512834
3.891999999999996,11.368849600017557,-2.5844102525246204,1.6373614391367084
3.8954999999999984,11.38269704230288,-2.6430009555140703,1.6213812045054483
3.899000000000001,11.396546229917456,-2.737812476470159,1.5979449233096683
3.9025000000000034,11.37843669359876,-2.80386097135338,1.5787707361472587
3.906000000000006,11.317714943592629,-2.89441214360535,1.5297671267390138
3.909500000000008,11.239948308111517,-2.96898308122606,1.4701100275765957
3.9129999999999967,11.107851318345071,-3.0563368102883754,1.3731674596038226
3.916499999999999,10.980016422612,-3.124516352188282,1.289009428401908
3.9200000000000017,10.781870937962337,-3.217196826127685,1.16649953221667
3.923500000000004,10.611422083212569,-3.2832453210109063,1.0716880112605822
3.927000000000007,10.348294499852653,-3.365272305196136,0.9438531155275096
3.930500000000009,10.14056192162178,-3.4249294043585543,0.8490415945714216
3.9339999999999975,9.843344567311911,-3.496304644118862,0.727598094559152
3.9375,9.615369660416413,-3.534654763772933,0.6391779693238674
3.9410000000000025,9.321348003966945,-3.569809185566603,0.5315836569261729
3.944500000000005,9.11574647275276,-3.5815290714937453,0.4612730680095813
3.948000000000008,8.869662029538567,-3.584724769354146,0.3920288752659583
3.951499999999996,8.709868409872227,-3.5751359304436896,0.3526141047681703
3.9549999999999983,8.533028159401656,-3.542112555666705,0.3249157295390203
3.958500000000001,8.416911404266473,-3.5048270868563502,0.302544099186957
3.9620000000000033,8.279487669622945,-3.445169987693932,0.2823035158515788
3.965500000000006,8.182545101650172,-3.4014931231627736,0.2759121201307756
3.969000000000008,8.072819742235792,-3.3556852116149307,0.258867234655799
3.9724999999999966,7.997184153771366,-3.331184279575434,0.2535404897787122
3.975999999999999,7.915157169586137,-3.3130729979274887,0.2439533961975074
3.9795000000000016,7.873609606742411,-3.3066816022066856,0.2311688594266489
3.983000000000004,7.839519835792458,-3.3034859043462843,0.2098636252475541
3.986500000000007,7.8267370443508515,-3.3066816022066856,0.180035948330971
3.990000000000009,7.840586231965426,-3.3162686957878904,0.1406194325039311
3.993499999999997,7.871478559725726,-3.3215954406649773,0.1065296615539778
3.997,7.944984846502718,-3.331184279575434,0.0479389585645282
4.000500000000002,8.016360086263028,-3.3418360240003557,0.0127827914416064
4.004000000000005,8.13993463329198,-3.3556852116149307,-0.0458079115478431
4.007500000000007,8.227288362354297,-3.364207654352419,-0.0873537290623162
4.010999999999996,8.338080117941647,-3.374861144106592,-0.1438151303643327
4.014499999999998,8.39453977391441,-3.3844482376877973,-0.1864273440517743
4.018000000000001,8.431825242724766,-3.3908396334086004,-0.2546051406224288
4.021500000000003,8.416911404266473,-3.3887103317211675,-0.3153286359578155
4.025000000000006,8.331686976891591,-3.386579284704482,-0.4080091098972184
4.028500000000008,8.21876591961681,-3.380187888983679,-0.4889714432387313
4.0319999999999965,8.021686831140114,-3.3631430035087027,-0.6040235475301975
4.035499999999999,7.838455184948742,-3.335444628279552,-0.6956393706258839
4.0390000000000015,7.566805158851336,-3.2885720658879927,-0.8138871727777518
4.042500000000004,7.34948374171001,-3.2448952013568344,-0.9023072980130364
4.046000000000007,7.0469396425230535,-3.1799113573173297,-1.0280111467294242
4.049500000000009,6.81257333990675,-3.1319723987528016,-1.1206916206688269
4.052999999999997,6.4929843552448165,-3.061663555165462,-1.253855006608238
4.0565,6.250097355220277,-3.0009418051593277,-1.3603846681622165
4.060000000000002,5.911332438066682,-2.929566565399019,-1.5137868921077535
4.063500000000005,5.648204854706765,-2.874171560269971,-1.6309700434159051
4.067000000000007,5.287068307201106,-2.810254112403434,-1.7843722673614426
4.07050000000001,5.016482931947418,-2.761248757665937,-1.904751116529996
4.073999999999998,4.659608478475129,-2.705853752536889,-2.04749985072136
4.077500000000001,4.398611942131897,-2.660045840989046,-2.154031257604589
4.081000000000003,4.0577159779616165,-2.61210862775377,-2.2722790597564577
4.084500000000006,3.799913394149534,-2.579083507647533,-2.374546627277065
4.088000000000008,3.455823477448104,-2.5332755960996898,-2.517297106797681
4.091499999999996,3.1756510086132104,-2.4991858251497368,-2.624891419195376
4.094999999999999,2.800665273492976,-2.461900356339382,-2.751661664084732
4.098500000000001,2.513035012764311,-2.4267459345457123,-2.832623997426245
4.102000000000004,2.1369863721296127,-2.378808721310436,-2.917848424801128
4.105500000000006,1.8717259964237587,-2.342587903343798,-2.966852034209373
4.109000000000009,1.5468120122139903,-2.292519643091836,-3.029704831232193
4.112499999999997,1.3380130378101525,-2.256298825125197,-3.070185997902949
4.116,1.0823415010147552,-2.2030348670128346,-3.111731815417422
4.119500000000002,0.9204168343317294,-2.16574939820248,-3.1511483312444626
4.123000000000005,0.7414472821737269,-2.1082233460567465,-3.185238102194415
4.126500000000007,0.6253287817092921,-2.0645447361963365,-3.2086743833901954
4.13000000000001,0.5070809795574243,-2.010216127240257,-3.2321106645859747
4.133499999999998,0.4442281825346045,-1.9676039135528156,-3.243828805183865
4.1370000000000005,0.3824417816847532,-1.929252048569492,-3.250220200904668
4.140500000000003,0.3536787556118866,-1.9100778614070824,-3.251286597077637
4.1440000000000055,0.3430252658577133,-1.900489022496625,-3.2470245030442664
4.147500000000008,0.3494166615785165,-1.8962286737925071,-3.252351247921353
4.150999999999996,0.3813771308410367,-1.8962286737925071,-3.267265086379645
4.154499999999999,0.4133358547743049,-1.9026200695133104,-3.2907031129046764
4.158000000000001,0.4900360940824477,-1.9026200695133104,-3.330117883402465
4.161500000000004,0.5539552872782361,-1.9026200695133104,-3.370599050073221
4.165000000000006,0.6615495996759305,-1.889837278071704,-3.424929404358553
4.168500000000009,0.7563611206320184,-1.866400996875924,-3.464345920185593
4.171999999999997,0.8884581103984612,-1.818462038311396,-3.5218719723313257
4.1755,0.9864653292149508,-1.7896990122385297,-3.544243602683389
4.179000000000002,1.1164312719647085,-1.7747851737802385,-3.5708755817395708
4.1825000000000045,1.2091117459041114,-1.7694584289031512,-3.583658373181177
4.186000000000007,1.3124457095976876,-1.7641316840260646,-3.6081610505499255
4.1895000000000095,1.3646450168663342,-1.7726541267635532,-3.6166834932874137
4.192999999999998,1.404061532693374,-1.786503314378128,-3.613487795427012
4.1965,1.4104529284141774,-1.8056775015405375,-3.601769654829122
4.200000000000003,1.3838209493579958,-1.8429629703508923,-3.581529071493744
4.203500000000005,1.3401440848268378,-1.8898372780717043,-3.558091044968712
4.207000000000008,1.2602464023290414,-1.9612107725027603,-3.532525462085499
4.210499999999996,1.1707616262500402,-2.0208678716651782,-3.5037624360126327
4.213999999999999,1.0141619591148487,-2.0890474135650847,-3.467541618045994
4.217500000000001,0.8564993864651931,-2.1359199759566443,-3.439843242816844
4.221000000000004,0.5869786620552208,-2.194512424275346,-3.405753471866891
4.224500000000006,0.3440916620306818,-2.237122892633536,-3.3769921911232763
4.228000000000009,-0.0479389585645285,-2.2967799917959537,-3.3290532325587483
4.231499999999997,-0.3739193389472654,-2.3361965076229936,-3.2928324145921097
4.234999999999999,-0.853303688604792,-2.387331164047924,-3.24169775816718
4.238500000000002,-1.23361442327286,-2.426745934545712,-3.2161321752839678
4.242000000000004,-1.758804939148978,-2.476815940126925,-3.1873691492111007
4.245500000000007,-2.16574939820248,-2.5087746640601924,-3.182042404334014
4.249000000000009,-2.707984799553574,-2.5599093204851227,-3.1873691492111007
4.252499999999998,-3.0978843731320995,-2.5854749033683357,-3.195891591948589
4.256,-3.5932472120916343,-2.606781882876682,-3.2321106645859747
4.259500000000003,-3.9202922433180873,-2.607846533720399,-3.2736582274297
4.263000000000005,-4.273970998929975,-2.621695721334974,-3.32053078982126
4.266500000000008,-4.468920785719237,-2.625957815368344,-3.369534399229505
4.269999999999996,-4.635107546435632,-2.6483277003911554,-3.43025614923564
4.273499999999999,-4.697958598129201,-2.682417471341109,-3.4845865035209704
4.277000000000001,-4.71074313490006,-2.7687065495597083,-3.545308253527106
4.280500000000004,-4.669197317385587,-2.844342138024134,-3.5825937223374607
4.284000000000006,-4.5573409109545215,-2.965787383365656,-3.635859425779076
4.2875000000000085,-4.444418108350488,-3.068054950886264,-3.6710138475727447
4.290999999999997,-4.284624488684147,-3.1980208936360217,-3.71575536294762
4.294499999999999,-4.170637035236398,-3.3066816022066843,-3.7391916441434
4.298000000000002,-4.049193535224129,-3.4377139411294104,-3.766890019372549
4.301500000000004,-3.992733879251364,-3.521871972331325,-3.781803857830841
4.305000000000007,-3.978884691636789,-3.613487795427012,-3.784999555691243
4.308500000000009,-4.022561556167948,-3.669947451399776,-3.7828685086745577
4.311999999999998,-4.16211459249891,-3.711495014243501,-3.774347811266322
4.3155,-4.335759145109079,-3.729604550562194,-3.756236529618376
4.319000000000003,-4.6638705725085,-3.729604550562194,-3.7466494360371714
4.322500000000005,-4.978132812293348,-3.720017456980989,-3.74345373817677
4.326000000000008,-5.455386114934189,-3.706168269366414,-3.7541072279309433
4.329499999999996,-5.847414990200146,-3.69231908175184,-3.773281415093353
4.332999999999998,-6.384325392003406,-3.6592957069748544,-3.816958279624511
4.336500000000001,-6.780614615973484,-3.6262705868686176,-3.8542437484348655
4.340000000000003,-7.273848153245584,-3.583658373181176,-3.890464566401504
4.343500000000006,-7.593437137907518,-3.5463729043708216,-3.907509451876481
4.347000000000008,-7.946049497346436,-3.510153831733435,-3.921358639491056
4.350499999999997,-8.15271742473359,-3.4920425500854897,-3.9149672437702527
4.353999999999999,-8.34447151366245,-3.477128711627198,-3.905378404859796
4.357500000000002,-8.431825242724766,-3.47286836292308,-3.8872688685411023
4.361000000000004,-8.496809086764271,-3.4877822013813717,-3.8553101446078335
4.364500000000007,-8.514918623082963,-3.512283133420868,-3.8233514206745673
4.368000000000009,-8.506396180345476,-3.5719402325832865,-3.759432227478778
4.3714999999999975,-8.478697805116326,-3.6294662847290193,-3.69658117578521
4.375,-8.421171752970592,-3.7317355975788793,-3.588985118058264
4.3785000000000025,-8.373234539735316,-3.824416071518282,-3.498435691135546
4.382000000000005,-8.329555929874905,-3.95864410830141,-3.364207654352418
4.385500000000008,-8.324230930327072,-4.063042722838702,-3.2864410188713067
4.388999999999996,-8.334882674751993,-4.217511342957208,-3.191629497915218
4.392499999999998,-8.360450002964457,-4.340019493813195,-3.1000136748195324
4.396000000000001,-8.438216638445569,-4.504075207512906,-2.9625899401760027
4.399500000000003,-8.536223857262058,-4.613800566927285,-2.8699094662366
4.403000000000006,-8.696019222257652,-4.736310463112524,-2.751661664084732
4.406500000000008,-8.840899003465701,-4.805554655856146,-2.6834838675140773
4.409999999999997,-9.047566930852852,-4.855622916108108,-2.589736997401706
4.413499999999999,-9.192446712060905,-4.860949660985194,-2.532210945255973
4.417000000000002,-9.371416264218905,-4.838578030633131,-2.45124861191446
4.420500000000004,-9.489665811700023,-4.80022791097906,-2.390526861908325
4.424000000000007,-9.606847217678924,-4.730983718235437,-2.2999756896563555
4.427500000000009,-9.664373269824656,-4.672393015245986,-2.2328625439294174
4.430999999999997,-9.720834671126674,-4.595691030608592,-2.140182069990015
4.4345,-9.736814905757935,-4.544556374183662,-2.072002528090108
4.438000000000002,-9.735748509584964,-4.508337301546276,-1.9910401947485952
4.441500000000005,-9.716572577093304,-4.503010556669189,-1.936709840463264
4.445000000000007,-9.677157806595517,-4.510466603233709,-1.8759880904571289
4.448499999999996,-9.649459431366363,-4.513664046423362,-1.850420762244664
4.451999999999998,-9.621762801466469,-4.534969280602458,-1.8355069237863724
4.455500000000001,-9.634545592908076,-4.559470212641954,-1.8301801789092855
4.459000000000003,-9.694202692070492,-4.6074091712064815,-1.8312448297530024
4.462500000000006,-9.774098629239036,-4.657479176787695,-1.8408336686634592
4.466000000000008,-9.927502598513826,-4.741637207989609,-1.8610742519988372
4.4694999999999965,-10.07025133270519,-4.826859890035241,-1.887706231055019
4.472999999999999,-10.256678676756964,-4.961087926818369,-1.921796002004972
4.4765000000000015,-10.393037760556778,-5.069748635389032,-1.940970189167382
4.480000000000004,-10.561353822960609,-5.209301671719994,-1.975059960117335
4.483500000000007,-10.673210229391673,-5.3190270311343735,-2.014476475944375
4.487000000000009,-10.8042425683144,-5.458581812794589,-2.074133575106793
4.490499999999997,-10.875617808074706,-5.566176125192284,-2.118875090481668
4.494,-10.953382698226564,-5.718513698294103,-2.1827925383482043
4.497500000000002,-10.987472469176518,-5.849546037216829,-2.2243401011919293
4.501000000000005,-10.980016422612,-6.027449193201863,-2.2658859187064024
4.504500000000007,-10.94059990678496,-6.168068625705795,-2.282930804181379
4.50800000000001,-10.845788385828872,-6.384325392003404,-2.292519643091836
4.511499999999998,-10.734998375570775,-6.546250058686431,-2.2808015024939454
4.515000000000001,-10.52513475032322,-6.752917986073584,-2.264821267862686
4.518500000000003,-10.322727171640189,-6.902058115985751,-2.247776382387709
4.522000000000006,-9.987157952346992,-7.085289762177124,-2.2030348670128346
4.525500000000008,-9.697398389930894,-7.209928960049795,-2.1561605592920228
4.528999999999996,-9.276606488592073,-7.373984673749505,-2.0645447361963365
4.532499999999999,-8.950624362880081,-7.479449684459767,-1.970799611413217
4.536000000000001,-8.500004784624675,-7.609415627209525,-1.8376379708030577
4.539500000000004,-8.154848471750276,-7.692509007567722,-1.7364333087969146
4.543000000000006,-7.681855517813551,-7.789451575540496,-1.60114062117007
4.546500000000009,-7.331374205391318,-7.844846580669544,-1.504199798526549
4.549999999999997,-6.882883928823343,-7.890654492217387,-1.383820949357996
4.5535,-6.577144131775984,-7.910895075552765,-1.3039232668601997
4.557000000000002,-6.206420490689121,-7.90876402853608,-1.2123074437645132
4.560500000000005,-5.9709895372291015,-7.883198445652867,-1.1494546467416935
4.564000000000007,-5.708926604712901,-7.825670648177883,-1.081276850171039
4.56750000000001,-5.555522635438111,-7.771340293892551,-1.0386646364835974
4.570999999999998,-5.387206573034282,-7.680790866969833,-0.9715514907566596
4.5745000000000005,-5.281743307653273,-7.60409062766169,-0.921481485175446
4.578000000000003,-5.142188525993058,-7.511408408393035,-0.8501062454151381
4.5815000000000055,-5.026071770857875,-7.43896851778901,-0.7968422873027752
4.585000000000008,-4.846035822526904,-7.330307809218348,-0.709488558240459
4.588499999999996,-4.689437900720965,-7.252541173737236,-0.6359822714634658
4.591999999999999,-4.443353457506773,-7.147076163026974,-0.5241258650324012
4.595500000000001,-4.222836342505046,-7.062918131825061,-0.425053995372195
4.599000000000004,-3.8851378215244186,-6.968106610868973,-0.2908259585890671
4.602500000000006,-3.595376513779068,-6.90312451215872,-0.1704471094205142
4.606000000000009,-3.1618018209986367,-6.817900084783838,0.01598023463126
4.609499999999997,-2.815579111951269,-6.752917986073585,0.1725781564371993
4.613,-2.314889528114648,-6.665562511682015,0.4058780628805333
4.616500000000002,-1.9260563507090915,-6.590991574061307,0.5923054069323076
4.6200000000000045,-1.3923433920954853,-6.487659355696983,0.8692821779067997
4.623500000000007,-0.9875299800586684,-6.407761673199186,1.0866035950481256
4.6270000000000095,-0.4634041150262672,-6.288447474874349,1.3859519963746811
4.630499999999998,-0.0884201252352854,-6.193635953918261,1.61285876176796
4.634,0.3675279432264612,-6.056213964603984,1.8909019289154203
4.637500000000003,0.6679409953967331,-5.948617906877037,2.085851715704683
4.641000000000005,0.9864653292149504,-5.788824287210697,2.3191516221480173
4.644500000000008,1.1579770894791812,-5.66951008888586,2.4853383828644136
4.647999999999996,1.2996629181560808,-5.493736234588259,2.678157122636991
4.651499999999999,1.3348173399497505,-5.350987500396895,2.8006652734929767
4.655000000000001,1.306054313876884,-5.142188525993057,2.934893310276105
4.658500000000004,1.2282876783957726,-4.976001765276662,3.0115952949135
4.662000000000006,1.0759501052939515,-4.740570811816642,3.087230883377926
4.665500000000009,0.9363953236337372,-4.56160125965864,3.1330387949257688
4.668999999999997,0.7478386778945297,-4.327236702371589,3.177780310300644
4.672499999999999,0.6114795940947169,-4.156787847621823,3.2012165914964235
4.676000000000002,0.4665998128866676,-3.9426638736701514,3.214001128267282
4.679500000000004,0.3984202709867611,-3.7913909514120463,3.2182614769714
4.683000000000007,0.3579391043160047,-3.601769654829122,3.2129347320943134
4.686500000000009,0.3749839897909812,-3.4718019667501125,3.2012165914964235
4.689999999999998,0.4484902765679745,-3.3152040449441733,3.192694148758935
4.6935,0.5379750526469756,-3.2012165914964235,3.2022829876693923
4.697000000000003,0.7116178599278917,-3.0850998363612407,3.2321106645859747
4.700500000000005,0.8660864800463979,-3.0169202944613343,3.2725918312567317
4.704000000000008,1.1132355741043067,-2.9455468000302782,3.3674033522128197
4.707499999999996,1.315641407458089,-2.902934586342836,3.449432081727301
4.710999999999999,1.6149898087846446,-2.849668882901222,3.569809185566602
4.714500000000001,1.8546811109487815,-2.807058414543033,3.658229310801887
4.718000000000004,2.1977081221357477,-2.745270268363929,3.759432227478778
4.721500000000006,2.4800116379873263,-2.6962666589556847,3.8158936287807945
4.7250000000000085,2.877367258130371,-2.614239674770455,3.867028285205724
4.728499999999997,3.1990872898089897,-2.54925583073095,3.8915292172452207
4.731999999999999,3.660360357818571,-2.4704227990768706,3.905378404859796
4.735500000000002,4.021495159994979,-2.4075717473833027,3.897922358295276
4.739000000000004,4.521120092987883,-2.329805111902191,3.868092936049441
4.742500000000007,4.907822223376755,-2.2712126635834893,3.8158936287807945
4.746000000000009,5.429818786721723,-2.183858934521173,3.718951060808021
4.749499999999998,5.823978709004366,-2.115679392621267,3.625205936024902
4.753,6.363018412495059,-2.022998918681864,3.473933013766797
4.756500000000003,6.780614615973483,-1.9654728665361312,3.3429024201733237
4.760000000000005,7.352679439570411,-1.894097626775823,3.1575397269652656
4.763500000000008,7.7851894815071265,-1.8333758767696884,3.0094642478968145
4.766999999999996,8.339144768785363,-1.769458428903152,2.7964049247888583
4.770499999999998,8.729042597034635,-1.7545445904448609,2.620631070491258
4.774000000000001,9.21375369156925,-1.747086798551089,2.382004419170837
4.777500000000003,9.543994420656103,-1.7705230797468687,2.2062305648732363
4.781000000000006,9.950938879709604,-1.816330991294712,1.97719100713402
4.784500000000008,10.206610416505004,-1.853616460105067,1.816330991294711
4.787999999999997,10.486782885339895,-1.9122071630945168,1.5947492254492668
4.791499999999999,10.665754182827152,-1.965472866536132,1.4402806053307606
4.795000000000002,10.86496257299128,-2.032586012263069,1.2645067510331598
4.798500000000004,10.9864078183328,-2.0933077622692045,1.1622391835125518
4.802000000000007,11.113178063222158,-2.1689450960628824,1.0663630117127476
4.805500000000009,11.192009349546986,-2.214753007610726,1.009901610410731
4.8089999999999975,11.267646683340663,-2.265885918706404,0.9651583497066044
4.8125,11.303865755978052,-2.304237783689727,0.9459841625441944
4.8160000000000025,11.323041688469711,-2.331934413589625,0.9300039279129344
4.819500000000005,11.332628782050916,-2.3628284866791764,0.9310703240859032
4.823000000000008,11.329433084190516,-2.3894604657353584,0.9321349749296196
4.826499999999996,11.31984424528006,-2.399049304645815,0.942788464683793
4.829999999999998,11.309192500855138,-2.4022450025062163,0.9672893967232892
4.833500000000001,11.30493215215102,-2.400113955489532,1.002443818516959
4.837000000000003,11.31558389657594,-2.4118320960874216,1.0610362668356608
4.840500000000006,11.327303782503083,-2.426745934545713,1.1143002249480238
4.844000000000008,11.358196110263382,-2.458704658478981,1.1973936053062215
4.847499999999997,11.389090183352932,-2.4895987315685324,1.267704194222813
4.850999999999999,11.415722162409116,-2.537537690133061,1.3593182719892478
4.854500000000002,11.430636000867404,-2.572692111926731,1.4296288609058392
4.858000000000004,11.440224839777862,-2.625957815368346,1.5148515429514704
4.861500000000007,11.43383344405706,-2.668568283726535,1.5702482934097703
4.865000000000009,11.43383344405706,-2.735683174782725,1.6437528348575114
4.868499999999997,11.426373906834035,-2.7836203880180017,1.7012788870032447
4.872,11.36671855300087,-2.8347550444429315,1.763067033182348
4.875500000000002,11.297474360257247,-2.879498305147058,1.7992861058197342
4.879000000000005,11.185617953826185,-2.931697612415704,1.8333758767696875
4.882500000000007,11.072696896551404,-2.9636563363489725,1.857878554138436
4.885999999999996,10.916098974745465,-2.995615060282241,1.8770527413008455
4.889499999999998,10.788262333683138,-3.0105288987405325,1.8823794861779324
4.893000000000001,10.621010922123023,-3.025442737198824,1.885575184038334
4.896500000000003,10.511285562708643,-3.0424876226738005,1.894097626775822
4.900000000000006,10.400493807121295,-3.073381695763352,1.9026200695133104
4.903500000000008,10.338707406271446,-3.09362227909873,1.9079468143903973
4.9069999999999965,10.27798391093606,-3.130907747909085,1.8887708818987357
4.910499999999999,10.236438093421588,-3.167128565875724,1.849356111400948
4.9140000000000015,10.134168780571724,-3.2161321752839687,1.7705230797468676
4.917500000000004,10.01592272374911,-3.251286597077638,1.6991478399865596
4.921000000000007,9.783687468149491,-3.299223810312914,1.5926181784325817
4.924500000000009,9.563170353147768,-3.3311842795754343,1.5073954963869507
4.927999999999997,9.239321019781714,-3.381252539827396,1.3934080429392008
4.9315,8.981518435969633,-3.4153423107773486,1.3188371053184913
4.935000000000002,8.652342357726493,-3.468606268889712,1.2218962826749702
4.938500000000005,8.427564894020648,-3.5261323210354445,1.1515856937583784
4.942000000000007,8.164435565331479,-3.5964429099520365,1.055709521958574
4.94550000000001,7.992923805067247,-3.650773264237368,0.9853989330419826
4.948999999999998,7.773471340909235,-3.737062342455968,0.8799356676609732
4.952500000000001,7.612611325069927,-3.800979790322504,0.7829930996882002
4.956000000000003,7.3952916532578525,-3.869157586893158,0.6530271569384424
4.959500000000006,7.22377814766437,-3.9075094518764817,0.5550199381219528
4.963000000000008,7.001131730975208,-3.955446665111758,0.4239875991992265
4.966499999999996,6.849858808717105,-3.9863407382013096,0.3323735214327921
4.969999999999999,6.6676935586987005,-4.031083998905436,0.205601531214184
4.973500000000001,6.540923313809344,-4.055584930944932,0.110790010258096
4.977000000000004,6.406695277026216,-4.066238420699106,-0.0202405833353782
4.980500000000006,6.311883756070128,-4.058780628805334,-0.1310323389227262
4.984000000000009,6.202158396655749,-4.005516670692972,-0.2769767709744921
4.987499999999997,6.122262459487205,-3.955446665111758,-0.3824417816847534
4.991,6.039169079129006,-3.8936602642619063,-0.5124077244345112
4.994500000000002,5.993361167581162,-3.8457213056973782,-0.6040235475301975
4.998000000000005,5.950748953893722,-3.795653045445417,-0.7105532090841755
5.001500000000007,5.93157302140206,-3.7658253685288336,-0.7861887975486017
5.00500000000001,5.923050578664571,-3.7402580403163688,-0.8820667146776582
5.008499999999998,5.925181625681257,-3.7338666445955657,-0.947048813387911
5.0120000000000005,5.9273126726979415,-3.741322691160085,-1.0269464958857075
5.015500000000003,5.933704068418745,-3.748780483053858,-1.0887328967355587
5.0190000000000055,5.937964417122863,-3.76262792533918,-1.1569124386354652
5.022500000000008,5.937964417122863,-3.767954670216267,-1.2069806988874263
5.025999999999996,5.920919531647886,-3.7711503680766687,-1.28048698566442
5.029499999999999,5.901745344485477,-3.775412462110039,-1.3305552459163812
5.033000000000001,5.863395224831405,-3.763694321512149,-1.3966037407996024
5.036500000000004,5.82184766198768,-3.755171878774661,-1.4456073502078477
5.040000000000006,5.761125911981545,-3.731735597578881,-1.512722241264037
5.043500000000009,5.705730906852498,-3.710428618070534,-1.555332709622227
5.046999999999997,5.621571130321332,-3.657164659958171,-1.6235122515221332
5.0505,5.554457984594394,-3.611356748410328,-1.6735822571033467
5.054000000000002,5.444732625180015,-3.5442436026833897,-1.7534781942718909
5.0575000000000045,5.355247849101013,-3.490977899241775,-1.818462038311396
5.061000000000007,5.208237020876279,-3.407884518883576,-1.917533907971602
5.0645000000000095,5.089989218724411,-3.339706722312922,-1.994235892608997
5.067999999999998,4.916346411443495,-3.239568456479747,-2.0997009033192584
5.0715,4.782118374660367,-3.156475076121549,-2.1870546323815745
5.075000000000003,4.60101777548568,-3.0307694820759097,-2.298911038812639
5.078500000000005,4.463594040842151,-2.918913075644845,-2.382004419170837
5.082000000000008,4.279297743807061,-2.7676418987159925,-2.4874676845518464
5.085499999999996,4.137613660459413,-2.64726304954744,-2.558842924312154
5.088999999999999,3.935206081776378,-2.477880590970642,-2.646198398703723
5.092500000000001,3.760498623651746,-2.3649595336958606,-2.710115846570259
5.096000000000004,3.485651154364687,-2.242449637510623,-2.791078179911772
5.099500000000006,3.257677992798439,-2.167878699889913,-2.8390171384763003
5.103000000000009,2.932762263259419,-2.084785319531715,-2.8848250500241432
5.106499999999997,2.682417471341109,-2.030456710575636,-2.903999237186553
5.109999999999999,2.3479146482208835,-1.9771910071340204,-2.9199794718178134
5.113500000000002,2.1146147417775496,-1.9452322832007525,-2.928501914555301
5.117000000000004,1.825918084875916,-1.9409701891673825,-2.9327622632594195
5.120500000000007,1.635230392120023,-1.9494926319048704,-2.9423493568406247
5.124000000000009,1.4125839754308624,-1.9814531011673904,-2.9625899401760027
5.127499999999998,1.2719645429269313,-2.0219342678381467,-2.978570174807263
5.131,1.113235574104307,-2.07946031998388,-3.0020064560030426
5.134500000000003,1.0162930061315338,-2.132724278096243,-3.0147909927739014
5.138000000000005,0.9108279954212726,-2.201968470839866,-3.036096226952996
5.141500000000008,0.8437148496943345,-2.249907429404394,-3.044618669690484
5.144999999999996,0.7776663548111131,-2.314889528114647,-3.049945414567571
5.148499999999999,0.7361205372966401,-2.3606974396624905,-3.0531411124279724
5.152000000000001,0.6956393706258835,-2.408636398227019,-3.055272159444658
5.155500000000004,0.6828548338550251,-2.43953047131657,-3.055272159444658
5.159000000000006,0.6839212300279937,-2.47468489311024,-3.058467857305059
5.1625000000000085,0.6998997193300017,-2.497056523462303,-3.0574014611320908
5.165999999999997,0.7446429800341284,-2.5311462944122565,-3.056336810288374
5.169499999999999,0.791515542425688,-2.538602340976776,-3.0574014611320908
5.173000000000002,0.8820667146776578,-2.522623851674768,-3.040356575657114
5.176500000000004,0.9694204437399742,-2.4938608256019017,-3.022247039338421
5.180000000000007,1.0897992929085272,-2.434203726439484,-2.987092617544751
5.183500000000009,1.1952625582895366,-2.374546627277065,-2.961525289332286
5.186999999999998,1.3294905950726643,-2.302106736673041,-2.916783773957412
5.1905,1.4360202566266422,-2.2424496375106227,-2.88588970086786
5.194000000000003,1.5649215485326833,-2.1700097469065978,-2.8390171384763003
5.197500000000005,1.6501442305783147,-2.116745788794235,-2.7964049247888583
5.201000000000008,1.7353686579531975,-2.053892991771415,-2.7250296850285505
5.204499999999996,1.776914475467671,-2.011280778083973,-2.6632415388494475
5.207999999999998,1.7886343613948126,-1.9739953092736189,-2.5822792055079344
5.211500000000001,1.7694584289031507,-1.9537547259382408,-2.522623851674768
5.215000000000003,1.7002142361595278,-1.9505590280778389,-2.444857216193657
5.218500000000006,1.6203165536617314,-1.9580150746423588,-2.4001139554895303
5.222000000000008,1.4647832826995089,-1.9846487990277923,-2.3468499973771677
5.225499999999997,1.3124457095976876,-2.0070186840506032,-2.323411970852136
5.228999999999999,1.0546431257856053,-2.044304152860958,-2.314889528114647
5.232500000000002,0.8149518236214681,-2.065611132369305,-2.323411970852136
5.236000000000004,0.445294578707573,-2.09863450714629,-2.3393922054833958
5.239500000000007,0.1299659427497575,-2.124201835358755,-2.3606974396624905
5.243000000000009,-0.3323735214327924,-2.1519002105879044,-2.3947872106124435
5.2464999999999975,-0.7030954171904039,-2.168945096062881,-2.433139075595767
5.25,-1.2059160480437103,-2.181727887504488,-2.4864030337081298
5.2535000000000025,-1.578770736147259,-2.1838589345211727,-2.5407333879934613
5.257000000000005,-2.0656111323693054,-2.184923585364889,-2.6153043256141717
5.260500000000008,-2.410767445243704,-2.1689450960628807,-2.670699330743219
5.263999999999996,-2.830494695738812,-2.125268231531723,-2.7410081743305588
5.267499999999998,-3.113862862434108,-2.076264622123478,-2.7953385286158903
5.271000000000001,-3.447301034710617,-2.002758335346485,-2.853930976934592
5.274500000000003,-3.671013847572745,-1.9431012361840667,-2.888020747884545
5.278000000000006,-3.952250967251356,-1.8642699498592388,-2.923175169678215
5.281500000000008,-4.1429404053365,-1.8163309912947103,-2.923175169678215
5.284999999999997,-4.38902310322144,-1.787567965221844,-2.9071949350469546
5.288499999999999,-4.56160125965864,-1.7758498246239538,-2.88588970086786
5.292000000000002,-4.7693338378895085,-1.7694584289031503,-2.8432774871804187
5.295500000000004,-4.901430827655951,-1.782241220344757,-2.81131876324715
5.299000000000007,-5.036723515282796,-1.819526689155112,-2.780424690157598
5.302500000000009,-5.112360849076474,-1.85574750712175,-2.749530617068047
5.305999999999997,-5.167755854205522,-1.923927049021657,-2.723965034184834
5.3095,-5.177342947786728,-1.978255657977736,-2.7058537525368886
5.313000000000002,-5.156037713607632,-2.0570886896318163,-2.6920045649223137
5.316500000000005,-5.117685848624308,-2.110352647744179,-2.695202008111968
5.320000000000007,-5.047377005036969,-2.189185679398259,-2.714376195274377
5.323499999999996,-4.982393160997464,-2.24351603368359,-2.737812476470157
5.326999999999998,-4.882256640493543,-2.302106736673041,-2.77190224742011
5.330500000000001,-4.800227910979061,-2.33726115846671,-2.8091877162304653
5.334000000000003,-4.675588713106389,-2.3628284866791747,-2.86245341967208
5.337500000000006,-4.577581494289899,-2.3724155802603795,-2.9071949350469546
5.341000000000008,-4.458267295965063,-2.3820044191708365,-2.94874249789068
5.3444999999999965,-4.36558682202566,-2.3798733721541514,-2.9764391277905777
5.347999999999999,-4.250534717734194,-2.368155231556262,-3.0009418051593264
5.3515000000000015,-4.171703431409366,-2.3479146482208835,-3.022247039338421
5.355000000000004,-4.100328191649059,-2.327674064885505,-3.043554018846768
5.358500000000007,-4.065173769855389,-2.3148895281146467,-3.0456833205342004
5.362000000000009,-4.058780628805333,-2.2925196430918358,-3.0243780863551057
5.365499999999997,-4.088610051051169,-2.2690833618960555,-2.99561506028224
5.369,-4.173832733096799,-2.24351603368359,-2.934893310276105
5.372500000000002,-4.268644254052887,-2.226471148208614,-2.8731051640970016
5.376000000000005,-4.433766363925567,-2.2115573097503223,-2.793209226928457
5.379500000000007,-4.594626379764876,-2.212621960594039,-2.729290033732669
5.38300000000001,-4.842840124666503,-2.229666846069016,-2.655785492284928
5.386499999999998,-5.067617588372348,-2.2531031272647954,-2.6014551379995963
5.390000000000001,-5.402120411492573,-2.3180869713043,-2.5471247837142648
5.393500000000003,-5.688686021377522,-2.385200117031238,-2.506643617043508
5.397000000000006,-6.093497688085087,-2.491729778585216,-2.445921867037373
5.400500000000008,-6.42161086081376,-2.581214554664217,-2.4054407003666167
5.403999999999996,-6.86797009036505,-2.6920045649223128,-2.3532413930979708
5.407499999999999,-7.215255704926882,-2.778293643140913,-2.3138248772709304
5.411000000000001,-7.678659819953149,-2.8890853987282608,-2.273343710600174
5.414500000000004,-8.025947179844232,-2.9657873833656554,-2.266952314879371
5.418000000000006,-8.45313047690386,-3.0637946021821447,-2.262690220846
5.421500000000009,-8.741827133805494,-3.1436905393506898,-2.2722790597564577
5.424999999999997,-9.042240185975766,-3.2406331073234624,-2.282930804181379
5.4285,-9.191382061217183,-3.3045505551899987,-2.294648944779269
5.432000000000002,-9.294716024910764,-3.384448237687795,-2.3074334815501274
5.435500000000005,-9.296845326598197,-3.435582894112725,-2.317020575131332
5.439000000000007,-9.21375369156925,-3.495239993275143,-2.320216272991734
5.44250000000001,-9.110419727875671,-3.530394415068813,-2.324478367025104
5.445999999999998,-8.953821806069735,-3.58259372233746,-2.320216272991734
5.4495000000000005,-8.839834352621985,-3.631597331745704,-2.3042377836897256
5.453000000000003,-8.702410617978455,-3.696581175785209,-2.270148012739772
5.4565000000000055,-8.616121539759854,-3.748780483053856,-2.2307314969127323
5.460000000000008,-8.522374669647483,-3.826547118534967,-2.1678786998899127
5.463499999999996,-8.464850362831003,-3.886202472368133,-2.1082233460567465
5.466999999999999,-8.412649310233103,-3.965035504022213,-2.02832566355895
5.470500000000001,-8.381756982472805,-4.015103764274175,-1.9612107725027603
5.474000000000004,-8.35512325808737,-4.076891910453277,-1.8802484391612475
5.477500000000006,-8.34340511748948,-4.117373077124034,-1.825918084875916
5.481000000000009,-8.34766721152285,-4.15785424379479,-1.7705230797468676
5.484499999999997,-8.358320701277025,-4.1780948271301686,-1.7321729600927964
5.488,-8.393475123070694,-4.191944014744744,-1.7023452831762131
5.491500000000002,-8.428629544864364,-4.205793202359319,-1.6906253972490712
5.4950000000000045,-8.48082885213301,-4.220707040817611,-1.6799736528241498
5.498500000000007,-8.513853972239247,-4.237751926292587,-1.6746469079470632
5.5020000000000095,-8.533028159401656,-4.247339019873792,-1.6874296993886695
5.505499999999998,-8.535159206418342,-4.252665764750878,-1.7034099340199298
5.509,-8.507460831189192,-4.250534717734193,-1.7321729600927964
5.512500000000003,-8.484024549993412,-4.234554483102933,-1.7534781942718909
5.516000000000005,-8.478697805116326,-4.20472680618635,-1.7843722673614426
5.519500000000008,-8.507460831189192,-4.186617269867657,-1.8078085485572224
5.522999999999996,-8.587358513686988,-4.180225874146854,-1.8280491318926009
5.526499999999999,-8.681105383799359,-4.191944014744744,-1.8333758767696875
5.530000000000001,-8.843030050482385,-4.230294134398815,-1.8376379708030577
5.533500000000004,-8.970864946215459,-4.275037395102942,-1.826984481048884
5.537000000000006,-9.153031941563116,-4.354933332271486,-1.7971568041323012
5.540500000000009,-9.278735790279502,-4.4220482233276766,-1.7620006370093797
5.543999999999997,-9.416159524923032,-4.521120092987882,-1.695952142126158
5.547499999999999,-9.48753476468334,-4.612735916083569,-1.629903647242937
5.551000000000002,-9.533342676231182,-4.742701858833327,-1.52656968354936
5.554500000000004,-9.529080582197812,-4.852427218247706,-1.446673746380816
5.558000000000007,-9.48007871811882,-5.016482931947417,-1.3433397826872395
5.561500000000009,-9.420421618956402,-5.149644572557577,-1.273029193770648
5.564999999999998,-9.337326493268952,-5.338202963626036,-1.1984582561499384
5.5685,-9.271279743714985,-5.479887046973683,-1.1526520899313473
5.572000000000003,-9.171141477881807,-5.667379041869174,-1.111104527087622
5.575500000000005,-9.089112748367326,-5.799476031635617,-1.0908639437522438
5.579000000000008,-8.96980029537174,-5.960336047474926,-1.0759501052939522
5.582499999999996,-8.866466331678165,-6.061538964151818,-1.0780811523106375
5.585999999999999,-8.721586550470116,-6.180853162476654,-1.0993863864897322
