time,Gyr_X,Gyr_Y,Gyr_Z
0.0,0.00099,-3.4e-05,0.010077
0.0024999999999977,0.002696,0.000393,0.010387
0.0049999999999954,0.002231,0.003081,0.012218
0.0074999999999931,0.000317,0.000206,0.010126
0.0099999999999909,0.000922,0.00058,0.008061
0.0124999999999886,0.003657,0.002565,0.010145
0.0149999999999863,0.000683,0.00094,0.008336
0.017499999999984,0.002245,0.00271,0.008962
0.0199999999999818,0.002629,0.005784,0.01042
0.0224999999999795,-0.000228,0.002559,0.009156
0.0249999999999772,0.001945,0.002012,0.009411
0.0274999999999749,0.002704,0.000878,0.010381
0.0299999999999727,0.002722,0.003491,0.010502
0.0324999999999704,-0.000113,0.001394,0.009348
0.0349999999999681,-3.4e-05,0.00248,0.01233
0.0374999999999658,-0.000286,0.001647,0.010706
0.0399999999999636,0.00185,0.004672,0.013611
0.0425000000000181,-0.001441,0.001397,0.011674
0.0450000000000159,-0.000899,-0.002387,0.010803
0.0475000000000136,0.001545,0.000637,0.011141
0.0500000000000113,0.003805,0.000397,0.008974
0.052500000000009,0.00175,0.003,0.007001
0.0550000000000068,0.001018,0.001297,0.00966
0.0575000000000045,0.00217,0.001814,0.009074
0.0600000000000022,0.002602,-0.001208,0.007717
0.0625,-0.000244,0.002707,0.009681
0.0649999999999977,-0.001375,0.003006,0.009897
0.0674999999999954,0.001439,0.003863,0.010731
0.0699999999999931,0.001616,0.003331,0.007989
0.0724999999999909,0.001352,0.000771,0.009801
0.0749999999999886,0.000484,0.005036,0.010098
0.0774999999999863,-0.004061,0.005203,0.010071
0.079999999999984,0.002082,0.001926,0.010797
0.0824999999999818,0.001422,0.003646,0.009122
0.0849999999999795,-0.000775,0.004304,0.008785
0.0874999999999772,-6.6e-05,0.005139,0.008034
0.0899999999999749,0.001267,0.000692,0.009873
0.0924999999999727,0.001857,0.002708,0.009618
0.0949999999999704,0.000473,6.5e-05,0.010388
0.0974999999999681,0.002796,0.001442,0.010461
0.0999999999999659,0.004127,0.002713,0.011703
0.1024999999999636,0.003836,0.001919,0.00884
0.1050000000000181,0.003176,0.004197,0.010366
0.1075000000000159,0.000805,0.006472,0.010975
0.1100000000000136,0.001834,0.002251,0.010637
0.1125000000000113,0.001826,0.002586,0.007046
0.1150000000000091,0.002771,-0.000104,0.0097
0.1175000000000068,0.000463,0.00317,0.01057
0.1200000000000045,0.00283,0.002082,0.010834
0.1225000000000022,0.001449,-0.000596,0.009812
0.125,0.002868,0.005067,0.011238
0.1274999999999977,0.005879,0.001285,0.00831
0.1299999999999954,0.003264,0.000457,0.012665
0.1324999999999931,0.000208,-0.000277,0.009609
0.1349999999999909,0.004182,0.001629,0.010041
0.1374999999999886,0.005292,0.003428,0.012902
0.1399999999999863,0.006046,0.003246,0.008629
0.142499999999984,0.007652,0.000221,0.007395
0.1449999999999818,0.010889,0.000469,0.012439
0.1474999999999795,0.004195,-0.000609,0.013172
0.1499999999999772,0.006891,0.003789,0.014182
0.152499999999975,0.003005,0.001555,0.013808
0.1549999999999727,0.003765,-0.000764,0.012536
0.1574999999999704,0.004896,0.003608,0.015449
0.1599999999999681,0.008292,-0.001694,0.011823
0.1624999999999659,0.011035,0.001406,0.014175
0.1649999999999636,0.005706,0.003102,0.010961
0.1675000000000182,0.004957,-0.000821,0.012625
0.1700000000000159,0.007025,0.002267,0.012351
0.1725000000000136,0.00569,0.001764,0.011212
0.1750000000000113,0.005005,0.001021,0.012188
0.1775000000000091,0.004182,0.002585,0.01344
0.1800000000000068,0.005918,-0.00236,0.012008
0.1825000000000045,0.00549,-0.001058,0.012953
0.1850000000000022,0.004184,-7.6e-05,0.012983
0.1875,0.005958,0.001162,0.012847
0.1899999999999977,0.005043,0.003483,0.011858
0.1924999999999954,0.001469,-0.000691,0.013462
0.1949999999999931,0.004745,0.000338,0.011275
0.1974999999999909,0.002895,-0.00387,0.011406
0.1999999999999886,0.000378,-0.000378,0.010344
0.2024999999999863,0.003885,0.002678,0.013917
0.204999999999984,-0.000145,-0.004248,0.010925
0.2074999999999818,-0.001569,-0.007404,0.010362
0.2099999999999795,0.000421,-0.002214,0.008351
0.2124999999999772,-0.003326,0.00909,0.009432
0.214999999999975,-0.000879,0.007615,0.010546
0.2174999999999727,0.002811,2.8e-05,0.011309
0.2199999999999704,-0.002469,-0.001839,0.009724
0.2224999999999681,-0.000662,-8.6e-05,0.005084
0.2249999999999659,0.001445,0.001427,0.007232
0.2274999999999636,0.002369,0.002228,0.009619
0.2300000000000182,-0.003052,0.0015,0.009451
0.2325000000000159,-0.002249,0.001653,0.00838
0.2350000000000136,-0.002585,-0.001405,0.005708
0.2375000000000113,-0.000274,0.002237,0.006128
0.2400000000000091,0.001209,0.00085,0.005402
0.2425000000000068,-0.002442,0.003753,0.009639
0.2450000000000045,-0.000452,0.006414,0.01232
0.2475000000000022,0.001413,0.004173,0.009764
0.25,-0.001808,-0.002447,0.005681
0.2524999999999977,-0.000148,0.00192,0.005866
0.2549999999999954,-0.003275,0.003076,0.008488
0.2574999999999932,-0.001922,-0.001293,0.0085
0.2599999999999909,-0.00121,0.004282,0.006951
0.2624999999999886,0.000197,0.002379,0.008268
0.2649999999999863,0.000534,0.00074,0.01175
0.2674999999999841,0.001667,0.002927,0.011327
0.2699999999999818,-3e-06,0.00482,0.010174
0.2724999999999795,0.000971,0.003215,0.008629
0.2749999999999772,-0.000393,0.003362,0.008654
0.277499999999975,-0.00031,0.00074,0.009867
0.2799999999999727,-0.00211,-0.000818,0.008164
0.2824999999999704,0.000332,0.002006,0.011689
0.2849999999999681,-0.001784,-0.001036,0.009385
0.2874999999999659,8e-06,0.000281,0.00759
0.2899999999999636,-0.000693,0.002403,0.007244
0.2925000000000182,0.000604,0.003587,0.00994
0.2950000000000159,-0.001872,-0.001001,0.008968
0.2975000000000136,0.000306,0.001519,0.009554
0.3000000000000113,-0.000219,-0.001955,0.01023
0.3025000000000091,-0.000533,0.000789,0.00933
0.3050000000000068,0.000802,0.001781,0.012001
0.3075000000000045,0.00355,-0.001809,0.010594
0.3100000000000023,-0.001355,0.000227,0.008295
0.3125,0.000498,0.001895,0.008627
0.3149999999999977,0.000953,0.000731,0.008645
0.3174999999999954,0.001235,0.000895,0.008617
0.3199999999999932,-0.00049,-4e-05,0.008596
0.3224999999999909,0.00264,-0.002065,0.006839
0.3249999999999886,-0.000627,0.004675,0.011402
0.3274999999999863,0.001746,0.000825,0.009473
0.3299999999999841,0.000518,0.003504,0.009312
0.3324999999999818,0.002351,-0.001356,0.008979
0.3349999999999795,0.000202,0.00205,0.008727
0.3374999999999772,-0.000314,0.001276,0.007427
0.339999999999975,0.000402,6e-05,0.011047
0.3424999999999727,0.001223,0.00251,0.0099
0.3449999999999704,-0.000826,0.001315,0.009195
0.3474999999999681,0.002433,0.000335,0.011507
0.3499999999999659,0.001451,-0.000277,0.008903
0.3524999999999636,-0.002164,0.001518,0.012027
0.3550000000000182,0.000202,0.003611,0.012285
0.3575000000000159,-0.000675,0.001293,0.008842
0.3600000000000136,0.002422,0.001205,0.012086
0.3625000000000113,-0.001308,0.003504,0.010369
0.3650000000000091,-0.000694,-0.002946,0.008299
0.3675000000000068,0.007551,0.003224,0.010649
0.3700000000000045,0.00245,0.002877,0.010028
0.3725000000000023,0.00165,0.002321,0.009083
0.375,0.001889,0.001086,0.00931
0.3774999999999977,0.002252,-0.001013,0.008862
0.3799999999999954,-0.000419,0.003093,0.01015
0.3824999999999932,0.001679,0.001847,0.010633
0.3849999999999909,0.004894,0.003756,0.009615
0.3874999999999886,6.8e-05,0.001808,0.011867
0.3899999999999863,0.001954,0.003224,0.011247
0.3924999999999841,0.000612,0.000583,0.011417
0.3949999999999818,0.000358,0.000947,0.008965
0.3974999999999795,0.006022,0.002325,0.010145
0.3999999999999772,0.001682,-0.00181,0.009605
0.402499999999975,0.001319,-5.5e-05,0.011719
0.4049999999999727,0.004561,0.001832,0.009098
0.4074999999999704,0.0051,-0.003901,0.009833
0.4099999999999681,0.002674,0.003245,0.009482
0.4124999999999659,0.002534,-0.000916,0.012501
0.4149999999999636,0.003395,0.0,0.010363
0.4175000000000182,0.00358,0.005241,0.011779
0.4200000000000159,0.001327,2.8e-05,0.010266
0.4225000000000136,0.002057,-0.000556,0.00683
0.4250000000000113,0.004029,0.002637,0.008556
0.4275000000000091,0.005511,-0.00203,0.010536
0.4300000000000068,0.001474,0.002544,0.012346
0.4325000000000045,0.002893,0.002807,0.006946
0.4350000000000023,0.001133,0.001296,0.010268
0.4375,0.001545,-0.000432,0.009135
0.4399999999999977,2.2e-05,0.00039,0.01127
0.4424999999999954,0.007186,0.001899,0.010391
0.4449999999999932,0.003291,0.001698,0.013842
0.4474999999999909,0.001416,0.002169,0.011853
0.4499999999999886,0.003629,-0.000605,0.010005
0.4524999999999863,0.00333,0.000484,0.010628
0.4549999999999841,0.00136,0.000549,0.012783
0.4574999999999818,0.003592,0.002988,0.010969
0.4599999999999795,0.000925,0.002589,0.008772
0.4624999999999772,0.006082,0.001759,0.010888
0.464999999999975,0.003331,0.000986,0.010522
0.4674999999999727,0.003659,0.004067,0.013255
0.4699999999999704,0.001771,0.000795,0.009703
0.4724999999999681,0.003912,-0.001401,0.009311
0.4749999999999659,0.00414,0.001552,0.011171
0.4774999999999636,0.002097,-0.001071,0.009974
0.4800000000000182,0.003084,0.000238,0.010405
0.4825000000000159,0.002373,-0.00222,0.010724
0.4850000000000136,0.004435,0.000248,0.013236
0.4875000000000113,0.003146,-0.000538,0.010893
0.4900000000000091,0.005289,0.006125,0.012621
0.4925000000000068,0.002723,0.002509,0.012378
0.4950000000000045,0.003215,0.00261,0.010843
0.4975000000000023,0.003584,0.003829,0.012799
0.5,0.004271,0.002799,0.01144
0.5024999999999977,0.001418,0.001342,0.010446
0.5049999999999955,0.001989,0.00108,0.008795
0.5074999999999932,0.005037,0.005513,0.010637
0.5099999999999909,0.002662,0.005511,0.008572
0.5124999999999886,0.002814,0.002071,0.008585
0.5149999999999864,0.000302,0.00666,0.008888
0.5174999999999841,0.002549,0.006727,0.009004
0.5199999999999818,0.003303,0.010418,0.005769
0.5224999999999795,0.005677,0.006635,0.006843
0.5249999999999773,0.004762,0.010363,0.008977
0.527499999999975,0.000954,0.007891,0.005711
0.5299999999999727,0.003629,0.007925,0.005069
0.5324999999999704,-0.002734,0.00942,0.007661
0.5349999999999682,-0.002219,0.01116,0.005903
0.5374999999999659,-0.000329,0.009993,0.007037
0.5399999999999636,0.000506,0.006673,0.005085
0.5425000000000182,-0.000627,0.008095,0.004721
0.5450000000000159,-0.00107,0.010055,0.004788
0.5475000000000136,-0.004472,0.009891,0.007425
0.5500000000000114,-0.002596,0.014592,0.005057
0.5525000000000091,0.001553,0.007989,0.002437
0.5550000000000068,0.001273,0.012892,0.005563
0.5575000000000045,-0.001343,0.012208,0.004811
0.5600000000000023,0.002315,0.013699,0.003745
0.5625,0.003856,0.012969,0.002221
0.5649999999999977,-9.4e-05,0.016641,0.005276
0.5674999999999955,0.003331,0.016496,0.002434
0.5699999999999932,0.000838,0.016633,0.005833
0.5724999999999909,0.003589,0.018995,0.009083
0.5749999999999886,0.002473,0.017419,0.009041
0.5774999999999864,0.001106,0.019307,0.012869
0.5799999999999841,0.002243,0.017113,0.011722
0.5824999999999818,0.001443,0.015847,0.012233
0.5849999999999795,0.000165,0.016265,0.013355
0.5874999999999773,-0.000165,0.015817,0.014532
0.589999999999975,-0.001268,0.012832,0.016025
0.5924999999999727,0.000434,0.015274,0.01462
0.5949999999999704,-0.003862,0.015787,0.013006
0.5974999999999682,-0.005232,0.01859,0.008873
0.5999999999999659,-0.006241,0.022977,0.012154
0.6024999999999636,-0.006574,0.019983,0.01286
0.6050000000000182,-0.006586,0.020992,0.015726
0.6075000000000159,-0.010478,0.024208,0.012148
0.6100000000000136,-0.011578,0.028069,0.01375
0.6125000000000114,-0.009637,0.025209,0.012361
0.6150000000000091,-0.012341,0.028198,0.011613
0.6175000000000068,-0.014968,0.030986,0.010946
0.6200000000000045,-0.013797,0.031096,0.010685
0.6225000000000023,-0.014645,0.031482,0.009277
0.625,-0.012928,0.03505,0.008252
0.6274999999999977,-0.012189,0.032535,0.004901
0.6299999999999955,-0.011688,0.034562,0.008335
0.6324999999999932,-0.010358,0.029943,0.008721
0.6349999999999909,-0.010386,0.030329,0.010932
0.6374999999999886,-0.010575,0.03344,0.010284
0.6399999999999864,-0.010407,0.033808,0.011928
0.6424999999999841,-0.008866,0.031658,0.013647
0.6449999999999818,-0.010495,0.034463,0.012205
0.6474999999999795,-0.008345,0.036981,0.011403
0.6499999999999773,-0.007226,0.033148,0.014938
0.652499999999975,-0.004275,0.034984,0.01907
0.6549999999999727,0.000968,0.034281,0.0178
0.6574999999999704,0.000904,0.035874,0.021528
0.6599999999999682,0.005498,0.038186,0.024537
0.6624999999999659,0.005833,0.043077,0.027091
0.6649999999999636,0.011071,0.045744,0.026155
0.6675000000000182,0.015325,0.050431,0.027963
0.6700000000000159,0.015029,0.057004,0.033356
0.6725000000000136,0.021081,0.054995,0.034463
0.6750000000000114,0.018854,0.060857,0.039922
0.6775000000000091,0.027502,0.069623,0.044041
0.6800000000000068,0.028747,0.074511,0.051051
0.6825000000000045,0.030149,0.084751,0.055767
0.6850000000000023,0.031283,0.089765,0.062295
0.6875,0.029758,0.096368,0.070449
0.6899999999999977,0.028818,0.106335,0.070456
0.6924999999999955,0.033361,0.114094,0.080796
0.6949999999999932,0.034756,0.124351,0.089964
0.6974999999999909,0.035029,0.129307,0.097489
0.6999999999999886,0.042563,0.13964,0.110025
0.7024999999999864,0.046243,0.154088,0.116484
0.7049999999999841,0.049447,0.156299,0.12698
0.7074999999999818,0.056192,0.163227,0.137777
0.7099999999999795,0.059088,0.16629,0.148726
0.7124999999999773,0.064256,0.178019,0.157026
0.714999999999975,0.072739,0.180686,0.167709
0.7174999999999727,0.080525,0.183546,0.176895
0.7199999999999704,0.090351,0.186845,0.187383
0.7224999999999682,0.095334,0.189997,0.195528
0.7249999999999659,0.101704,0.190932,0.207043
0.7274999999999636,0.111365,0.188036,0.215649
0.7300000000000182,0.121776,0.188757,0.229187
0.7325000000000159,0.131569,0.185668,0.237041
0.7350000000000136,0.144429,0.188423,0.247353
0.7375000000000114,0.158469,0.186873,0.256696
0.7400000000000091,0.173403,0.181774,0.268023
0.7425000000000068,0.184963,0.182771,0.276845
0.7450000000000045,0.199168,0.181071,0.285207
0.7475000000000023,0.217795,0.178313,0.295531
0.75,0.23356,0.175028,0.304665
0.7524999999999977,0.24978,0.172926,0.313374
0.7549999999999955,0.262796,0.170655,0.319231
0.7574999999999932,0.279411,0.170491,0.327908
0.7599999999999909,0.295991,0.175155,0.337281
0.7624999999999886,0.310604,0.17718,0.345203
0.7649999999999864,0.324722,0.177502,0.355015
0.7674999999999841,0.33818,0.180154,0.362147
0.7699999999999818,0.350338,0.187332,0.36874
0.7724999999999795,0.362579,0.190979,0.376724
0.7749999999999773,0.375312,0.195199,0.385537
0.777499999999975,0.385936,0.199725,0.389759
0.7799999999999727,0.393953,0.207446,0.398385
0.7824999999999704,0.400581,0.211401,0.404955
0.7849999999999682,0.414344,0.212506,0.412614
0.7874999999999659,0.420176,0.217379,0.419181
0.7899999999999636,0.426694,0.225466,0.424818
0.7925000000000182,0.433276,0.224773,0.432243
0.7950000000000159,0.436249,0.226913,0.441582
0.7975000000000136,0.445814,0.226278,0.446152
0.8000000000000114,0.446504,0.232784,0.453953
0.8025000000000091,0.449789,0.231377,0.456134
0.8050000000000068,0.451721,0.231507,0.46123
0.8075000000000045,0.450464,0.227196,0.468826
0.8100000000000023,0.454391,0.222471,0.472912
0.8125,0.452193,0.219218,0.47644
0.8149999999999977,0.451995,0.215928,0.479715
0.8174999999999955,0.453741,0.207115,0.480305
0.8199999999999932,0.447076,0.201532,0.482076
0.8224999999999909,0.444811,0.191604,0.48577
0.8249999999999886,0.440373,0.183242,0.485293
0.8274999999999864,0.43711,0.173476,0.484472
0.8299999999999841,0.430182,0.159944,0.487156
0.8324999999999818,0.423793,0.150887,0.485709
0.8349999999999795,0.419534,0.14242,0.488033
0.8374999999999773,0.409981,0.132243,0.484168
0.839999999999975,0.401684,0.124345,0.483716
0.8424999999999727,0.392283,0.11509,0.481025
0.8449999999999704,0.38436,0.113083,0.477932
0.8474999999999682,0.375546,0.10662,0.476081
0.8499999999999659,0.360774,0.103454,0.47353
0.8524999999999636,0.351692,0.099962,0.467562
0.8550000000000182,0.339373,0.098353,0.464488
0.8575000000000159,0.330085,0.098582,0.460892
0.8600000000000136,0.316414,0.100973,0.455097
0.8625000000000114,0.302463,0.096034,0.452939
0.8650000000000091,0.287407,0.096423,0.449105
0.8675000000000068,0.272892,0.095803,0.44487
0.8700000000000045,0.260324,0.093312,0.442303
0.8725000000000023,0.243831,0.091713,0.437012
0.875,0.228409,0.089828,0.431322
0.8774999999999977,0.212408,0.087998,0.426192
0.8799999999999955,0.196093,0.085338,0.421978
0.8824999999999932,0.181297,0.081884,0.417208
0.8849999999999909,0.164323,0.077447,0.409115
0.8874999999999886,0.15152,0.071207,0.404515
0.8899999999999864,0.134707,0.070266,0.401589
0.8924999999999841,0.114334,0.060446,0.39329
0.8949999999999818,0.105716,0.059106,0.385002
0.8974999999999795,0.084115,0.048647,0.377653
0.8999999999999773,0.066385,0.038818,0.372062
0.902499999999975,0.051243,0.032336,0.368526
0.9049999999999728,0.0338,0.028504,0.361099
0.9074999999999704,0.02014,0.018313,0.351586
0.9099999999999682,0.008347,0.008898,0.346138
0.912499999999966,-0.006829,0.004246,0.336685
0.9149999999999636,-0.02062,-0.002639,0.334286
0.9175000000000182,-0.034329,-0.009428,0.327232
0.920000000000016,-0.045864,-0.016683,0.321271
0.9225000000000136,-0.056443,-0.026907,0.312825
0.9250000000000114,-0.067364,-0.02943,0.306348
0.9275000000000092,-0.076431,-0.032885,0.301427
0.9300000000000068,-0.084399,-0.041635,0.296713
0.9325000000000044,-0.090632,-0.044209,0.29284
0.9350000000000024,-0.099698,-0.050393,0.286082
0.9375,-0.107199,-0.055383,0.282554
0.9399999999999976,-0.11131,-0.061771,0.277308
0.9424999999999956,-0.117013,-0.068444,0.268177
0.9449999999999932,-0.119759,-0.076044,0.266673
0.9474999999999908,-0.124779,-0.07959,0.26181
0.9499999999999886,-0.126138,-0.0826,0.258508
0.9524999999999864,-0.13005,-0.089964,0.253811
0.954999999999984,-0.128134,-0.089522,0.251281
0.9574999999999818,-0.130588,-0.093602,0.247396
0.9599999999999796,-0.127923,-0.093764,0.242712
0.9624999999999772,-0.127645,-0.100423,0.239988
0.964999999999975,-0.124204,-0.101592,0.235278
0.9674999999999728,-0.127567,-0.105619,0.233961
0.9699999999999704,-0.127709,-0.109071,0.22869
0.9724999999999682,-0.12148,-0.117502,0.226115
0.974999999999966,-0.119348,-0.113043,0.221796
0.9774999999999636,-0.117633,-0.124262,0.22
0.9800000000000182,-0.11099,-0.127377,0.21674
0.982500000000016,-0.109501,-0.123596,0.214916
0.9850000000000136,-0.107844,-0.125918,0.214668
0.9875000000000114,-0.104381,-0.12715,0.212406
0.9900000000000092,-0.098583,-0.128429,0.208005
0.9925000000000068,-0.093497,-0.125819,0.204208
0.9950000000000044,-0.092937,-0.128667,0.201605
0.9975000000000024,-0.091518,-0.128002,0.200055
1.0,-0.088257,-0.130782,0.196364
1.0024999999999975,-0.085443,-0.130107,0.197401
1.0049999999999957,-0.0817,-0.133374,0.193616
1.0074999999999932,-0.079046,-0.13184,0.19883
1.009999999999991,-0.07247,-0.134113,0.193236
1.0124999999999886,-0.069606,-0.135484,0.19346
1.0149999999999864,-0.071065,-0.137398,0.192859
1.017499999999984,-0.067054,-0.134692,0.19218
1.0199999999999818,-0.064023,-0.142251,0.195032
1.0224999999999795,-0.060654,-0.140022,0.195061
1.0249999999999773,-0.057757,-0.140435,0.194132
1.027499999999975,-0.054909,-0.138371,0.195593
1.0299999999999727,-0.054662,-0.14348,0.195872
1.0324999999999704,-0.052083,-0.141831,0.194935
1.0349999999999682,-0.045668,-0.141436,0.197608
1.037499999999966,-0.045477,-0.143577,0.197688
1.0399999999999636,-0.04379,-0.143375,0.199617
1.0425000000000182,-0.039224,-0.141996,0.203226
1.045000000000016,-0.036253,-0.144386,0.203832
1.0475000000000136,-0.0414,-0.142671,0.208046
1.0500000000000114,-0.03489,-0.139174,0.207891
1.052500000000009,-0.036527,-0.142851,0.210875
1.0550000000000068,-0.041321,-0.141221,0.215686
1.0575000000000043,-0.037886,-0.138941,0.217853
1.0600000000000025,-0.032662,-0.136888,0.222889
1.0625,-0.03217,-0.137712,0.226497
1.0649999999999975,-0.030768,-0.133474,0.230012
1.0674999999999957,-0.034811,-0.128843,0.235938
1.0699999999999932,-0.034532,-0.127402,0.236817
1.072499999999991,-0.038217,-0.127776,0.242966
1.0749999999999886,-0.037944,-0.123283,0.248419
1.0774999999999864,-0.040917,-0.118943,0.252236
1.079999999999984,-0.041729,-0.116362,0.255703
1.0824999999999818,-0.045276,-0.109468,0.258883
1.0849999999999795,-0.044718,-0.110014,0.26199
1.0874999999999773,-0.04971,-0.1066,0.265976
1.089999999999975,-0.050068,-0.103237,0.26653
1.0924999999999727,-0.055274,-0.102699,0.267785
1.0949999999999704,-0.056782,-0.096899,0.272546
1.0974999999999682,-0.064223,-0.093558,0.273787
1.099999999999966,-0.071146,-0.093727,0.272197
1.1024999999999636,-0.07554,-0.091545,0.279634
1.1050000000000182,-0.07973,-0.086305,0.282424
1.107500000000016,-0.084892,-0.08443,0.284707
1.1100000000000136,-0.085007,-0.082168,0.285896
1.1125000000000114,-0.095588,-0.083026,0.287376
1.115000000000009,-0.100094,-0.078918,0.291876
1.1175000000000068,-0.103432,-0.076403,0.289387
1.1200000000000043,-0.107726,-0.076044,0.290331
1.1225000000000025,-0.113539,-0.072618,0.291268
1.125,-0.118542,-0.070086,0.293826
1.1274999999999975,-0.122941,-0.072977,0.294869
1.1299999999999957,-0.130241,-0.071532,0.296072
1.1324999999999932,-0.133964,-0.070809,0.298513
1.134999999999991,-0.140877,-0.069477,0.299498
1.1374999999999886,-0.145231,-0.066413,0.30326
1.1399999999999864,-0.147927,-0.065373,0.303059
1.142499999999984,-0.156771,-0.065142,0.302685
1.1449999999999818,-0.157471,-0.064993,0.305396
1.1474999999999795,-0.16485,-0.062476,0.30876
1.1499999999999773,-0.171714,-0.063013,0.309794
1.152499999999975,-0.175323,-0.055045,0.30769
1.1549999999999727,-0.181721,-0.060725,0.310849
1.1574999999999704,-0.18981,-0.057562,0.312675
1.1599999999999682,-0.190429,-0.054765,0.313155
1.162499999999966,-0.198245,-0.052384,0.316183
1.1649999999999636,-0.205976,-0.051522,0.313672
1.1675000000000182,-0.207835,-0.054465,0.314965
1.170000000000016,-0.21275,-0.050969,0.314727
1.1725000000000136,-0.219786,-0.050768,0.315673
1.1750000000000114,-0.220214,-0.050153,0.313557
1.177500000000009,-0.230669,-0.051369,0.31571
1.1800000000000068,-0.229983,-0.049298,0.313929
1.1825000000000043,-0.235803,-0.045711,0.312566
1.1850000000000025,-0.239818,-0.045305,0.313775
1.1875,-0.248978,-0.046398,0.312651
1.1899999999999975,-0.249977,-0.046073,0.310151
1.1924999999999957,-0.251709,-0.047113,0.306001
1.1949999999999932,-0.256939,-0.047153,0.308295
1.197499999999991,-0.257362,-0.046384,0.306042
1.1999999999999886,-0.259769,-0.047182,0.304607
1.2024999999999864,-0.266089,-0.051472,0.300456
1.204999999999984,-0.264823,-0.053532,0.301177
1.2074999999999818,-0.265628,-0.054839,0.296613
1.2099999999999795,-0.267863,-0.05603,0.298578
1.2124999999999773,-0.268655,-0.0585,0.296249
1.214999999999975,-0.268556,-0.059095,0.298572
1.2174999999999727,-0.266337,-0.058942,0.294983
1.2199999999999704,-0.267889,-0.057445,0.294063
1.2224999999999682,-0.26606,-0.062473,0.291555
1.224999999999966,-0.265619,-0.064592,0.287082
1.2274999999999636,-0.26627,-0.062792,0.280715
1.2300000000000182,-0.260603,-0.065881,0.280016
1.232500000000016,-0.260881,-0.064768,0.272884
1.2350000000000136,-0.260796,-0.064473,0.269552
1.2375000000000114,-0.26269,-0.063139,0.265554
1.240000000000009,-0.257441,-0.061002,0.262231
1.2425000000000068,-0.259441,-0.062148,0.256877
1.2450000000000043,-0.259514,-0.063744,0.251079
1.2475000000000025,-0.25647,-0.064027,0.252483
1.25,-0.258651,-0.058797,0.251117
1.2524999999999975,-0.259247,-0.061406,0.248251
1.2549999999999957,-0.262524,-0.056513,0.24684
1.2574999999999932,-0.26248,-0.054489,0.246439
1.259999999999991,-0.258531,-0.055863,0.243165
1.2624999999999886,-0.265536,-0.053607,0.243085
1.2649999999999864,-0.26391,-0.052878,0.237756
1.267499999999984,-0.261353,-0.05583,0.238582
1.2699999999999818,-0.26733,-0.052741,0.237133
1.2724999999999795,-0.264642,-0.054796,0.235856
1.2749999999999773,-0.268498,-0.052729,0.232229
1.277499999999975,-0.27166,-0.050597,0.229657
1.2799999999999727,-0.272734,-0.048178,0.225466
1.2824999999999704,-0.275548,-0.048327,0.221751
1.2849999999999682,-0.281081,-0.044106,0.224894
1.287499999999966,-0.285082,-0.039749,0.2217
1.2899999999999636,-0.288543,-0.034405,0.217267
1.2925000000000182,-0.295289,-0.033504,0.214308
1.295000000000016,-0.294828,-0.029026,0.214916
1.2975000000000136,-0.304273,-0.02521,0.211931
1.3000000000000114,-0.310883,-0.022218,0.209726
1.302500000000009,-0.318187,-0.017914,0.210055
1.3050000000000068,-0.321786,-0.014834,0.209116
1.3075000000000043,-0.331534,-0.015172,0.206464
1.3100000000000025,-0.336088,-0.012164,0.209049
1.3125,-0.345756,-0.007647,0.205388
1.3149999999999975,-0.350872,-0.009227,0.207461
1.3174999999999957,-0.360039,-0.006858,0.206516
1.3199999999999932,-0.367007,-0.003895,0.207079
1.322499999999991,-0.375184,-0.004235,0.206455
1.3249999999999886,-0.381243,-0.003079,0.208182
1.3274999999999864,-0.386591,-0.004736,0.206959
1.329999999999984,-0.391245,-0.000772,0.203853
1.3324999999999818,-0.401689,0.004923,0.204734
1.3349999999999795,-0.407714,0.00369,0.207067
1.3374999999999773,-0.410984,0.003787,0.204184
1.339999999999975,-0.414722,0.003956,0.202826
1.3424999999999727,-0.422575,0.003926,0.196802
1.3449999999999704,-0.430057,0.009114,0.19346
1.3474999999999682,-0.437737,0.009676,0.19322
1.349999999999966,-0.444551,0.004972,0.188492
1.3524999999999636,-0.450932,0.006969,0.185324
1.3550000000000182,-0.453678,0.006718,0.182257
1.357500000000016,-0.460663,0.010809,0.177019
1.3600000000000136,-0.465038,0.01203,0.171673
1.3625000000000114,-0.470592,0.00767,0.166773
1.365000000000009,-0.476345,0.010894,0.16273
1.3675000000000068,-0.485502,0.012586,0.156207
1.3700000000000043,-0.487648,0.011948,0.150084
1.3725000000000025,-0.490664,0.013522,0.144876
1.375,-0.493816,0.017185,0.138075
1.3774999999999975,-0.501484,0.021706,0.133232
1.3799999999999957,-0.500725,0.021494,0.125072
1.3824999999999932,-0.506225,0.017699,0.114105
1.384999999999991,-0.509428,0.023187,0.110603
1.3874999999999886,-0.509931,0.023711,0.105383
1.3899999999999864,-0.511144,0.021515,0.098468
1.392499999999984,-0.512217,0.021095,0.09272
1.3949999999999818,-0.515956,0.024088,0.087605
1.3974999999999795,-0.517376,0.023992,0.08244
1.3999999999999773,-0.51651,0.015398,0.075474
1.402499999999975,-0.514983,0.01374,0.074326
1.4049999999999727,-0.520887,0.01649,0.069132
1.4074999999999704,-0.519903,0.014169,0.06609
1.4099999999999682,-0.519925,0.013215,0.064623
1.412499999999966,-0.51939,0.008839,0.062906
1.4149999999999636,-0.52121,0.009155,0.05808
1.4175000000000182,-0.521824,0.011218,0.058717
1.420000000000016,-0.519495,0.006372,0.055338
1.4225000000000136,-0.521171,-0.002629,0.053339
1.4250000000000114,-0.517131,-0.003302,0.055263
1.427500000000009,-0.514621,-0.00491,0.052478
1.4300000000000068,-0.505756,-0.006858,0.051548
1.4325000000000043,-0.503095,-0.012146,0.047375
1.4350000000000025,-0.496923,-0.016977,0.045977
1.4375,-0.490516,-0.020643,0.04598
1.4399999999999975,-0.485328,-0.023293,0.041833
1.4424999999999957,-0.478092,-0.024989,0.044119
1.4449999999999932,-0.469078,-0.027131,0.042198
1.447499999999991,-0.461026,-0.032629,0.04222
1.4499999999999886,-0.451189,-0.040574,0.04191
1.4524999999999864,-0.443733,-0.047256,0.044198
1.454999999999984,-0.437209,-0.052594,0.044856
1.4574999999999818,-0.427492,-0.056286,0.046847
1.4599999999999795,-0.418685,-0.061895,0.047746
1.4624999999999773,-0.408545,-0.067663,0.049742
1.464999999999975,-0.400369,-0.072947,0.050784
1.4674999999999727,-0.389084,-0.074518,0.049231
1.4699999999999704,-0.378276,-0.081548,0.052417
1.4724999999999682,-0.367889,-0.085485,0.048002
1.474999999999966,-0.359465,-0.090231,0.048145
1.4774999999999636,-0.346942,-0.092207,0.04527
1.4800000000000182,-0.335208,-0.094417,0.04294
1.482500000000016,-0.323161,-0.096728,0.039845
1.4850000000000136,-0.312316,-0.098039,0.039584
1.4875000000000114,-0.302699,-0.096737,0.035513
1.490000000000009,-0.290051,-0.098059,0.032768
1.4925000000000068,-0.279562,-0.093766,0.031493
1.4950000000000043,-0.266808,-0.095791,0.027271
1.4975000000000025,-0.260051,-0.09286,0.024829
1.5,-0.246878,-0.090873,0.025424
1.5024999999999975,-0.234774,-0.090125,0.025994
1.5049999999999957,-0.225493,-0.086455,0.021129
1.5074999999999932,-0.2177,-0.084119,0.021341
1.509999999999991,-0.208303,-0.085823,0.022844
1.5124999999999886,-0.196011,-0.080568,0.02296
1.5149999999999864,-0.182524,-0.079104,0.018381
1.517499999999984,-0.174105,-0.075163,0.014239
1.5199999999999818,-0.166756,-0.074768,0.011287
1.5224999999999795,-0.153288,-0.075519,0.011849
1.5249999999999773,-0.143921,-0.07714,0.006465
1.527499999999975,-0.131094,-0.076514,0.003547
1.5299999999999727,-0.122197,-0.075494,0.001761
1.5324999999999704,-0.11265,-0.078315,-0.006096
1.5349999999999682,-0.100479,-0.075725,-0.006582
1.537499999999966,-0.091517,-0.073865,-0.013161
1.5399999999999636,-0.08274,-0.075401,-0.013863
1.5425000000000182,-0.0708,-0.080092,-0.018141
1.545000000000016,-0.061643,-0.07779,-0.023612
1.5475000000000136,-0.0523,-0.080337,-0.026077
1.5500000000000114,-0.041257,-0.080153,-0.027376
1.552500000000009,-0.031172,-0.081021,-0.028558
1.5550000000000068,-0.022069,-0.079916,-0.031847
1.5575000000000043,-0.012723,-0.079148,-0.034113
1.5600000000000025,-0.005247,-0.075351,-0.035547
1.5625,0.001351,-0.076498,-0.035173
1.5649999999999975,0.010022,-0.074555,-0.035916
1.5674999999999957,0.01822,-0.070053,-0.037646
1.5699999999999932,0.025413,-0.07298,-0.035954
1.572499999999991,0.029621,-0.06569,-0.034618
1.5749999999999886,0.034293,-0.062495,-0.036331
1.5774999999999864,0.039815,-0.059985,-0.037272
1.579999999999984,0.045455,-0.058706,-0.036882
1.5824999999999818,0.049818,-0.053716,-0.038472
1.5849999999999795,0.056281,-0.052631,-0.039086
1.5874999999999773,0.063433,-0.050458,-0.036977
1.589999999999975,0.066494,-0.045453,-0.039431
1.5924999999999727,0.0723,-0.040947,-0.040628
1.5949999999999704,0.077779,-0.043461,-0.041057
1.5974999999999682,0.080893,-0.038958,-0.039464
1.599999999999966,0.087696,-0.03842,-0.038739
1.6024999999999636,0.090943,-0.028864,-0.037046
1.6050000000000182,0.09693,-0.02756,-0.038916
1.607500000000016,0.09929,-0.025296,-0.036989
1.6100000000000136,0.102093,-0.023627,-0.032933
1.6125000000000114,0.108152,-0.024161,-0.031759
1.615000000000009,0.11312,-0.021715,-0.03016
1.6175000000000068,0.115087,-0.019674,-0.028269
1.6200000000000043,0.117015,-0.019547,-0.030825
1.6225000000000025,0.121617,-0.016363,-0.02414
1.625,0.124799,-0.013901,-0.024733
1.6274999999999975,0.127285,-0.011891,-0.024684
1.6299999999999957,0.131644,-0.010344,-0.023018
1.6324999999999932,0.128383,-0.002143,-0.018845
1.634999999999991,0.13466,-0.001024,-0.020909
1.6374999999999886,0.135396,0.00072,-0.019212
1.6399999999999864,0.137866,0.005383,-0.023322
1.642499999999984,0.136869,0.010134,-0.021666
1.6449999999999818,0.136317,0.012197,-0.023036
1.6474999999999795,0.139809,0.016891,-0.021717
1.6499999999999773,0.137358,0.0169,-0.023757
1.652499999999975,0.137403,0.021029,-0.021973
1.6549999999999727,0.136737,0.024074,-0.022379
1.6574999999999704,0.133935,0.026423,-0.024045
1.6599999999999682,0.135059,0.028992,-0.021777
1.662499999999966,0.130405,0.030441,-0.022139
1.6649999999999636,0.129413,0.031456,-0.024739
1.6675000000000182,0.124585,0.03328,-0.023237
1.670000000000016,0.118642,0.035416,-0.026244
1.6725000000000136,0.112721,0.039036,-0.025493
1.6750000000000114,0.111748,0.038929,-0.022717
1.677500000000009,0.104182,0.040887,-0.022081
1.6800000000000068,0.101367,0.041161,-0.024039
1.6825000000000043,0.093094,0.044315,-0.021803
1.6850000000000025,0.088274,0.046175,-0.020768
1.6875,0.08482,0.044427,-0.020535
1.6899999999999975,0.077812,0.046916,-0.022161
1.6924999999999957,0.071502,0.053004,-0.015509
1.6949999999999932,0.066752,0.051761,-0.020434
1.697499999999991,0.059461,0.055593,-0.016807
1.6999999999999886,0.055075,0.053842,-0.017545
1.7024999999999864,0.047321,0.059185,-0.015037
1.704999999999984,0.04143,0.059903,-0.011849
1.7074999999999818,0.034445,0.06051,-0.011642
1.7099999999999795,0.02997,0.060796,-0.012709
1.7124999999999773,0.023367,0.055746,-0.005284
1.714999999999975,0.017945,0.063161,-0.007817
1.7174999999999727,0.009545,0.065058,-0.004788
1.7199999999999704,0.003783,0.065733,-0.00369
1.7224999999999682,-0.002421,0.064463,-0.005594
1.724999999999966,-0.004703,0.066122,-0.004008
1.7274999999999636,-0.008719,0.064792,-0.000244
1.7300000000000182,-0.0156,0.069708,0.004069
1.732500000000016,-0.020206,0.073496,0.003716
1.7350000000000136,-0.022593,0.070853,0.003476
1.7375000000000114,-0.025283,0.06902,0.008819
1.740000000000009,-0.031877,0.070568,0.008308
1.7425000000000068,-0.032616,0.07307,0.011743
1.7450000000000043,-0.038645,0.07254,0.013948
1.7475000000000025,-0.042138,0.070829,0.016236
1.75,-0.044014,0.07026,0.01509
1.7524999999999975,-0.04482,0.074648,0.018708
1.7549999999999957,-0.046964,0.066788,0.018512
1.7574999999999932,-0.045712,0.0657,0.024546
1.759999999999991,-0.048794,0.068218,0.025933
1.7624999999999886,-0.048226,0.066934,0.026248
1.7649999999999864,-0.049518,0.064587,0.029858
1.767499999999984,-0.045614,0.062027,0.035071
1.7699999999999818,-0.046483,0.060359,0.037504
1.7724999999999795,-0.044434,0.059585,0.035197
1.7749999999999773,-0.047232,0.061714,0.039431
1.777499999999975,-0.042056,0.058316,0.041296
1.7799999999999727,-0.043002,0.060513,0.045741
1.7824999999999704,-0.039728,0.058045,0.050209
1.7849999999999682,-0.04091,0.05636,0.053539
1.787499999999966,-0.037961,0.052633,0.059823
1.7899999999999636,-0.039274,0.054022,0.05875
1.7925000000000182,-0.035642,0.054998,0.062274
1.795000000000016,-0.037146,0.053889,0.06688
1.7975000000000136,-0.03736,0.054469,0.076433
1.8000000000000114,-0.03615,0.053116,0.078727
1.802500000000009,-0.035167,0.049791,0.080761
1.8050000000000068,-0.033779,0.053979,0.080968
1.8075000000000043,-0.031734,0.052216,0.086469
1.8100000000000025,-0.025673,0.050864,0.090303
1.8125,-0.028028,0.055998,0.088886
1.8149999999999975,-0.023156,0.054119,0.09441
1.8174999999999957,-0.020909,0.053606,0.094637
1.8199999999999927,-0.018559,0.051744,0.10047
1.822499999999991,-0.015058,0.05155,0.103425
1.8249999999999889,-0.010693,0.053357,0.107106
1.8274999999999864,-0.008704,0.051234,0.109022
1.829999999999984,-0.003378,0.054013,0.112217
1.8324999999999816,-0.001483,0.051963,0.114902
1.8349999999999795,0.003996,0.053514,0.120173
1.8374999999999773,0.006742,0.05294,0.126716
1.839999999999975,0.011983,0.053816,0.129276
1.8424999999999727,0.016465,0.05113,0.130463
1.8449999999999704,0.021642,0.052281,0.135083
1.847499999999968,0.026878,0.055925,0.143192
1.849999999999966,0.029012,0.05521,0.143407
1.852499999999964,0.036489,0.056071,0.147476
1.8550000000000184,0.039331,0.056887,0.149163
1.857500000000016,0.04842,0.061534,0.154495
1.8600000000000136,0.053934,0.057664,0.157457
1.8625000000000116,0.059699,0.059306,0.158996
1.865000000000009,0.063654,0.063179,0.163
1.8675000000000068,0.068689,0.061608,0.167065
1.8700000000000043,0.076785,0.06206,0.167152
1.8725000000000025,0.07919,0.062855,0.169162
1.875,0.087222,0.065558,0.17483
1.8774999999999975,0.093684,0.071635,0.174192
1.8799999999999957,0.099277,0.069582,0.176337
1.8824999999999927,0.106747,0.072137,0.179366
1.884999999999991,0.1133,0.078019,0.17719
1.8874999999999889,0.117362,0.079558,0.178454
1.8899999999999864,0.124996,0.085907,0.181641
1.892499999999984,0.131515,0.087064,0.177971
1.8949999999999816,0.135189,0.089426,0.179987
1.8974999999999795,0.14094,0.094602,0.177772
1.8999999999999773,0.146046,0.095899,0.178478
1.902499999999975,0.153299,0.095954,0.172765
1.9049999999999727,0.163744,0.100363,0.175496
1.9074999999999704,0.166679,0.107085,0.170983
1.909999999999968,0.175603,0.109845,0.164238
1.912499999999966,0.180269,0.110043,0.162245
1.914999999999964,0.188357,0.118988,0.156622
1.9175000000000184,0.198006,0.119058,0.149093
1.920000000000016,0.207435,0.122295,0.139935
1.9225000000000136,0.21527,0.119444,0.130873
1.9250000000000116,0.221022,0.121095,0.122755
1.927500000000009,0.230423,0.123408,0.107405
1.9300000000000068,0.239026,0.127175,0.094778
1.9325000000000043,0.249108,0.126126,0.082802
1.9350000000000025,0.255726,0.124081,0.070139
1.9375,0.263109,0.12596,0.052821
1.9399999999999975,0.263258,0.122728,0.035696
1.9424999999999957,0.271822,0.120658,0.01862
1.9449999999999927,0.282674,0.117256,0.002637
1.947499999999991,0.28521,0.116476,-0.015554
1.9499999999999889,0.297729,0.114777,-0.036378
1.9524999999999864,0.302621,0.107463,-0.055432
1.954999999999984,0.309473,0.104926,-0.07748
1.9574999999999816,0.315668,0.100175,-0.103576
1.9599999999999795,0.322362,0.093346,-0.125457
1.9624999999999773,0.329424,0.086518,-0.147846
1.964999999999975,0.33294,0.0813,-0.171404
1.9674999999999727,0.33414,0.07396,-0.197902
1.9699999999999704,0.342929,0.069565,-0.22278
1.972499999999968,0.342784,0.061379,-0.25039
1.974999999999966,0.347542,0.052962,-0.274178
1.977499999999964,0.349522,0.04246,-0.302622
1.9800000000000184,0.352032,0.032049,-0.32873
1.982500000000016,0.357632,0.026219,-0.35509
1.9850000000000136,0.360511,0.020406,-0.38133
1.9875000000000116,0.357152,0.005167,-0.409123
1.990000000000009,0.358949,-0.002576,-0.433429
1.9925000000000068,0.358591,-0.009002,-0.45951
1.9950000000000043,0.359915,-0.025642,-0.488156
1.9975000000000025,0.359076,-0.036205,-0.507602
2.0,0.356334,-0.047365,-0.536135
2.0024999999999977,0.355604,-0.055084,-0.561938
2.0049999999999955,0.35316,-0.066887,-0.585207
2.007499999999993,0.352376,-0.080667,-0.605889
2.009999999999991,0.348046,-0.091937,-0.633954
2.0124999999999886,0.34681,-0.101416,-0.65323
2.0149999999999864,0.343766,-0.114487,-0.676623
2.017499999999984,0.341005,-0.127611,-0.701423
2.019999999999982,0.337204,-0.135639,-0.723328
2.0224999999999795,0.334967,-0.144489,-0.747906
2.0249999999999773,0.33064,-0.159092,-0.769274
2.027499999999975,0.327275,-0.168151,-0.792265
2.0299999999999727,0.320824,-0.177167,-0.813185
2.0324999999999704,0.317562,-0.188251,-0.833069
2.034999999999968,0.310982,-0.196053,-0.853323
2.037499999999966,0.305044,-0.20795,-0.876226
2.039999999999964,0.29816,-0.215754,-0.892346
2.042500000000018,0.291263,-0.225081,-0.909457
2.045000000000016,0.284264,-0.235115,-0.929488
2.0475000000000136,0.279851,-0.24519,-0.951512
2.050000000000012,0.274386,-0.249815,-0.970349
2.052500000000009,0.265304,-0.254661,-0.989127
2.055000000000007,0.25767,-0.261024,-1.004897
2.0575000000000045,0.250249,-0.265341,-1.024215
2.0600000000000023,0.242428,-0.266761,-1.043137
2.0625,0.231656,-0.26955,-1.058473
2.0649999999999977,0.22546,-0.268707,-1.071401
2.0674999999999955,0.208666,-0.274108,-1.088281
2.069999999999993,0.202135,-0.275229,-1.103217
2.072499999999991,0.191134,-0.26995,-1.117623
2.0749999999999886,0.178949,-0.271675,-1.136017
2.0774999999999864,0.170805,-0.271943,-1.147522
2.079999999999984,0.159005,-0.269204,-1.161467
2.082499999999982,0.146542,-0.264184,-1.171914
2.0849999999999795,0.140206,-0.264472,-1.185431
2.0874999999999773,0.130992,-0.25793,-1.199946
2.089999999999975,0.11726,-0.258888,-1.210499
2.0924999999999727,0.106482,-0.257972,-1.222325
2.0949999999999704,0.096876,-0.251393,-1.232601
2.097499999999968,0.083751,-0.247742,-1.242041
2.099999999999966,0.071474,-0.243144,-1.250269
2.102499999999964,0.059202,-0.236119,-1.258702
2.105000000000018,0.048693,-0.235655,-1.267766
2.107500000000016,0.036448,-0.225182,-1.276211
2.1100000000000136,0.026331,-0.223045,-1.284168
2.112500000000012,0.014301,-0.215486,-1.292696
2.115000000000009,0.00442,-0.214534,-1.30086
2.117500000000007,-0.011182,-0.204717,-1.305815
2.1200000000000045,-0.020681,-0.193971,-1.314885
2.1225000000000023,-0.03833,-0.184961,-1.321065
2.125,-0.049509,-0.179991,-1.328001
2.1274999999999977,-0.06422,-0.16648,-1.335818
2.1299999999999955,-0.079389,-0.162138,-1.341828
2.132499999999993,-0.091977,-0.154203,-1.346717
2.134999999999991,-0.103128,-0.147578,-1.357343
2.1374999999999886,-0.118469,-0.141421,-1.364935
2.1399999999999864,-0.13203,-0.134212,-1.370787
2.142499999999984,-0.144707,-0.12479,-1.376701
2.144999999999982,-0.158018,-0.115509,-1.384505
2.1474999999999795,-0.168406,-0.112578,-1.390363
2.1499999999999773,-0.184474,-0.099193,-1.395535
2.152499999999975,-0.195059,-0.090651,-1.399875
2.1549999999999727,-0.207284,-0.082955,-1.407211
2.1574999999999704,-0.21825,-0.072528,-1.409113
2.159999999999968,-0.230277,-0.063543,-1.416079
2.162499999999966,-0.241421,-0.052594,-1.416969
2.164999999999964,-0.248511,-0.04283,-1.418471
2.167500000000018,-0.256522,-0.031179,-1.421032
2.170000000000016,-0.267811,-0.024243,-1.421582
2.1725000000000136,-0.272125,-0.010549,-1.419918
2.175000000000012,-0.281131,-0.005686,-1.421451
2.177500000000009,-0.285302,0.008953,-1.419357
2.180000000000007,-0.29182,0.02417,-1.417162
2.1825000000000045,-0.29389,0.035525,-1.415274
2.1850000000000023,-0.301515,0.041332,-1.409201
2.1875,-0.304414,0.051398,-1.410755
2.1899999999999977,-0.308937,0.060601,-1.408152
2.1924999999999955,-0.309265,0.066035,-1.400573
2.194999999999993,-0.311694,0.075518,-1.397992
2.197499999999991,-0.306742,0.082909,-1.392777
2.1999999999999886,-0.304993,0.092391,-1.386584
2.2024999999999864,-0.305863,0.097,-1.385396
2.204999999999984,-0.302181,0.106766,-1.380535
2.207499999999982,-0.299668,0.108957,-1.379039
2.2099999999999795,-0.293908,0.116379,-1.372369
2.2124999999999773,-0.289318,0.125232,-1.371042
2.214999999999975,-0.28216,0.131153,-1.368117
2.2174999999999727,-0.277399,0.133389,-1.364074
2.2199999999999704,-0.27031,0.138576,-1.360208
2.222499999999968,-0.264023,0.145068,-1.353248
2.224999999999966,-0.255954,0.150915,-1.350173
2.227499999999964,-0.24593,0.154994,-1.343282
2.230000000000018,-0.23976,0.159656,-1.336608
2.232500000000016,-0.22863,0.163084,-1.330634
2.2350000000000136,-0.217286,0.166667,-1.321641
2.237500000000012,-0.205842,0.161142,-1.310731
2.240000000000009,-0.197227,0.167596,-1.302046
2.242500000000007,-0.182201,0.160406,-1.293833
2.2450000000000045,-0.173372,0.160156,-1.278523
2.2475000000000023,-0.161636,0.163651,-1.267723
2.25,-0.146371,0.157496,-1.253534
2.2524999999999977,-0.134842,0.15408,-1.239354
2.2549999999999955,-0.121702,0.154043,-1.226172
2.257499999999993,-0.108725,0.15241,-1.215783
2.259999999999991,-0.095578,0.149832,-1.199402
2.2624999999999886,-0.07848,0.14809,-1.186949
2.2649999999999864,-0.067692,0.147867,-1.169563
2.267499999999984,-0.054242,0.143702,-1.155369
2.269999999999982,-0.038004,0.142642,-1.139778
2.2724999999999795,-0.027351,0.137471,-1.123463
2.2749999999999773,-0.0118,0.139337,-1.107203
2.277499999999975,0.002984,0.137682,-1.089457
2.2799999999999727,0.016413,0.135263,-1.070847
2.2824999999999704,0.034393,0.131739,-1.053393
2.284999999999968,0.041314,0.133679,-1.034694
2.287499999999966,0.056755,0.127023,-1.017589
2.289999999999964,0.072592,0.130775,-0.997533
2.292500000000018,0.087781,0.126655,-0.976847
2.295000000000016,0.101294,0.121252,-0.955627
2.2975000000000136,0.113615,0.122575,-0.938489
2.300000000000012,0.12705,0.121423,-0.919232
2.302500000000009,0.140093,0.118203,-0.894396
2.305000000000007,0.153353,0.119291,-0.874795
2.3075000000000045,0.160781,0.117113,-0.856556
2.3100000000000023,0.17289,0.11593,-0.835933
2.3125,0.179669,0.115041,-0.816025
2.3149999999999977,0.193324,0.113847,-0.794202
2.3174999999999955,0.20765,0.115312,-0.773241
2.319999999999993,0.210362,0.113111,-0.753491
2.322499999999991,0.219875,0.111746,-0.730737
2.3249999999999886,0.22561,0.11143,-0.706564
2.3274999999999864,0.231565,0.113804,-0.688833
2.329999999999984,0.238884,0.110243,-0.666203
2.332499999999982,0.243478,0.109752,-0.644298
2.3349999999999795,0.246909,0.110782,-0.620002
2.3374999999999773,0.252385,0.115911,-0.597531
2.339999999999975,0.252876,0.112896,-0.57082
2.3424999999999727,0.258275,0.114194,-0.546579
2.3449999999999704,0.259448,0.117115,-0.519833
2.347499999999968,0.263152,0.113264,-0.495549
2.349999999999966,0.261345,0.115962,-0.472613
2.352499999999964,0.258853,0.114407,-0.44679
2.355000000000018,0.258707,0.115136,-0.419588
2.357500000000016,0.257278,0.120307,-0.395595
2.3600000000000136,0.257098,0.119521,-0.368629
2.362500000000012,0.253148,0.113485,-0.346254
2.365000000000009,0.250383,0.114525,-0.321995
2.367500000000007,0.247044,0.115819,-0.293979
2.3700000000000045,0.242359,0.114705,-0.269257
2.3725000000000023,0.238285,0.114182,-0.24448
2.375,0.233763,0.112201,-0.218929
2.3774999999999977,0.227765,0.112892,-0.197774
2.3799999999999955,0.221545,0.109341,-0.167723
2.382499999999993,0.214783,0.11063,-0.147019
2.384999999999991,0.211415,0.110524,-0.122678
2.3874999999999886,0.203275,0.10602,-0.09644
2.3899999999999864,0.192394,0.104179,-0.070985
2.392499999999984,0.187837,0.101303,-0.043425
2.394999999999982,0.181808,0.094812,-0.017427
2.3974999999999795,0.169512,0.092859,0.008703
2.3999999999999773,0.163568,0.092334,0.035455
2.402499999999975,0.156165,0.096189,0.062484
2.4049999999999727,0.145236,0.084894,0.086496
2.4074999999999704,0.134408,0.079245,0.11439
2.409999999999968,0.124728,0.077575,0.139693
2.412499999999966,0.111678,0.074527,0.163165
2.414999999999964,0.105724,0.070975,0.192288
2.417500000000018,0.095325,0.072821,0.215835
2.420000000000016,0.080975,0.067169,0.240243
2.4225000000000136,0.071105,0.065831,0.264367
2.425000000000012,0.061952,0.064684,0.291588
2.427500000000009,0.050899,0.061452,0.312827
2.430000000000007,0.040957,0.057048,0.34085
2.4325000000000045,0.03114,0.056172,0.366335
2.4350000000000023,0.019992,0.051413,0.392544
2.4375,0.008614,0.042441,0.413276
2.4399999999999977,0.000309,0.044545,0.438433
2.4424999999999955,-0.012197,0.038401,0.461503
2.444999999999993,-0.019477,0.03975,0.486585
2.447499999999991,-0.028442,0.032299,0.50972
2.4499999999999886,-0.0333,0.030253,0.532616
2.4524999999999864,-0.044243,0.027267,0.554629
2.454999999999984,-0.05322,0.027581,0.577923
2.457499999999982,-0.063781,0.026187,0.602084
2.4599999999999795,-0.071849,0.028155,0.62043
2.4624999999999773,-0.077705,0.032405,0.643729
2.464999999999975,-0.085735,0.02959,0.66847
2.4674999999999727,-0.090343,0.0342,0.686511
2.4699999999999704,-0.098769,0.035097,0.710861
2.472499999999968,-0.103255,0.040483,0.730161
2.474999999999966,-0.114766,0.038158,0.754994
2.477499999999964,-0.113402,0.040504,0.77501
2.480000000000018,-0.12178,0.048333,0.796733
2.482500000000016,-0.12769,0.052648,0.816056
2.4850000000000136,-0.129201,0.051654,0.838501
2.487500000000012,-0.13337,0.054518,0.8567
2.490000000000009,-0.138728,0.053106,0.878621
2.492500000000007,-0.143361,0.053117,0.898572
2.4950000000000045,-0.143586,0.053705,0.919784
2.4975000000000023,-0.14832,0.05325,0.937767
2.5,-0.148565,0.050683,0.959883
2.5024999999999977,-0.150506,0.050227,0.980146
2.5049999999999955,-0.150092,0.045248,0.997553
2.507499999999993,-0.1507,0.042015,1.01863
2.509999999999991,-0.153266,0.039562,1.035419
2.5124999999999886,-0.149836,0.033339,1.05592
2.5149999999999864,-0.151834,0.02879,1.075166
2.517499999999984,-0.150529,0.025196,1.093576
2.519999999999982,-0.148001,0.020757,1.112243
2.5224999999999795,-0.148113,0.013221,1.135169
2.5249999999999773,-0.143088,0.009609,1.151384
2.527499999999975,-0.144254,-0.000627,1.171243
2.5299999999999727,-0.142232,-0.005592,1.191111
2.5324999999999704,-0.138524,-0.009538,1.209838
2.534999999999968,-0.136986,-0.00831,1.225289
2.537499999999966,-0.13313,-0.012831,1.245829
2.539999999999964,-0.132024,-0.016907,1.260854
2.542500000000018,-0.128116,-0.021751,1.278195
2.545000000000016,-0.126101,-0.022858,1.294359
2.5475000000000136,-0.120075,-0.023797,1.312579
2.550000000000012,-0.117582,-0.027381,1.331042
2.552500000000009,-0.116776,-0.028045,1.347372
2.555000000000007,-0.111605,-0.026833,1.361699
2.5575000000000045,-0.108813,-0.023523,1.380639
2.5600000000000023,-0.103375,-0.021337,1.394163
2.5625,-0.097416,-0.015962,1.407175
2.5649999999999977,-0.089896,-0.018896,1.421562
2.5674999999999955,-0.087673,-0.012483,1.433934
2.569999999999993,-0.08219,-0.007373,1.447344
2.572499999999991,-0.076522,-0.001219,1.461293
2.5749999999999886,-0.069967,-0.001399,1.47275
2.5774999999999864,-0.062966,0.002982,1.48599
2.579999999999984,-0.05894,0.00251,1.495546
2.582499999999982,-0.053154,0.008858,1.503845
2.5849999999999795,-0.043307,0.007895,1.515006
2.5874999999999773,-0.035316,0.016295,1.522336
2.589999999999975,-0.030331,0.01558,1.534109
2.5924999999999727,-0.026034,0.02043,1.540324
2.5949999999999704,-0.017364,0.021217,1.550885
2.597499999999968,-0.011231,0.022883,1.558838
2.599999999999966,-0.005636,0.025732,1.569125
2.602499999999964,0.002148,0.028101,1.579283
2.605000000000018,0.007986,0.028538,1.590142
2.607500000000016,0.0151,0.029411,1.59624
2.6100000000000136,0.021287,0.033236,1.602243
2.612500000000012,0.026155,0.035139,1.610421
2.615000000000009,0.031287,0.036069,1.615684
2.617500000000007,0.040468,0.04226,1.62519
2.6200000000000045,0.047838,0.042909,1.630727
2.6225000000000023,0.048152,0.048111,1.638127
2.625,0.05871,0.054913,1.643284
2.6274999999999977,0.060257,0.061002,1.649593
2.6299999999999955,0.066767,0.063879,1.655175
2.632499999999993,0.073811,0.069124,1.658981
2.634999999999991,0.076921,0.069331,1.661529
2.6374999999999886,0.080637,0.074547,1.670585
2.6399999999999864,0.093598,0.078916,1.671222
2.642499999999984,0.098374,0.083294,1.673384
2.644999999999982,0.102874,0.083789,1.676053
2.6474999999999795,0.110807,0.088693,1.677597
2.6499999999999773,0.119954,0.093167,1.67657
2.652499999999975,0.125111,0.09247,1.679129
2.6549999999999727,0.129085,0.096387,1.675433
2.6574999999999704,0.140236,0.100982,1.677868
2.659999999999968,0.147135,0.102889,1.676399
2.662499999999966,0.153547,0.106197,1.679032
2.664999999999964,0.157327,0.106116,1.674942
2.667500000000018,0.170926,0.107031,1.675739
2.670000000000016,0.172901,0.10398,1.679972
2.6725000000000136,0.179619,0.103249,1.676134
2.675000000000012,0.185653,0.100044,1.678405
2.677500000000009,0.191134,0.100149,1.677937
2.680000000000007,0.199307,0.096171,1.681212
2.6825000000000045,0.207412,0.090956,1.680036
2.6850000000000023,0.214378,0.0925,1.68254
2.6875,0.219027,0.092348,1.684163
2.6899999999999977,0.228603,0.092747,1.680489
2.6924999999999955,0.234301,0.093234,1.680968
2.694999999999993,0.236368,0.093269,1.675664
2.697499999999991,0.245393,0.091941,1.672967
2.6999999999999886,0.248937,0.09779,1.672788
2.7024999999999864,0.259807,0.099277,1.669625
2.704999999999984,0.261799,0.101697,1.66785
2.707499999999982,0.26784,0.108319,1.659823
2.7099999999999795,0.269566,0.107039,1.657014
2.7124999999999773,0.273716,0.114439,1.653807
2.714999999999975,0.278356,0.115704,1.649721
2.7174999999999727,0.282888,0.119644,1.644135
2.7199999999999704,0.288464,0.118562,1.640933
2.722499999999968,0.285299,0.122901,1.634524
2.724999999999966,0.28737,0.125604,1.631184
2.727499999999964,0.288756,0.128698,1.631161
2.730000000000018,0.294406,0.13062,1.623321
2.732500000000016,0.293053,0.130216,1.616387
2.7350000000000136,0.295388,0.134207,1.617352
2.737500000000012,0.29646,0.136665,1.610098
2.740000000000009,0.294163,0.138661,1.603382
2.742500000000007,0.296667,0.142672,1.593763
2.7450000000000045,0.301311,0.14059,1.592428
2.7475000000000023,0.297728,0.141055,1.585624
2.75,0.298176,0.146223,1.577685
2.7524999999999977,0.299003,0.141034,1.566543
2.7549999999999955,0.300176,0.147908,1.558939
2.757499999999993,0.298608,0.150154,1.547785
2.759999999999991,0.297255,0.147078,1.542266
2.7624999999999886,0.297166,0.143754,1.526308
2.7649999999999864,0.298628,0.144107,1.516827
2.767499999999984,0.304461,0.140136,1.507124
2.769999999999982,0.297447,0.140771,1.49727
2.7724999999999795,0.296235,0.140501,1.485463
2.7749999999999773,0.293092,0.137401,1.474872
2.777499999999975,0.292777,0.132731,1.464447
2.7799999999999727,0.293376,0.136548,1.448475
2.7824999999999704,0.29308,0.130139,1.435849
2.784999999999968,0.288961,0.12893,1.421136
2.787499999999966,0.288118,0.125308,1.41415
2.789999999999964,0.284616,0.125716,1.398459
2.792500000000018,0.28222,0.124069,1.38794
2.795000000000016,0.280581,0.12636,1.376501
2.7975000000000136,0.271744,0.124467,1.365808
2.800000000000012,0.269165,0.12224,1.352626
2.802500000000009,0.26639,0.123166,1.339088
2.805000000000007,0.260738,0.1262,1.321785
2.8075000000000045,0.259117,0.125285,1.309128
2.8100000000000023,0.25303,0.127363,1.292106
2.8125,0.250203,0.124622,1.276718
2.8149999999999977,0.242787,0.123135,1.255597
2.8174999999999955,0.239068,0.124326,1.239891
2.819999999999993,0.233341,0.125987,1.219482
2.822499999999991,0.225631,0.126509,1.202717
2.8249999999999886,0.216053,0.124968,1.185819
2.8274999999999864,0.209474,0.125104,1.170425
2.829999999999984,0.204583,0.122654,1.149869
2.832499999999982,0.200016,0.119687,1.12561
2.8349999999999795,0.192095,0.119696,1.108378
2.8374999999999773,0.184729,0.122597,1.085814
2.839999999999975,0.181418,0.119568,1.063901
2.8424999999999727,0.174347,0.121374,1.043117
2.8449999999999704,0.16085,0.118984,1.019087
2.847499999999968,0.154124,0.122454,0.99654
2.849999999999966,0.149434,0.12048,0.97095
2.852499999999964,0.142715,0.121317,0.946937
2.855000000000018,0.13498,0.122198,0.924022
2.857500000000016,0.123676,0.12353,0.901842
2.8600000000000136,0.117397,0.119578,0.876273
2.862500000000012,0.106805,0.119626,0.852481
2.865000000000009,0.10025,0.119748,0.828553
2.867500000000007,0.089615,0.120286,0.804328
2.8700000000000045,0.079518,0.121624,0.782151
2.8725000000000023,0.07126,0.122399,0.756706
2.875,0.060447,0.124929,0.73076
2.8774999999999977,0.049695,0.120839,0.707799
2.8799999999999955,0.04433,0.122676,0.681876
2.882499999999993,0.036068,0.12363,0.656626
2.884999999999991,0.024811,0.122712,0.629274
2.8874999999999886,0.014869,0.118511,0.604265
2.8899999999999864,0.007939,0.120101,0.579376
2.892499999999984,-0.004499,0.118992,0.554159
2.894999999999982,-0.014029,0.116568,0.528006
2.8974999999999795,-0.020508,0.112972,0.50082
2.8999999999999773,-0.032307,0.109565,0.472622
2.902499999999975,-0.040041,0.10482,0.443513
2.9049999999999727,-0.051005,0.104096,0.41961
2.9074999999999704,-0.05907,0.097566,0.390875
2.909999999999968,-0.066818,0.098594,0.36046
2.912499999999966,-0.081474,0.096329,0.339068
2.914999999999964,-0.092044,0.085043,0.308978
2.917500000000018,-0.096457,0.080178,0.282086
2.920000000000016,-0.10647,0.076767,0.254928
2.9225000000000136,-0.117837,0.069065,0.224396
2.925000000000012,-0.125039,0.066746,0.197586
2.927500000000009,-0.138012,0.059181,0.174039
2.930000000000007,-0.1463,0.054311,0.148747
2.9325000000000045,-0.156245,0.047887,0.117759
2.9350000000000023,-0.161226,0.046603,0.094003
2.9375,-0.171316,0.039505,0.067443
2.9399999999999977,-0.179769,0.034738,0.041863
2.9424999999999955,-0.190732,0.025437,0.015444
2.944999999999993,-0.2005,0.023758,-0.008616
2.947499999999991,-0.206329,0.019278,-0.034231
2.9499999999999886,-0.21238,0.011296,-0.061536
2.9524999999999864,-0.219564,0.004315,-0.089766
2.954999999999984,-0.224593,0.001428,-0.113837
2.957499999999982,-0.225648,-0.004517,-0.141829
2.9599999999999795,-0.234358,-0.010639,-0.162695
2.9624999999999773,-0.241502,-0.016597,-0.191134
2.964999999999975,-0.245009,-0.024427,-0.218256
2.9674999999999727,-0.248142,-0.032856,-0.244288
2.9699999999999704,-0.253958,-0.04155,-0.270419
2.972499999999968,-0.255753,-0.047532,-0.294974
2.974999999999966,-0.257705,-0.056012,-0.320111
2.977499999999964,-0.257969,-0.06409,-0.348343
2.980000000000018,-0.261293,-0.074779,-0.373408
2.982500000000016,-0.260307,-0.083891,-0.396429
2.9850000000000136,-0.267139,-0.090835,-0.422871
2.987500000000012,-0.264026,-0.099024,-0.446861
2.990000000000009,-0.265199,-0.113107,-0.471358
2.992500000000007,-0.265673,-0.119329,-0.494944
2.9950000000000045,-0.264803,-0.126192,-0.517494
2.9975000000000023,-0.26561,-0.13666,-0.5422
3.0,-0.264017,-0.143752,-0.566284
3.0024999999999977,-0.26367,-0.154728,-0.587553
3.0049999999999955,-0.264162,-0.164323,-0.610085
3.007499999999993,-0.262453,-0.171177,-0.63684
3.009999999999991,-0.259902,-0.178057,-0.658144
3.0124999999999886,-0.261068,-0.186519,-0.681734
3.0149999999999864,-0.260478,-0.188038,-0.701624
3.017499999999984,-0.251541,-0.198738,-0.724129
3.019999999999982,-0.249797,-0.206924,-0.747386
3.0224999999999795,-0.249247,-0.21566,-0.766631
3.0249999999999773,-0.244403,-0.223139,-0.785697
3.027499999999975,-0.239848,-0.230846,-0.809533
3.0299999999999727,-0.235827,-0.239141,-0.828004
3.0324999999999704,-0.234792,-0.242627,-0.849623
3.034999999999968,-0.231513,-0.25072,-0.871083
3.037499999999966,-0.219327,-0.258161,-0.887421
3.039999999999964,-0.21752,-0.268595,-0.909126
3.042500000000018,-0.213496,-0.269331,-0.928347
3.045000000000016,-0.208531,-0.276868,-0.94785
3.0475000000000136,-0.204212,-0.283924,-0.969115
3.050000000000012,-0.197151,-0.293231,-0.987031
3.052500000000009,-0.195725,-0.296031,-1.007755
3.055000000000007,-0.190319,-0.304663,-1.02457
3.0575000000000045,-0.18612,-0.310141,-1.044019
3.0600000000000023,-0.185312,-0.313352,-1.064784
3.0625,-0.1799,-0.318034,-1.081951
3.0649999999999977,-0.173998,-0.325531,-1.100192
3.0674999999999955,-0.171006,-0.326057,-1.12048
3.069999999999993,-0.17063,-0.331715,-1.135049
3.072499999999991,-0.165027,-0.326221,-1.15224
3.0749999999999886,-0.162838,-0.332982,-1.168094
3.0774999999999864,-0.157583,-0.334104,-1.182256
3.079999999999984,-0.151528,-0.335881,-1.203236
3.082499999999982,-0.151949,-0.336541,-1.220437
3.0849999999999795,-0.145909,-0.334317,-1.23532
3.0874999999999773,-0.142291,-0.33512,-1.249171
3.089999999999975,-0.141999,-0.331457,-1.265762
3.0924999999999727,-0.13532,-0.33536,-1.278777
3.0949999999999704,-0.135298,-0.336105,-1.297285
3.097499999999968,-0.12884,-0.334443,-1.30587
3.099999999999966,-0.125872,-0.334954,-1.317456
3.102499999999964,-0.127715,-0.334242,-1.330099
3.105000000000018,-0.123306,-0.337996,-1.340855
3.107500000000016,-0.120458,-0.338549,-1.352873
3.1100000000000136,-0.123307,-0.335047,-1.364974
3.112500000000012,-0.116237,-0.336905,-1.375834
3.115000000000009,-0.116214,-0.333706,-1.390669
3.117500000000007,-0.116627,-0.336233,-1.400826
3.1200000000000045,-0.114898,-0.337146,-1.409606
3.1225000000000023,-0.116047,-0.336461,-1.41973
3.125,-0.116213,-0.333983,-1.430384
3.1274999999999977,-0.113812,-0.331749,-1.44067
3.1299999999999955,-0.114292,-0.328,-1.452435
3.132499999999993,-0.113815,-0.330672,-1.458731
3.134999999999991,-0.112669,-0.328514,-1.466204
3.1374999999999886,-0.111353,-0.326917,-1.473118
3.1399999999999864,-0.114311,-0.322211,-1.481681
3.142499999999984,-0.114165,-0.319675,-1.489631
3.144999999999982,-0.115842,-0.319119,-1.495675
3.1474999999999795,-0.11659,-0.32109,-1.500935
3.1499999999999773,-0.116988,-0.31877,-1.501724
3.152499999999975,-0.117564,-0.314854,-1.509484
3.1549999999999727,-0.124326,-0.310368,-1.510727
3.1574999999999704,-0.120396,-0.307414,-1.515838
3.159999999999968,-0.120038,-0.305969,-1.523233
3.162499999999966,-0.122602,-0.30305,-1.527443
3.164999999999964,-0.122966,-0.299077,-1.531812
3.167500000000018,-0.119783,-0.297585,-1.536874
3.170000000000016,-0.12617,-0.293194,-1.541362
3.1725000000000136,-0.12437,-0.294003,-1.546572
3.175000000000012,-0.123806,-0.291428,-1.553379
3.177500000000009,-0.122874,-0.284532,-1.557812
3.180000000000007,-0.121665,-0.282434,-1.563839
3.1825000000000045,-0.121892,-0.280874,-1.570269
3.1850000000000023,-0.121437,-0.274776,-1.575887
3.1875,-0.121205,-0.2747,-1.580154
3.1899999999999977,-0.119162,-0.273235,-1.590485
3.1924999999999955,-0.118809,-0.273098,-1.59178
3.194999999999993,-0.118445,-0.269754,-1.599682
3.197499999999991,-0.115319,-0.268255,-1.604752
3.1999999999999886,-0.116587,-0.266431,-1.605743
3.2024999999999864,-0.113267,-0.264809,-1.610779
3.204999999999984,-0.113763,-0.265652,-1.611417
3.207499999999982,-0.115918,-0.258506,-1.614149
3.2099999999999795,-0.113094,-0.259519,-1.614959
3.2124999999999773,-0.11235,-0.258519,-1.618077
3.214999999999975,-0.109616,-0.250173,-1.618419
3.2174999999999727,-0.11422,-0.250751,-1.621203
3.2199999999999704,-0.108884,-0.247722,-1.621279
3.222499999999968,-0.108427,-0.24503,-1.626448
3.224999999999966,-0.108987,-0.237376,-1.625123
3.227499999999964,-0.110291,-0.233613,-1.628598
3.230000000000018,-0.107411,-0.227463,-1.633155
3.232500000000016,-0.104936,-0.221071,-1.633009
3.2350000000000136,-0.106856,-0.216784,-1.635225
3.237500000000012,-0.106178,-0.208432,-1.642067
3.240000000000009,-0.106435,-0.202663,-1.640092
3.242500000000007,-0.102572,-0.199218,-1.644432
3.2450000000000045,-0.10218,-0.193031,-1.643309
3.2475000000000023,-0.100471,-0.187078,-1.641668
3.25,-0.099841,-0.184007,-1.645469
3.2524999999999977,-0.099258,-0.17367,-1.645089
3.2549999999999955,-0.096418,-0.169206,-1.646489
3.257499999999993,-0.0939,-0.161764,-1.646988
3.259999999999991,-0.091183,-0.158666,-1.645602
3.2624999999999886,-0.087661,-0.156778,-1.64475
3.2649999999999864,-0.084631,-0.149137,-1.642026
3.267499999999984,-0.082393,-0.147081,-1.640056
3.269999999999982,-0.07437,-0.140849,-1.641063
3.2724999999999795,-0.074853,-0.136636,-1.638946
3.2749999999999773,-0.072108,-0.130327,-1.636606
3.277499999999975,-0.068343,-0.127314,-1.633455
3.2799999999999727,-0.05801,-0.125256,-1.632613
3.2824999999999704,-0.056766,-0.124523,-1.634529
3.284999999999968,-0.054582,-0.11726,-1.630349
3.287499999999966,-0.045601,-0.116614,-1.631985
3.289999999999964,-0.043298,-0.115819,-1.628275
3.292500000000018,-0.036095,-0.114325,-1.623691
3.295000000000016,-0.032482,-0.112073,-1.620306
3.2975000000000136,-0.028785,-0.114456,-1.617589
3.300000000000012,-0.026575,-0.108604,-1.612305
3.302500000000009,-0.026874,-0.112616,-1.602004
3.305000000000007,-0.021493,-0.113721,-1.598812
3.3075000000000045,-0.018759,-0.111263,-1.591719
3.3100000000000023,-0.017072,-0.110482,-1.583062
3.3125,-0.009722,-0.107618,-1.573692
3.3149999999999977,-0.012667,-0.10667,-1.56726
3.3174999999999955,-0.010014,-0.105099,-1.556329
3.319999999999993,-0.009099,-0.102705,-1.5455
3.322499999999991,-0.006537,-0.098386,-1.533877
3.3249999999999886,-0.0119,-0.097559,-1.522713
3.3274999999999864,-0.006273,-0.094834,-1.510436
3.329999999999984,-0.0037,-0.089152,-1.499667
3.332499999999982,-0.00605,-0.085351,-1.488821
3.3349999999999795,-0.003576,-0.085907,-1.476047
3.3374999999999773,-0.000925,-0.084014,-1.462675
3.339999999999975,-0.000975,-0.082538,-1.444034
3.3424999999999727,0.000527,-0.081888,-1.43264
3.3449999999999704,0.002066,-0.08076,-1.413035
3.347499999999968,0.006459,-0.079772,-1.400071
3.349999999999966,0.007726,-0.081505,-1.386178
3.352499999999964,0.010242,-0.080392,-1.367838
3.355000000000018,0.012753,-0.081231,-1.350247
3.357500000000016,0.014008,-0.080419,-1.332087
3.3600000000000136,0.016484,-0.082849,-1.314596
3.362500000000012,0.020198,-0.086643,-1.293739
3.365000000000009,0.019854,-0.088464,-1.274033
3.367500000000007,0.0232,-0.09004,-1.255011
3.3700000000000045,0.024859,-0.087422,-1.236581
3.3725000000000023,0.025318,-0.088111,-1.213971
3.375,0.026353,-0.08895,-1.192946
3.3774999999999977,0.025634,-0.092514,-1.165408
3.3799999999999955,0.026839,-0.091705,-1.142271
3.382499999999993,0.028399,-0.083302,-1.116732
3.384999999999991,0.028697,-0.087172,-1.089155
3.3874999999999886,0.033598,-0.090446,-1.060729
3.3899999999999864,0.031572,-0.085203,-1.034467
3.392499999999984,0.034203,-0.081164,-1.007305
3.394999999999982,0.032795,-0.084141,-0.975037
3.3974999999999795,0.033239,-0.082283,-0.942441
3.3999999999999773,0.033609,-0.08097,-0.911331
3.402499999999975,0.032548,-0.078061,-0.886843
3.4049999999999727,0.032333,-0.076047,-0.851673
3.4074999999999704,0.035489,-0.075832,-0.820708
3.409999999999968,0.033396,-0.071713,-0.788057
3.412499999999966,0.030039,-0.075099,-0.757311
3.414999999999964,0.031327,-0.071289,-0.723979
3.417500000000018,0.033043,-0.067556,-0.691965
3.420000000000016,0.035355,-0.06876,-0.661233
3.4225000000000136,0.034749,-0.068817,-0.625451
3.425000000000012,0.036586,-0.068739,-0.594109
3.427500000000009,0.034704,-0.070977,-0.56486
3.430000000000007,0.034825,-0.062694,-0.529444
3.4325000000000045,0.035904,-0.059862,-0.493102
3.4350000000000023,0.032973,-0.05492,-0.461474
3.4375,0.035221,-0.057638,-0.428627
3.4399999999999977,0.035471,-0.051416,-0.393659
3.4424999999999955,0.033776,-0.04537,-0.359508
3.444999999999993,0.033189,-0.044276,-0.326398
3.447499999999991,0.03399,-0.04207,-0.286444
3.4499999999999886,0.02839,-0.039555,-0.254321
3.4524999999999864,0.027963,-0.03292,-0.220421
3.454999999999984,0.030702,-0.030646,-0.184929
3.457499999999982,0.02648,-0.026245,-0.147836
3.4599999999999795,0.022703,-0.021523,-0.115879
3.4624999999999773,0.024299,-0.015154,-0.076099
3.464999999999975,0.024264,-0.012672,-0.042666
3.4674999999999727,0.018182,-0.007737,-0.008439
3.4699999999999704,0.01471,-0.005923,0.026422
3.472499999999968,0.010542,-0.004816,0.059842
3.474999999999966,0.014917,-0.000484,0.091989
3.477499999999964,0.016203,0.005013,0.123813
3.480000000000018,0.011917,0.006489,0.159077
3.482500000000016,0.009135,0.01137,0.190804
3.4850000000000136,0.00663,0.011236,0.219872
3.487500000000012,0.002464,0.016377,0.251944
3.490000000000009,0.004791,0.022248,0.282366
3.492500000000007,-0.001886,0.025854,0.312445
3.4950000000000045,-0.004415,0.029487,0.344213
3.4975000000000023,-0.005576,0.034193,0.370371
3.5,-0.004417,0.04283,0.398619
3.5024999999999977,-0.011165,0.04504,0.42826
3.5049999999999955,-0.010242,0.054612,0.455164
3.507499999999993,-0.013678,0.058939,0.480453
3.509999999999991,-0.013737,0.066646,0.508792
3.5124999999999886,-0.011702,0.069176,0.535219
3.5149999999999864,-0.016688,0.079142,0.564031
3.517499999999984,-0.018877,0.086539,0.590486
3.519999999999982,-0.019611,0.092017,0.61251
3.5224999999999795,-0.021054,0.101668,0.638823
3.5249999999999773,-0.01968,0.111384,0.665893
3.527499999999975,-0.025405,0.121778,0.691471
3.5299999999999727,-0.021839,0.125859,0.715154
3.5324999999999704,-0.025055,0.133664,0.737225
3.534999999999968,-0.028227,0.1382,0.760002
3.537499999999966,-0.026226,0.144909,0.784212
3.539999999999964,-0.030088,0.155684,0.808152
3.542500000000018,-0.028469,0.158782,0.829929
3.545000000000016,-0.032005,0.172573,0.851388
3.5475000000000136,-0.030123,0.179569,0.872506
3.550000000000012,-0.036874,0.185854,0.895541
3.552500000000009,-0.038895,0.193993,0.912721
3.555000000000007,-0.041018,0.201988,0.935761
3.5575000000000045,-0.041616,0.209094,0.958847
3.5600000000000023,-0.04137,0.213944,0.977356
3.5625,-0.042108,0.222885,0.995723
3.5649999999999977,-0.047964,0.233498,1.016444
3.5674999999999955,-0.048687,0.240251,1.034142
3.569999999999993,-0.050752,0.24746,1.051032
3.572499999999991,-0.050801,0.256088,1.073613
3.5749999999999886,-0.050029,0.258393,1.087057
3.5774999999999864,-0.053723,0.266691,1.110085
3.579999999999984,-0.0536,0.274354,1.124678
3.582499999999982,-0.058168,0.275954,1.142028
3.5849999999999795,-0.056392,0.278793,1.155579
3.5874999999999773,-0.055639,0.282119,1.172799
3.589999999999975,-0.060065,0.280764,1.187765
3.5924999999999727,-0.060982,0.283039,1.206331
3.5949999999999704,-0.059812,0.285111,1.220922
3.597499999999968,-0.058198,0.282648,1.235224
3.599999999999966,-0.060129,0.2842,1.248309
3.602499999999964,-0.059305,0.279407,1.26533
3.605000000000018,-0.058566,0.274813,1.279196
3.607500000000016,-0.06014,0.27288,1.290335
3.6100000000000136,-0.061651,0.268564,1.305467
3.6125000000000114,-0.05921,0.268675,1.319687
3.615000000000009,-0.065932,0.266449,1.333395
3.617500000000007,-0.063351,0.266392,1.343964
3.620000000000005,-0.066362,0.263467,1.357475
3.6225000000000014,-0.064369,0.263865,1.368393
3.625,-0.065985,0.259391,1.382077
3.6274999999999977,-0.067134,0.259819,1.394226
3.629999999999996,-0.07102,0.257791,1.406564
3.632499999999993,-0.070232,0.258852,1.41703
3.634999999999991,-0.070752,0.257478,1.428965
3.6374999999999886,-0.072932,0.255857,1.440014
3.6399999999999855,-0.068302,0.250863,1.447843
3.642499999999984,-0.071716,0.250291,1.459502
3.644999999999982,-0.069355,0.245886,1.468755
3.64749999999998,-0.069794,0.248055,1.474968
3.649999999999977,-0.07004,0.246293,1.480959
3.652499999999975,-0.066324,0.242033,1.489224
3.6549999999999727,-0.069401,0.242207,1.495142
3.6574999999999696,-0.066054,0.240638,1.500859
3.659999999999968,-0.061858,0.237177,1.503453
3.662499999999966,-0.063171,0.235238,1.510339
3.664999999999964,-0.059021,0.233222,1.515636
3.667500000000018,-0.060022,0.233687,1.517782
3.670000000000016,-0.055327,0.233386,1.525866
3.6725000000000136,-0.052479,0.22751,1.529543
3.6750000000000114,-0.049581,0.227945,1.536954
3.677500000000009,-0.048381,0.226738,1.545824
3.680000000000007,-0.043237,0.224867,1.551728
3.682500000000005,-0.03877,0.219108,1.556728
3.6850000000000014,-0.034471,0.220219,1.563627
3.6875,-0.031328,0.217534,1.570872
3.6899999999999977,-0.029476,0.214905,1.575522
3.692499999999996,-0.021371,0.211341,1.579552
3.694999999999993,-0.01611,0.208876,1.587692
3.697499999999991,-0.01083,0.205777,1.596287
3.6999999999999886,-0.003955,0.202628,1.597995
3.7024999999999855,-0.001031,0.200743,1.603015
3.704999999999984,0.005101,0.198894,1.60404
3.707499999999982,0.012032,0.193537,1.606523
3.70999999999998,0.018886,0.18896,1.608432
3.712499999999977,0.023785,0.186665,1.612887
3.714999999999975,0.031448,0.180828,1.610165
3.7174999999999727,0.038534,0.18025,1.61317
3.7199999999999696,0.044159,0.171111,1.610901
3.722499999999968,0.047434,0.169868,1.613179
3.724999999999966,0.053028,0.164553,1.615455
3.727499999999964,0.056698,0.161631,1.613468
3.730000000000018,0.064649,0.159972,1.615295
3.732500000000016,0.066624,0.151148,1.620037
3.7350000000000136,0.068157,0.15047,1.62039
3.7375000000000114,0.074885,0.146698,1.622725
3.740000000000009,0.077542,0.136881,1.623139
3.742500000000007,0.080734,0.134976,1.621302
3.745000000000005,0.084806,0.130797,1.62672
3.7475000000000014,0.08674,0.130177,1.625367
3.75,0.091145,0.126063,1.622714
3.7524999999999977,0.098343,0.122681,1.623392
3.754999999999996,0.103825,0.117912,1.623238
3.757499999999993,0.101864,0.119012,1.622475
3.759999999999991,0.109304,0.11195,1.618328
3.7624999999999886,0.115467,0.107826,1.61604
3.7649999999999855,0.124884,0.108903,1.613498
3.767499999999984,0.125697,0.104616,1.609122
3.769999999999982,0.133819,0.098277,1.602902
3.77249999999998,0.144533,0.096802,1.599256
3.774999999999977,0.146956,0.094361,1.592149
3.777499999999975,0.154612,0.09125,1.583304
3.7799999999999727,0.161689,0.08967,1.57966
3.7824999999999696,0.167928,0.09212,1.576045
3.784999999999968,0.171981,0.08914,1.565902
3.787499999999966,0.179144,0.089484,1.560714
3.789999999999964,0.18434,0.083385,1.55374
3.792500000000018,0.185343,0.091105,1.548428
3.795000000000016,0.189046,0.088071,1.540303
3.7975000000000136,0.194406,0.086349,1.535711
3.8000000000000114,0.195042,0.083118,1.529522
3.802500000000009,0.201249,0.083516,1.524793
3.805000000000007,0.200927,0.084869,1.521746
3.807500000000005,0.206802,0.082811,1.5169
3.8100000000000014,0.205753,0.079403,1.511321
3.8125,0.207321,0.071151,1.501618
3.8149999999999977,0.210201,0.072133,1.497623
3.817499999999996,0.212794,0.068594,1.490702
3.819999999999993,0.213731,0.067131,1.484373
3.822499999999991,0.21557,0.064764,1.477458
3.8249999999999886,0.217917,0.063511,1.468407
3.8274999999999855,0.219465,0.064061,1.456074
3.829999999999984,0.220072,0.058051,1.448551
3.832499999999982,0.22359,0.061359,1.434943
3.83499999999998,0.229409,0.059056,1.429652
3.837499999999977,0.229564,0.057497,1.41774
3.839999999999975,0.229576,0.051365,1.407924
3.8424999999999727,0.23059,0.052925,1.398253
3.8449999999999696,0.236822,0.054117,1.385574
3.847499999999968,0.238311,0.051887,1.374662
3.849999999999966,0.24137,0.049881,1.363152
3.852499999999964,0.246167,0.0485,1.352148
3.855000000000018,0.249273,0.046795,1.336598
3.857500000000016,0.249518,0.045005,1.322804
3.8600000000000136,0.254878,0.044636,1.311548
3.8625000000000114,0.253501,0.045098,1.295785
3.865000000000009,0.258269,0.046585,1.275924
3.867500000000007,0.259056,0.046755,1.261265
3.870000000000005,0.259639,0.047701,1.248638
3.8725000000000014,0.263477,0.052173,1.233477
3.875,0.260972,0.049157,1.218366
3.8774999999999977,0.261698,0.051417,1.202129
3.879999999999996,0.261331,0.054749,1.187196
3.882499999999993,0.257095,0.059366,1.173366
3.884999999999991,0.256214,0.058258,1.156027
3.8874999999999886,0.254678,0.060489,1.138922
3.8899999999999855,0.251073,0.065588,1.122136
3.892499999999984,0.250021,0.065305,1.098086
3.894999999999982,0.248066,0.069562,1.079279
3.89749999999998,0.249206,0.070938,1.058511
3.899999999999977,0.24725,0.072772,1.036398
3.902499999999975,0.246681,0.077976,1.014076
3.9049999999999727,0.241713,0.080027,0.989261
3.9074999999999696,0.243624,0.082544,0.966311
3.909999999999968,0.24075,0.081671,0.941871
3.912499999999966,0.237087,0.085536,0.915831
3.914999999999964,0.233957,0.091467,0.889795
3.917500000000018,0.22875,0.093287,0.863894
3.920000000000016,0.231088,0.098801,0.837963
3.9225000000000136,0.223663,0.10213,0.813384
3.9250000000000114,0.22425,0.104386,0.786143
3.927500000000009,0.219404,0.107666,0.761061
3.930000000000007,0.212551,0.111867,0.737659
3.932500000000005,0.205838,0.111642,0.712981
3.9350000000000014,0.203268,0.117312,0.684289
3.9375,0.198086,0.117309,0.659248
3.9399999999999977,0.195744,0.117486,0.632424
3.942499999999996,0.186128,0.121937,0.613123
3.944999999999993,0.180165,0.122269,0.583052
3.947499999999991,0.173523,0.124671,0.557893
3.9499999999999886,0.167445,0.127555,0.533678
3.9524999999999855,0.155859,0.125238,0.502519
3.954999999999984,0.149148,0.131223,0.478516
3.957499999999982,0.139128,0.12923,0.450826
3.95999999999998,0.129841,0.132173,0.425167
3.962499999999977,0.120804,0.134283,0.394002
3.964999999999975,0.11184,0.133408,0.364589
3.9674999999999727,0.099618,0.132868,0.335463
3.9699999999999696,0.087859,0.133648,0.305059
3.972499999999968,0.075639,0.130083,0.276641
3.974999999999966,0.068521,0.131994,0.248779
3.977499999999964,0.056017,0.130827,0.218459
3.980000000000018,0.044981,0.13181,0.186697
3.982500000000016,0.031998,0.124823,0.156977
3.9850000000000136,0.022847,0.127604,0.127283
3.9875000000000114,0.010847,0.12332,0.100926
3.990000000000009,-0.004205,0.124078,0.067259
3.992500000000007,-0.01654,0.122618,0.040438
3.995000000000005,-0.033121,0.120503,0.01296
3.9975000000000014,-0.047025,0.119283,-0.01757
4.0,-0.057514,0.116511,-0.044285
4.002499999999998,-0.070405,0.112277,-0.074403
4.004999999999996,-0.086392,0.111004,-0.105101
4.007499999999993,-0.100014,0.114178,-0.135106
4.009999999999991,-0.111385,0.112412,-0.163704
4.012499999999989,-0.125946,0.111397,-0.192875
4.014999999999986,-0.139022,0.106066,-0.221118
4.017499999999984,-0.153734,0.104844,-0.251138
4.019999999999982,-0.162452,0.104643,-0.278126
4.02249999999998,-0.17651,0.100612,-0.308898
4.024999999999977,-0.189236,0.097246,-0.3346
4.027499999999975,-0.197402,0.097621,-0.365587
4.029999999999973,-0.208987,0.093626,-0.390404
4.03249999999997,-0.220527,0.092757,-0.419082
4.034999999999968,-0.227779,0.089575,-0.444248
4.037499999999966,-0.237036,0.082389,-0.475179
4.039999999999964,-0.247683,0.081532,-0.501403
4.042500000000018,-0.258142,0.077591,-0.525107
4.045000000000016,-0.265621,0.067713,-0.55335
4.047500000000014,-0.272517,0.059926,-0.576161
4.050000000000011,-0.280841,0.059014,-0.60405
4.052500000000009,-0.285101,0.049051,-0.629267
4.055000000000007,-0.292902,0.042907,-0.650571
4.0575000000000045,-0.299011,0.03159,-0.678282
4.060000000000002,-0.30207,0.024024,-0.703904
4.0625,-0.30811,0.015681,-0.728972
4.064999999999998,-0.310239,0.010883,-0.754619
4.067499999999996,-0.317834,-0.006506,-0.777596
4.069999999999993,-0.32334,-0.014092,-0.80169
4.072499999999991,-0.329724,-0.021866,-0.830235
4.074999999999989,-0.332156,-0.030456,-0.850435
4.077499999999986,-0.337735,-0.041591,-0.87373
4.079999999999984,-0.340688,-0.049146,-0.896093
4.082499999999982,-0.344651,-0.063993,-0.921384
4.08499999999998,-0.34703,-0.073777,-0.945002
4.087499999999977,-0.346591,-0.080216,-0.969106
4.089999999999975,-0.351912,-0.092354,-0.990169
4.092499999999973,-0.357086,-0.103317,-1.014507
4.09499999999997,-0.356899,-0.108387,-1.037312
4.097499999999968,-0.35677,-0.119306,-1.057598
4.099999999999966,-0.360634,-0.127548,-1.076933
4.102499999999964,-0.359303,-0.14126,-1.098746
4.105000000000018,-0.358756,-0.148548,-1.120586
4.107500000000016,-0.353365,-0.159766,-1.14138
4.110000000000014,-0.355974,-0.165653,-1.162568
4.112500000000011,-0.356001,-0.177415,-1.183363
4.115000000000009,-0.353846,-0.18487,-1.206275
4.117500000000007,-0.351444,-0.192957,-1.223414
4.1200000000000045,-0.346762,-0.203677,-1.242209
4.122500000000002,-0.344701,-0.216828,-1.263615
4.125,-0.342517,-0.222738,-1.282186
4.127499999999998,-0.337289,-0.233714,-1.298123
4.129999999999996,-0.334191,-0.244883,-1.320872
4.132499999999993,-0.328675,-0.255981,-1.334337
4.134999999999991,-0.325352,-0.263634,-1.352227
4.137499999999989,-0.316401,-0.274012,-1.371103
4.139999999999986,-0.311572,-0.280383,-1.384199
4.142499999999984,-0.306857,-0.292506,-1.408749
4.144999999999982,-0.300996,-0.298643,-1.422875
4.14749999999998,-0.295524,-0.304255,-1.438103
4.149999999999977,-0.286056,-0.312627,-1.450438
4.152499999999975,-0.279202,-0.316802,-1.468862
4.154999999999973,-0.274554,-0.32229,-1.482193
4.15749999999997,-0.267229,-0.328474,-1.497247
4.159999999999968,-0.2591,-0.333512,-1.512609
4.162499999999966,-0.246386,-0.343053,-1.529206
4.164999999999964,-0.241468,-0.350152,-1.541368
4.167500000000018,-0.232564,-0.350864,-1.555171
4.170000000000016,-0.22469,-0.35757,-1.570449
4.172500000000014,-0.213619,-0.36249,-1.587131
4.175000000000011,-0.207506,-0.368867,-1.601034
4.177500000000009,-0.196622,-0.370945,-1.612609
4.180000000000007,-0.185883,-0.37794,-1.623003
4.1825000000000045,-0.177145,-0.384982,-1.634483
4.185000000000002,-0.169663,-0.388977,-1.646028
4.1875,-0.158948,-0.391755,-1.655701
4.189999999999998,-0.148614,-0.394406,-1.666704
4.192499999999996,-0.143205,-0.400685,-1.679785
4.194999999999993,-0.133781,-0.402132,-1.685431
4.197499999999991,-0.126113,-0.407331,-1.693046
4.199999999999989,-0.121202,-0.411725,-1.698953
4.202499999999986,-0.111145,-0.414141,-1.704296
4.204999999999984,-0.104839,-0.414431,-1.713726
4.207499999999982,-0.094941,-0.41679,-1.715079
4.20999999999998,-0.087753,-0.424154,-1.722582
4.212499999999977,-0.081752,-0.421523,-1.726682
4.214999999999975,-0.068793,-0.419963,-1.731421
4.217499999999973,-0.063512,-0.421237,-1.733756
4.21999999999997,-0.058395,-0.426656,-1.738957
4.222499999999968,-0.051844,-0.425874,-1.742369
4.224999999999966,-0.044052,-0.42608,-1.746573
4.227499999999964,-0.037125,-0.425236,-1.75014
4.230000000000018,-0.027922,-0.425001,-1.756504
4.232500000000016,-0.021257,-0.423615,-1.760301
4.235000000000014,-0.016472,-0.426251,-1.764494
4.237500000000011,-0.009853,-0.425633,-1.768154
4.240000000000009,0.000846,-0.422173,-1.770459
4.242500000000007,0.005016,-0.419985,-1.771027
4.2450000000000045,0.007946,-0.417094,-1.776505
4.247500000000002,0.014896,-0.414078,-1.776959
4.25,0.020181,-0.41395,-1.777299
4.252499999999998,0.027343,-0.407204,-1.777384
4.254999999999996,0.029305,-0.404278,-1.781517
4.257499999999993,0.034475,-0.394257,-1.780139
4.259999999999991,0.041149,-0.392495,-1.779941
4.262499999999989,0.042646,-0.385578,-1.781608
4.264999999999986,0.051519,-0.381177,-1.778612
4.267499999999984,0.055019,-0.373564,-1.77654
4.269999999999982,0.058248,-0.366615,-1.77256
4.27249999999998,0.062748,-0.360659,-1.771757
4.274999999999977,0.063369,-0.354301,-1.768014
4.277499999999975,0.06875,-0.346782,-1.761772
4.279999999999973,0.075246,-0.34159,-1.757216
4.28249999999997,0.073897,-0.334589,-1.75176
4.284999999999968,0.082558,-0.323695,-1.743941
4.287499999999966,0.085513,-0.320339,-1.738961
4.289999999999964,0.086207,-0.314209,-1.735499
4.292500000000018,0.084869,-0.310724,-1.732226
4.295000000000016,0.091077,-0.303197,-1.721118
4.297500000000014,0.092795,-0.290989,-1.714814
4.300000000000011,0.093087,-0.287469,-1.706178
4.302500000000009,0.092373,-0.273617,-1.69549
4.305000000000007,0.0958,-0.271805,-1.689714
4.3075000000000045,0.098395,-0.258517,-1.68243
4.310000000000002,0.093509,-0.256059,-1.670958
4.3125,0.092862,-0.24651,-1.662719
4.314999999999998,0.094367,-0.231305,-1.650566
4.317499999999996,0.097139,-0.220488,-1.637004
4.319999999999993,0.09659,-0.211136,-1.627934
4.322499999999991,0.095224,-0.199746,-1.61481
4.324999999999989,0.091686,-0.191307,-1.605297
4.327499999999986,0.092676,-0.175592,-1.592533
4.329999999999984,0.088955,-0.164636,-1.579125
4.332499999999982,0.092036,-0.151007,-1.569145
4.33499999999998,0.090354,-0.139515,-1.555137
4.337499999999977,0.087949,-0.124808,-1.539038
4.339999999999975,0.0868,-0.113696,-1.523223
4.342499999999973,0.084015,-0.102338,-1.510295
4.34499999999997,0.080598,-0.090827,-1.493897
4.347499999999968,0.07965,-0.078955,-1.47885
4.349999999999966,0.078463,-0.065231,-1.458537
4.352499999999964,0.075192,-0.051865,-1.440536
4.355000000000018,0.074176,-0.045708,-1.422309
4.357500000000016,0.073136,-0.030524,-1.404507
4.360000000000014,0.068649,-0.019945,-1.383392
4.362500000000011,0.070799,-0.009052,-1.364825
4.365000000000009,0.069089,-0.002663,-1.33808
4.367500000000007,0.064037,0.009566,-1.31874
4.3700000000000045,0.065536,0.023106,-1.295063
4.372500000000002,0.066403,0.031988,-1.272074
4.375,0.065512,0.04103,-1.247091
4.377499999999998,0.063417,0.047847,-1.221838
4.379999999999996,0.064798,0.057036,-1.197882
4.382499999999993,0.064542,0.066865,-1.176359
4.384999999999991,0.066733,0.069264,-1.154483
4.387499999999989,0.068837,0.074857,-1.127607
4.389999999999986,0.068267,0.086691,-1.101874
4.392499999999984,0.066904,0.091224,-1.07551
4.394999999999982,0.066891,0.09995,-1.049275
4.39749999999998,0.067625,0.101545,-1.024513
4.399999999999977,0.066834,0.108314,-1.001703
4.402499999999975,0.065004,0.116264,-0.974092
4.404999999999973,0.062317,0.121594,-0.945151
4.40749999999997,0.06262,0.12996,-0.916623
4.409999999999968,0.066035,0.137714,-0.889446
4.412499999999966,0.065363,0.140745,-0.862898
4.414999999999964,0.065018,0.145682,-0.834124
4.417500000000018,0.065135,0.148828,-0.800653
4.420000000000016,0.063454,0.155286,-0.777562
4.422500000000014,0.064335,0.162894,-0.743932
4.425000000000011,0.064132,0.162146,-0.712727
4.427500000000009,0.066777,0.168697,-0.682354
4.430000000000007,0.061394,0.172295,-0.65174
4.4325000000000045,0.060045,0.174525,-0.621732
4.435000000000002,0.063366,0.178546,-0.587276
4.4375,0.060963,0.186238,-0.557225
4.439999999999998,0.061343,0.188003,-0.524196
4.442499999999996,0.063772,0.191838,-0.495869
4.444999999999993,0.058576,0.201421,-0.459054
4.447499999999991,0.061009,0.2037,-0.425765
4.449999999999989,0.053968,0.209094,-0.395884
4.452499999999986,0.052478,0.21392,-0.361958
4.454999999999984,0.054444,0.216629,-0.329801
4.457499999999982,0.053307,0.221207,-0.29524
4.45999999999998,0.052878,0.226099,-0.269924
4.462499999999977,0.051723,0.230325,-0.23199
4.464999999999975,0.047009,0.227638,-0.199264
4.467499999999973,0.047679,0.231297,-0.163938
4.46999999999997,0.044226,0.238407,-0.132732
4.472499999999968,0.043031,0.237466,-0.102158
4.474999999999966,0.039732,0.242545,-0.064643
4.477499999999964,0.038073,0.241121,-0.035585
4.480000000000018,0.037006,0.242075,-0.003256
4.482500000000016,0.037269,0.244302,0.032582
4.485000000000014,0.037787,0.247424,0.062086
4.487500000000011,0.035463,0.246624,0.094593
4.490000000000009,0.035954,0.247573,0.125635
4.492500000000007,0.035419,0.24808,0.1567
4.4950000000000045,0.034598,0.246597,0.191487
4.497500000000002,0.03655,0.249184,0.219809
4.5,0.032582,0.250331,0.248734
4.502499999999998,0.03394,0.251379,0.282682
4.504999999999996,0.034019,0.247396,0.311052
4.507499999999993,0.033007,0.246304,0.344113
4.509999999999991,0.030897,0.245173,0.371959
4.512499999999989,0.0318,0.243209,0.401311
4.514999999999986,0.028818,0.243013,0.430942
4.517499999999984,0.028079,0.241988,0.455984
4.519999999999982,0.030424,0.238725,0.48391
4.52249999999998,0.02799,0.239449,0.512112
4.524999999999977,0.023093,0.236361,0.544565
4.527499999999975,0.022032,0.232049,0.570455
4.529999999999973,0.019705,0.231489,0.593767
4.53249999999997,0.019238,0.232492,0.617375
4.534999999999968,0.018994,0.230172,0.647319
4.537499999999966,0.013401,0.230447,0.672748
4.539999999999964,0.01475,0.232358,0.694
4.542500000000018,0.012235,0.231465,0.719508
4.545000000000016,0.009241,0.232684,0.745533
4.547500000000014,0.008351,0.231979,0.768107
4.550000000000011,0.003637,0.234645,0.788213
4.552500000000009,0.003258,0.234354,0.815628
4.555000000000007,-0.000806,0.239041,0.834207
4.5575000000000045,-0.00442,0.245591,0.853086
4.560000000000002,-0.004846,0.24031,0.87727
4.5625,-0.006811,0.246019,0.896397
4.564999999999998,-0.008412,0.2487,0.91622
4.567499999999996,-0.012642,0.250479,0.934316
4.569999999999993,-0.010218,0.252644,0.951303
4.572499999999991,-0.01554,0.250385,0.970189
4.574999999999989,-0.016424,0.251558,0.992533
4.577499999999986,-0.01945,0.2538,1.006959
4.579999999999984,-0.018324,0.252015,1.023133
4.582499999999982,-0.021219,0.254191,1.042622
4.58499999999998,-0.02234,0.254906,1.055912
4.587499999999977,-0.024372,0.252842,1.070033
4.589999999999975,-0.024784,0.24856,1.086528
4.592499999999973,-0.02486,0.249081,1.103542
4.59499999999997,-0.026895,0.250486,1.118645
4.597499999999968,-0.028372,0.252057,1.132819
4.599999999999966,-0.028937,0.253657,1.149752
4.602499999999964,-0.030327,0.248536,1.161578
4.605000000000018,-0.030144,0.250518,1.177938
4.607500000000016,-0.033596,0.251427,1.190854
4.610000000000014,-0.035037,0.254076,1.206039
4.612500000000011,-0.033844,0.251228,1.221005
4.615000000000009,-0.032929,0.254295,1.237726
4.617500000000007,-0.03434,0.25269,1.249918
4.6200000000000045,-0.037044,0.256967,1.261753
4.622500000000002,-0.037515,0.253352,1.272741
4.625,-0.035073,0.256213,1.289017
4.627499999999998,-0.035568,0.255061,1.299596
4.629999999999996,-0.033839,0.252558,1.313619
4.632499999999993,-0.032277,0.25514,1.32727
4.634999999999991,-0.034171,0.254204,1.339582
4.637499999999989,-0.03137,0.251135,1.349924
4.639999999999986,-0.03081,0.252058,1.360276
4.642499999999984,-0.027813,0.251999,1.376064
4.644999999999982,-0.026155,0.252319,1.389807
4.64749999999998,-0.02441,0.246991,1.400128
4.649999999999977,-0.020579,0.243277,1.415363
4.652499999999975,-0.014272,0.246181,1.428358
4.654999999999973,-0.015859,0.245547,1.439789
4.65749999999997,-0.011413,0.241753,1.454865
4.659999999999968,-0.009891,0.236788,1.467908
4.662499999999966,-0.00705,0.237256,1.476655
4.664999999999964,-0.002648,0.236891,1.487313
4.667500000000018,-0.002113,0.236298,1.498948
4.670000000000016,0.004493,0.232089,1.509628
4.672500000000014,0.009007,0.232368,1.520524
4.675000000000011,0.010102,0.235678,1.527871
4.677500000000009,0.014076,0.235,1.536218
4.680000000000007,0.016177,0.235338,1.543421
4.6825000000000045,0.022753,0.233358,1.552138
4.685000000000002,0.022116,0.235025,1.56243
4.6875,0.024308,0.23725,1.57232
4.689999999999998,0.026038,0.238193,1.581022
4.692499999999996,0.030632,0.240804,1.59036
4.694999999999993,0.030167,0.239089,1.599898
4.697499999999991,0.036671,0.242356,1.606414
4.699999999999989,0.040006,0.242721,1.614021
4.702499999999986,0.043977,0.242927,1.627204
4.704999999999984,0.044168,0.242906,1.635637
4.707499999999982,0.050629,0.243623,1.647468
4.70999999999998,0.054362,0.239917,1.657904
4.712499999999977,0.059893,0.243343,1.668041
4.714999999999975,0.060677,0.242651,1.677077
4.717499999999973,0.065529,0.242191,1.685115
4.71999999999997,0.067093,0.246289,1.695446
4.722499999999968,0.073645,0.243197,1.704042
4.724999999999966,0.079396,0.246135,1.713658
4.727499999999964,0.081534,0.246401,1.718611
4.730000000000018,0.086298,0.249479,1.726004
4.732500000000016,0.089818,0.251564,1.733447
4.735000000000014,0.09433,0.251634,1.736153
4.737500000000011,0.0981,0.255565,1.738744
4.740000000000009,0.10097,0.256623,1.741344
4.742500000000007,0.106015,0.261998,1.743352
4.7450000000000045,0.10849,0.265003,1.746457
4.747500000000002,0.114051,0.265425,1.746086
4.75,0.117191,0.267185,1.746819
4.752499999999998,0.117947,0.27289,1.746657
4.754999999999996,0.128731,0.275921,1.748494
4.757499999999993,0.131508,0.272817,1.747034
4.759999999999991,0.130539,0.276504,1.751209
4.762499999999989,0.134733,0.273786,1.749729
4.764999999999986,0.13982,0.27174,1.747598
4.767499999999984,0.142374,0.274346,1.750079
4.769999999999982,0.15057,0.269618,1.747591
4.77249999999998,0.150976,0.268727,1.743761
4.774999999999977,0.151623,0.267143,1.739787
4.777499999999975,0.157451,0.268763,1.742039
4.779999999999973,0.161598,0.262789,1.735184
4.78249999999997,0.1604,0.264139,1.733711
4.784999999999968,0.16196,0.258748,1.728479
4.787499999999966,0.168773,0.260335,1.724767
4.789999999999964,0.16705,0.255835,1.724499
4.792500000000018,0.170367,0.257012,1.720966
4.795000000000016,0.17545,0.255118,1.717689
4.797500000000014,0.17382,0.25416,1.711256
4.800000000000011,0.175878,0.252583,1.708963
4.802500000000009,0.177654,0.252757,1.703485
4.805000000000007,0.176988,0.250606,1.698261
4.8075000000000045,0.179159,0.252178,1.692144
4.810000000000002,0.181554,0.252775,1.682778
4.8125,0.180904,0.246696,1.677675
4.814999999999998,0.182877,0.246649,1.667606
4.817499999999996,0.182498,0.241751,1.660011
4.819999999999993,0.182756,0.24088,1.649471
4.822499999999991,0.184407,0.239603,1.635963
4.824999999999989,0.187472,0.232692,1.621837
4.827499999999986,0.183051,0.232767,1.606711
4.829999999999984,0.183907,0.230102,1.591532
4.832499999999982,0.186832,0.226603,1.576041
4.83499999999998,0.18938,0.219425,1.560024
4.837499999999977,0.185565,0.215369,1.545531
4.839999999999975,0.18679,0.212083,1.530421
4.842499999999973,0.182391,0.21031,1.509734
4.84499999999997,0.183807,0.205843,1.493871
4.847499999999968,0.181098,0.199849,1.479072
4.849999999999966,0.178944,0.196771,1.455161
4.852499999999964,0.177162,0.195857,1.432566
4.855000000000018,0.178919,0.195693,1.413627
4.857500000000016,0.174483,0.189083,1.393506
4.860000000000014,0.172972,0.187329,1.371869
4.862500000000011,0.167402,0.187754,1.351494
4.865000000000009,0.165629,0.187347,1.324582
4.867500000000007,0.163715,0.185952,1.304741
4.8700000000000045,0.155274,0.184957,1.279037
4.872500000000002,0.151905,0.182354,1.258896
4.875,0.147089,0.181801,1.235544
4.877499999999998,0.145491,0.178244,1.210169
4.879999999999996,0.135718,0.171841,1.187186
4.882499999999993,0.128775,0.169814,1.159142
4.884999999999991,0.123183,0.163739,1.133255
4.887499999999989,0.117222,0.162903,1.104819
4.889999999999986,0.111681,0.159908,1.080241
4.892499999999984,0.101971,0.148352,1.052893
4.894999999999982,0.096678,0.145788,1.02296
4.89749999999998,0.092364,0.135825,0.99518
4.899999999999977,0.086289,0.133266,0.963014
4.902499999999975,0.078759,0.124531,0.932531
4.904999999999973,0.072721,0.119118,0.898688
4.90749999999997,0.067591,0.113412,0.866436
4.909999999999968,0.062948,0.102662,0.829276
4.912499999999966,0.050933,0.099852,0.797045
4.914999999999964,0.0447,0.091726,0.762872
4.917500000000018,0.040201,0.084571,0.725753
4.920000000000016,0.032531,0.076588,0.690941
4.922500000000014,0.026781,0.072136,0.649559
4.925000000000011,0.020143,0.067157,0.615426
4.927500000000009,0.012846,0.059042,0.574613
4.930000000000007,0.003622,0.052208,0.54001
4.9325000000000045,-0.006011,0.048105,0.502382
4.935000000000002,-0.011046,0.042347,0.461359
4.9375,-0.018384,0.035671,0.425487
4.939999999999998,-0.026688,0.028142,0.389162
4.942499999999996,-0.032856,0.021564,0.352185
4.944999999999993,-0.041322,0.013802,0.314305
4.947499999999991,-0.052123,0.009286,0.275566
4.949999999999989,-0.059563,0.003862,0.241513
4.952499999999986,-0.068675,-0.004983,0.203193
4.954999999999984,-0.078772,-0.012404,0.167652
4.957499999999982,-0.086917,-0.021043,0.131264
4.95999999999998,-0.093299,-0.024176,0.093225
4.962499999999977,-0.10611,-0.032115,0.058667
4.964999999999975,-0.113992,-0.039454,0.020973
4.967499999999973,-0.119443,-0.048438,-0.012681
4.96999999999997,-0.129768,-0.056064,-0.048615
4.972499999999968,-0.145578,-0.061707,-0.083902
4.974999999999966,-0.151746,-0.072981,-0.119862
4.977499999999964,-0.157222,-0.077212,-0.151195
4.980000000000018,-0.169505,-0.087371,-0.188625
4.982500000000016,-0.178111,-0.093065,-0.226577
4.985000000000014,-0.188372,-0.097781,-0.263348
4.987500000000011,-0.194189,-0.104009,-0.298546
4.990000000000009,-0.204143,-0.104187,-0.334486
4.992500000000007,-0.215304,-0.108267,-0.36739
4.9950000000000045,-0.223887,-0.11678,-0.401597
4.997500000000002,-0.231485,-0.121336,-0.433596
5.0,-0.242326,-0.122207,-0.469044
5.002499999999998,-0.249492,-0.128393,-0.500681
5.004999999999996,-0.256991,-0.134288,-0.532533
5.007499999999993,-0.268772,-0.138877,-0.560898
5.009999999999991,-0.279121,-0.144722,-0.589575
5.012499999999989,-0.284129,-0.148943,-0.62069
5.014999999999986,-0.29251,-0.152482,-0.649309
5.017499999999984,-0.29707,-0.163685,-0.679433
5.019999999999982,-0.305824,-0.168332,-0.708725
5.02249999999998,-0.315151,-0.172839,-0.733437
5.024999999999977,-0.322409,-0.178938,-0.759366
5.027499999999975,-0.325364,-0.184411,-0.787199
5.029999999999973,-0.333706,-0.189915,-0.810597
5.03249999999997,-0.340764,-0.194703,-0.837307
5.034999999999968,-0.343628,-0.20247,-0.864002
5.037499999999966,-0.347743,-0.206751,-0.888781
5.039999999999964,-0.354734,-0.2123,-0.911905
5.042500000000018,-0.359027,-0.222108,-0.936045
5.045000000000016,-0.366138,-0.226837,-0.953535
5.047500000000014,-0.368321,-0.237371,-0.97826
5.050000000000011,-0.373203,-0.245291,-0.997685
5.052500000000009,-0.374426,-0.253074,-1.019286
5.055000000000007,-0.37795,-0.261551,-1.043941
5.0575000000000045,-0.379312,-0.268109,-1.062847
5.060000000000002,-0.379495,-0.275283,-1.082799
5.0625,-0.383084,-0.286041,-1.103728
5.064999999999998,-0.384508,-0.294389,-1.124724
5.067499999999996,-0.385176,-0.301367,-1.144524
5.069999999999993,-0.384724,-0.310269,-1.159752
5.072499999999991,-0.386588,-0.319103,-1.181618
5.074999999999989,-0.386092,-0.324887,-1.196068
5.077499999999986,-0.389025,-0.335561,-1.214868
5.079999999999984,-0.388301,-0.338499,-1.231444
5.082499999999982,-0.387196,-0.348255,-1.247898
5.08499999999998,-0.386685,-0.354619,-1.263415
5.087499999999977,-0.3877,-0.360844,-1.27779
5.089999999999975,-0.383774,-0.368564,-1.293359
5.092499999999973,-0.382403,-0.376491,-1.307728
5.09499999999997,-0.383741,-0.379922,-1.316979
5.097499999999968,-0.384487,-0.388091,-1.333082
5.099999999999966,-0.383145,-0.393231,-1.34375
5.102499999999964,-0.382714,-0.401582,-1.35654
5.105000000000018,-0.380713,-0.404227,-1.366996
5.107500000000016,-0.379865,-0.413044,-1.374272
5.110000000000014,-0.376733,-0.414729,-1.387719
5.112500000000011,-0.375213,-0.420791,-1.39816
5.115000000000009,-0.373107,-0.42762,-1.409539
5.117500000000007,-0.371766,-0.429951,-1.418176
5.1200000000000045,-0.368162,-0.433922,-1.42635
5.122500000000002,-0.363463,-0.440201,-1.437993
5.125,-0.363094,-0.441663,-1.446652
5.127499999999998,-0.358361,-0.441085,-1.455357
5.129999999999996,-0.354854,-0.442335,-1.463949
5.132499999999993,-0.352058,-0.445251,-1.474723
5.134999999999991,-0.346828,-0.44289,-1.482692
5.137499999999989,-0.346109,-0.444943,-1.488766
5.139999999999986,-0.337905,-0.446132,-1.496419
5.142499999999984,-0.333579,-0.44992,-1.50582
5.144999999999982,-0.331687,-0.447925,-1.514661
5.14749999999998,-0.328121,-0.446037,-1.518966
5.149999999999977,-0.319442,-0.450968,-1.528245
5.152499999999975,-0.310862,-0.449069,-1.536247
5.154999999999973,-0.309232,-0.44965,-1.54262
5.15749999999997,-0.303386,-0.453623,-1.548938
5.159999999999968,-0.295447,-0.452711,-1.558287
5.162499999999966,-0.287374,-0.455773,-1.564212
5.164999999999964,-0.278171,-0.453477,-1.573473
5.167500000000018,-0.268325,-0.455305,-1.578121
5.170000000000016,-0.263849,-0.451398,-1.58223
5.172500000000014,-0.256446,-0.452493,-1.592117
5.175000000000011,-0.24851,-0.451808,-1.596285
5.177500000000009,-0.240413,-0.454307,-1.602919
5.180000000000007,-0.22931,-0.453081,-1.607705
5.1825000000000045,-0.226586,-0.451613,-1.611402
5.185000000000002,-0.213057,-0.451801,-1.618132
5.1875,-0.202215,-0.453347,-1.619719
5.189999999999998,-0.195512,-0.453858,-1.623699
5.192499999999996,-0.185694,-0.452716,-1.628454
5.194999999999993,-0.176202,-0.450921,-1.630231
5.197499999999991,-0.171106,-0.44937,-1.632808
5.199999999999989,-0.160274,-0.448491,-1.635878
5.202499999999986,-0.152713,-0.45275,-1.640178
5.204999999999984,-0.144397,-0.447899,-1.641695
5.207499999999982,-0.137462,-0.448676,-1.646735
5.20999999999998,-0.127336,-0.448922,-1.646815
5.212499999999977,-0.12205,-0.445694,-1.647161
5.214999999999975,-0.11235,-0.442306,-1.64985
5.217499999999973,-0.106698,-0.443365,-1.648909
5.21999999999997,-0.098334,-0.439605,-1.650516
5.222499999999968,-0.094004,-0.432215,-1.650187
5.224999999999966,-0.083867,-0.436533,-1.652741
5.227499999999964,-0.078841,-0.43166,-1.652434
5.230000000000018,-0.072013,-0.426752,-1.655507
5.232500000000016,-0.065972,-0.426741,-1.651874
5.235000000000014,-0.063646,-0.42474,-1.648111
5.237500000000011,-0.055093,-0.416705,-1.645425
5.240000000000009,-0.051934,-0.412786,-1.646422
5.242500000000007,-0.048341,-0.409438,-1.641689
5.2450000000000045,-0.046393,-0.401807,-1.637199
5.247500000000002,-0.038876,-0.395038,-1.634203
5.25,-0.037155,-0.386539,-1.627434
5.252499999999998,-0.033286,-0.377812,-1.625572
5.254999999999996,-0.030206,-0.371225,-1.619072
5.257499999999993,-0.025569,-0.362066,-1.616577
5.259999999999991,-0.023146,-0.352297,-1.611176
5.262499999999989,-0.020628,-0.348547,-1.608553
5.264999999999986,-0.017525,-0.333828,-1.603177
5.267499999999984,-0.010739,-0.328465,-1.597757
5.269999999999982,-0.008281,-0.315206,-1.589942
5.27249999999998,-0.007425,-0.304759,-1.585002
5.274999999999977,-0.002278,-0.297991,-1.583433
5.277499999999975,0.00328,-0.289631,-1.579682
5.279999999999973,0.001366,-0.282124,-1.577192
5.28249999999997,0.003839,-0.276035,-1.571762
5.284999999999968,0.008927,-0.265965,-1.566523
5.287499999999966,0.012522,-0.26348,-1.564765
5.289999999999964,0.012586,-0.253159,-1.561871
5.292500000000018,0.012592,-0.248662,-1.553551
5.295000000000016,0.013561,-0.240618,-1.549959
5.297500000000014,0.013236,-0.234462,-1.543053
5.300000000000011,0.016005,-0.230897,-1.536367
5.302500000000009,0.013574,-0.220913,-1.526839
5.305000000000007,0.009695,-0.218552,-1.51576
5.3075000000000045,0.008995,-0.208734,-1.504719
5.310000000000002,0.006325,-0.201404,-1.488016
5.3125,0.005519,-0.193061,-1.473277
5.314999999999998,0.00448,-0.187945,-1.456633
5.317499999999996,0.001065,-0.180832,-1.443446
5.319999999999993,0.000503,-0.171006,-1.421522
5.322499999999991,-0.004832,-0.159755,-1.405212
5.324999999999989,-0.009939,-0.152545,-1.386062
5.327499999999986,-0.010887,-0.142692,-1.368739
5.329999999999984,-0.015214,-0.136468,-1.3527
5.332499999999982,-0.023939,-0.121693,-1.336221
5.33499999999998,-0.02538,-0.114247,-1.31422
5.337499999999977,-0.026111,-0.102988,-1.297404
5.339999999999975,-0.030212,-0.096689,-1.277952
5.342499999999973,-0.039615,-0.085306,-1.259344
5.34499999999997,-0.043267,-0.06662,-1.243467
5.347499999999968,-0.04736,-0.061277,-1.227262
5.349999999999966,-0.055574,-0.049108,-1.207759
5.352499999999964,-0.057071,-0.042056,-1.191642
5.355000000000018,-0.061591,-0.030361,-1.176589
5.357500000000016,-0.064881,-0.018895,-1.156703
5.360000000000014,-0.068985,-0.010963,-1.137621
5.362500000000011,-0.075813,-0.002889,-1.119189
5.365000000000009,-0.077428,0.006036,-1.100006
5.367500000000007,-0.086635,0.017612,-1.08184
5.3700000000000045,-0.088301,0.023388,-1.059462
5.372500000000002,-0.092192,0.039221,-1.042311
5.375,-0.094134,0.045996,-1.016233
5.377499999999998,-0.101037,0.054463,-0.993221
5.379999999999996,-0.106207,0.064299,-0.968746
5.382499999999993,-0.112098,0.073171,-0.942575
5.384999999999991,-0.116989,0.081221,-0.920946
5.387499999999989,-0.118692,0.089272,-0.896616
5.389999999999986,-0.125723,0.094568,-0.867982
5.392499999999984,-0.12936,0.103282,-0.84125
5.394999999999982,-0.13392,0.109052,-0.815079
5.39749999999998,-0.138809,0.112338,-0.787658
5.399999999999977,-0.13974,0.121591,-0.757459
5.402499999999975,-0.143553,0.121018,-0.730206
5.404999999999973,-0.150669,0.126413,-0.700639
5.40749999999997,-0.14955,0.134342,-0.66912
5.409999999999968,-0.152743,0.138285,-0.638697
5.412499999999966,-0.154185,0.140769,-0.611071
5.414999999999964,-0.159252,0.14329,-0.581069
5.417500000000018,-0.161731,0.145758,-0.550774
5.420000000000016,-0.160135,0.147767,-0.516911
5.422500000000014,-0.161396,0.14675,-0.485921
5.425000000000011,-0.16242,0.155739,-0.46024
5.427500000000009,-0.163339,0.153815,-0.425905
5.430000000000007,-0.162695,0.15383,-0.393775
5.4325000000000045,-0.164409,0.153967,-0.361232
5.435000000000002,-0.161886,0.155418,-0.328022
5.4375,-0.160056,0.153995,-0.293361
5.439999999999998,-0.160046,0.151875,-0.261238
5.442499999999996,-0.15429,0.150905,-0.228499
5.444999999999993,-0.152859,0.147953,-0.192785
5.447499999999991,-0.154786,0.14604,-0.162941
5.449999999999989,-0.147407,0.142575,-0.130297
5.452499999999986,-0.142343,0.136939,-0.097963
5.454999999999984,-0.143035,0.139049,-0.064911
5.457499999999982,-0.140208,0.134873,-0.031944
5.45999999999998,-0.13282,0.136202,0.002686
5.462499999999977,-0.126836,0.129775,0.034235
5.464999999999975,-0.12482,0.124418,0.066734
5.467499999999973,-0.120649,0.126863,0.098231
5.46999999999997,-0.117297,0.118084,0.133694
5.472499999999968,-0.110663,0.11222,0.168847
5.474999999999966,-0.106581,0.112144,0.197492
5.477499999999964,-0.103909,0.107073,0.232504
5.480000000000018,-0.097403,0.101366,0.263611
5.482500000000016,-0.091316,0.101428,0.297006
5.485000000000014,-0.086445,0.097448,0.328393
5.487500000000011,-0.085458,0.09594,0.360065
5.490000000000009,-0.076593,0.094112,0.390971
5.492500000000007,-0.074965,0.088295,0.420605
5.4950000000000045,-0.069147,0.089254,0.453501
5.497500000000002,-0.065611,0.085547,0.48606
5.5,-0.06095,0.087602,0.516484
5.502499999999998,-0.061393,0.08859,0.547604
5.504999999999996,-0.056393,0.083786,0.576491
5.507499999999993,-0.053798,0.080975,0.607326
5.509999999999991,-0.05029,0.084292,0.637346
5.512499999999989,-0.048031,0.082653,0.665704
5.514999999999986,-0.045227,0.088785,0.695203
5.517499999999984,-0.047502,0.088993,0.719177
5.519999999999982,-0.044131,0.094714,0.75066
5.52249999999998,-0.03842,0.098627,0.775909
5.524999999999977,-0.044449,0.109104,0.802393
5.527499999999975,-0.040902,0.110113,0.826065
5.529999999999973,-0.037453,0.119431,0.8574
5.53249999999997,-0.038667,0.123619,0.883468
5.534999999999968,-0.040221,0.134166,0.906088
5.537499999999966,-0.044402,0.145755,0.928753
5.539999999999964,-0.041254,0.15038,0.954496
5.542500000000018,-0.039887,0.156977,0.97914
5.545000000000016,-0.043318,0.163014,1.000984
5.547500000000014,-0.0468,0.174645,1.021473
5.550000000000011,-0.045761,0.18074,1.043099
5.552500000000009,-0.042363,0.187901,1.066361
5.555000000000007,-0.046025,0.190551,1.082837
5.5575000000000045,-0.047608,0.204586,1.103697
5.560000000000002,-0.048232,0.205299,1.124824
5.5625,-0.052039,0.209446,1.144604
5.564999999999998,-0.052702,0.217789,1.16048
5.567499999999996,-0.052473,0.219803,1.179427
5.569999999999993,-0.053448,0.222256,1.194444
5.572499999999991,-0.051491,0.224551,1.211403
5.574999999999989,-0.049956,0.230708,1.228004
5.577499999999986,-0.051135,0.230546,1.244783
5.579999999999984,-0.046261,0.232592,1.256336
5.582499999999982,-0.045417,0.232358,1.273663
5.58499999999998,-0.045194,0.232702,1.286937
5.587499999999977,-0.038798,0.233317,1.300184
5.589999999999975,-0.039543,0.232574,1.314668
5.592499999999973,-0.035992,0.23294,1.327719
5.59499999999997,-0.030319,0.231942,1.335411
5.597499999999968,-0.027028,0.226057,1.34573
5.599999999999966,-0.026383,0.229769,1.356593
5.602499999999964,-0.021631,0.228647,1.365958
5.605000000000018,-0.017507,0.229748,1.376574
5.607500000000016,-0.017864,0.22685,1.38278
5.610000000000014,-0.012366,0.22864,1.390512
5.612500000000011,-0.006019,0.229157,1.398717
5.615000000000009,-0.005147,0.230374,1.404272
5.617500000000007,8.6e-05,0.22827,1.407214
5.6200000000000045,0.00147,0.22937,1.413748
5.622500000000002,0.006742,0.230337,1.417361
5.625,0.009549,0.231635,1.419267
5.627499999999998,0.013281,0.232487,1.421273
5.629999999999996,0.014348,0.231672,1.424685
5.632499999999993,0.018557,0.233192,1.423657
5.634999999999991,0.019745,0.235019,1.425807
5.637499999999989,0.021818,0.232706,1.42445
5.639999999999986,0.023324,0.233316,1.42474
5.642499999999984,0.02907,0.234725,1.426479
5.644999999999982,0.031338,0.235703,1.421931
5.64749999999998,0.033332,0.235843,1.418738
5.649999999999977,0.037459,0.238042,1.417749
5.652499999999975,0.038911,0.236967,1.415598
5.654999999999973,0.040606,0.235612,1.41235
5.65749999999997,0.04539,0.238738,1.41191
5.659999999999968,0.050419,0.237989,1.404144
5.662499999999966,0.054345,0.240716,1.399843
5.664999999999964,0.05225,0.245609,1.394775
5.667500000000018,0.056078,0.251254,1.390636
5.670000000000016,0.062484,0.25427,1.38185
5.672500000000014,0.063122,0.251306,1.376289
5.675000000000011,0.062387,0.259989,1.367915
5.677500000000009,0.067919,0.262062,1.355843
5.680000000000007,0.070737,0.263701,1.351799
5.6825000000000045,0.070567,0.270801,1.343897
5.685000000000002,0.075602,0.272099,1.333612
5.6875,0.074703,0.26639,1.322855
5.689999999999998,0.079223,0.271101,1.306645
5.692499999999996,0.080016,0.276113,1.296449
5.694999999999993,0.080436,0.274446,1.285891
5.697499999999991,0.082388,0.273638,1.268753
5.699999999999989,0.086875,0.272875,1.255834
5.702499999999986,0.085133,0.26929,1.24283
5.704999999999984,0.086848,0.271628,1.223853
5.707499999999982,0.088745,0.269478,1.207547
5.70999999999998,0.086019,0.269982,1.19178
5.712499999999977,0.087637,0.2676,1.174207
5.714999999999975,0.090232,0.26472,1.152534
5.717499999999973,0.087596,0.263437,1.134582
5.71999999999997,0.088581,0.260178,1.11528
5.722499999999968,0.086705,0.261126,1.0936
5.724999999999966,0.087432,0.25883,1.07446
5.727499999999964,0.087362,0.251833,1.053622
5.730000000000018,0.083854,0.253033,1.03027
5.732500000000016,0.08317,0.250249,1.009187
5.735000000000014,0.080126,0.245325,0.987617
5.737500000000011,0.078776,0.24512,0.963008
5.740000000000009,0.078341,0.238849,0.940337
5.742500000000007,0.07162,0.234635,0.918817
5.7450000000000045,0.076095,0.232232,0.891721
5.747500000000002,0.069691,0.225674,0.869761
5.75,0.065316,0.220154,0.844181
5.752499999999998,0.064153,0.221065,0.817379
5.754999999999996,0.062392,0.21266,0.793811
5.757499999999993,0.057989,0.206436,0.771561
5.759999999999991,0.052051,0.200816,0.744576
5.762499999999989,0.048768,0.192646,0.721242
5.764999999999986,0.047008,0.185796,0.693139
5.767499999999984,0.040423,0.182313,0.666519
5.769999999999982,0.03385,0.176547,0.641955
5.77249999999998,0.023577,0.171533,0.616244
5.774999999999977,0.021265,0.162513,0.591307
5.777499999999975,0.014263,0.153791,0.566588
5.779999999999973,0.007173,0.155254,0.543835
5.78249999999997,0.001793,0.143128,0.516214
5.784999999999968,-0.005898,0.140645,0.493089
5.787499999999966,-0.014411,0.134451,0.469483
5.789999999999964,-0.020081,0.127494,0.446715
5.792500000000018,-0.029244,0.122257,0.422552
5.795000000000016,-0.03452,0.112107,0.398924
5.797500000000014,-0.045416,0.106392,0.376391
5.800000000000011,-0.051628,0.099162,0.353011
5.802500000000009,-0.059953,0.094307,0.329763
5.805000000000007,-0.067711,0.090713,0.308021
5.8075000000000045,-0.078823,0.084595,0.279922
5.810000000000002,-0.083472,0.07891,0.262126
5.8125,-0.095208,0.078229,0.239191
5.814999999999998,-0.103757,0.072082,0.216077
5.817499999999996,-0.109811,0.062307,0.194899
5.819999999999993,-0.12053,0.063694,0.176959
5.822499999999991,-0.130491,0.059178,0.15608
5.824999999999989,-0.139897,0.053661,0.131827
5.827499999999986,-0.151145,0.048096,0.117304
5.829999999999984,-0.161457,0.042778,0.096817
5.832499999999982,-0.171323,0.040659,0.075267
5.83499999999998,-0.182518,0.038775,0.061063
5.837499999999977,-0.193132,0.031472,0.045223
5.839999999999975,-0.201315,0.02593,0.026477
5.842499999999973,-0.210969,0.023126,0.013085
5.84499999999997,-0.222507,0.01782,-0.005166
5.847499999999968,-0.23149,0.01053,-0.01485
5.849999999999966,-0.239612,0.009716,-0.030331
5.852499999999964,-0.249752,0.001664,-0.043203
5.855000000000018,-0.260656,-0.000878,-0.057159
5.857500000000016,-0.2662,-0.004055,-0.068022
5.860000000000014,-0.276095,-0.007756,-0.081144
5.862500000000011,-0.284642,-0.008069,-0.090502
5.865000000000009,-0.293103,-0.01529,-0.103462
5.867500000000007,-0.302902,-0.025384,-0.11224
5.8700000000000045,-0.308515,-0.026605,-0.12555
5.872500000000002,-0.31651,-0.029139,-0.134751
5.875,-0.322823,-0.035287,-0.145927
5.877499999999998,-0.334074,-0.036201,-0.15429
5.879999999999996,-0.335008,-0.042562,-0.16322
5.882499999999993,-0.340202,-0.052696,-0.175734
5.884999999999991,-0.347815,-0.054409,-0.179654
5.887499999999989,-0.3518,-0.060773,-0.191887
5.889999999999986,-0.358921,-0.062816,-0.198588
5.892499999999984,-0.361227,-0.072561,-0.208497
5.894999999999982,-0.363971,-0.075918,-0.213896
5.89749999999998,-0.369337,-0.080015,-0.221643
5.899999999999977,-0.375161,-0.092997,-0.2271
5.902499999999975,-0.37566,-0.098448,-0.235459
5.904999999999973,-0.381151,-0.101379,-0.243498
5.90749999999997,-0.381874,-0.107099,-0.249533
5.909999999999968,-0.381066,-0.113548,-0.255582
5.912499999999966,-0.382695,-0.118344,-0.258353
5.914999999999964,-0.382438,-0.124152,-0.265089
5.917500000000018,-0.384748,-0.128789,-0.270739
5.920000000000016,-0.382386,-0.135624,-0.275372
5.922500000000014,-0.381057,-0.141162,-0.280404
5.925000000000011,-0.379264,-0.141157,-0.28396
5.927500000000009,-0.373657,-0.150217,-0.286718
5.930000000000007,-0.369257,-0.154647,-0.288568
5.9325000000000045,-0.365239,-0.161253,-0.292572
5.935000000000002,-0.363585,-0.167051,-0.294581
5.9375,-0.355962,-0.171955,-0.300455
5.939999999999998,-0.350505,-0.176319,-0.300658
5.942499999999996,-0.339273,-0.181104,-0.305717
5.944999999999993,-0.334682,-0.18989,-0.307009
5.947499999999991,-0.324814,-0.190854,-0.30809
5.949999999999989,-0.317082,-0.19462,-0.30935
5.952499999999986,-0.308131,-0.197865,-0.309952
5.954999999999984,-0.292434,-0.203396,-0.312899
5.957499999999982,-0.282727,-0.205855,-0.312613
5.95999999999998,-0.273396,-0.210904,-0.313889
5.962499999999977,-0.257576,-0.21503,-0.312075
5.964999999999975,-0.245628,-0.218754,-0.312355
5.967499999999973,-0.233348,-0.224721,-0.315267
5.96999999999997,-0.219783,-0.229393,-0.311849
5.972499999999968,-0.207378,-0.233115,-0.314495
5.974999999999966,-0.188178,-0.237529,-0.311859
5.977499999999964,-0.168654,-0.244398,-0.313163
5.980000000000018,-0.15891,-0.245106,-0.311594
5.982500000000016,-0.137158,-0.24838,-0.309198
5.985000000000014,-0.119679,-0.251979,-0.308535
5.987500000000011,-0.102024,-0.256847,-0.307718
5.990000000000009,-0.082067,-0.260687,-0.303535
5.992500000000007,-0.06358,-0.261194,-0.304954
5.9950000000000045,-0.039206,-0.265442,-0.304294
5.997500000000002,-0.020573,-0.264481,-0.30126
6.0,0.002634,-0.271697,-0.300264
6.002499999999998,0.025047,-0.272331,-0.299154
6.004999999999996,0.046901,-0.276263,-0.2983
6.007499999999993,0.068707,-0.273609,-0.292277
6.009999999999991,0.091872,-0.274752,-0.291511
6.012499999999989,0.11147,-0.276239,-0.28799
6.014999999999986,0.136075,-0.279741,-0.283125
6.017499999999984,0.154334,-0.275944,-0.279064
6.019999999999982,0.18227,-0.274733,-0.275664
6.02249999999998,0.20267,-0.272054,-0.26747
6.024999999999977,0.226817,-0.268926,-0.266109
6.027499999999975,0.246767,-0.272097,-0.25823
6.029999999999973,0.269894,-0.268166,-0.254753
6.03249999999997,0.294784,-0.265278,-0.247133
6.034999999999968,0.315844,-0.261232,-0.241058
6.037499999999966,0.336557,-0.260845,-0.237408
6.039999999999964,0.358921,-0.258248,-0.233535
6.042500000000018,0.382873,-0.250347,-0.225768
6.045000000000016,0.405403,-0.253139,-0.222607
6.047500000000014,0.426313,-0.244483,-0.218119
6.050000000000011,0.450059,-0.240637,-0.211868
6.052500000000009,0.468317,-0.24029,-0.208463
6.055000000000007,0.490391,-0.233185,-0.203192
6.0575000000000045,0.512172,-0.234354,-0.19784
6.060000000000002,0.533051,-0.22776,-0.196698
6.0625,0.555907,-0.224292,-0.191247
6.064999999999998,0.57227,-0.218342,-0.186002
6.067499999999996,0.594842,-0.214228,-0.182022
6.069999999999993,0.610485,-0.201997,-0.175357
6.072499999999991,0.631256,-0.196818,-0.172715
6.074999999999989,0.651882,-0.187418,-0.164989
6.077499999999986,0.667433,-0.183149,-0.159474
6.079999999999984,0.681879,-0.174807,-0.153781
6.082499999999982,0.700177,-0.165468,-0.146757
6.08499999999998,0.717142,-0.158626,-0.141102
6.087499999999977,0.737406,-0.151108,-0.135061
6.089999999999975,0.749182,-0.141862,-0.125782
6.092499999999973,0.767843,-0.131567,-0.119725
6.09499999999997,0.781869,-0.125949,-0.113004
6.097499999999968,0.798629,-0.118449,-0.109397
6.099999999999966,0.816561,-0.107966,-0.100349
6.102499999999964,0.83021,-0.099096,-0.092877
6.105000000000018,0.843237,-0.091805,-0.090066
6.107500000000016,0.858166,-0.079024,-0.082934
6.110000000000014,0.873485,-0.070061,-0.075777
6.112500000000011,0.885678,-0.065783,-0.074814
6.115000000000009,0.896999,-0.048999,-0.066902
6.117500000000007,0.912928,-0.044854,-0.061138
6.1200000000000045,0.926859,-0.03311,-0.058784
6.122500000000002,0.93856,-0.021203,-0.050512
6.125,0.952832,-0.014794,-0.046726
6.127499999999998,0.966003,-0.009032,-0.041232
6.129999999999996,0.978884,-0.001851,-0.033985
6.132499999999993,0.991192,0.006346,-0.026901
6.134999999999991,1.003116,0.01355,-0.02546
6.137499999999989,1.015412,0.022169,-0.01746
6.139999999999986,1.029043,0.027602,-0.013079
6.142499999999984,1.040098,0.038181,-0.010873
6.144999999999982,1.055914,0.042137,-0.007674
6.14749999999998,1.066646,0.048383,-0.0021
6.149999999999977,1.077604,0.057026,0.000925
6.152499999999975,1.093444,0.064268,0.002482
6.154999999999973,1.104594,0.072647,0.005495
6.15749999999997,1.117757,0.075651,0.008545
6.159999999999968,1.129758,0.085826,0.01091
6.162499999999966,1.14015,0.094628,0.015699
6.164999999999964,1.152119,0.099354,0.01939
6.167500000000018,1.164943,0.109158,0.020165
6.170000000000016,1.178004,0.118925,0.021028
6.172500000000014,1.182142,0.125117,0.024169
6.175000000000011,1.19394,0.133389,0.025529
6.177500000000009,1.205224,0.140872,0.029484
6.180000000000007,1.210758,0.150984,0.030021
6.1825000000000045,1.220381,0.155715,0.035653
6.185000000000002,1.224689,0.169321,0.036412
6.1875,1.231482,0.177885,0.041362
6.189999999999998,1.238616,0.183075,0.043064
6.192499999999996,1.241535,0.194449,0.048172
6.194999999999993,1.253399,0.200579,0.053605
6.197499999999991,1.253257,0.208054,0.053131
6.199999999999989,1.25559,0.214402,0.057169
6.202499999999986,1.261011,0.219765,0.060984
6.204999999999984,1.263076,0.224739,0.058196
6.207499999999982,1.270294,0.232942,0.061329
6.20999999999998,1.274878,0.237475,0.061632
6.212499999999977,1.276572,0.242535,0.05957
6.214999999999975,1.27722,0.24707,0.057071
6.217499999999973,1.283595,0.251631,0.05478
6.21999999999997,1.284744,0.255317,0.053374
6.222499999999968,1.285635,0.264856,0.053542
6.224999999999966,1.288597,0.26998,0.05359
6.227499999999964,1.293735,0.273923,0.05363
6.230000000000018,1.29061,0.278918,0.052307
6.232500000000016,1.292026,0.285729,0.053214
6.235000000000014,1.295945,0.29373,0.052267
6.237500000000011,1.293532,0.292912,0.055078
6.240000000000009,1.296255,0.302073,0.058564
6.242500000000007,1.292933,0.30913,0.059911
6.2450000000000045,1.288828,0.312757,0.066788
6.247500000000002,1.292448,0.317197,0.068439
6.25,1.288365,0.316467,0.07197
6.252499999999998,1.284487,0.31868,0.075764
6.254999999999996,1.282364,0.319246,0.076894
6.257499999999993,1.276387,0.32362,0.076952
6.259999999999991,1.275262,0.328481,0.080592
6.262499999999989,1.263177,0.325271,0.083386
6.264999999999986,1.260863,0.325676,0.083698
6.267499999999984,1.251125,0.325822,0.084621
6.269999999999982,1.243079,0.32761,0.086274
6.27249999999998,1.233996,0.324395,0.084554
6.274999999999977,1.224214,0.326177,0.086465
6.277499999999975,1.214485,0.327719,0.086848
6.279999999999973,1.20288,0.324638,0.083902
6.28249999999997,1.191763,0.327944,0.087079
6.284999999999968,1.177789,0.321772,0.08151
6.287499999999966,1.165017,0.323125,0.079758
6.289999999999964,1.152716,0.318968,0.079554
6.292500000000018,1.136115,0.316283,0.080179
6.295000000000016,1.12825,0.314114,0.078432
6.297500000000014,1.108947,0.31518,0.078104
6.300000000000011,1.097321,0.310005,0.075822
6.302500000000009,1.078853,0.309669,0.077417
6.305000000000007,1.063883,0.308099,0.072607
6.3075000000000045,1.047052,0.301486,0.070522
6.310000000000002,1.031196,0.297441,0.071774
6.3125,1.013334,0.296144,0.073127
6.314999999999998,0.994659,0.285154,0.074544
6.317499999999996,0.982527,0.283028,0.071884
6.319999999999993,0.959743,0.279524,0.071646
6.322499999999991,0.944452,0.273275,0.070701
6.324999999999989,0.924244,0.264012,0.067209
6.327499999999986,0.906452,0.258244,0.067387
6.329999999999984,0.8868,0.259354,0.068217
6.332499999999982,0.864796,0.252835,0.066992
6.33499999999998,0.845979,0.247046,0.064576
6.337499999999977,0.823944,0.239841,0.062305
6.339999999999975,0.807551,0.235385,0.06453
6.342499999999973,0.78862,0.227291,0.064216
6.34499999999997,0.767978,0.220933,0.06075
6.347499999999968,0.74543,0.213114,0.06023
6.349999999999966,0.724375,0.207018,0.062075
6.352499999999964,0.701045,0.199001,0.060951
6.355000000000018,0.682601,0.193197,0.059239
6.357500000000016,0.658912,0.18675,0.05566
6.360000000000014,0.636711,0.175598,0.056518
6.362500000000011,0.616428,0.169682,0.059151
6.365000000000009,0.59356,0.161735,0.05885
6.367500000000007,0.576627,0.155186,0.059792
6.3700000000000045,0.553338,0.150684,0.05878
6.372500000000002,0.531866,0.141969,0.058996
6.375,0.507063,0.136275,0.057413
6.377499999999998,0.48819,0.131019,0.058203
6.379999999999996,0.466517,0.124816,0.055953
6.382499999999993,0.442233,0.115571,0.054372
6.384999999999991,0.41874,0.111457,0.052861
6.387499999999989,0.396555,0.108483,0.051821
6.389999999999986,0.373936,0.101545,0.051057
6.392499999999984,0.354124,0.09369,0.049854
6.394999999999982,0.327613,0.088497,0.051139
6.39749999999998,0.308649,0.083674,0.047358
6.399999999999977,0.28576,0.075343,0.043473
6.402499999999975,0.261401,0.070148,0.045822
6.404999999999973,0.240178,0.067014,0.042916
6.40749999999997,0.218245,0.067287,0.042073
6.409999999999968,0.19669,0.056695,0.04097
6.412499999999966,0.171223,0.050459,0.039547
6.414999999999964,0.148324,0.052013,0.038188
6.417500000000018,0.126532,0.043724,0.034512
6.420000000000016,0.103762,0.046138,0.03363
6.422500000000014,0.08248,0.039109,0.032213
6.425000000000011,0.060271,0.033879,0.027601
6.427500000000009,0.040215,0.030039,0.028398
6.430000000000007,0.016413,0.027844,0.030168
6.4325000000000045,-0.002205,0.025421,0.023053
6.435000000000002,-0.0266,0.021157,0.022594
6.4375,-0.043799,0.016467,0.021001
6.439999999999998,-0.0653,0.010183,0.014595
6.442499999999996,-0.084271,0.009624,0.017465
6.444999999999993,-0.104949,0.008746,0.012537
6.447499999999991,-0.125766,0.002506,0.009381
6.449999999999989,-0.146839,0.001315,0.004677
6.452499999999986,-0.166778,-0.002778,0.005304
6.454999999999984,-0.183542,-0.000152,-0.00094
6.457499999999982,-0.201476,-0.000206,0.000802
6.45999999999998,-0.22072,-0.005525,-0.003368
6.462499999999977,-0.236839,-0.003108,-0.003447
6.464999999999975,-0.257942,-0.004296,-0.004312
6.467499999999973,-0.276153,-0.002317,-0.008459
6.46999999999997,-0.291802,-0.005348,-0.010392
6.472499999999968,-0.312044,-0.010419,-0.010988
6.474999999999966,-0.328869,-0.006026,-0.013983
6.477499999999964,-0.344934,-0.00384,-0.013687
6.480000000000018,-0.359465,-0.009531,-0.017865
6.482500000000016,-0.378042,-0.009431,-0.018404
6.485000000000014,-0.394923,-0.007398,-0.022234
6.487500000000011,-0.410807,-0.011736,-0.02429
6.490000000000009,-0.425641,-0.012828,-0.022514
6.492500000000007,-0.441009,-0.010197,-0.028026
6.4950000000000045,-0.454831,-0.012337,-0.03051
6.497500000000002,-0.470927,-0.010008,-0.031248
6.5,-0.485396,-0.013472,-0.035168
6.502499999999998,-0.499308,-0.017057,-0.033744
6.504999999999996,-0.519501,-0.015213,-0.040756
6.507499999999993,-0.533415,-0.016031,-0.039978
6.509999999999991,-0.545822,-0.016634,-0.041381
6.512499999999989,-0.555794,-0.016476,-0.047573
6.514999999999986,-0.573115,-0.017339,-0.050634
6.517499999999984,-0.589426,-0.021726,-0.049159
6.519999999999982,-0.596976,-0.01962,-0.055029
6.52249999999998,-0.610979,-0.021788,-0.05644
6.524999999999977,-0.626683,-0.02092,-0.055416
6.527499999999975,-0.639629,-0.022238,-0.058834
6.529999999999973,-0.653796,-0.023074,-0.062245
6.53249999999997,-0.66649,-0.024563,-0.060876
6.534999999999968,-0.677487,-0.023472,-0.062849
6.537499999999966,-0.690578,-0.025961,-0.063856
6.539999999999964,-0.702357,-0.026104,-0.065428
6.542500000000018,-0.710999,-0.024572,-0.0651
6.545000000000016,-0.724363,-0.026073,-0.065744
