time,Gyr_X,Gyr_Y,Gyr_Z
0.0,-0.016454,0.005388,0.005778
0.0025000000000119,-0.01584,0.003453,0.003644
0.0050000000000096,-0.023134,-0.000471,0.002033
0.0075000000000073,-0.024422,0.000731,0.002287
0.0100000000000051,-0.026177,-0.001621,-0.003248
0.0125000000000028,-0.026475,0.001692,-0.006312
0.0150000000000005,-0.02692,-0.001374,-0.007309
0.0174999999999982,-0.033309,0.000162,-0.006123
0.0200000000000102,-0.032337,-0.001758,-0.009225
0.0225000000000079,-0.033309,0.002329,-0.009745
0.0250000000000056,-0.038889,0.002434,-0.00976
0.0275000000000034,-0.039122,0.001598,-0.012082
0.0300000000000011,-0.043865,0.003264,-0.007477
0.0324999999999988,-0.041305,0.000449,-0.006403
0.0350000000000108,-0.043817,-0.001055,-0.007443
0.0375000000000085,-0.048861,0.001896,-0.007591
0.0400000000000062,-0.048663,0.005724,-0.00499
0.0425000000000039,-0.049274,0.009436,-0.003354
0.0450000000000017,-0.051856,0.001691,-0.001973
0.0474999999999994,-0.053312,0.002135,-0.001989
0.0500000000000113,-0.055292,-0.00408,-0.002144
0.052500000000009,-0.055483,0.002784,-0.003575
0.0550000000000068,-0.057058,0.001822,-0.001599
0.0575000000000045,-0.058885,0.002884,0.000126
0.0600000000000022,-0.058949,0.001489,-0.001448
0.0625,-0.063625,0.002932,-0.000873
0.0650000000000119,-0.061069,0.004081,-0.001031
0.0675000000000096,-0.061707,0.000966,0.001299
0.0700000000000073,-0.061975,-0.002491,-0.00436
0.0725000000000051,-0.060739,-8e-05,-0.001937
0.0750000000000028,-0.062819,-0.000307,-0.003937
0.0775000000000005,-0.06042,-0.001535,-0.003864
0.0799999999999983,-0.062245,-0.006288,-0.004871
0.0825000000000102,-0.059821,-0.001204,-0.002284
0.0850000000000079,-0.058462,-0.003375,-0.001121
0.0875000000000056,-0.054193,0.002296,-0.003071
0.0900000000000034,-0.050926,0.001298,0.000441
0.0925000000000011,-0.050303,-0.000213,-0.004087
0.0949999999999988,-0.050613,0.001273,-0.00169
0.0975000000000108,-0.045632,0.000443,-0.003088
0.1000000000000085,-0.047532,-0.002113,-0.00101
0.1025000000000062,-0.047782,0.002349,-0.000665
0.1050000000000039,-0.043148,0.000758,-0.003538
0.1075000000000017,-0.042994,-0.001211,-0.004327
0.1099999999999994,-0.043501,0.003589,-0.00433
0.1125000000000113,-0.039311,-0.003651,-0.001937
0.1150000000000091,-0.038809,0.000224,-0.002559
0.1175000000000068,-0.03842,-0.001456,-0.00349
0.1200000000000045,-0.036779,0.001661,-0.000787
0.1225000000000022,-0.03549,0.002664,0.002977
0.125,-0.034909,0.002515,0.000345
0.1275000000000119,-0.031219,-0.00091,0.000188
0.1300000000000096,-0.033122,-0.00302,-0.002129
0.1325000000000074,-0.028205,-0.001183,-0.001481
0.1350000000000051,-0.029318,-0.000189,-0.000276
0.1375000000000028,-0.025775,-0.001164,-0.000596
0.1400000000000005,-0.025198,-0.002554,-0.000663
0.1424999999999983,-0.027741,0.002644,-0.003532
0.1450000000000102,-0.02178,0.000577,0.000421
0.1475000000000079,-0.022028,-0.000314,-0.00286
0.1500000000000056,-0.021425,0.000218,-0.002342
0.1525000000000034,-0.018521,0.000634,-0.000535
0.1550000000000011,-0.016958,0.00243,-0.000723
0.1574999999999988,-0.01629,-0.001654,-0.000781
0.1600000000000108,-0.016893,-0.000836,-0.001262
0.1625000000000085,-0.015786,-0.002941,-0.001583
0.1650000000000062,-0.013888,0.001139,-0.004563
0.1675000000000039,-0.011253,-0.000896,0.000667
0.1700000000000017,-0.0071,-0.002508,0.001124
0.1724999999999994,-0.008765,0.000305,-0.001383
0.1750000000000113,-0.006163,0.000276,0.000731
0.1775000000000091,-0.00688,-0.005503,0.00054
0.1800000000000068,-0.004758,-0.000337,-0.000237
0.1825000000000045,-0.003655,0.008943,0.004429
0.1850000000000022,0.001634,-0.003105,0.000531
0.1875,-0.001182,-0.00049,0.000156
0.1900000000000119,0.000314,0.003203,-0.001985
0.1925000000000096,0.000875,-0.001423,-0.000773
0.1950000000000074,0.004068,0.000373,-0.001915
0.1975000000000051,0.003202,-0.000268,0.000118
0.2000000000000028,0.00665,-0.000425,6.5e-05
0.2025000000000005,0.009162,0.004105,-0.000386
0.2049999999999983,0.010585,-0.001237,-0.000171
0.2075000000000102,0.012127,0.006788,-0.000407
0.2100000000000079,0.013835,-0.002217,-0.000694
0.2125000000000056,0.01201,0.000716,-0.000751
0.2150000000000034,0.015389,0.004401,0.002906
0.2175000000000011,0.014953,0.0004,0.001302
0.2199999999999988,0.016286,0.002771,-0.001337
0.2225000000000108,0.017408,0.000509,-0.000155
0.2250000000000085,0.017128,-0.002179,0.000853
0.2275000000000062,0.017959,-0.001191,0.000307
0.2300000000000039,0.020074,0.001485,-0.000188
0.2325000000000017,0.022257,0.000919,0.00164
0.2349999999999994,0.02197,0.000948,-0.000831
0.2375000000000113,0.022876,0.002561,-0.000589
0.2400000000000091,0.024655,0.00316,-0.000452
0.2425000000000068,0.023978,-0.000523,0.000692
0.2450000000000045,0.024812,-0.001696,0.001244
0.2475000000000022,0.026136,-0.002192,0.000455
0.25,0.02678,0.003252,0.0022
0.2525000000000119,0.025657,-0.000153,0.001696
0.2550000000000096,0.023025,0.003367,0.000588
0.2575000000000074,0.026948,-0.000368,-0.000666
0.2600000000000051,0.027701,-0.000218,-0.001648
0.2625000000000028,0.034042,0.002294,0.001251
0.2650000000000005,0.028989,0.000796,0.003412
0.2674999999999983,0.030074,0.002188,-0.000387
0.2700000000000102,0.029945,0.000151,0.000211
0.2725000000000079,0.029074,-0.000328,-0.001287
0.2750000000000057,0.02761,0.000175,-0.000928
0.2775000000000034,0.027537,-0.003311,-0.000411
0.2800000000000011,0.025982,-0.002071,0.001509
0.2824999999999988,0.023369,0.003994,0.001363
0.2850000000000108,0.026316,-0.00056,0.001279
0.2875000000000085,0.025614,-0.000112,-0.00208
0.2900000000000062,0.025142,8.1e-05,0.001202
0.292500000000004,0.022613,0.003258,4.7e-05
0.2950000000000017,0.023472,0.000868,0.001169
0.2974999999999994,0.021199,9.5e-05,0.001343
0.3000000000000113,0.019666,0.003795,-0.003342
0.3025000000000091,0.019019,-0.00322,0.001282
0.3050000000000068,0.018439,-0.002867,-0.000784
0.3075000000000045,0.016818,0.003382,-0.001524
0.3100000000000023,0.016882,0.00033,0.000703
0.3125,0.017805,0.002623,0.00212
0.3150000000000119,0.012457,0.001169,-0.000787
0.3175000000000096,0.0135,0.000858,-0.000373
0.3200000000000074,0.012635,0.003188,0.000627
0.3225000000000051,0.010563,-0.001042,-0.001201
0.3250000000000028,0.008158,0.001254,-0.001706
0.3275000000000005,0.005623,-0.000444,-0.001909
0.3299999999999983,0.006109,0.002816,0.003126
0.3325000000000102,0.004918,-7.5e-05,0.00095
0.3350000000000079,0.004313,0.002258,-0.003339
0.3375000000000057,0.001457,0.002027,0.002415
0.3400000000000034,0.001896,-0.001028,0.001774
0.3425000000000011,-0.002667,-0.000274,0.001249
0.3449999999999988,-0.004511,0.000373,-0.002454
0.3475000000000108,-0.001441,-0.000703,0.00081
0.3500000000000085,-0.005843,0.001647,0.001872
0.3525000000000062,-0.004172,-0.000516,-0.000262
0.355000000000004,-0.004593,0.002036,-0.001772
0.3575000000000017,-0.007528,0.001846,0.00146
0.3599999999999994,-0.007544,0.002078,0.002696
0.3625000000000113,-0.007938,0.0032,-0.000863
0.3650000000000091,-0.011647,0.00272,0.002507
0.3675000000000068,-0.015034,0.003193,-0.002344
0.3700000000000045,-0.008585,0.004066,0.000522
0.3725000000000023,-0.012702,-0.001281,0.001142
0.375,-0.014487,-0.002907,0.002719
0.3775000000000119,-0.012152,-0.005224,0.000183
0.3800000000000096,-0.010487,-0.001045,-0.000997
0.3825000000000074,-0.009231,0.001372,-0.001951
0.3850000000000051,-0.007541,0.001346,-0.000207
0.3875000000000028,-0.009465,-0.000697,0.00033
0.3900000000000005,-0.009944,0.002063,-0.000532
0.3924999999999983,-0.008877,-0.000747,-0.001587
0.3950000000000102,-0.012061,-0.003579,-0.002199
0.3975000000000079,-0.010069,-0.000124,-0.003918
0.4000000000000057,-0.01131,0.002696,-0.005908
0.4025000000000034,-0.007673,0.001124,-0.000106
0.4050000000000011,-0.012459,0.001407,-0.001504
0.4074999999999988,-0.009057,-0.004311,-0.00159
0.4100000000000108,-0.008568,-0.000291,0.000294
0.4125000000000085,-0.007401,0.001513,0.001869
0.4150000000000062,-0.007199,0.000791,0.000852
0.417500000000004,-0.007752,0.002494,-0.000174
0.4200000000000017,-0.006737,0.001005,0.001005
0.4224999999999994,-0.004895,7.4e-05,-0.000736
0.4250000000000113,-0.002986,0.00082,0.001787
0.4275000000000091,-0.004515,0.002999,-0.00104
0.4300000000000068,-0.003423,0.000363,0.000571
0.4325000000000045,-0.004931,0.001086,-0.000222
0.4350000000000023,-0.004841,0.000571,-0.000821
0.4375,-0.002854,-0.000653,0.001986
0.4400000000000119,0.004289,0.006796,-0.001574
0.4425000000000096,0.009406,0.007772,0.001778
0.4450000000000074,0.001522,-0.000566,0.003781
0.4475000000000051,0.005204,-0.006767,0.000731
0.4500000000000028,0.003601,-0.004545,0.001987
0.4525000000000005,0.001094,0.000846,0.003634
0.4549999999999983,0.003541,0.00568,0.002424
0.4575000000000102,0.00603,0.01073,0.001524
0.4600000000000079,0.01156,0.010621,-0.002852
0.4625000000000057,0.006973,-0.009561,-0.001857
0.4650000000000034,0.011972,-0.006589,-0.002156
0.4675000000000011,0.012972,-0.003843,-0.002865
0.4699999999999988,0.010286,0.001172,-0.002678
0.4725000000000108,0.016247,-0.00077,0.001752
0.4750000000000085,0.020208,0.002261,0.001911
0.4775000000000062,0.021204,0.002807,0.004565
0.480000000000004,0.020564,-0.001347,0.004005
0.4825000000000017,0.01735,-0.000182,0.003985
0.4849999999999994,0.019176,0.002033,0.003272
0.4875000000000113,0.018954,0.005802,0.003625
0.4900000000000091,0.026568,0.00518,0.003835
0.4925000000000068,0.02537,0.005826,0.001804
0.4950000000000045,0.025658,0.005268,0.003905
0.4975000000000023,0.024366,-0.005569,0.000373
0.5,0.027084,-0.001051,-0.001855
0.5025000000000119,0.028094,-0.00404,-0.003237
0.5050000000000097,0.030497,0.00138,-0.002055
0.5075000000000074,0.029749,0.005457,-0.001265
0.5100000000000051,0.035851,-0.000672,-3.9e-05
0.5125000000000028,0.035248,0.001714,0.000475
0.5150000000000006,0.035306,0.002974,-0.00187
0.5174999999999983,0.036547,0.001545,-0.000231
0.5200000000000102,0.037571,0.003255,0.001576
0.522500000000008,0.042432,0.001281,-0.00049
0.5250000000000057,0.044966,0.002428,0.000677
0.5275000000000034,0.042848,0.004021,0.002173
0.5300000000000011,0.046139,0.000762,0.000762
0.5324999999999989,0.041149,-0.002417,0.004714
0.5350000000000108,0.043509,-0.000709,0.001506
0.5375000000000085,0.044142,0.002062,0.000807
0.5400000000000063,0.045539,0.001504,0.000849
0.542500000000004,0.044867,-0.00108,0.000585
0.5450000000000017,0.037117,0.001236,-0.000997
0.5474999999999994,0.038516,0.003576,-0.001805
0.5500000000000114,0.036073,0.000849,-0.002085
0.5525000000000091,0.033801,0.002807,-0.002186
0.5550000000000068,0.0347,0.002766,-0.002043
0.5575000000000045,0.035901,0.003093,-0.001569
0.5600000000000023,0.034969,-0.002469,0.000713
0.5625,0.032394,-0.000779,0.000267
0.5650000000000119,0.028732,-0.002164,0.001512
0.5675000000000097,0.028273,0.000218,0.003327
0.5700000000000074,0.02735,0.00134,0.001828
0.5725000000000051,0.023884,0.002853,0.00596
0.5750000000000028,0.022639,0.001252,0.005776
0.5775000000000006,0.024673,0.003447,-2.1e-05
0.5799999999999983,0.016548,0.003073,-0.001065
0.5825000000000102,0.019319,0.003143,0.001671
0.585000000000008,0.015224,0.000147,-0.000718
0.5875000000000057,0.014,-0.003734,-0.004081
0.5900000000000034,0.01431,0.001556,-0.005779
0.5925000000000011,0.013458,-0.00031,-0.004011
0.5949999999999989,0.008794,0.00071,-0.006811
0.5975000000000108,0.011358,-0.002158,-0.005786
0.6000000000000085,0.006107,-0.000292,-0.002655
0.6025000000000063,0.007857,-0.001025,-0.003955
0.605000000000004,0.004903,0.004362,-0.005953
0.6075000000000017,0.007572,0.001114,-0.006759
0.6099999999999994,0.012461,0.004042,-0.006452
0.6125000000000114,0.01008,0.006174,-0.006554
0.6150000000000091,0.010604,0.004537,-0.006713
0.6175000000000068,0.005686,-0.001135,-0.009255
0.6200000000000045,0.007131,-0.002453,-0.009423
0.6225000000000023,0.010621,0.002383,-0.012057
0.625,0.014477,0.000394,-0.011458
0.6275000000000119,0.016113,0.000796,-0.010787
0.6300000000000097,0.015312,0.003134,-0.017616
0.6325000000000074,0.017384,-0.001323,-0.017416
0.6350000000000051,0.020174,-0.00046,-0.021674
0.6375000000000028,0.022103,0.000603,-0.02424
0.6400000000000006,0.024762,-0.001113,-0.023608
0.6424999999999983,0.026723,0.001115,-0.025965
0.6450000000000102,0.029021,0.002678,-0.028265
0.647500000000008,0.032552,0.002339,-0.028318
0.6500000000000057,0.037933,0.000846,-0.030571
0.6525000000000034,0.038489,0.002155,-0.031497
0.6550000000000011,0.038526,0.001948,-0.036158
0.6574999999999989,0.044698,-0.00027,-0.035669
0.6600000000000108,0.045266,0.001309,-0.039314
0.6625000000000085,0.04674,0.004306,-0.036053
0.6650000000000063,0.055631,0.006399,-0.041333
0.667500000000004,0.052454,0.004145,-0.044179
0.6700000000000017,0.058801,0.006329,-0.051899
0.6724999999999994,0.059549,0.011004,-0.050937
0.6750000000000114,0.066287,0.006556,-0.053209
0.6775000000000091,0.073271,0.010631,-0.058717
0.6800000000000068,0.07446,0.008205,-0.061108
0.6825000000000045,0.082784,0.010834,-0.065283
0.6850000000000023,0.08435,0.006901,-0.06979
0.6875,0.085743,0.004326,-0.076009
0.6900000000000119,0.094368,0.005165,-0.080802
0.6925000000000097,0.093838,0.006791,-0.08819
0.6950000000000074,0.096475,0.003473,-0.097415
0.6975000000000051,0.102002,-0.001077,-0.101346
0.7000000000000028,0.105829,0.002431,-0.112429
0.7025000000000006,0.103947,0.00179,-0.122555
0.7049999999999983,0.107295,-0.00249,-0.129405
0.7075000000000102,0.110602,-0.003742,-0.139293
0.710000000000008,0.111339,-0.006028,-0.154598
0.7125000000000057,0.11628,-0.005411,-0.163683
0.7150000000000034,0.116064,-0.008476,-0.179055
0.7175000000000011,0.114992,-0.014371,-0.189298
0.7199999999999989,0.114932,-0.014818,-0.205746
0.7225000000000108,0.113747,-0.01961,-0.216481
0.7250000000000085,0.11294,-0.019489,-0.236627
0.7275000000000063,0.111274,-0.016055,-0.253581
0.730000000000004,0.110083,-0.015815,-0.265349
0.7325000000000017,0.107355,-0.01688,-0.279862
0.7349999999999994,0.103251,-0.012551,-0.295766
0.7375000000000114,0.097638,-0.008942,-0.305827
0.7400000000000091,0.09174,-0.000212,-0.315824
0.7425000000000068,0.080219,0.002676,-0.329008
0.7450000000000045,0.073873,0.012235,-0.340332
0.7475000000000023,0.059616,0.022847,-0.349812
0.75,0.048827,0.026878,-0.359227
0.7525000000000119,0.04173,0.041483,-0.367117
0.7550000000000097,0.025756,0.051419,-0.374229
0.7575000000000074,0.020119,0.061544,-0.382485
0.7600000000000051,0.003024,0.072657,-0.38888
0.7625000000000028,-0.010476,0.080942,-0.390905
0.7650000000000006,-0.026847,0.087991,-0.401005
0.7674999999999983,-0.037949,0.103744,-0.402445
0.7700000000000102,-0.050686,0.107845,-0.406912
0.772500000000008,-0.065129,0.111499,-0.410089
0.7750000000000057,-0.07468,0.116225,-0.417151
0.7775000000000034,-0.085792,0.12425,-0.419953
0.7800000000000011,-0.094865,0.129547,-0.422516
0.7824999999999989,-0.107253,0.132074,-0.426295
0.7850000000000108,-0.116734,0.133552,-0.424567
0.7875000000000085,-0.125444,0.13678,-0.429715
0.7900000000000063,-0.128736,0.142264,-0.430134
0.792500000000004,-0.132754,0.14101,-0.433332
0.7950000000000017,-0.140639,0.137965,-0.438015
0.7974999999999994,-0.142929,0.134867,-0.442509
0.8000000000000114,-0.146835,0.135427,-0.447662
0.8025000000000091,-0.14524,0.127818,-0.449616
0.8050000000000068,-0.146869,0.124093,-0.452565
0.8075000000000045,-0.148314,0.124023,-0.456849
0.8100000000000023,-0.147316,0.115707,-0.462872
0.8125,-0.145537,0.106517,-0.469273
0.8150000000000119,-0.142033,0.102182,-0.476019
0.8175000000000097,-0.139859,0.098611,-0.485402
0.8200000000000074,-0.138021,0.088032,-0.490738
0.8225000000000051,-0.130765,0.078606,-0.495906
0.8250000000000028,-0.126803,0.070102,-0.50385
0.8275000000000006,-0.124335,0.061344,-0.512537
0.8299999999999983,-0.117466,0.056874,-0.520204
0.8325000000000102,-0.11757,0.046767,-0.523092
0.835000000000008,-0.108443,0.037504,-0.532597
0.8375000000000057,-0.10619,0.031212,-0.539906
0.8400000000000034,-0.103767,0.026239,-0.547357
0.8425000000000011,-0.095567,0.011938,-0.554815
0.8449999999999989,-0.090647,0.011336,-0.560449
0.8475000000000108,-0.090602,0.003334,-0.564028
0.8500000000000085,-0.086464,-0.002328,-0.572471
0.8525000000000063,-0.081828,-0.007027,-0.577228
0.855000000000004,-0.078422,-0.01017,-0.582738
0.8575000000000017,-0.078082,-0.019188,-0.590159
0.8599999999999994,-0.078397,-0.022995,-0.598571
0.8625000000000114,-0.075686,-0.027396,-0.602686
0.8650000000000091,-0.074291,-0.028531,-0.610265
0.8675000000000068,-0.075556,-0.035673,-0.618577
0.8700000000000045,-0.07557,-0.036085,-0.618725
0.8725000000000023,-0.077173,-0.037256,-0.629547
0.875,-0.077632,-0.040722,-0.633499
0.8775000000000119,-0.081582,-0.045928,-0.64057
0.8800000000000097,-0.082061,-0.042801,-0.643042
0.8825000000000074,-0.085486,-0.048046,-0.654291
0.8850000000000051,-0.090201,-0.051974,-0.656888
0.8875000000000028,-0.091219,-0.047004,-0.663436
0.8900000000000006,-0.097573,-0.043751,-0.667493
0.8924999999999983,-0.100115,-0.042309,-0.677312
0.8950000000000102,-0.102787,-0.045115,-0.681138
0.897500000000008,-0.109252,-0.042112,-0.688756
0.9000000000000057,-0.115511,-0.042284,-0.696792
0.9025000000000034,-0.114651,-0.042978,-0.704396
0.9050000000000012,-0.12252,-0.038482,-0.710462
0.9074999999999988,-0.126532,-0.034159,-0.717203
0.9100000000000108,-0.133987,-0.024559,-0.724782
0.9125000000000084,-0.134794,-0.022186,-0.731306
0.9150000000000064,-0.141543,-0.018886,-0.737047
0.917500000000004,-0.141494,-0.012051,-0.74386
0.9200000000000016,-0.145936,-0.016841,-0.750671
0.9224999999999994,-0.15115,-0.009358,-0.758302
0.9250000000000114,-0.157958,-0.008005,-0.766692
0.9275000000000092,-0.160295,-0.003754,-0.772864
0.9300000000000068,-0.161018,0.001612,-0.781602
0.9325000000000044,-0.166625,0.004422,-0.783548
0.9350000000000024,-0.168926,0.010797,-0.795369
0.9375,-0.170106,0.009959,-0.797929
0.940000000000012,-0.174345,0.009754,-0.809969
0.9425000000000096,-0.177282,0.013383,-0.815651
0.9450000000000074,-0.180413,0.016841,-0.826293
0.9475000000000052,-0.183834,0.021996,-0.829408
0.9500000000000028,-0.189404,0.024737,-0.836319
0.9525000000000006,-0.18454,0.026407,-0.843489
0.9549999999999984,-0.187963,0.032099,-0.852192
0.9575000000000102,-0.189631,0.035886,-0.859787
0.960000000000008,-0.188799,0.031837,-0.864715
0.9625000000000056,-0.195012,0.033804,-0.870422
0.9650000000000034,-0.187439,0.033201,-0.875698
0.9675000000000012,-0.19111,0.036515,-0.884934
0.9699999999999988,-0.194244,0.037444,-0.887619
0.9725000000000108,-0.194942,0.036555,-0.892632
0.9750000000000084,-0.193359,0.040241,-0.899235
0.9775000000000064,-0.193781,0.042643,-0.904459
0.980000000000004,-0.198239,0.043721,-0.909431
0.9825000000000016,-0.199491,0.043686,-0.91753
0.9849999999999994,-0.198464,0.04771,-0.919667
0.9875000000000114,-0.198007,0.04719,-0.927347
0.9900000000000092,-0.201607,0.046278,-0.930636
0.9925000000000068,-0.199471,0.046084,-0.937021
0.9950000000000044,-0.202009,0.047316,-0.940798
0.9975000000000024,-0.199922,0.048821,-0.947295
1.0,-0.201364,0.043475,-0.954537
1.002500000000012,-0.20434,0.044501,-0.960217
1.0050000000000097,-0.200892,0.043877,-0.964836
1.0075000000000074,-0.203055,0.045367,-0.970832
1.0100000000000051,-0.203204,0.043847,-0.97559
1.0125000000000028,-0.20354,0.046764,-0.983602
1.0150000000000006,-0.203548,0.044849,-0.987426
1.0174999999999983,-0.207968,0.0516,-0.99407
1.0200000000000102,-0.204387,0.052371,-0.998973
1.022500000000008,-0.211124,0.056881,-1.002489
1.0250000000000057,-0.211825,0.058583,-1.012224
1.0275000000000034,-0.211716,0.055573,-1.01476
1.0300000000000011,-0.211136,0.060977,-1.018925
1.0324999999999989,-0.216755,0.058033,-1.023919
1.0350000000000108,-0.218429,0.062744,-1.030371
1.0375000000000083,-0.222063,0.058795,-1.036029
1.0400000000000065,-0.221711,0.058343,-1.038435
1.042500000000004,-0.22597,0.057911,-1.043248
1.0450000000000017,-0.232385,0.058628,-1.049729
1.0474999999999994,-0.232312,0.054777,-1.050142
1.0500000000000114,-0.235906,0.05094,-1.057843
1.052500000000009,-0.235196,0.056305,-1.057643
1.0550000000000068,-0.238289,0.052907,-1.062158
1.0575000000000043,-0.241394,0.055497,-1.066219
1.0600000000000025,-0.244568,0.05602,-1.06927
1.0625,-0.252877,0.05307,-1.072727
1.065000000000012,-0.258073,0.055734,-1.072662
1.0675000000000097,-0.256619,0.053381,-1.076268
1.0700000000000074,-0.261346,0.059523,-1.077953
1.0725000000000051,-0.259861,0.059011,-1.082008
1.0750000000000028,-0.266139,0.06317,-1.084161
1.0775000000000006,-0.268643,0.06771,-1.082677
1.0799999999999983,-0.275093,0.067557,-1.09201
1.0825000000000102,-0.275283,0.070559,-1.092972
1.085000000000008,-0.277226,0.071225,-1.094272
1.0875000000000057,-0.282413,0.072201,-1.097516
1.0900000000000034,-0.283609,0.076392,-1.103993
1.0925000000000011,-0.284098,0.076459,-1.106553
1.0949999999999989,-0.286667,0.080448,-1.113116
1.0975000000000108,-0.290674,0.081833,-1.11893
1.1000000000000083,-0.294332,0.083899,-1.119261
1.1025000000000065,-0.294747,0.081629,-1.122159
1.105000000000004,-0.295283,0.082865,-1.125287
1.1075000000000017,-0.295527,0.082985,-1.132249
1.1099999999999994,-0.295143,0.084742,-1.134114
1.1125000000000114,-0.300129,0.078157,-1.135573
1.115000000000009,-0.298537,0.081328,-1.139714
1.1175000000000068,-0.302917,0.079041,-1.141756
1.1200000000000043,-0.306869,0.07646,-1.143009
1.1225000000000025,-0.305802,0.080662,-1.142805
1.125,-0.304799,0.074806,-1.1467
1.127500000000012,-0.306217,0.074346,-1.148482
1.1300000000000097,-0.306383,0.07268,-1.152121
1.1325000000000074,-0.309238,0.075246,-1.152349
1.1350000000000051,-0.308079,0.07179,-1.154308
1.1375000000000028,-0.309718,0.070467,-1.156952
1.1400000000000006,-0.311244,0.070208,-1.162525
1.1424999999999983,-0.311741,0.076213,-1.159855
1.1450000000000102,-0.312823,0.066135,-1.162139
1.147500000000008,-0.312816,0.072711,-1.172373
1.1500000000000057,-0.311349,0.071775,-1.171855
1.1525000000000034,-0.314408,0.077939,-1.174132
1.1550000000000011,-0.315097,0.076576,-1.177739
1.1574999999999989,-0.31351,0.075363,-1.180965
1.1600000000000108,-0.316005,0.075362,-1.18942
1.1625000000000083,-0.317142,0.078759,-1.190031
1.1650000000000065,-0.315188,0.081368,-1.193278
1.167500000000004,-0.320524,0.084863,-1.195097
1.1700000000000017,-0.32002,0.083534,-1.198628
1.1724999999999994,-0.324026,0.084514,-1.199417
1.1750000000000114,-0.323613,0.08992,-1.20384
1.177500000000009,-0.325492,0.088059,-1.207585
1.1800000000000068,-0.324515,0.087708,-1.20904
1.1825000000000043,-0.326143,0.089796,-1.213926
1.1850000000000025,-0.32789,0.087269,-1.216865
1.1875,-0.328845,0.089476,-1.220187
1.190000000000012,-0.331998,0.092811,-1.224435
1.1925000000000097,-0.333733,0.090239,-1.225429
1.1950000000000074,-0.335464,0.085222,-1.226394
1.1975000000000051,-0.339653,0.089427,-1.230494
1.2000000000000028,-0.340758,0.083605,-1.231669
1.2025000000000006,-0.344543,0.091106,-1.234104
1.2049999999999983,-0.343409,0.086034,-1.237886
1.2075000000000102,-0.345823,0.085699,-1.242877
1.210000000000008,-0.349304,0.084388,-1.245086
1.2125000000000057,-0.352991,0.08652,-1.247623
1.2150000000000034,-0.349268,0.083747,-1.251214
1.2175000000000011,-0.355822,0.084325,-1.250749
1.2199999999999989,-0.355879,0.08807,-1.259606
1.2225000000000108,-0.361818,0.084294,-1.258173
1.2250000000000083,-0.362048,0.086086,-1.261068
1.2275000000000065,-0.364316,0.087,-1.266751
1.230000000000004,-0.367807,0.086301,-1.270666
1.2325000000000017,-0.369656,0.086964,-1.270089
1.2349999999999994,-0.37092,0.08607,-1.275027
1.2375000000000114,-0.373194,0.09009,-1.279922
1.240000000000009,-0.372552,0.086676,-1.28321
1.2425000000000068,-0.376548,0.086927,-1.281962
1.2450000000000043,-0.375351,0.087031,-1.286822
1.2475000000000025,-0.375711,0.088892,-1.291043
1.25,-0.38077,0.086928,-1.292816
1.252500000000012,-0.382757,0.087787,-1.294773
1.2550000000000097,-0.384043,0.088302,-1.301852
1.2575000000000074,-0.382598,0.085559,-1.303419
1.2600000000000051,-0.386237,0.078855,-1.306238
1.2625000000000028,-0.386852,0.079199,-1.307774
1.2650000000000006,-0.386128,0.080194,-1.315125
1.2674999999999983,-0.383581,0.07733,-1.315708
1.2700000000000102,-0.386451,0.078804,-1.321309
1.272500000000008,-0.389496,0.074721,-1.321398
1.2750000000000057,-0.393389,0.070741,-1.323857
1.2775000000000034,-0.396449,0.069437,-1.324669
1.2800000000000011,-0.393149,0.075749,-1.326091
1.2824999999999989,-0.394768,0.075743,-1.334766
1.2850000000000108,-0.393521,0.071355,-1.333737
1.2875000000000083,-0.400248,0.070473,-1.338506
1.2900000000000065,-0.398194,0.069045,-1.340739
1.292500000000004,-0.403871,0.069637,-1.340499
1.2950000000000017,-0.402157,0.074258,-1.344364
1.2974999999999994,-0.403772,0.070821,-1.344877
1.3000000000000114,-0.406949,0.070974,-1.349895
1.302500000000009,-0.402107,0.072544,-1.350515
1.3050000000000068,-0.40603,0.072961,-1.358799
1.3075000000000043,-0.407502,0.071374,-1.359737
1.3100000000000025,-0.40655,0.075875,-1.36027
1.3125,-0.408373,0.076931,-1.366634
1.315000000000012,-0.40478,0.078215,-1.371958
1.3175000000000097,-0.405884,0.080999,-1.375551
1.3200000000000074,-0.409533,0.08275,-1.380443
1.3225000000000051,-0.409906,0.080513,-1.384137
1.3250000000000028,-0.407122,0.087146,-1.38826
1.3275000000000006,-0.411544,0.083504,-1.390588
1.3299999999999983,-0.412952,0.08601,-1.397461
1.3325000000000102,-0.41361,0.087758,-1.402267
1.335000000000008,-0.413276,0.088837,-1.406156
1.3375000000000057,-0.412233,0.093065,-1.407556
1.3400000000000034,-0.415117,0.098278,-1.413839
1.3425000000000011,-0.414193,0.094634,-1.413425
1.3449999999999989,-0.410219,0.101308,-1.421306
1.3475000000000108,-0.419024,0.100961,-1.425145
1.3500000000000083,-0.419525,0.103245,-1.430156
1.3525000000000065,-0.419672,0.109483,-1.432737
1.355000000000004,-0.422398,0.113245,-1.434108
1.3575000000000017,-0.428142,0.118708,-1.436585
1.3599999999999994,-0.427172,0.114502,-1.439151
1.3625000000000114,-0.43115,0.118028,-1.442192
1.365000000000009,-0.435005,0.124609,-1.445747
1.3675000000000068,-0.440969,0.130331,-1.446302
1.3700000000000043,-0.442793,0.135123,-1.447729
1.3725000000000025,-0.446856,0.136989,-1.452301
1.375,-0.447712,0.143031,-1.455567
1.377500000000012,-0.451811,0.147057,-1.458032
1.3800000000000097,-0.456265,0.152956,-1.461915
1.3825000000000074,-0.456727,0.153943,-1.463189
1.3850000000000051,-0.461494,0.160814,-1.468773
1.3875000000000028,-0.465669,0.166341,-1.467224
1.3900000000000006,-0.473731,0.168464,-1.471868
1.3924999999999983,-0.472337,0.173646,-1.473577
1.3950000000000102,-0.475277,0.178216,-1.481662
1.397500000000008,-0.481579,0.179815,-1.484101
1.4000000000000057,-0.487016,0.185966,-1.488317
1.4025000000000034,-0.485088,0.188614,-1.491221
1.4050000000000011,-0.488195,0.188021,-1.493453
1.4074999999999989,-0.494363,0.198076,-1.497009
1.4100000000000108,-0.494966,0.196862,-1.495815
1.4125000000000083,-0.499764,0.203892,-1.500363
1.4150000000000065,-0.502807,0.206649,-1.504097
1.417500000000004,-0.507267,0.209337,-1.50372
1.4200000000000017,-0.506391,0.215955,-1.506733
1.4224999999999994,-0.503068,0.221769,-1.504339
1.4250000000000114,-0.498742,0.225502,-1.497066
1.427500000000009,-0.487843,0.232204,-1.492904
1.4300000000000068,-0.463996,0.241655,-1.479878
1.4325000000000043,-0.435236,0.248023,-1.463918
1.4350000000000025,-0.394368,0.258639,-1.44795
1.4375,-0.345315,0.267207,-1.420455
1.440000000000012,-0.285156,0.282655,-1.387864
1.4425000000000097,-0.224528,0.303663,-1.345987
1.4450000000000074,-0.165977,0.325721,-1.307676
1.4475000000000051,-0.125286,0.336907,-1.270301
1.4500000000000028,-0.094236,0.351335,-1.239458
1.4525000000000006,-0.072388,0.355029,-1.222687
1.4549999999999983,-0.051306,0.367367,-1.20585
1.4575000000000102,-0.030138,0.382529,-1.197194
1.460000000000008,-0.001596,0.394131,-1.190624
1.4625000000000057,0.025571,0.399763,-1.183524
1.4650000000000034,0.05702,0.409291,-1.169725
1.4675000000000011,0.08905,0.415725,-1.155578
1.4699999999999989,0.123657,0.4156,-1.139841
1.4725000000000108,0.149991,0.415933,-1.123369
1.4750000000000083,0.174498,0.415664,-1.106324
1.4775000000000065,0.187419,0.415967,-1.090886
1.480000000000004,0.195389,0.413571,-1.073704
1.4825000000000017,0.19884,0.409153,-1.058777
1.4849999999999994,0.196927,0.403194,-1.043469
1.4875000000000114,0.189037,0.400297,-1.021949
1.490000000000009,0.179198,0.40002,-1.005414
1.4925000000000068,0.169274,0.391982,-0.988645
1.4950000000000043,0.157297,0.387664,-0.976762
1.4975000000000025,0.149909,0.381915,-0.963614
1.5,0.136445,0.378735,-0.949344
1.502500000000012,0.129011,0.381356,-0.937733
1.5050000000000097,0.114781,0.379681,-0.92127
1.5075000000000074,0.104652,0.374339,-0.913935
1.5100000000000051,0.094592,0.370639,-0.902505
1.5125000000000028,0.085642,0.370405,-0.894477
1.5150000000000006,0.073133,0.3698,-0.88563
1.5174999999999983,0.05971,0.366209,-0.879494
1.5200000000000102,0.047448,0.36976,-0.871428
1.522500000000008,0.037925,0.365989,-0.870693
1.5250000000000057,0.026961,0.363972,-0.862834
1.5275000000000034,0.019283,0.358575,-0.857569
1.5300000000000011,0.009371,0.360812,-0.856321
1.5324999999999989,-0.003009,0.360287,-0.851308
1.5350000000000108,-0.014931,0.359532,-0.847523
1.5375000000000083,-0.019692,0.354952,-0.843601
1.5400000000000065,-0.029509,0.349998,-0.840484
1.542500000000004,-0.031097,0.344678,-0.836876
1.5450000000000017,-0.042808,0.341164,-0.836645
1.5474999999999994,-0.048517,0.334402,-0.832187
1.5500000000000114,-0.052632,0.330616,-0.826918
1.552500000000009,-0.059895,0.321136,-0.82081
1.5550000000000068,-0.061248,0.308643,-0.814553
1.5575000000000043,-0.066389,0.299177,-0.809373
1.5600000000000025,-0.070693,0.290387,-0.804964
1.5625,-0.073203,0.273808,-0.796737
1.565000000000012,-0.07416,0.263815,-0.791657
1.5675000000000097,-0.081633,0.247829,-0.780222
1.5700000000000074,-0.089219,0.231212,-0.769735
1.5725000000000051,-0.090806,0.222469,-0.764036
1.5750000000000028,-0.093801,0.207906,-0.754564
1.5775000000000006,-0.093687,0.198635,-0.749754
1.5799999999999983,-0.092992,0.188854,-0.738998
1.5825000000000102,-0.096579,0.185195,-0.734589
1.585000000000008,-0.093471,0.177578,-0.729203
1.5875000000000057,-0.091945,0.169243,-0.719175
1.5900000000000034,-0.090225,0.160851,-0.715536
1.5925000000000011,-0.089903,0.153179,-0.710382
1.5949999999999989,-0.087558,0.149845,-0.709778
1.5975000000000108,-0.090158,0.143061,-0.703861
1.6000000000000083,-0.087498,0.131906,-0.701425
1.6025000000000065,-0.092512,0.122378,-0.692865
1.605000000000004,-0.088218,0.117353,-0.690566
1.6075000000000017,-0.085562,0.112324,-0.684838
1.6099999999999994,-0.082375,0.098812,-0.680703
1.6125000000000114,-0.080697,0.09576,-0.6754
1.615000000000009,-0.075062,0.088578,-0.668353
1.6175000000000068,-0.078072,0.079098,-0.660865
1.6200000000000043,-0.075424,0.072481,-0.656053
1.6225000000000025,-0.075594,0.066864,-0.64867
1.625,-0.067766,0.061809,-0.645363
1.627500000000012,-0.064474,0.054269,-0.638397
1.6300000000000097,-0.057098,0.048902,-0.633982
1.6325000000000074,-0.05237,0.047278,-0.623047
1.6350000000000051,-0.043501,0.049356,-0.611796
1.6375000000000028,-0.040731,0.051092,-0.604314
1.6400000000000006,-0.03058,0.049237,-0.591211
1.6424999999999983,-0.019036,0.057664,-0.582476
1.6450000000000102,-0.004044,0.06525,-0.571027
1.647500000000008,0.007015,0.072338,-0.553046
1.6500000000000057,0.026726,0.081781,-0.53983
1.6525000000000034,0.043679,0.089347,-0.523788
1.6550000000000011,0.067527,0.099061,-0.509624
1.6574999999999989,0.089034,0.104918,-0.498019
1.6600000000000108,0.108124,0.113717,-0.486091
1.6625000000000083,0.130323,0.121399,-0.475965
1.6650000000000065,0.14646,0.130203,-0.465578
1.667500000000004,0.15609,0.137626,-0.454679
1.6700000000000017,0.16766,0.139446,-0.444691
1.6724999999999994,0.17575,0.148267,-0.432587
1.6750000000000114,0.18587,0.153021,-0.418241
1.677500000000009,0.188969,0.15972,-0.410696
1.6800000000000068,0.189411,0.162078,-0.401643
1.6825000000000043,0.188465,0.174568,-0.391981
1.6850000000000025,0.187013,0.171617,-0.388239
1.6875,0.183024,0.178549,-0.381163
1.690000000000012,0.175463,0.185316,-0.371537
1.6925000000000097,0.171151,0.185268,-0.363511
1.6950000000000074,0.165901,0.186216,-0.355765
1.6975000000000051,0.155101,0.188591,-0.351737
1.7000000000000028,0.150069,0.188432,-0.351775
1.7025000000000006,0.144399,0.189399,-0.348687
1.7049999999999983,0.132813,0.191172,-0.34842
1.7075000000000102,0.128932,0.194078,-0.341862
1.710000000000008,0.113191,0.191159,-0.339806
1.7125000000000057,0.109822,0.192221,-0.338405
1.7150000000000034,0.098688,0.193522,-0.338538
1.7175000000000011,0.094224,0.191716,-0.336449
1.7199999999999989,0.08428,0.194602,-0.338392
1.7225000000000108,0.0792,0.194313,-0.334293
1.7250000000000083,0.07408,0.191227,-0.331225
1.7275000000000065,0.074143,0.189366,-0.331162
1.730000000000004,0.073522,0.18782,-0.332727
1.7325000000000017,0.071885,0.183182,-0.331457
1.7349999999999994,0.076132,0.182054,-0.332381
1.7375000000000114,0.078204,0.178529,-0.332125
1.740000000000009,0.081428,0.177119,-0.335653
1.7425000000000068,0.088839,0.174254,-0.337277
1.7450000000000043,0.088426,0.176636,-0.336541
1.7475000000000025,0.092705,0.177082,-0.337347
1.75,0.092032,0.176137,-0.337054
1.752500000000012,0.094966,0.174569,-0.339723
1.7550000000000097,0.092994,0.177814,-0.336623
1.7575000000000074,0.093567,0.181244,-0.341861
1.7600000000000051,0.093869,0.181284,-0.341743
1.7625000000000028,0.094976,0.184213,-0.343205
1.7650000000000006,0.096308,0.18547,-0.339414
1.7674999999999983,0.090838,0.187091,-0.342378
1.7700000000000102,0.095064,0.186097,-0.346349
1.772500000000008,0.094105,0.18791,-0.347373
1.7750000000000057,0.09269,0.192793,-0.348271
1.7775000000000034,0.09386,0.187153,-0.351642
1.7800000000000011,0.097215,0.18789,-0.35198
1.7824999999999989,0.098623,0.189697,-0.358231
1.7850000000000108,0.099573,0.189496,-0.359054
1.7875000000000083,0.102238,0.186513,-0.361407
1.7900000000000065,0.100098,0.189254,-0.360976
1.792500000000004,0.101843,0.189175,-0.365092
1.7950000000000017,0.106811,0.191879,-0.367703
1.7974999999999994,0.100049,0.193193,-0.367039
1.8000000000000114,0.105634,0.189041,-0.372222
1.802500000000009,0.103875,0.191344,-0.372319
1.8050000000000068,0.10656,0.188964,-0.373499
1.8075000000000043,0.10907,0.191993,-0.372599
1.8100000000000025,0.111865,0.191421,-0.372574
1.8125,0.108451,0.19211,-0.376631
1.815000000000012,0.109824,0.192697,-0.376424
1.8175000000000097,0.11133,0.192436,-0.379257
1.8200000000000076,0.112397,0.195424,-0.384983
1.822500000000005,0.112285,0.194422,-0.385477
1.8250000000000028,0.11185,0.192788,-0.385056
1.8275000000000008,0.114184,0.195026,-0.387645
1.8299999999999983,0.115026,0.197426,-0.389148
1.8325000000000105,0.115789,0.199092,-0.394009
1.835000000000008,0.114589,0.200906,-0.397821
1.8375000000000057,0.120365,0.199457,-0.399315
1.8400000000000036,0.125117,0.200587,-0.402008
1.8425000000000007,0.120794,0.202557,-0.40184
1.8449999999999989,0.123224,0.205109,-0.410365
1.8475000000000108,0.125598,0.207738,-0.410154
1.8500000000000083,0.129572,0.203554,-0.412367
1.8525000000000065,0.128376,0.206276,-0.414802
1.855000000000004,0.132037,0.208431,-0.41832
1.8575000000000017,0.132059,0.208669,-0.423777
1.8599999999999997,0.133532,0.213064,-0.420617
1.8625000000000116,0.132922,0.207523,-0.427006
1.865000000000009,0.134247,0.213424,-0.42886
1.8675000000000068,0.133079,0.212172,-0.429876
1.8700000000000043,0.136984,0.218356,-0.431989
1.8725000000000025,0.134026,0.218657,-0.434145
1.875,0.134791,0.219204,-0.439306
1.877500000000012,0.134537,0.219073,-0.440916
1.8800000000000097,0.135385,0.218891,-0.445686
1.8825000000000076,0.135591,0.227011,-0.446248
1.885000000000005,0.134736,0.229179,-0.447871
1.8875000000000028,0.133403,0.231711,-0.4508
1.8900000000000008,0.133675,0.235296,-0.453395
1.8924999999999983,0.132088,0.235022,-0.455341
1.8950000000000105,0.12866,0.237677,-0.455022
1.897500000000008,0.132539,0.241681,-0.45687
1.9000000000000057,0.131137,0.244375,-0.461274
1.9025000000000036,0.130533,0.247011,-0.456607
1.9050000000000007,0.130554,0.246177,-0.462338
1.9074999999999989,0.126884,0.248363,-0.462766
1.9100000000000108,0.128042,0.252827,-0.463329
1.9125000000000083,0.129328,0.253513,-0.464034
1.9150000000000065,0.127984,0.253039,-0.466061
1.917500000000004,0.129781,0.255676,-0.466758
1.9200000000000017,0.131942,0.256104,-0.468856
1.9224999999999997,0.130971,0.261387,-0.470395
1.9250000000000116,0.130147,0.262808,-0.47147
1.927500000000009,0.13259,0.26338,-0.473864
1.9300000000000068,0.132691,0.267605,-0.472692
1.9325000000000043,0.132858,0.268961,-0.474376
1.9350000000000025,0.135785,0.270063,-0.476615
1.9375,0.133561,0.273217,-0.477725
1.940000000000012,0.133317,0.273279,-0.477317
1.9425000000000097,0.135266,0.274513,-0.482939
1.9450000000000076,0.138596,0.278243,-0.483947
1.947500000000005,0.137199,0.279184,-0.484081
1.9500000000000028,0.136683,0.279429,-0.4885
1.9525000000000008,0.136436,0.285039,-0.489548
1.9549999999999983,0.138133,0.288064,-0.490037
1.9575000000000105,0.13771,0.287329,-0.495717
1.960000000000008,0.143226,0.29253,-0.494582
1.9625000000000057,0.138462,0.294373,-0.495513
1.9650000000000036,0.140976,0.290708,-0.498046
1.9675000000000007,0.140878,0.293749,-0.496854
1.9699999999999989,0.14193,0.292883,-0.49821
1.9725000000000108,0.139833,0.299097,-0.502025
1.9750000000000083,0.14113,0.296111,-0.505503
1.9775000000000065,0.13996,0.295795,-0.507316
1.980000000000004,0.141407,0.299967,-0.507936
1.9825000000000017,0.138801,0.303002,-0.510711
1.9849999999999997,0.142213,0.300206,-0.51343
1.9875000000000116,0.139313,0.297373,-0.509943
1.990000000000009,0.140775,0.300222,-0.512664
1.9925000000000068,0.141903,0.299729,-0.516053
1.9950000000000043,0.139562,0.302356,-0.515516
1.9975000000000025,0.144991,0.299979,-0.516191
2.0,0.145472,0.301146,-0.517963
2.002500000000012,0.145166,0.303949,-0.524069
2.0050000000000097,0.146712,0.299156,-0.527534
2.0075000000000074,0.148235,0.300372,-0.527436
2.010000000000005,0.152207,0.302009,-0.529046
2.012500000000003,0.15365,0.301696,-0.53023
2.015000000000001,0.152289,0.301272,-0.53124
2.0174999999999983,0.155377,0.308815,-0.531361
2.0200000000000102,0.157589,0.306259,-0.532609
2.022500000000008,0.15667,0.308325,-0.53443
2.0250000000000057,0.157408,0.313925,-0.535868
2.0275000000000034,0.161936,0.312433,-0.538276
2.030000000000001,0.16071,0.319197,-0.539921
2.032499999999999,0.164118,0.318705,-0.545104
2.035000000000011,0.163072,0.317044,-0.546841
2.0375000000000085,0.167287,0.31871,-0.547402
2.0400000000000063,0.168631,0.322487,-0.548187
2.042500000000004,0.167312,0.322924,-0.549772
2.0450000000000017,0.17092,0.326798,-0.553928
2.0474999999999994,0.174231,0.322845,-0.556316
2.050000000000012,0.169946,0.330017,-0.557488
2.052500000000009,0.171379,0.333018,-0.561647
2.055000000000007,0.173441,0.332426,-0.565548
2.0575000000000045,0.171282,0.338938,-0.564528
2.0600000000000023,0.167335,0.340275,-0.565903
2.0625,0.172357,0.337569,-0.567831
2.065000000000012,0.168558,0.341667,-0.569658
2.0675000000000097,0.169394,0.34165,-0.573963
2.0700000000000074,0.16802,0.345346,-0.568639
2.072500000000005,0.166691,0.346441,-0.573912
2.075000000000003,0.168557,0.347536,-0.57267
2.077500000000001,0.167989,0.349831,-0.573658
2.0799999999999983,0.166845,0.346736,-0.573127
2.0825000000000102,0.164666,0.357316,-0.577346
2.085000000000008,0.167336,0.352845,-0.577475
2.0875000000000057,0.170042,0.359153,-0.577809
2.0900000000000034,0.16912,0.355814,-0.579386
2.092500000000001,0.166404,0.354286,-0.580672
2.094999999999999,0.163716,0.352813,-0.580656
2.097500000000011,0.167391,0.359102,-0.582871
2.1000000000000085,0.165071,0.355294,-0.586873
2.1025000000000063,0.167841,0.360069,-0.589345
2.105000000000004,0.171233,0.356937,-0.588776
2.1075000000000017,0.172863,0.353807,-0.589998
2.1099999999999994,0.175103,0.353513,-0.596203
2.112500000000012,0.173272,0.358661,-0.598246
2.115000000000009,0.177374,0.355526,-0.598228
2.117500000000007,0.176295,0.359505,-0.600448
2.1200000000000045,0.174969,0.352621,-0.60316
2.1225000000000023,0.173108,0.355839,-0.603056
2.125,0.176431,0.35936,-0.601582
2.127500000000012,0.176901,0.363105,-0.607014
2.1300000000000097,0.178782,0.360017,-0.607057
2.1325000000000074,0.17915,0.359698,-0.609696
2.135000000000005,0.179233,0.361718,-0.608228
2.137500000000003,0.180091,0.358646,-0.610238
2.140000000000001,0.181057,0.364142,-0.614016
2.1424999999999983,0.179023,0.364415,-0.617261
2.1450000000000102,0.183392,0.366234,-0.615819
2.147500000000008,0.184277,0.367306,-0.619902
2.1500000000000057,0.179731,0.363315,-0.621647
2.1525000000000034,0.183854,0.365598,-0.62228
2.155000000000001,0.180928,0.367484,-0.621565
2.157499999999999,0.178283,0.36316,-0.625502
2.160000000000011,0.179731,0.368054,-0.625017
2.1625000000000085,0.174695,0.369876,-0.625761
2.1650000000000063,0.17949,0.371266,-0.628617
2.167500000000004,0.178569,0.367463,-0.627908
2.1700000000000017,0.176971,0.373142,-0.630747
2.1724999999999994,0.176174,0.371496,-0.629395
2.175000000000012,0.177275,0.372248,-0.630196
2.177500000000009,0.177819,0.368828,-0.630325
2.180000000000007,0.17281,0.370682,-0.63005
2.1825000000000045,0.174559,0.370941,-0.632826
2.1850000000000023,0.173653,0.373999,-0.635506
2.1875,0.175668,0.374717,-0.63512
2.190000000000012,0.173398,0.373731,-0.63102
2.1925000000000097,0.173273,0.371835,-0.633544
2.1950000000000074,0.170267,0.374296,-0.636359
2.197500000000005,0.17012,0.377626,-0.636119
2.200000000000003,0.17172,0.374814,-0.634018
2.202500000000001,0.170302,0.372718,-0.635047
2.2049999999999983,0.166622,0.379057,-0.634962
2.2075000000000102,0.167897,0.374647,-0.63515
2.210000000000008,0.163614,0.372957,-0.63244
2.2125000000000057,0.165721,0.372108,-0.634831
2.2150000000000034,0.165399,0.369451,-0.630611
2.217500000000001,0.170269,0.37377,-0.627565
2.219999999999999,0.164,0.372178,-0.627673
2.222500000000011,0.165115,0.373695,-0.629298
2.2250000000000085,0.162617,0.374916,-0.62726
2.2275000000000063,0.164372,0.372393,-0.625612
2.230000000000004,0.161042,0.374668,-0.623421
2.2325000000000017,0.161072,0.371347,-0.623657
2.2349999999999994,0.162386,0.371098,-0.620304
2.237500000000012,0.161501,0.369076,-0.619061
2.240000000000009,0.158315,0.370459,-0.619906
2.242500000000007,0.15936,0.366928,-0.618291
2.2450000000000045,0.160531,0.372189,-0.617227
2.2475000000000023,0.160138,0.368062,-0.617719
2.25,0.16355,0.36948,-0.618352
2.252500000000012,0.168232,0.372405,-0.615978
2.2550000000000097,0.167384,0.376067,-0.617972
2.2575000000000074,0.165655,0.376313,-0.619057
2.260000000000005,0.169212,0.378334,-0.620182
2.262500000000003,0.171327,0.37503,-0.615133
2.265000000000001,0.166669,0.376272,-0.614274
2.2674999999999983,0.172537,0.380454,-0.619018
2.2700000000000102,0.167748,0.378332,-0.616303
2.272500000000008,0.167269,0.377708,-0.614321
2.2750000000000057,0.170889,0.378019,-0.616114
2.2775000000000034,0.167028,0.382657,-0.617838
2.280000000000001,0.166238,0.380949,-0.615217
2.282499999999999,0.162909,0.381099,-0.616548
2.285000000000011,0.163779,0.383868,-0.616825
2.2875000000000085,0.163769,0.382458,-0.617285
2.2900000000000063,0.163493,0.38157,-0.613019
2.292500000000004,0.159112,0.383968,-0.613664
2.2950000000000017,0.161714,0.383241,-0.618823
2.2974999999999994,0.156609,0.379,-0.620997
2.300000000000012,0.157572,0.3826,-0.617038
2.302500000000009,0.158306,0.381126,-0.615285
2.305000000000007,0.158148,0.379921,-0.618611
2.3075000000000045,0.156216,0.375668,-0.620648
2.3100000000000023,0.160711,0.377706,-0.619541
2.3125,0.159679,0.377717,-0.617182
2.315000000000012,0.156478,0.374607,-0.619687
2.3175000000000097,0.157308,0.373078,-0.620279
2.3200000000000074,0.154769,0.37195,-0.618254
2.322500000000005,0.155041,0.36936,-0.620099
2.325000000000003,0.156359,0.371289,-0.618824
2.327500000000001,0.154001,0.369445,-0.619812
2.3299999999999983,0.152827,0.368,-0.618647
2.3325000000000102,0.153228,0.367414,-0.617008
2.335000000000008,0.151049,0.371384,-0.616221
2.3375000000000057,0.151885,0.367323,-0.618991
2.3400000000000034,0.148308,0.365101,-0.618839
2.342500000000001,0.149327,0.361762,-0.616251
2.344999999999999,0.149129,0.363729,-0.616199
2.347500000000011,0.149446,0.36448,-0.613587
2.3500000000000085,0.143636,0.359624,-0.614971
2.3525000000000063,0.141861,0.369055,-0.613105
2.355000000000004,0.143626,0.359555,-0.612228
2.3575000000000017,0.142986,0.352077,-0.610629
2.3599999999999994,0.141758,0.355507,-0.608702
2.362500000000012,0.145047,0.357468,-0.605758
2.365000000000009,0.140486,0.350494,-0.604013
2.367500000000007,0.142204,0.351624,-0.601576
2.3700000000000045,0.138495,0.347864,-0.601159
2.3725000000000023,0.145271,0.347275,-0.597026
2.375,0.139802,0.349177,-0.596114
2.377500000000012,0.137671,0.346225,-0.596638
2.3800000000000097,0.142219,0.342933,-0.592706
2.3825000000000074,0.141843,0.34015,-0.591303
2.385000000000005,0.138388,0.339314,-0.589617
2.387500000000003,0.137392,0.337672,-0.58813
2.390000000000001,0.140556,0.34027,-0.587253
2.3924999999999983,0.141888,0.336794,-0.584646
2.3950000000000102,0.136115,0.337147,-0.583354
2.397500000000008,0.142179,0.339259,-0.581838
2.4000000000000057,0.138927,0.339084,-0.578238
2.4025000000000034,0.135169,0.335967,-0.574593
2.405000000000001,0.135752,0.33514,-0.576738
2.407499999999999,0.137978,0.333331,-0.574946
2.410000000000011,0.131918,0.336253,-0.573212
2.4125000000000085,0.132094,0.335612,-0.572065
2.4150000000000063,0.132101,0.328165,-0.567709
2.417500000000004,0.131246,0.329981,-0.566897
2.4200000000000017,0.128181,0.335728,-0.569461
2.4224999999999994,0.129443,0.333528,-0.567858
2.425000000000012,0.127295,0.336666,-0.572178
2.427500000000009,0.12764,0.332714,-0.573312
2.430000000000007,0.123896,0.324906,-0.572032
2.4325000000000045,0.129879,0.336254,-0.566825
2.4350000000000023,0.123078,0.329129,-0.570323
2.4375,0.124238,0.323049,-0.572984
2.440000000000012,0.129365,0.327795,-0.573041
2.4425000000000097,0.124569,0.327721,-0.57302
2.4450000000000074,0.127945,0.325301,-0.57417
2.447500000000005,0.121797,0.32764,-0.572725
2.450000000000003,0.127039,0.327552,-0.574343
2.452500000000001,0.12591,0.331532,-0.577459
2.4549999999999983,0.123734,0.324497,-0.575724
2.4575000000000102,0.12253,0.330009,-0.580795
2.460000000000008,0.126072,0.333733,-0.582716
2.4625000000000057,0.120703,0.33211,-0.58257
2.4650000000000034,0.122311,0.33135,-0.580932
2.467500000000001,0.123406,0.333983,-0.583665
2.469999999999999,0.122381,0.330278,-0.587072
2.472500000000011,0.124065,0.331389,-0.585267
2.4750000000000085,0.122739,0.336515,-0.589036
2.4775000000000063,0.123003,0.334123,-0.592502
2.480000000000004,0.124527,0.331468,-0.590685
2.4825000000000017,0.126281,0.338313,-0.593953
2.4849999999999994,0.126963,0.336609,-0.59749
2.487500000000012,0.125087,0.337624,-0.597429
2.490000000000009,0.126148,0.33946,-0.594574
2.492500000000007,0.125503,0.339086,-0.597164
2.4950000000000045,0.123287,0.344808,-0.598772
2.4975000000000023,0.121278,0.337117,-0.598148
2.5,0.12014,0.339238,-0.601366
2.502500000000012,0.117748,0.339217,-0.601663
2.5050000000000097,0.118849,0.335246,-0.604151
2.5075000000000074,0.123419,0.337096,-0.602889
2.510000000000005,0.121025,0.334824,-0.601921
2.512500000000003,0.117468,0.334776,-0.601341
2.515000000000001,0.117911,0.334848,-0.602356
2.5174999999999983,0.119505,0.334636,-0.602059
2.5200000000000102,0.113975,0.336652,-0.600943
2.522500000000008,0.114144,0.332879,-0.6005
2.5250000000000057,0.11318,0.335245,-0.605695
2.5275000000000034,0.10876,0.335885,-0.603704
2.530000000000001,0.109131,0.337295,-0.60678
2.532499999999999,0.108363,0.338412,-0.606954
2.535000000000011,0.105058,0.336852,-0.602105
2.5375000000000085,0.101084,0.332008,-0.603394
2.5400000000000063,0.10289,0.337171,-0.604209
2.542500000000004,0.100934,0.334046,-0.603622
2.5450000000000017,0.098883,0.337651,-0.603236
2.5474999999999994,0.096975,0.332763,-0.600326
2.550000000000012,0.096539,0.336253,-0.600793
2.552500000000009,0.094637,0.333522,-0.601776
2.555000000000007,0.093478,0.333773,-0.598605
2.5575000000000045,0.093091,0.33339,-0.596449
2.5600000000000023,0.095368,0.330217,-0.59558
2.5625,0.095876,0.329811,-0.596726
2.565000000000012,0.093205,0.33323,-0.598554
2.5675000000000097,0.096149,0.330275,-0.596407
2.5700000000000074,0.089022,0.332106,-0.593971
2.572500000000005,0.093519,0.331099,-0.593931
2.575000000000003,0.093203,0.330863,-0.593378
2.577500000000001,0.093795,0.331249,-0.594255
2.5799999999999983,0.097386,0.328732,-0.596745
2.5825000000000102,0.09455,0.330717,-0.594506
2.585000000000008,0.090981,0.330553,-0.592922
2.5875000000000057,0.091516,0.332946,-0.592932
2.5900000000000034,0.093853,0.327141,-0.593717
2.592500000000001,0.095611,0.32722,-0.592041
2.594999999999999,0.090029,0.328311,-0.595883
2.597500000000011,0.093689,0.327737,-0.595208
2.6000000000000085,0.094294,0.325666,-0.595488
2.6025000000000063,0.093772,0.328009,-0.595918
2.605000000000004,0.097129,0.326686,-0.597835
2.6075000000000017,0.096943,0.328551,-0.597975
2.6099999999999994,0.097657,0.33183,-0.601322
2.612500000000012,0.099879,0.329936,-0.603916
2.615000000000009,0.099394,0.330856,-0.607963
2.617500000000007,0.097076,0.333057,-0.609666
2.6200000000000045,0.101087,0.335323,-0.611048
2.6225000000000023,0.090883,0.33505,-0.613873
2.625,0.099441,0.337162,-0.615856
2.627500000000012,0.095198,0.336501,-0.616653
2.6300000000000097,0.097982,0.335515,-0.621516
2.6325000000000074,0.098374,0.33882,-0.623116
2.635000000000005,0.096602,0.339363,-0.628314
2.637500000000003,0.096626,0.341228,-0.631397
2.640000000000001,0.096605,0.34365,-0.633043
2.6424999999999983,0.090877,0.349125,-0.638263
2.6450000000000102,0.092972,0.346866,-0.639851
2.647500000000008,0.091188,0.352142,-0.643498
2.6500000000000057,0.08891,0.356709,-0.647086
2.6525000000000034,0.08777,0.358095,-0.653236
2.655000000000001,0.08417,0.357357,-0.654762
2.657499999999999,0.082592,0.35631,-0.657885
2.660000000000011,0.084221,0.359915,-0.663492
2.6625000000000085,0.082856,0.360303,-0.662401
2.6650000000000063,0.083818,0.361791,-0.66466
2.667500000000004,0.079157,0.35669,-0.670621
2.6700000000000017,0.079045,0.363381,-0.672945
2.6724999999999994,0.07514,0.365251,-0.675592
2.675000000000012,0.076516,0.368531,-0.678949
2.677500000000009,0.07321,0.36575,-0.679268
2.680000000000007,0.074977,0.370432,-0.678857
2.6825000000000045,0.071832,0.366276,-0.685065
2.6850000000000023,0.070827,0.368591,-0.688717
2.6875,0.068774,0.37427,-0.689241
2.690000000000012,0.070243,0.372224,-0.692369
2.6925000000000097,0.071021,0.375552,-0.696457
2.6950000000000074,0.061537,0.376254,-0.695329
2.697500000000005,0.062517,0.377374,-0.695135
2.700000000000003,0.067919,0.372873,-0.700659
2.702500000000001,0.065839,0.373609,-0.700235
2.7049999999999983,0.060714,0.377401,-0.698826
2.7075000000000102,0.060495,0.380278,-0.700776
2.710000000000008,0.065766,0.382454,-0.704929
2.7125000000000057,0.064584,0.379042,-0.703161
2.7150000000000034,0.064606,0.377623,-0.704008
2.717500000000001,0.067652,0.380255,-0.701247
2.719999999999999,0.063924,0.372843,-0.698939
2.722500000000011,0.068293,0.369317,-0.696677
2.7250000000000085,0.064837,0.372464,-0.695621
2.7275000000000063,0.069436,0.371542,-0.690532
2.730000000000004,0.066743,0.369262,-0.687333
2.7325000000000017,0.072973,0.363007,-0.685598
2.7349999999999994,0.067168,0.362427,-0.679283
2.737500000000012,0.073311,0.364026,-0.67832
2.740000000000009,0.072748,0.357754,-0.670515
2.742500000000007,0.072532,0.358691,-0.662786
2.7450000000000045,0.070056,0.356331,-0.653195
2.7475000000000023,0.074475,0.354091,-0.648105
2.75,0.073496,0.352103,-0.633216
2.752500000000012,0.075821,0.348375,-0.6263
2.7550000000000097,0.082508,0.345653,-0.612213
2.7575000000000074,0.078683,0.341443,-0.602256
2.760000000000005,0.079144,0.346721,-0.585882
2.762500000000003,0.083014,0.336821,-0.573713
2.765000000000001,0.089065,0.335177,-0.55877
2.7674999999999983,0.087825,0.330059,-0.541326
2.7700000000000102,0.09213,0.324545,-0.525527
2.772500000000008,0.094535,0.328351,-0.505596
2.7750000000000057,0.096685,0.319723,-0.492859
2.7775000000000034,0.097889,0.313913,-0.474037
2.780000000000001,0.097121,0.313073,-0.458568
2.782499999999999,0.096124,0.309876,-0.440863
2.785000000000011,0.097209,0.299068,-0.424021
2.7875000000000085,0.091903,0.291462,-0.403638
2.7900000000000063,0.0925,0.283108,-0.379953
2.792500000000004,0.087675,0.275349,-0.35837
2.7950000000000017,0.081073,0.261816,-0.335518
2.7974999999999994,0.072479,0.25109,-0.312008
2.800000000000012,0.070833,0.231903,-0.283766
2.802500000000009,0.056394,0.220195,-0.26219
2.805000000000007,0.047303,0.200623,-0.230877
2.8075000000000045,0.036668,0.185104,-0.201102
2.8100000000000023,0.027003,0.164872,-0.177585
2.8125,0.015982,0.143164,-0.146987
2.815000000000012,0.01125,0.128443,-0.120048
2.8175000000000097,0.00395,0.106121,-0.097382
2.8200000000000074,-0.008373,0.08801,-0.073285
2.822500000000005,-0.012641,0.063678,-0.05154
2.825000000000003,-0.012469,0.047059,-0.032371
2.827500000000001,-0.016016,0.028331,-0.010544
2.8299999999999983,-0.014135,0.011251,0.004322
2.8325000000000102,-0.016786,-0.005081,0.023962
2.835000000000008,-0.011218,-0.025749,0.044342
2.8375000000000057,-0.012712,-0.03573,0.059926
2.8400000000000034,-0.010642,-0.053757,0.074974
2.842500000000001,-0.009315,-0.068705,0.083903
2.844999999999999,-0.009872,-0.080308,0.094499
2.847500000000011,-0.010693,-0.085701,0.098891
2.8500000000000085,-0.015028,-0.093527,0.103699
2.8525000000000063,-0.016169,-0.093731,0.112315
2.855000000000004,-0.019842,-0.103702,0.113822
2.8575000000000017,-0.021204,-0.101787,0.117034
2.8599999999999994,-0.024192,-0.103416,0.118596
2.862500000000012,-0.021799,-0.107162,0.121712
2.865000000000009,-0.0302,-0.10259,0.116465
2.867500000000007,-0.027432,-0.101253,0.120283
2.8700000000000045,-0.026271,-0.09474,0.118502
2.8725000000000023,-0.030167,-0.093892,0.117067
2.875,-0.031069,-0.084257,0.114129
2.877500000000012,-0.027961,-0.08167,0.106861
2.8800000000000097,-0.028065,-0.079881,0.103637
2.8825000000000074,-0.027615,-0.069921,0.102294
2.885000000000005,-0.023609,-0.061493,0.095037
2.887500000000003,-0.025518,-0.0551,0.089688
2.890000000000001,-0.024275,-0.054938,0.083741
2.8924999999999983,-0.019409,-0.048803,0.080353
2.8950000000000102,-0.019759,-0.046907,0.07384
2.897500000000008,-0.018421,-0.041743,0.065245
2.9000000000000057,-0.012784,-0.039594,0.061259
2.9025000000000034,-0.013472,-0.033781,0.053009
2.905000000000001,-0.011206,-0.029825,0.048
2.907499999999999,-0.01262,-0.026383,0.039206
2.910000000000011,-0.007702,-0.020102,0.033497
2.9125000000000085,-0.006339,-0.020793,0.029259
2.9150000000000063,-0.007407,-0.020756,0.02294
2.917500000000004,-0.007278,-0.013037,0.012826
2.9200000000000017,-0.00599,-0.009078,0.006901
2.9224999999999994,-0.006042,-0.008817,1.1e-05
2.925000000000012,-0.002559,-0.008164,-0.008987
2.927500000000009,-0.000131,-0.007772,-0.012337
2.930000000000007,0.001594,-0.001621,-0.014549
2.9325000000000045,0.002121,0.006815,-0.019969
2.9350000000000023,0.003824,0.009442,-0.028901
2.9375,0.005215,0.014444,-0.031324
2.940000000000012,0.005979,0.014303,-0.038552
2.9425000000000097,0.006472,0.020716,-0.044526
2.9450000000000074,0.007377,0.024509,-0.046758
2.947500000000005,0.013273,0.03488,-0.053816
2.950000000000003,0.01354,0.035388,-0.055535
2.952500000000001,0.014504,0.039642,-0.059229
2.9549999999999983,0.013527,0.047297,-0.059591
2.9575000000000102,0.014815,0.048899,-0.064716
2.960000000000008,0.019806,0.050218,-0.068778
2.9625000000000057,0.019621,0.053322,-0.070302
2.9650000000000034,0.016812,0.056364,-0.072931
2.967500000000001,0.018922,0.064836,-0.077465
2.969999999999999,0.019073,0.063894,-0.073628
2.972500000000011,0.018255,0.065833,-0.075799
2.9750000000000085,0.017459,0.071322,-0.078905
2.9775000000000063,0.019018,0.074356,-0.077668
2.980000000000004,0.019782,0.072377,-0.079255
2.9825000000000017,0.01815,0.070054,-0.077304
2.9849999999999994,0.021861,0.077257,-0.073928
2.987500000000012,0.017012,0.077974,-0.07534
2.990000000000009,0.019606,0.073146,-0.072907
2.992500000000007,0.017481,0.074948,-0.073628
2.9950000000000045,0.019792,0.076594,-0.068375
2.9975000000000023,0.015184,0.070222,-0.065403
3.0,0.017167,0.068013,-0.066172
3.002500000000012,0.015735,0.06733,-0.06047
3.0050000000000097,0.014882,0.065126,-0.057709
3.0075000000000074,0.017125,0.062013,-0.056057
3.010000000000005,0.01154,0.056887,-0.050843
3.012500000000003,0.013614,0.053095,-0.050524
3.015000000000001,0.013398,0.049924,-0.048447
3.0174999999999983,0.012902,0.048371,-0.045463
3.0200000000000102,0.010429,0.04406,-0.041005
3.022500000000008,0.014286,0.037832,-0.034092
3.0250000000000057,0.01286,0.039116,-0.037974
3.0275000000000034,0.00967,0.032292,-0.030842
3.030000000000001,0.008763,0.030044,-0.024703
3.032499999999999,0.009296,0.025483,-0.026174
3.035000000000011,0.006076,0.022743,-0.020006
3.0375000000000085,0.006739,0.018836,-0.016877
3.0400000000000063,0.002561,0.015945,-0.014047
3.042500000000004,0.004976,0.009497,-0.009386
3.0450000000000017,0.003742,0.007036,-0.006613
3.0474999999999994,0.003359,0.006313,-0.004166
3.050000000000012,0.004161,0.004787,-0.002405
3.052500000000009,0.002704,0.003631,0.001601
3.055000000000007,0.00352,-0.001408,0.001506
3.0575000000000045,-0.001583,-0.003384,0.001427
3.0600000000000023,-0.005251,-0.00318,0.007362
3.0625,0.001357,-0.003742,0.00648
3.065000000000012,-0.001933,-0.008363,0.005323
3.0675000000000097,-0.00294,-0.005117,0.00914
3.0700000000000074,-0.002109,-0.008388,0.008889
3.072500000000005,-0.001332,-0.006741,0.010214
3.075000000000003,-0.002976,-0.008722,0.006067
3.077500000000001,-0.001338,-0.005831,0.005686
3.0799999999999983,0.00303,-0.006449,0.008809
3.0825000000000102,-0.000182,-0.002521,0.006694
3.085000000000008,-0.003646,-0.005168,0.0032
3.0875000000000057,-0.001048,-0.001121,0.002082
3.0900000000000034,-0.000559,-0.002053,0.002088
3.092500000000001,0.000415,-0.001074,-0.001542
3.094999999999999,0.001312,0.003687,-0.002804
3.097500000000011,0.000886,0.005562,-0.00428
3.1000000000000085,0.003581,0.009363,-0.001048
3.1025000000000063,0.002144,0.005368,-0.0029
3.105000000000004,0.004207,0.006708,-0.007521
3.1075000000000017,0.001834,0.009292,-0.005883
3.1099999999999994,0.000791,0.009786,-0.006683
3.112500000000012,0.002424,0.010767,-0.006884
3.115000000000009,0.002984,0.012308,-0.005142
3.117500000000007,0.000257,0.008906,-0.006813
3.1200000000000045,0.004714,0.009825,-0.005892
3.1225000000000023,0.002771,0.008585,-0.008924
3.125,0.00226,0.00622,-0.005503
3.127500000000012,-0.00113,0.00682,-0.003977
3.1300000000000097,0.001691,0.003061,-0.003524
3.1325000000000074,-0.000532,0.001629,-0.003579
3.135000000000005,0.00172,0.002741,-0.006156
3.137500000000003,0.000636,0.003046,-0.002657
3.140000000000001,0.001723,-0.002833,-0.004281
3.1424999999999983,0.001519,-0.003052,-0.003457
3.144999999999996,0.003237,-0.002764,-0.001448
3.1474999999999937,-0.000523,-0.001107,-0.000353
3.1499999999999915,0.002406,-0.001918,-0.0011
3.1525000000000176,-0.000954,0.000439,-0.00405
3.155000000000016,0.003796,0.002369,-0.003967
3.157500000000013,0.001972,0.002851,0.001311
3.160000000000011,0.003307,0.002237,-0.000292
3.1625000000000085,-0.002666,-0.003052,-0.001934
3.1650000000000063,0.001287,0.002902,-0.000833
3.167500000000004,0.002835,0.000323,-0.000492
3.1700000000000017,0.002097,-2.5e-05,-0.001124
3.1724999999999994,-0.002879,0.00558,0.000415
3.174999999999997,0.001135,0.002602,-0.001541
3.177499999999995,0.003084,0.001986,-0.00032
3.1799999999999926,-0.003798,0.000865,-0.000304
3.1825000000000188,0.005192,0.000333,-0.000319
3.1850000000000165,0.001533,0.002084,0.000497
3.187500000000014,0.004429,0.002719,-0.00111
3.190000000000012,0.000424,0.005307,-0.001252
3.1925000000000097,0.002196,0.008503,-0.003971
3.1950000000000074,0.001999,0.005271,-0.002453
3.197500000000005,0.002118,0.003771,-0.005469
3.200000000000003,0.001609,0.008751,-0.001051
3.202500000000001,0.001421,0.005036,-0.000618
3.2049999999999983,0.001558,0.009552,-0.001645
3.207499999999996,0.001978,0.009765,-0.00217
3.2099999999999937,0.002036,0.008778,-0.005293
3.2124999999999915,0.003511,0.010075,-0.002201
3.2150000000000176,0.002544,0.009457,-0.002868
3.217500000000016,0.00019,0.010309,-0.003617
3.220000000000013,0.003149,0.00935,-0.003566
3.222500000000011,0.001668,0.012399,-0.004959
3.2250000000000085,0.002911,0.009271,-0.004964
3.2275000000000063,0.001622,0.010062,-0.001919
3.230000000000004,0.00333,0.014595,-0.002107
3.2325000000000017,0.002595,0.008176,-0.005949
3.2349999999999994,0.001147,0.008687,-0.000933
3.237499999999997,0.000172,0.008006,0.003337
3.239999999999995,0.001452,0.009868,-0.000428
3.2424999999999926,0.002243,0.008675,-0.001162
3.2450000000000188,0.001926,0.00805,-0.001797
3.2475000000000165,-5.4e-05,0.010102,0.001163
3.250000000000014,0.001378,0.00916,-0.001636
3.252500000000012,-7.2e-05,0.007772,-0.001879
3.2550000000000097,0.003264,0.006296,-0.001897
3.2575000000000074,0.001615,0.006556,-0.000685
3.260000000000005,0.004049,0.006139,0.000518
3.262500000000003,0.00165,0.003486,0.000509
3.265000000000001,0.003546,0.008302,-0.001937
3.2674999999999983,-0.000672,0.010703,-0.003716
3.269999999999996,-0.001526,0.007614,-0.003012
3.2724999999999937,-0.003327,0.004653,-0.002468
3.2749999999999915,0.006024,0.006666,-0.001068
3.2775000000000176,0.002085,0.005404,-0.001496
3.280000000000016,0.000782,0.009658,-0.004491
3.282500000000013,0.003364,0.010961,-0.005758
3.285000000000011,0.00271,0.008764,-0.004697
3.2875000000000085,0.002152,0.008703,-0.007325
3.2900000000000063,0.004565,0.008728,-0.007737
3.292500000000004,0.003918,0.009964,-0.007236
3.2950000000000017,0.00454,0.011081,-0.008251
3.2974999999999994,0.004033,0.012284,-0.003777
3.299999999999997,0.001899,0.009678,-0.006251
3.302499999999995,0.003827,0.015189,-0.00547
3.3049999999999926,0.004781,0.010369,-0.003721
3.3075000000000188,0.004322,0.006215,-0.004317
3.3100000000000165,0.002772,0.008991,-0.001034
3.312500000000014,0.002431,0.010259,-0.004809
3.315000000000012,0.000686,0.013902,-0.000694
3.3175000000000097,0.000332,0.00648,-0.001806
3.3200000000000074,0.001144,0.005134,-0.000982
3.322500000000005,-3.4e-05,0.004386,-0.00286
3.325000000000003,-0.000234,0.007699,-0.00032
3.327500000000001,-0.000334,0.002452,-0.001583
3.3299999999999983,-0.002328,0.002476,-0.000244
3.332499999999996,0.001393,0.00154,-0.003345
3.3349999999999937,-0.001314,0.00103,-1.3e-05
3.3374999999999915,-0.000718,-0.000422,-0.002158
3.3400000000000176,0.000831,0.002416,-0.001967
3.342500000000016,0.001394,-0.00097,-0.000402
3.345000000000013,-0.001676,-0.000697,-0.001828
3.347500000000011,-0.001174,0.00188,0.000111
3.3500000000000085,0.000834,0.001002,0.001315
3.3525000000000063,0.000263,-0.001729,-0.000969
3.355000000000004,-0.001058,-0.000109,0.004449
3.3575000000000017,0.000376,-0.000903,0.000577
3.3599999999999994,-0.002827,0.001162,0.004081
3.362499999999997,0.001093,0.000433,0.00442
3.364999999999995,-0.001109,0.001321,0.002614
3.3674999999999926,0.004128,0.001293,0.001656
3.3700000000000188,0.004516,-0.002356,-0.001097
3.3725000000000165,0.001151,0.000965,-0.002258
3.375000000000014,-7.7e-05,0.001445,-0.002348
3.377500000000012,-0.001219,0.000935,-0.000659
3.3800000000000097,-0.001448,-0.000802,-0.000606
3.3825000000000074,0.000577,0.000405,-0.001754
3.385000000000005,0.000996,0.000214,-0.000148
3.387500000000003,0.00147,0.002594,0.000875
3.390000000000001,0.000969,0.001513,-0.003028
3.3924999999999983,-0.00153,-0.000136,0.001145
3.394999999999996,0.002865,-0.002025,0.001504
3.3974999999999937,0.000244,0.003556,-0.000517
3.3999999999999915,0.002364,0.00416,0.00167
3.4025000000000176,-0.001058,0.00289,0.000591
3.405000000000016,0.001112,0.000995,0.00226
3.407500000000013,0.001013,0.003257,-0.00121
3.410000000000011,-0.002074,0.003599,0.001325
3.4125000000000085,-0.002167,0.00441,0.0006
3.4150000000000063,-0.001056,0.003932,-0.001609
3.417500000000004,0.00046,0.002614,-0.000885
3.4200000000000017,-0.000466,-0.000219,-0.002363
3.4224999999999994,-0.001156,0.001132,0.000212
3.424999999999997,0.000804,0.002699,-0.00138
3.427499999999995,-0.00059,0.002674,-0.001098
3.4299999999999926,0.001463,0.000695,-0.001305
3.4325000000000188,-0.001031,0.003838,0.00119
3.4350000000000165,0.001324,0.005058,0.000448
3.437500000000014,-0.000124,0.000554,0.003337
3.440000000000012,0.000758,-0.001901,0.001874
3.4425000000000097,-0.001103,0.003541,0.00193
3.4450000000000074,0.002324,0.000782,0.001516
3.447500000000005,0.000685,-0.000562,-0.002907
3.450000000000003,-0.001748,-0.00138,0.001308
3.452500000000001,-0.000229,0.004525,-0.000913
3.4549999999999983,0.00303,0.00155,-0.002551
3.457499999999996,0.000402,0.000868,-0.002122
3.4599999999999937,-0.002271,-6.4e-05,0.001606
3.4624999999999915,-0.000107,0.00165,-0.000142
3.4650000000000176,-0.003359,0.000223,0.000743
3.467500000000016,-0.00086,0.002865,0.000638
3.470000000000013,0.00094,0.002136,-0.004077
3.472500000000011,0.001856,0.002088,-0.001134
3.4750000000000085,-0.000682,0.000194,-0.003199
3.4775000000000063,0.004154,-0.001206,-0.002345
3.480000000000004,-0.001204,0.003878,-0.000678
3.4825000000000017,0.002375,-0.00045,0.000348
3.4849999999999994,-0.000212,0.002903,0.000239
3.487499999999997,0.002677,0.002144,0.001391
3.489999999999995,-0.000976,0.004465,0.000248
3.4924999999999926,-0.00082,0.003632,-0.001116
3.4950000000000188,0.000309,0.000115,0.00044
3.4975000000000165,0.002619,-0.002563,-0.002532
3.500000000000014,-0.001229,0.005765,0.000449
3.502500000000012,0.001796,0.001172,-0.000188
3.5050000000000097,0.001704,0.002577,-0.001189
3.5075000000000074,0.000127,0.000932,-0.000757
3.510000000000005,-0.00024,0.000899,-0.001356
3.512500000000003,0.002375,0.003982,0.000406
3.515000000000001,-0.000991,-0.001441,-1.8e-05
3.5174999999999983,-0.001612,-0.001788,0.000829
3.519999999999996,0.00075,0.000764,0.001102
3.5224999999999937,0.000807,0.00037,0.002774
3.5249999999999915,9.3e-05,-0.001156,0.00088
3.5275000000000176,0.000436,0.003763,0.000643
3.530000000000016,-0.000557,0.002299,-0.000218
3.532500000000013,-0.000453,0.004139,0.002832
3.535000000000011,-0.001746,0.001153,0.003371
3.5375000000000085,-0.003645,-0.002341,0.000235
3.5400000000000063,0.000494,0.000717,0.00217
3.542500000000004,0.001658,0.000743,0.000652
3.5450000000000017,-0.002787,-0.000569,-0.002338
3.5474999999999994,2e-05,0.002062,0.00257
3.549999999999997,-0.000408,0.002623,0.000817
