time,Gyr_X,Gyr_Y,Gyr_Z
0.0,0.01379,-0.018692,0.030487
0.0024999999999977,0.008674,-0.015257,0.0324
0.0049999999999954,0.007933,-0.018418,0.0333
0.0074999999999931,0.007357,-0.014971,0.030822
0.0099999999999909,0.007731,-0.015537,0.03484
0.0124999999999886,0.007063,-0.017153,0.033483
0.0149999999999863,0.006979,-0.014827,0.037304
0.017499999999984,0.009599,-0.018062,0.035664
0.0200000000000102,0.00921,-0.014505,0.037461
0.0225000000000079,0.010037,-0.020605,0.035986
0.0250000000000056,0.011116,-0.015843,0.036157
0.0275000000000034,0.010813,-0.01732,0.036479
0.0300000000000011,0.008505,-0.016758,0.035984
0.0324999999999988,0.012008,-0.016901,0.036231
0.0349999999999965,0.008029,-0.016616,0.035832
0.0374999999999943,0.010308,-0.016034,0.032935
0.039999999999992,0.006679,-0.015274,0.038626
0.0424999999999897,0.008599,-0.019956,0.035989
0.0449999999999874,0.009239,-0.017461,0.034804
0.0474999999999852,0.012573,-0.01785,0.038064
0.0500000000000113,0.011254,-0.015922,0.038054
0.052500000000009,0.007454,-0.015785,0.036599
0.0550000000000068,0.006796,-0.014073,0.039574
0.0575000000000045,0.009751,-0.017466,0.03824
0.0600000000000022,0.011107,-0.015233,0.038614
0.0625,0.011712,-0.016749,0.03564
0.0649999999999977,0.00856,-0.018853,0.035273
0.0674999999999954,0.01222,-0.016597,0.035167
0.0699999999999931,0.008335,-0.015783,0.039106
0.0724999999999909,0.008974,-0.019217,0.036985
0.0749999999999886,0.006142,-0.01795,0.033436
0.0774999999999863,0.008848,-0.018422,0.036726
0.079999999999984,0.009715,-0.017981,0.03557
0.0825000000000102,0.006469,-0.01779,0.036495
0.0850000000000079,0.008553,-0.017379,0.037111
0.0875000000000056,0.008474,-0.018995,0.034253
0.0900000000000034,0.009257,-0.02065,0.034509
0.0925000000000011,0.006742,-0.016807,0.034643
0.0949999999999988,0.005435,-0.018452,0.033396
0.0974999999999965,0.004961,-0.019217,0.031643
0.0999999999999943,0.001372,-0.02051,0.03112
0.102499999999992,-0.007804,-0.022088,0.031302
0.1049999999999897,-0.009544,-0.024539,0.028173
0.1074999999999875,-0.008617,-0.026645,0.025984
0.1099999999999852,-0.010043,-0.017887,0.024494
0.1125000000000113,-0.005929,-0.014853,0.022387
0.1150000000000091,0.003742,-0.012884,0.019733
0.1175000000000068,0.00743,-0.009461,0.019162
0.1200000000000045,0.013404,-0.009611,0.018146
0.1225000000000022,0.015002,-0.009325,0.015642
0.125,0.014447,-0.007862,0.012366
0.1274999999999977,0.015586,-0.005113,0.011449
0.1299999999999954,0.013386,-0.0065,0.010013
0.1324999999999931,0.008301,-0.008985,0.009308
0.1349999999999909,0.00476,-0.008854,0.005708
0.1374999999999886,0.004178,-0.010028,0.00043
0.1399999999999863,0.001159,-0.006674,-0.000276
0.142499999999984,-7.7e-05,-0.006078,-0.000113
0.1450000000000102,0.003181,-0.005782,5e-06
0.1475000000000079,0.002737,-0.000243,-0.000674
0.1500000000000056,0.000297,4.1e-05,-0.00101
0.1525000000000034,0.002619,-0.004753,-0.001848
0.1550000000000011,0.003619,0.004943,-0.003576
0.1574999999999988,0.003418,0.011579,-0.001004
0.1599999999999966,0.00026,0.006495,-0.003748
0.1624999999999943,0.007146,0.005829,-0.005201
0.164999999999992,-0.001727,0.009241,-0.002877
0.1674999999999897,0.000393,0.00876,-0.003909
0.1699999999999875,-0.000207,0.007928,-0.005002
0.1724999999999852,-3e-06,0.009841,-0.006823
0.1750000000000113,-0.002074,0.00614,-0.006379
0.1775000000000091,-0.002497,0.003887,-0.006717
0.1800000000000068,-0.003651,0.003133,-0.009455
0.1825000000000045,-0.000185,0.007036,-0.009187
0.1850000000000022,-0.001392,0.005388,-0.006703
0.1875,0.004505,0.008275,-0.007848
0.1899999999999977,0.001892,0.002795,-0.008592
0.1924999999999954,-0.002001,0.007338,-0.011954
0.1949999999999931,0.001756,0.00472,-0.011957
0.1974999999999909,-0.000666,0.004969,-0.012074
0.1999999999999886,0.001525,0.007466,-0.013994
0.2024999999999863,0.000364,0.009704,-0.011967
0.204999999999984,-0.00076,0.005648,-0.012194
0.2075000000000102,-0.002031,0.004578,-0.012273
0.2100000000000079,-0.002812,0.005696,-0.009239
0.2125000000000056,-0.002703,0.005,-0.013371
0.2150000000000034,-0.004826,0.009532,-0.015189
0.2175000000000011,-0.00343,0.007785,-0.013341
0.2199999999999988,-0.000957,0.008593,-0.015707
0.2224999999999966,9.3e-05,0.009041,-0.012749
0.2249999999999943,-0.001898,0.007103,-0.014247
0.227499999999992,0.001075,0.013813,-0.012292
0.2299999999999897,-0.002664,0.011747,-0.01336
0.2324999999999875,-0.002792,0.01136,-0.015503
0.2349999999999852,-0.002342,0.00938,-0.012834
0.2375000000000113,0.001078,0.008572,-0.014678
0.2400000000000091,-0.003615,0.0079,-0.015321
0.2425000000000068,-0.003935,0.008445,-0.015515
0.2450000000000045,-0.007755,0.009691,-0.014369
0.2475000000000022,-0.001004,0.010409,-0.014199
0.25,-0.003442,0.00884,-0.014767
0.2524999999999977,-0.002523,0.007654,-0.014482
0.2549999999999954,-0.001132,0.01132,-0.015646
0.2574999999999932,-0.003159,0.013109,-0.012718
0.2599999999999909,-0.003403,0.009408,-0.015676
0.2624999999999886,-0.006983,0.007624,-0.014684
0.2649999999999863,-0.001112,0.00904,-0.014131
0.2674999999999841,-0.003879,0.011825,-0.014496
0.2700000000000102,-0.003859,0.006639,-0.010954
0.2725000000000079,-0.005777,0.010388,-0.016961
0.2750000000000057,-0.002587,0.01011,-0.012508
0.2775000000000034,-0.003101,0.011266,-0.014582
0.2800000000000011,-0.003113,0.011117,-0.013261
0.2824999999999988,-0.001687,0.010001,-0.014122
0.2849999999999966,-0.000644,0.011344,-0.011551
0.2874999999999943,-0.001687,0.007824,-0.014266
0.289999999999992,-0.000668,0.012068,-0.013149
0.2924999999999897,-0.002781,0.010762,-0.01232
0.2949999999999875,-0.005122,0.009417,-0.01002
0.2974999999999852,-0.002114,0.011937,-0.013636
0.3000000000000113,0.000391,0.008798,-0.01408
0.3025000000000091,-0.002055,0.009716,-0.014216
0.3050000000000068,-0.001441,0.010178,-0.014701
0.3075000000000045,-0.000523,0.011966,-0.009181
0.3100000000000023,-0.00194,0.008699,-0.014476
0.3125,0.002434,0.011296,-0.014526
0.3149999999999977,-0.004014,0.0103,-0.009824
0.3174999999999954,0.000934,0.00954,-0.011
0.3199999999999932,4.5e-05,0.008721,-0.011651
0.3224999999999909,-0.00529,0.007687,-0.008731
0.3249999999999886,0.000595,0.00593,-0.007337
0.3274999999999863,0.000381,0.004611,-0.007373
0.3299999999999841,-0.001469,0.005289,-0.009242
0.3325000000000102,0.005715,0.003958,-0.003685
0.3350000000000079,0.004036,0.000838,-0.007586
0.3375000000000057,0.001641,0.001868,-0.002982
0.3400000000000034,0.002629,-0.000428,-0.00286
0.3425000000000011,0.000837,0.001069,-0.001307
0.3449999999999988,0.002835,0.001594,-2.7e-05
0.3474999999999966,0.001424,-0.001787,-0.001022
0.3499999999999943,0.001653,-0.003384,0.002866
0.352499999999992,0.001521,-0.003321,0.005058
0.3549999999999897,0.001886,5.9e-05,0.00663
0.3574999999999875,0.004246,-0.002779,0.006308
0.3599999999999852,0.004577,-0.000978,0.008257
0.3625000000000113,0.005805,-0.001973,0.010557
0.3650000000000091,0.004836,-0.005025,0.010116
0.3675000000000068,0.004394,-0.005029,0.010372
0.3700000000000045,0.005578,-0.004095,0.01291
0.3725000000000023,0.006502,-0.004974,0.013695
0.375,0.003622,-0.006694,0.011506
0.3774999999999977,0.001579,-0.004207,0.014291
0.3799999999999954,0.00324,-0.008741,0.014403
0.3824999999999932,0.004076,-0.005785,0.016586
0.3849999999999909,0.007176,-0.004481,0.017143
0.3874999999999886,0.004786,-0.008479,0.017712
0.3899999999999863,0.007979,-0.005825,0.018436
0.3924999999999841,0.00659,-0.008039,0.017992
0.3950000000000102,0.005036,-0.006579,0.018182
0.3975000000000079,0.00615,-0.007805,0.018474
0.4000000000000057,0.005624,-0.011347,0.019831
0.4025000000000034,0.006789,-0.007932,0.017078
0.4050000000000011,0.006868,-0.011161,0.018808
0.4074999999999988,0.006209,-0.012027,0.020862
0.4099999999999966,0.007252,-0.006731,0.025163
0.4124999999999943,0.00646,-0.011051,0.022856
0.414999999999992,0.00411,-0.00892,0.023157
0.4174999999999897,0.007406,-0.008549,0.025524
0.4199999999999875,0.002884,-0.00812,0.023872
0.4224999999999852,0.007261,-0.008501,0.024193
0.4250000000000113,0.009175,-0.011571,0.021378
0.4275000000000091,0.006046,-0.012541,0.021682
0.4300000000000068,0.004036,-0.007786,0.024315
0.4325000000000045,0.004981,-0.009434,0.023662
0.4350000000000023,0.006495,-0.007491,0.024127
0.4375,0.00776,-0.012615,0.022904
0.4399999999999977,0.004881,-0.006826,0.020739
0.4424999999999954,0.007419,-0.00768,0.021965
0.4449999999999932,0.00561,-0.005862,0.021996
0.4474999999999909,0.005,-0.006315,0.021153
0.4499999999999886,0.004237,-0.009304,0.019603
0.4524999999999863,0.004033,-0.006975,0.018737
0.4549999999999841,0.004747,-0.0053,0.014833
0.4575000000000102,0.007025,-0.007094,0.015829
0.4600000000000079,0.003352,-0.00532,0.014416
0.4625000000000057,0.004064,-0.003457,0.013941
0.4650000000000034,0.006165,-0.004598,0.014833
0.4675000000000011,0.00354,-0.007559,0.012795
0.4699999999999988,0.001327,-0.004931,0.010725
0.4724999999999966,-0.000936,-0.005426,0.010004
0.4749999999999943,0.002538,0.000202,0.006432
0.477499999999992,0.002729,-0.002909,0.007863
0.4799999999999897,0.001062,-0.003466,0.009934
0.4824999999999875,0.003669,-0.00066,0.010104
0.4849999999999852,0.004073,-0.000226,0.008313
0.4875000000000113,0.005641,0.000902,0.007204
0.4900000000000091,0.001805,0.000729,0.004863
0.4925000000000068,0.003543,-0.000238,0.001887
0.4950000000000045,0.003844,0.003376,0.001664
0.4975000000000023,0.00219,0.003905,0.000865
0.5,-0.001217,0.005572,-0.001775
0.5024999999999977,0.002142,0.004219,-0.005311
0.5049999999999955,0.000251,0.004479,-0.005567
0.5074999999999932,0.000254,0.004143,-0.006174
0.5099999999999909,-0.002152,0.006793,-0.006208
0.5124999999999886,-0.000547,0.006775,-0.009608
0.5149999999999864,-0.001906,0.009099,-0.010425
0.5174999999999841,-0.002308,0.012638,-0.016111
0.5200000000000102,0.000388,0.014033,-0.012976
0.522500000000008,0.001519,0.012796,-0.015807
0.5250000000000057,0.001127,0.014939,-0.013407
0.5275000000000034,0.001077,0.016341,-0.017375
0.5300000000000011,0.002427,0.017814,-0.019325
0.5324999999999989,0.002887,0.016435,-0.017229
0.5349999999999966,-0.000356,0.016805,-0.019756
0.5374999999999943,-0.002182,0.017495,-0.023781
0.539999999999992,-0.003724,0.024088,-0.026152
0.5424999999999898,-0.006075,0.020962,-0.026286
0.5449999999999875,-0.00467,0.016088,-0.026181
0.5474999999999852,-0.006621,0.024607,-0.031205
0.5500000000000114,-0.001602,0.021658,-0.032483
0.5525000000000091,-0.002952,0.024658,-0.032698
0.5550000000000068,-0.005564,0.027407,-0.035615
0.5575000000000045,-0.005129,0.027362,-0.034323
0.5600000000000023,-0.004521,0.030921,-0.035232
0.5625,-0.000605,0.033369,-0.0361
0.5649999999999977,-0.00353,0.030682,-0.037172
0.5674999999999955,-0.005089,0.034723,-0.03998
0.5699999999999932,-0.006057,0.03734,-0.043367
0.5724999999999909,-0.007436,0.037972,-0.048497
0.5749999999999886,-0.00253,0.033884,-0.048092
0.5774999999999864,-0.004068,0.039747,-0.046603
0.5799999999999841,-0.002699,0.038003,-0.046411
0.5825000000000102,-0.004551,0.045428,-0.048429
0.585000000000008,-0.007468,0.040928,-0.048044
0.5875000000000057,-0.005275,0.045227,-0.054048
0.5900000000000034,-0.004473,0.046261,-0.053152
0.5925000000000011,-0.008954,0.049669,-0.055011
0.5949999999999989,-0.008301,0.049215,-0.055903
0.5974999999999966,-0.009766,0.048972,-0.057602
0.5999999999999943,-0.00506,0.051513,-0.058003
0.602499999999992,-0.009024,0.052164,-0.059469
0.6049999999999898,-0.008172,0.05446,-0.060333
0.6074999999999875,-0.009631,0.057911,-0.060274
0.6099999999999852,-0.008044,0.059838,-0.062348
0.6125000000000114,-0.006992,0.063815,-0.061269
0.6150000000000091,-0.007476,0.061805,-0.061561
0.6175000000000068,-0.004326,0.061565,-0.060309
0.6200000000000045,-0.00618,0.064362,-0.061543
0.6225000000000023,-0.002266,0.06607,-0.062364
0.625,-0.001077,0.066266,-0.06192
0.6274999999999977,-0.001147,0.072763,-0.063981
0.6299999999999955,0.003273,0.068334,-0.061956
0.6324999999999932,0.005131,0.071936,-0.06422
0.6349999999999909,0.008083,0.070164,-0.059238
0.6374999999999886,0.009174,0.074097,-0.060236
0.6399999999999864,0.011051,0.074721,-0.05946
0.6424999999999841,0.013856,0.078481,-0.056995
0.6450000000000102,0.018612,0.07975,-0.057273
0.647500000000008,0.026288,0.078041,-0.054978
0.6500000000000057,0.027218,0.080942,-0.051253
0.6525000000000034,0.030383,0.079416,-0.050639
0.6550000000000011,0.030922,0.079449,-0.049186
0.6574999999999989,0.041459,0.082863,-0.047386
0.6599999999999966,0.040714,0.084697,-0.046977
0.6624999999999943,0.044704,0.085624,-0.045757
0.664999999999992,0.045259,0.08502,-0.039838
0.6674999999999898,0.049379,0.087316,-0.040261
0.6699999999999875,0.052711,0.087581,-0.03574
0.6724999999999852,0.059349,0.082137,-0.036167
0.6750000000000114,0.057412,0.091542,-0.033443
0.6775000000000091,0.060344,0.088298,-0.035098
0.6800000000000068,0.061289,0.089555,-0.033216
0.6825000000000045,0.06566,0.089353,-0.033168
0.6850000000000023,0.065846,0.089376,-0.027557
0.6875,0.068708,0.090112,-0.027269
0.6899999999999977,0.069933,0.088699,-0.021115
0.6924999999999955,0.0709,0.095554,-0.021039
0.6949999999999932,0.073711,0.097802,-0.023304
0.6974999999999909,0.072924,0.094377,-0.019436
0.6999999999999886,0.071166,0.092188,-0.016561
0.7024999999999864,0.072671,0.094134,-0.009683
0.7049999999999841,0.072085,0.096966,-0.008769
0.7075000000000102,0.079564,0.093246,-0.008744
0.710000000000008,0.078892,0.096471,-0.001223
0.7125000000000057,0.083698,0.097089,0.001005
0.7150000000000034,0.083803,0.098266,0.006261
0.7175000000000011,0.085438,0.097807,0.008597
0.7199999999999989,0.087903,0.104368,0.015131
0.7224999999999966,0.091036,0.104431,0.017301
0.7249999999999943,0.088397,0.106037,0.019423
0.727499999999992,0.091728,0.103622,0.023542
0.7299999999999898,0.09607,0.106078,0.027133
0.7324999999999875,0.095577,0.108907,0.032202
0.7349999999999852,0.097144,0.106148,0.032947
0.7375000000000114,0.098687,0.106554,0.036614
0.7400000000000091,0.099648,0.10773,0.039909
0.7425000000000068,0.102016,0.105918,0.038963
0.7450000000000045,0.106966,0.103707,0.041316
0.7475000000000023,0.104564,0.103766,0.043692
0.75,0.105964,0.102658,0.042496
0.7524999999999977,0.106858,0.103696,0.043999
0.7549999999999955,0.108976,0.102121,0.044728
0.7574999999999932,0.106847,0.10246,0.044792
0.7599999999999909,0.109237,0.09935,0.046166
0.7624999999999886,0.10898,0.102208,0.044235
0.7649999999999864,0.110114,0.10669,0.046629
0.7674999999999841,0.110164,0.104638,0.043892
0.7700000000000102,0.112986,0.101008,0.043278
0.772500000000008,0.110088,0.103182,0.046236
0.7750000000000057,0.118103,0.105632,0.046883
0.7775000000000034,0.122916,0.104491,0.04895
0.7800000000000011,0.117487,0.101861,0.046147
0.7824999999999989,0.120661,0.103512,0.047471
0.7849999999999966,0.123859,0.101698,0.050033
0.7874999999999943,0.125345,0.10039,0.048658
0.789999999999992,0.123609,0.098669,0.04646
0.7924999999999898,0.124515,0.100612,0.047598
0.7949999999999875,0.127795,0.100438,0.046644
0.7974999999999852,0.130533,0.099138,0.04404
0.8000000000000114,0.127646,0.102087,0.041711
0.8025000000000091,0.132381,0.101662,0.042031
0.8050000000000068,0.132968,0.103077,0.043183
0.8075000000000045,0.135271,0.100154,0.04024
0.8100000000000023,0.137373,0.102659,0.039176
0.8125,0.138026,0.09908,0.037626
0.8149999999999977,0.139838,0.099405,0.037656
0.8174999999999955,0.140557,0.10022,0.033271
0.8199999999999932,0.143497,0.101121,0.030948
0.8224999999999909,0.142435,0.103443,0.030478
0.8249999999999886,0.146119,0.098986,0.027349
0.8274999999999864,0.142478,0.099622,0.023025
0.8299999999999841,0.154436,0.095425,0.024355
0.8325000000000102,0.153998,0.095769,0.02163
0.835000000000008,0.155398,0.093179,0.02095
0.8375000000000057,0.159516,0.087119,0.019792
0.8400000000000034,0.161662,0.088822,0.015833
0.8425000000000011,0.163578,0.081763,0.017116
0.8449999999999989,0.168124,0.07807,0.017232
0.8474999999999966,0.16628,0.077609,0.018222
0.8499999999999943,0.172187,0.069835,0.020962
0.852499999999992,0.173224,0.068351,0.027355
0.8549999999999898,0.173957,0.063484,0.027499
0.8574999999999875,0.181679,0.055028,0.027349
0.8599999999999852,0.183318,0.052776,0.034041
0.8625000000000114,0.184894,0.044418,0.034136
0.8650000000000091,0.18596,0.042491,0.035331
0.8675000000000068,0.185172,0.034795,0.037573
0.8700000000000045,0.187991,0.029524,0.037961
0.8725000000000023,0.191251,0.027353,0.040428
0.875,0.188418,0.018295,0.038844
0.8774999999999977,0.187526,0.016546,0.040437
0.8799999999999955,0.191074,0.010917,0.046221
0.8824999999999932,0.187079,0.00869,0.04495
0.8849999999999909,0.188639,0.003407,0.047053
0.8874999999999886,0.187854,0.006724,0.052013
0.8899999999999864,0.186255,0.002285,0.055518
0.8924999999999841,0.187875,-0.004099,0.059252
0.8950000000000102,0.185657,-0.003648,0.060978
0.897500000000008,0.183854,-0.007263,0.065912
0.9000000000000057,0.179527,-0.006799,0.071349
0.9025000000000034,0.177454,-0.012439,0.077485
0.9050000000000012,0.17505,-0.009014,0.080796
0.9074999999999988,0.169825,-0.018689,0.084028
0.9099999999999966,0.167627,-0.018816,0.091495
0.9124999999999944,0.166423,-0.022581,0.098731
0.914999999999992,0.161982,-0.0222,0.106133
0.9174999999999898,0.160181,-0.028162,0.10901
0.9199999999999876,0.15131,-0.033516,0.113668
0.9224999999999852,0.149275,-0.038607,0.118937
0.9250000000000114,0.139294,-0.040947,0.12246
0.9275000000000092,0.132609,-0.046895,0.132056
0.9300000000000068,0.131429,-0.049925,0.132152
0.9325000000000044,0.130526,-0.051582,0.134511
0.9350000000000024,0.126452,-0.058578,0.139097
0.9375,0.121377,-0.063369,0.148464
0.9399999999999976,0.115851,-0.072443,0.156013
0.9424999999999956,0.117592,-0.07769,0.16116
0.9449999999999932,0.109894,-0.081034,0.167804
0.9474999999999908,0.110143,-0.088896,0.172963
0.9499999999999886,0.100444,-0.094265,0.176939
0.9524999999999864,0.103755,-0.098465,0.186508
0.954999999999984,0.096362,-0.104429,0.185297
0.9575000000000102,0.089673,-0.105184,0.196392
0.960000000000008,0.08475,-0.109525,0.201172
0.9625000000000056,0.081459,-0.10892,0.210501
0.9650000000000034,0.071206,-0.114205,0.2146
0.9675000000000012,0.067493,-0.11548,0.219921
0.9699999999999988,0.059684,-0.117685,0.225054
0.9724999999999966,0.058453,-0.114891,0.227614
0.9749999999999944,0.049867,-0.116919,0.232551
0.977499999999992,0.046008,-0.11507,0.240966
0.9799999999999898,0.035613,-0.110358,0.246321
0.9824999999999876,0.030758,-0.109784,0.248783
0.9849999999999852,0.027812,-0.106794,0.253167
0.9875000000000114,0.020536,-0.103022,0.256019
0.9900000000000092,0.01623,-0.097845,0.265738
0.9925000000000068,0.009165,-0.089905,0.270287
0.9950000000000044,0.000467,-0.088391,0.27465
0.9975000000000024,-0.008312,-0.081563,0.280397
1.0,-0.012583,-0.076795,0.285007
1.0024999999999975,-0.021447,-0.069195,0.28673
1.0049999999999957,-0.030272,-0.057618,0.28849
1.0074999999999932,-0.034216,-0.052305,0.293104
1.009999999999991,-0.039071,-0.039372,0.296428
1.0124999999999886,-0.049019,-0.032741,0.301859
1.0149999999999864,-0.054248,-0.020735,0.306167
1.017499999999984,-0.05762,-0.009522,0.303995
1.0200000000000102,-0.065611,-0.002012,0.311474
1.022500000000008,-0.068703,0.009676,0.308587
1.0250000000000057,-0.075507,0.017204,0.308777
1.0275000000000034,-0.081782,0.030866,0.308942
1.0300000000000011,-0.089067,0.040957,0.309872
1.0324999999999989,-0.089294,0.049538,0.309198
1.0349999999999966,-0.093579,0.05978,0.310086
1.0374999999999943,-0.099455,0.069398,0.31218
1.039999999999992,-0.098491,0.073349,0.310764
1.0424999999999898,-0.099815,0.085527,0.315089
1.0449999999999875,-0.100641,0.096162,0.315563
1.0474999999999852,-0.100553,0.103825,0.31532
1.0500000000000114,-0.099678,0.107151,0.318589
1.052500000000009,-0.096652,0.11171,0.319008
1.0550000000000068,-0.097975,0.11883,0.32414
1.0575000000000043,-0.095794,0.122546,0.329583
1.0600000000000025,-0.092548,0.128339,0.331645
1.0625,-0.093091,0.129054,0.336791
1.0649999999999975,-0.089619,0.129373,0.34127
1.0674999999999957,-0.083657,0.133313,0.344216
1.0699999999999932,-0.084321,0.135921,0.349474
1.072499999999991,-0.08022,0.139507,0.353201
1.0749999999999886,-0.072846,0.141624,0.360254
1.0774999999999864,-0.069672,0.147168,0.368684
1.079999999999984,-0.06786,0.147461,0.373349
1.0825000000000102,-0.060187,0.149252,0.382092
1.085000000000008,-0.05828,0.151994,0.390828
1.0875000000000057,-0.051643,0.152407,0.396343
1.0900000000000034,-0.045189,0.15619,0.403833
1.0925000000000011,-0.038309,0.157979,0.409511
1.0949999999999989,-0.032607,0.159138,0.416566
1.0974999999999966,-0.028968,0.158211,0.421544
1.0999999999999943,-0.028992,0.159382,0.428284
1.102499999999992,-0.018109,0.165349,0.436761
1.1049999999999898,-0.014311,0.159615,0.440054
1.1074999999999875,-0.00836,0.157829,0.449995
1.1099999999999852,-0.002146,0.156973,0.454243
1.1125000000000114,0.004786,0.160063,0.461935
1.115000000000009,0.003128,0.161843,0.464816
1.1175000000000068,0.008168,0.158081,0.475123
1.1200000000000043,0.010025,0.154688,0.484174
1.1225000000000025,0.01192,0.152897,0.487297
1.125,0.012963,0.152718,0.497068
1.1274999999999975,0.01742,0.148965,0.503743
1.1299999999999957,0.020014,0.149941,0.508574
1.1324999999999932,0.021923,0.153247,0.513109
1.134999999999991,0.025562,0.149544,0.518688
1.1374999999999886,0.024629,0.147244,0.527542
1.1399999999999864,0.030733,0.14675,0.531895
1.142499999999984,0.029313,0.147822,0.538706
1.1450000000000102,0.028258,0.145384,0.543707
1.147500000000008,0.032819,0.146949,0.549253
1.1500000000000057,0.035735,0.145001,0.55218
1.1525000000000034,0.0379,0.144013,0.557884
1.1550000000000011,0.038861,0.140042,0.564074
1.1574999999999989,0.038623,0.138097,0.569601
1.1599999999999966,0.04283,0.141431,0.574198
1.1624999999999943,0.039702,0.139827,0.574266
1.164999999999992,0.045494,0.136227,0.57637
1.1674999999999898,0.042798,0.13698,0.578631
1.1699999999999875,0.047866,0.136267,0.584466
1.1724999999999852,0.049142,0.135314,0.583797
1.1750000000000114,0.051201,0.13155,0.5849
1.177500000000009,0.054351,0.133079,0.591997
1.1800000000000068,0.049355,0.127513,0.595776
1.1825000000000043,0.049434,0.1272,0.600707
1.1850000000000025,0.051226,0.123563,0.604489
1.1875,0.047769,0.123356,0.609354
1.1899999999999975,0.046205,0.116711,0.616015
1.1924999999999957,0.046765,0.111311,0.624553
1.1949999999999932,0.046324,0.109933,0.629877
1.197499999999991,0.042685,0.107939,0.637933
1.1999999999999886,0.043406,0.102856,0.644276
1.2024999999999864,0.041706,0.097641,0.65048
1.204999999999984,0.04015,0.09433,0.65693
1.2075000000000102,0.040165,0.08967,0.663789
1.210000000000008,0.037029,0.084887,0.673775
1.2125000000000057,0.035224,0.083717,0.682537
1.2150000000000034,0.036512,0.085662,0.68965
1.2175000000000011,0.032146,0.079494,0.695332
1.2199999999999989,0.030435,0.076998,0.704812
1.2224999999999966,0.028311,0.07238,0.708229
1.2249999999999943,0.025579,0.071824,0.71452
1.227499999999992,0.023936,0.071526,0.719211
1.2299999999999898,0.01991,0.065955,0.727937
1.2324999999999875,0.01651,0.066788,0.731047
1.2349999999999852,0.010278,0.066628,0.736506
1.2375000000000114,0.010388,0.059701,0.738693
1.240000000000009,0.009268,0.061161,0.744284
1.2425000000000068,0.003102,0.06092,0.746595
1.2450000000000043,0.001297,0.057141,0.752013
1.2475000000000025,-0.003037,0.059098,0.755246
1.25,-0.005981,0.054184,0.757907
1.2524999999999975,-0.008428,0.052131,0.758322
1.2549999999999957,-0.008573,0.048501,0.765655
1.2574999999999932,-0.016397,0.046233,0.767637
1.259999999999991,-0.014125,0.04947,0.770369
1.2624999999999886,-0.017793,0.045411,0.773309
1.2649999999999864,-0.017653,0.041825,0.778448
1.267499999999984,-0.021255,0.042679,0.781145
1.2700000000000102,-0.020584,0.039489,0.784934
1.272500000000008,-0.023505,0.040565,0.785191
1.2750000000000057,-0.022349,0.039863,0.784595
1.2775000000000034,-0.018929,0.03284,0.793315
1.2800000000000011,-0.020638,0.033381,0.790278
1.2824999999999989,-0.019977,0.032782,0.794884
1.2849999999999966,-0.023612,0.030295,0.796659
1.2874999999999943,-0.022115,0.028577,0.799953
1.289999999999992,-0.022283,0.022074,0.801025
1.2924999999999898,-0.023115,0.01766,0.801618
1.2949999999999875,-0.023967,0.023121,0.80777
1.2974999999999852,-0.018956,0.016243,0.806596
1.3000000000000114,-0.021319,0.011996,0.811095
1.302500000000009,-0.020967,0.012898,0.812716
1.3050000000000068,-0.017986,0.014878,0.815647
1.3075000000000043,-0.019088,0.012413,0.819702
1.3100000000000025,-0.01345,0.012397,0.824147
1.3125,-0.014493,0.010159,0.828336
1.3149999999999975,-0.011906,0.011682,0.833065
1.3174999999999957,-0.010237,0.010482,0.834542
1.3199999999999932,-0.002556,0.013737,0.838111
1.322499999999991,-0.000486,0.00884,0.839707
1.3249999999999886,0.003552,0.014616,0.844712
1.3274999999999864,0.008408,0.015426,0.84826
1.329999999999984,0.011688,0.012676,0.848469
1.3325000000000102,0.01597,0.020283,0.849991
1.335000000000008,0.022521,0.021834,0.851598
1.3375000000000057,0.028198,0.022797,0.854469
1.3400000000000034,0.030269,0.025306,0.857974
1.3425000000000011,0.034169,0.033144,0.858092
1.3449999999999989,0.041064,0.030605,0.856199
1.3474999999999966,0.044862,0.035698,0.858375
1.3499999999999943,0.05429,0.038465,0.860336
1.352499999999992,0.051869,0.04363,0.86162
1.3549999999999898,0.058257,0.04775,0.861783
1.3574999999999875,0.058884,0.051854,0.860986
1.3599999999999852,0.063442,0.055347,0.862733
1.3625000000000114,0.069495,0.057503,0.862049
1.365000000000009,0.068968,0.062472,0.862485
1.3675000000000068,0.074419,0.066438,0.861135
1.3700000000000043,0.079795,0.067093,0.865656
1.3725000000000025,0.081316,0.07359,0.864109
1.375,0.087818,0.074119,0.863243
1.3774999999999975,0.08701,0.077788,0.865654
1.3799999999999957,0.087953,0.083242,0.865976
1.3824999999999932,0.089101,0.085375,0.865676
1.384999999999991,0.092355,0.086895,0.867196
1.3874999999999886,0.093699,0.087846,0.859402
1.3899999999999864,0.097252,0.095292,0.864577
1.392499999999984,0.098264,0.094818,0.86255
1.3950000000000102,0.095739,0.094428,0.862066
1.397500000000008,0.097504,0.095237,0.858682
1.4000000000000057,0.102048,0.101223,0.858558
1.4025000000000034,0.101391,0.099672,0.86051
1.4050000000000011,0.103692,0.103179,0.853264
1.4074999999999989,0.104547,0.100868,0.852455
1.4099999999999966,0.106283,0.106988,0.851574
1.4124999999999943,0.1062,0.104731,0.846849
1.414999999999992,0.110026,0.100697,0.843866
1.4174999999999898,0.111201,0.099164,0.839355
1.4199999999999875,0.111599,0.104878,0.838045
1.4224999999999852,0.117465,0.104732,0.834219
1.4250000000000114,0.112403,0.102506,0.830848
1.427500000000009,0.119755,0.099935,0.826765
1.4300000000000068,0.123131,0.103588,0.822417
1.4325000000000043,0.124044,0.102981,0.820721
1.4350000000000025,0.122669,0.102495,0.817197
1.4375,0.125136,0.101461,0.810235
1.4399999999999975,0.128376,0.100134,0.813458
1.4424999999999957,0.130259,0.098062,0.810362
1.4449999999999932,0.133968,0.093082,0.805188
1.447499999999991,0.137299,0.098177,0.803859
1.4499999999999886,0.142615,0.093632,0.805583
1.4524999999999864,0.143193,0.091463,0.804394
1.454999999999984,0.1492,0.089184,0.802504
1.4575000000000102,0.15153,0.090681,0.801653
1.460000000000008,0.158722,0.084614,0.798587
1.4625000000000057,0.163578,0.088171,0.798649
1.4650000000000034,0.170771,0.084289,0.801241
1.4675000000000011,0.176,0.078381,0.803807
1.4699999999999989,0.184489,0.075702,0.807195
1.4724999999999966,0.187991,0.070912,0.809547
1.4749999999999943,0.196277,0.072549,0.811462
1.477499999999992,0.200296,0.066511,0.816225
1.4799999999999898,0.209046,0.060809,0.81993
1.4824999999999875,0.213196,0.053912,0.822776
1.4849999999999852,0.215954,0.051614,0.828044
1.4875000000000114,0.218596,0.048337,0.83151
1.490000000000009,0.226273,0.042505,0.838337
1.4925000000000068,0.228774,0.036354,0.844059
1.4950000000000043,0.234929,0.032324,0.847066
1.4975000000000025,0.237829,0.02489,0.849237
1.5,0.23909,0.023086,0.847332
1.5024999999999975,0.243876,0.017001,0.857385
1.5049999999999957,0.24442,0.011741,0.855319
1.5074999999999932,0.244082,0.009193,0.856995
1.509999999999991,0.246929,0.002497,0.858279
1.5124999999999886,0.249349,0.001342,0.857049
1.5149999999999864,0.248999,-0.004405,0.85756
1.517499999999984,0.24666,-0.008339,0.851611
1.5200000000000102,0.252134,-0.010583,0.85155
1.522500000000008,0.246889,-0.013827,0.850458
1.5250000000000057,0.242891,-0.019524,0.84538
1.5275000000000034,0.241589,-0.026076,0.839383
1.5300000000000011,0.241114,-0.029053,0.832959
1.5324999999999989,0.238593,-0.030649,0.82693
1.5349999999999966,0.236938,-0.034596,0.825065
1.5374999999999943,0.234225,-0.04018,0.819791
1.539999999999992,0.226549,-0.042269,0.813108
1.5424999999999898,0.229728,-0.046836,0.809766
1.5449999999999875,0.225907,-0.049706,0.804886
1.5474999999999852,0.223421,-0.051868,0.806869
1.5500000000000114,0.220198,-0.055961,0.801166
1.552500000000009,0.22179,-0.062284,0.792048
1.5550000000000068,0.22333,-0.06925,0.792832
1.5575000000000043,0.218282,-0.068395,0.789475
1.5600000000000025,0.218553,-0.076562,0.786772
1.5625,0.214767,-0.078714,0.781744
1.5649999999999975,0.212794,-0.083819,0.785289
1.5674999999999957,0.213046,-0.083031,0.781638
1.5699999999999932,0.212171,-0.091667,0.777837
1.572499999999991,0.211995,-0.089403,0.779691
1.5749999999999886,0.211272,-0.096796,0.78065
1.5774999999999864,0.208987,-0.100935,0.77767
1.579999999999984,0.210583,-0.105675,0.775596
1.5825000000000102,0.213953,-0.106244,0.772295
1.585000000000008,0.21021,-0.108579,0.772774
1.5875000000000057,0.207978,-0.109606,0.770436
1.5900000000000034,0.212123,-0.112678,0.766901
1.5925000000000011,0.208958,-0.111406,0.765229
1.5949999999999989,0.210411,-0.113761,0.76369
1.5974999999999966,0.210954,-0.114952,0.75896
1.5999999999999943,0.21328,-0.113606,0.755305
1.602499999999992,0.215469,-0.114119,0.75283
1.6049999999999898,0.211126,-0.115687,0.747904
1.6074999999999875,0.210362,-0.11726,0.74558
1.6099999999999852,0.208069,-0.117822,0.739623
1.6125000000000114,0.213487,-0.11837,0.737085
1.615000000000009,0.211482,-0.11663,0.730479
1.6175000000000068,0.213293,-0.117695,0.724145
1.6200000000000043,0.211868,-0.114903,0.720819
1.6225000000000025,0.215531,-0.11168,0.71385
1.625,0.213417,-0.116313,0.710354
1.6274999999999975,0.21079,-0.113997,0.706757
1.6299999999999957,0.208355,-0.109856,0.699783
1.6324999999999932,0.211363,-0.110228,0.691905
1.634999999999991,0.209328,-0.109667,0.685736
1.6374999999999886,0.206145,-0.108755,0.680944
1.6399999999999864,0.204472,-0.112115,0.674067
1.642499999999984,0.19894,-0.109324,0.669905
1.6450000000000102,0.198769,-0.106365,0.664198
1.647500000000008,0.193394,-0.110547,0.65806
1.6500000000000057,0.190412,-0.112131,0.65032
1.6525000000000034,0.185245,-0.113033,0.647166
1.6550000000000011,0.18866,-0.111607,0.643071
1.6574999999999989,0.178618,-0.113475,0.638049
1.6599999999999966,0.177855,-0.113416,0.631861
1.6624999999999943,0.170744,-0.112966,0.631739
1.664999999999992,0.170874,-0.113137,0.622337
1.6674999999999898,0.167161,-0.11342,0.615863
1.6699999999999875,0.168171,-0.111148,0.612549
1.6724999999999852,0.159429,-0.11081,0.609784
1.6750000000000114,0.156147,-0.112441,0.600904
1.677500000000009,0.156868,-0.11052,0.594834
1.6800000000000068,0.149249,-0.112242,0.589592
1.6825000000000043,0.151078,-0.113687,0.586917
1.6850000000000025,0.147039,-0.113295,0.578374
1.6875,0.142732,-0.113574,0.57063
1.6899999999999975,0.140745,-0.110784,0.564729
1.6924999999999957,0.141708,-0.108726,0.557242
1.6949999999999932,0.13927,-0.11209,0.549757
1.697499999999991,0.140583,-0.110315,0.545584
1.6999999999999886,0.140096,-0.11003,0.536405
1.7024999999999864,0.142046,-0.110358,0.531786
1.704999999999984,0.136838,-0.114176,0.523571
1.7075000000000102,0.138839,-0.114906,0.515004
1.710000000000008,0.136974,-0.118351,0.503544
1.7125000000000057,0.135752,-0.12223,0.49836
1.7150000000000034,0.136619,-0.119551,0.496308
1.7175000000000011,0.13969,-0.118756,0.486182
1.7199999999999989,0.138187,-0.12307,0.478629
1.7224999999999966,0.142284,-0.12259,0.47142
1.7249999999999943,0.144228,-0.125884,0.462452
1.727499999999992,0.144612,-0.12566,0.457328
1.7299999999999898,0.145581,-0.12804,0.449506
1.7324999999999875,0.145002,-0.131202,0.439762
1.7349999999999852,0.150519,-0.13133,0.430892
1.7375000000000114,0.148857,-0.132574,0.42767
1.740000000000009,0.155392,-0.135557,0.419227
1.7425000000000068,0.155915,-0.134662,0.409845
1.7450000000000043,0.158056,-0.135881,0.402554
1.7475000000000025,0.162146,-0.138447,0.397206
1.75,0.166176,-0.141878,0.391931
1.7524999999999975,0.16875,-0.141361,0.38178
1.7549999999999957,0.172799,-0.13947,0.374968
1.7574999999999932,0.1776,-0.14158,0.369164
1.759999999999991,0.17745,-0.142247,0.366711
1.7624999999999886,0.184342,-0.142042,0.358298
1.7649999999999864,0.187417,-0.148237,0.349688
1.767499999999984,0.189722,-0.146177,0.343546
1.7700000000000102,0.195684,-0.139289,0.333063
1.772500000000008,0.196353,-0.14125,0.325053
1.7750000000000057,0.201073,-0.145321,0.317968
1.7775000000000034,0.20574,-0.145254,0.306847
1.7800000000000011,0.209644,-0.144327,0.299153
1.7824999999999989,0.214072,-0.143823,0.291621
1.7849999999999966,0.217745,-0.141533,0.283427
1.7874999999999943,0.225515,-0.144374,0.274817
1.789999999999992,0.224163,-0.144528,0.265289
1.7924999999999898,0.231678,-0.142489,0.25677
1.7949999999999875,0.239467,-0.141224,0.248935
1.7974999999999852,0.242157,-0.143696,0.244721
1.8000000000000114,0.245898,-0.138822,0.237083
1.802500000000009,0.249938,-0.139934,0.228905
1.8050000000000068,0.252657,-0.138673,0.2227
1.8075000000000043,0.257338,-0.142549,0.216455
1.8100000000000025,0.260472,-0.137937,0.207097
1.8125,0.265154,-0.13525,0.204072
1.8149999999999975,0.267542,-0.136055,0.199766
1.8174999999999957,0.269776,-0.139798,0.192898
1.8199999999999927,0.275881,-0.136325,0.188401
1.822499999999991,0.276134,-0.138292,0.184824
1.8249999999999889,0.27862,-0.133945,0.177301
1.8274999999999864,0.280964,-0.130251,0.172267
1.829999999999984,0.27666,-0.133277,0.168956
1.8325000000000105,0.280555,-0.132754,0.163605
1.835000000000008,0.278727,-0.134186,0.161282
1.8375000000000057,0.275352,-0.126745,0.156303
1.8400000000000036,0.27576,-0.130583,0.149984
1.8425000000000007,0.27741,-0.127907,0.148568
1.8449999999999989,0.276107,-0.126739,0.143177
1.8474999999999968,0.273834,-0.128123,0.140712
1.8499999999999943,0.274431,-0.125954,0.137439
1.852499999999992,0.274483,-0.125073,0.13343
1.8549999999999895,0.27004,-0.126778,0.129231
1.8574999999999875,0.264435,-0.123311,0.128435
1.8599999999999848,0.263682,-0.125165,0.125176
1.8625000000000116,0.262026,-0.121328,0.12133
1.865000000000009,0.262572,-0.119211,0.115207
1.8675000000000068,0.256436,-0.115826,0.114767
1.8700000000000043,0.25557,-0.115269,0.114764
1.8725000000000025,0.253693,-0.115381,0.111385
1.875,0.249756,-0.113927,0.109466
1.8774999999999975,0.249656,-0.111705,0.103315
1.8799999999999957,0.250242,-0.109033,0.098211
1.8824999999999927,0.247435,-0.108075,0.095513
1.884999999999991,0.242969,-0.105241,0.096221
1.8874999999999889,0.240613,-0.103574,0.092008
1.8899999999999864,0.238604,-0.102627,0.090604
1.892499999999984,0.235017,-0.101727,0.086974
1.8950000000000105,0.232441,-0.103505,0.086286
1.897500000000008,0.227946,-0.094397,0.086433
1.9000000000000057,0.225569,-0.099152,0.084857
1.9025000000000036,0.221176,-0.100389,0.08656
1.9050000000000007,0.218042,-0.097309,0.085423
1.9074999999999989,0.21834,-0.093375,0.081215
1.9099999999999968,0.209319,-0.096285,0.086602
1.9124999999999943,0.206993,-0.097793,0.083581
1.914999999999992,0.199131,-0.092508,0.08515
1.9174999999999895,0.196826,-0.09262,0.086255
1.9199999999999875,0.19339,-0.088462,0.087366
1.9224999999999848,0.189608,-0.09664,0.091537
1.9250000000000116,0.182078,-0.093572,0.088856
1.927500000000009,0.177964,-0.090675,0.094714
1.9300000000000068,0.172796,-0.094199,0.094821
1.9325000000000043,0.164337,-0.095907,0.093959
1.9350000000000025,0.159401,-0.093618,0.096617
1.9375,0.15245,-0.093028,0.096072
1.9399999999999975,0.150869,-0.093347,0.094309
1.9424999999999957,0.142505,-0.095707,0.095392
1.9449999999999927,0.138373,-0.1,0.094169
1.947499999999991,0.131147,-0.100163,0.094434
1.9499999999999889,0.127349,-0.097863,0.097313
1.9524999999999864,0.118188,-0.099017,0.095894
1.954999999999984,0.107886,-0.099401,0.093737
1.9575000000000105,0.107213,-0.100076,0.095365
1.960000000000008,0.097281,-0.100788,0.096134
1.9625000000000057,0.091585,-0.102498,0.099764
1.9650000000000036,0.084098,-0.100465,0.098211
1.9675000000000007,0.077181,-0.101143,0.102182
1.9699999999999989,0.066737,-0.104645,0.101925
1.9724999999999968,0.060562,-0.100696,0.106927
1.9749999999999943,0.057096,-0.103997,0.108672
1.977499999999992,0.052268,-0.107749,0.112516
1.9799999999999895,0.04564,-0.102387,0.115085
1.9824999999999875,0.036076,-0.102159,0.11657
1.9849999999999848,0.02734,-0.10488,0.118194
1.9875000000000116,0.022247,-0.106081,0.122719
1.990000000000009,0.018837,-0.104503,0.128975
1.9925000000000068,0.006717,-0.102189,0.132128
1.9950000000000043,0.003453,-0.106412,0.136814
1.9975000000000025,-0.007519,-0.108528,0.140981
2.0,-0.013368,-0.106701,0.147898
2.0024999999999977,-0.015205,-0.112717,0.149652
2.0049999999999955,-0.02027,-0.115608,0.150745
2.007499999999993,-0.026321,-0.112619,0.156171
2.009999999999991,-0.029871,-0.115037,0.163064
2.0124999999999886,-0.03581,-0.113845,0.164958
2.0149999999999864,-0.039785,-0.116865,0.164441
2.017499999999984,-0.046097,-0.113688,0.171889
2.0200000000000102,-0.050193,-0.116119,0.172339
2.022500000000008,-0.055656,-0.114858,0.175674
2.0250000000000057,-0.057278,-0.115288,0.175434
2.0275000000000034,-0.061858,-0.116526,0.177087
2.030000000000001,-0.061865,-0.120415,0.175828
2.032499999999999,-0.067349,-0.117381,0.175383
2.0349999999999966,-0.069247,-0.120401,0.175142
2.0374999999999943,-0.075114,-0.119914,0.175773
2.039999999999992,-0.077695,-0.11979,0.174061
2.0424999999999898,-0.082143,-0.124253,0.173149
2.0449999999999875,-0.076914,-0.123046,0.173119
2.047499999999985,-0.085479,-0.120029,0.173936
2.050000000000012,-0.085936,-0.117178,0.172008
2.052500000000009,-0.08709,-0.115389,0.171139
2.055000000000007,-0.092579,-0.11936,0.169456
2.0575000000000045,-0.091015,-0.115877,0.171048
2.0600000000000023,-0.093296,-0.117381,0.165019
2.0625,-0.094564,-0.116617,0.167211
2.0649999999999977,-0.094713,-0.116389,0.166629
2.0674999999999955,-0.098528,-0.12002,0.16334
2.069999999999993,-0.098148,-0.114365,0.16497
2.072499999999991,-0.097199,-0.112082,0.161257
2.0749999999999886,-0.094736,-0.117008,0.160069
2.0774999999999864,-0.092268,-0.117341,0.161146
2.079999999999984,-0.093515,-0.118476,0.15431
2.0825000000000102,-0.088379,-0.11936,0.152899
2.085000000000008,-0.090148,-0.118592,0.15196
2.0875000000000057,-0.091308,-0.120954,0.148564
2.0900000000000034,-0.084527,-0.117573,0.149301
2.092500000000001,-0.07949,-0.120957,0.144074
2.094999999999999,-0.080295,-0.118183,0.140847
2.0974999999999966,-0.077213,-0.120752,0.133941
2.0999999999999943,-0.073268,-0.124756,0.131582
2.102499999999992,-0.070244,-0.124998,0.125452
2.1049999999999898,-0.067168,-0.129986,0.119626
2.1074999999999875,-0.062707,-0.127222,0.114652
2.109999999999985,-0.058967,-0.127164,0.107608
2.112500000000012,-0.056149,-0.126635,0.10135
2.115000000000009,-0.050308,-0.12766,0.092956
2.117500000000007,-0.045694,-0.126843,0.087192
2.1200000000000045,-0.041571,-0.128353,0.079512
2.1225000000000023,-0.037113,-0.126162,0.073484
2.125,-0.031418,-0.127868,0.067117
2.1274999999999977,-0.027671,-0.127313,0.059619
2.1299999999999955,-0.026153,-0.128353,0.055278
2.132499999999993,-0.01798,-0.126559,0.04637
2.134999999999991,-0.01775,-0.124979,0.042637
2.1374999999999886,-0.008622,-0.125611,0.036513
2.1399999999999864,-0.006735,-0.120348,0.029656
2.142499999999984,-0.003697,-0.1223,0.023065
2.1450000000000102,0.000647,-0.119661,0.016578
2.147500000000008,-0.000608,-0.122103,0.016861
2.1500000000000057,0.009408,-0.119813,0.010838
2.1525000000000034,0.013068,-0.120077,0.006694
2.155000000000001,0.015505,-0.117424,0.003182
2.157499999999999,0.019916,-0.118205,0.000992
2.1599999999999966,0.024959,-0.116058,-0.00326
2.1624999999999943,0.025394,-0.113103,-0.003524
2.164999999999992,0.030544,-0.111048,-0.005151
2.1674999999999898,0.036951,-0.115201,-0.005335
2.1699999999999875,0.040077,-0.115189,-0.004734
2.172499999999985,0.038975,-0.109269,-0.007434
2.175000000000012,0.043521,-0.109479,-0.005321
2.177500000000009,0.043958,-0.109987,-0.002076
2.180000000000007,0.049389,-0.10806,-0.003247
2.1825000000000045,0.054256,-0.107193,-0.003804
2.1850000000000023,0.057746,-0.110292,-0.00409
2.1875,0.062399,-0.110477,-0.001059
2.1899999999999977,0.064159,-0.105469,-0.001772
2.1924999999999955,0.068473,-0.103657,-0.002201
2.194999999999993,0.069902,-0.103801,-0.00283
2.197499999999991,0.074392,-0.102454,-0.001359
2.1999999999999886,0.077409,-0.100888,-2.5e-05
2.2024999999999864,0.080972,-0.098693,-0.003022
2.204999999999984,0.084087,-0.093508,-0.002719
2.2075000000000102,0.084793,-0.093175,-0.005069
2.210000000000008,0.086957,-0.090712,-0.004698
2.2125000000000057,0.090142,-0.092547,-0.009705
2.2150000000000034,0.089913,-0.085635,-0.008093
2.217500000000001,0.091653,-0.091793,-0.013609
2.219999999999999,0.096593,-0.090517,-0.01414
2.2224999999999966,0.095435,-0.088121,-0.01398
2.2249999999999943,0.098136,-0.088069,-0.017011
2.227499999999992,0.100348,-0.083587,-0.017893
2.2299999999999898,0.095678,-0.084203,-0.016077
2.2324999999999875,0.097861,-0.08533,-0.018315
2.234999999999985,0.098757,-0.084211,-0.016923
2.237500000000012,0.09603,-0.083287,-0.017108
2.240000000000009,0.09361,-0.081521,-0.016358
2.242500000000007,0.092635,-0.080296,-0.017557
2.2450000000000045,0.089542,-0.077607,-0.013122
2.2475000000000023,0.089366,-0.076868,-0.013426
2.25,0.086836,-0.076781,-0.013091
2.2524999999999977,0.086503,-0.078093,-0.010748
2.2549999999999955,0.08396,-0.080565,-0.011297
2.257499999999993,0.082976,-0.080983,-0.010498
2.259999999999991,0.079187,-0.076051,-0.007086
2.2624999999999886,0.075959,-0.074704,-0.003631
2.2649999999999864,0.073051,-0.074145,-0.004217
2.267499999999984,0.068412,-0.075501,0.001872
2.2700000000000102,0.06943,-0.071499,0.005757
2.272500000000008,0.064749,-0.071132,0.007074
2.2750000000000057,0.061404,-0.071341,0.004733
2.2775000000000034,0.054299,-0.070846,0.009086
2.280000000000001,0.050236,-0.069128,0.004735
2.282499999999999,0.048421,-0.071909,0.006204
2.2849999999999966,0.044657,-0.072247,0.004981
2.2874999999999943,0.045245,-0.072879,0.006295
2.289999999999992,0.039085,-0.069462,0.009643
2.2924999999999898,0.032578,-0.068992,0.008888
2.2949999999999875,0.029922,-0.069559,0.008298
2.297499999999985,0.029058,-0.06891,0.010205
2.300000000000012,0.026605,-0.070192,0.012299
2.302500000000009,0.019851,-0.070582,0.011098
2.305000000000007,0.017162,-0.072858,0.008949
2.3075000000000045,0.013386,-0.068393,0.007924
2.3100000000000023,0.010877,-0.07052,0.008904
2.3125,0.00842,-0.062928,0.009561
2.3149999999999977,0.0076,-0.065249,0.006979
2.3174999999999955,0.003149,-0.066167,0.00947
2.319999999999993,-0.003828,-0.060777,0.007334
2.322499999999991,-0.005285,-0.06447,0.009988
2.3249999999999886,-0.009291,-0.057566,0.011493
2.3274999999999864,-0.010261,-0.054689,0.013652
2.329999999999984,-0.011943,-0.055212,0.013801
2.3325000000000102,-0.022107,-0.056762,0.016689
2.335000000000008,-0.023508,-0.054285,0.019395
2.3375000000000057,-0.026348,-0.051649,0.020071
2.3400000000000034,-0.03055,-0.047354,0.022498
2.342500000000001,-0.033319,-0.051129,0.026723
2.344999999999999,-0.036074,-0.050032,0.027571
2.3474999999999966,-0.037773,-0.049528,0.029597
2.3499999999999943,-0.042114,-0.050262,0.030848
2.352499999999992,-0.047846,-0.049397,0.030259
2.3549999999999898,-0.046612,-0.053458,0.032706
2.3574999999999875,-0.048059,-0.048052,0.036421
2.359999999999985,-0.052781,-0.04821,0.036914
2.362500000000012,-0.052662,-0.043291,0.038955
2.365000000000009,-0.055517,-0.04805,0.0426
2.367500000000007,-0.054315,-0.049581,0.041857
2.3700000000000045,-0.055467,-0.048406,0.039402
2.3725000000000023,-0.054368,-0.050849,0.042263
2.375,-0.055592,-0.050345,0.039072
2.3774999999999977,-0.057971,-0.053251,0.041399
2.3799999999999955,-0.053225,-0.056128,0.039656
2.382499999999993,-0.056569,-0.054477,0.041845
2.384999999999991,-0.05123,-0.058107,0.036707
2.3874999999999886,-0.058247,-0.060494,0.034695
2.3899999999999864,-0.057347,-0.065625,0.03564
2.392499999999984,-0.053647,-0.068051,0.037075
2.3950000000000102,-0.051294,-0.06845,0.033373
2.397500000000008,-0.05676,-0.073856,0.030866
2.4000000000000057,-0.056121,-0.079525,0.030338
2.4025000000000034,-0.055842,-0.080909,0.030886
2.405000000000001,-0.05787,-0.085866,0.028422
2.407499999999999,-0.05659,-0.088044,0.030931
2.4099999999999966,-0.054032,-0.093569,0.028973
2.4124999999999943,-0.051826,-0.09663,0.024544
2.414999999999992,-0.055413,-0.100751,0.025938
2.4174999999999898,-0.054322,-0.10518,0.027332
2.4199999999999875,-0.051083,-0.107977,0.025556
2.422499999999985,-0.050075,-0.114755,0.024001
2.425000000000012,-0.045377,-0.118604,0.025893
2.427500000000009,-0.047772,-0.126845,0.027139
2.430000000000007,-0.047582,-0.128135,0.024264
2.4325000000000045,-0.041412,-0.13085,0.026152
2.4350000000000023,-0.04086,-0.138745,0.023704
2.4375,-0.038205,-0.138403,0.022464
2.4399999999999977,-0.036764,-0.144491,0.021046
2.4424999999999955,-0.030731,-0.146866,0.018341
2.444999999999993,-0.02922,-0.149681,0.018776
2.447499999999991,-0.024791,-0.153948,0.014805
2.4499999999999886,-0.02387,-0.150652,0.012056
2.4524999999999864,-0.018518,-0.159836,0.010594
2.454999999999984,-0.014052,-0.156066,0.009788
2.4575000000000102,-0.009392,-0.164542,0.005998
2.460000000000008,-0.006323,-0.165248,0.00282
2.4625000000000057,-0.001505,-0.167038,0.000236
2.4650000000000034,0.001057,-0.174206,0.00029
2.467500000000001,0.006204,-0.177304,0.004265
2.469999999999999,0.012276,-0.187664,0.009993
2.4724999999999966,0.014447,-0.200677,0.01331
2.4749999999999943,0.017305,-0.213608,0.021998
2.477499999999992,0.025066,-0.22404,0.036346
2.4799999999999898,0.028876,-0.243634,0.050264
2.4824999999999875,0.024397,-0.253366,0.069118
2.484999999999985,0.024771,-0.256887,0.086562
2.487500000000012,0.024419,-0.260575,0.101232
2.490000000000009,0.019755,-0.261757,0.120806
2.492500000000007,0.013796,-0.261849,0.139234
2.4950000000000045,0.008958,-0.264508,0.153735
2.4975000000000023,0.00229,-0.253418,0.161723
2.5,-0.001228,-0.243722,0.168958
2.5024999999999977,-0.007658,-0.234102,0.174921
2.5049999999999955,-0.010546,-0.222585,0.177828
2.507499999999993,-0.015883,-0.204451,0.178935
2.509999999999991,-0.023912,-0.191495,0.179612
2.5124999999999886,-0.031275,-0.174445,0.177033
2.5149999999999864,-0.03709,-0.155847,0.177837
2.517499999999984,-0.044891,-0.13794,0.172777
2.5200000000000102,-0.050211,-0.124528,0.167801
2.522500000000008,-0.054902,-0.110464,0.163562
2.5250000000000057,-0.060287,-0.098222,0.160567
2.5275000000000034,-0.064008,-0.083244,0.153095
2.530000000000001,-0.068104,-0.073914,0.146043
2.532499999999999,-0.069386,-0.060374,0.139318
2.5349999999999966,-0.073275,-0.054191,0.132491
2.5374999999999943,-0.07506,-0.043407,0.125869
2.539999999999992,-0.075179,-0.040634,0.11638
2.5424999999999898,-0.072511,-0.037126,0.109794
2.5449999999999875,-0.070812,-0.037703,0.10455
2.547499999999985,-0.070333,-0.034644,0.093634
2.550000000000012,-0.06537,-0.037374,0.084542
2.552500000000009,-0.060178,-0.038359,0.07489
2.555000000000007,-0.049931,-0.047669,0.071225
2.5575000000000045,-0.042942,-0.05783,0.061601
2.5600000000000023,-0.036497,-0.062829,0.053153
2.5625,-0.029841,-0.071701,0.049671
2.5649999999999977,-0.021142,-0.078905,0.046059
2.5674999999999955,-0.007619,-0.087774,0.040969
2.569999999999993,-0.002688,-0.09927,0.03446
2.572499999999991,0.011405,-0.108773,0.029255
2.5749999999999886,0.020283,-0.118594,0.025239
2.5774999999999864,0.029241,-0.126247,0.019757
2.579999999999984,0.036789,-0.134964,0.017647
2.5825000000000102,0.043867,-0.134882,0.014739
2.585000000000008,0.045266,-0.135207,0.014979
2.5875000000000057,0.05243,-0.132258,0.010816
2.5900000000000034,0.055075,-0.130343,0.007559
2.592500000000001,0.053265,-0.130807,0.01413
2.594999999999999,0.059713,-0.129588,0.011849
2.5974999999999966,0.052883,-0.131339,0.010207
2.5999999999999943,0.052566,-0.130554,0.013187
2.602499999999992,0.050167,-0.125235,0.01431
2.6049999999999898,0.047044,-0.12974,0.015157
2.6074999999999875,0.047373,-0.127634,0.016326
2.609999999999985,0.044976,-0.123893,0.022227
2.612500000000012,0.042509,-0.128347,0.023747
2.615000000000009,0.039201,-0.131007,0.027051
2.617500000000007,0.038246,-0.126821,0.023628
2.6200000000000045,0.037346,-0.128429,0.029778
2.6225000000000023,0.034481,-0.124174,0.032175
2.625,0.031624,-0.12753,0.03126
2.6274999999999977,0.03046,-0.125293,0.030617
2.6299999999999955,0.028693,-0.12304,0.03218
2.632499999999993,0.031007,-0.118464,0.033765
2.634999999999991,0.027817,-0.12273,0.033189
2.6374999999999886,0.025287,-0.118849,0.034463
2.6399999999999864,0.025681,-0.120239,0.034264
2.642499999999984,0.01994,-0.117528,0.036172
2.6450000000000102,0.021825,-0.121492,0.037246
2.647500000000008,0.019222,-0.113609,0.041715
2.6500000000000057,0.018922,-0.112753,0.04229
2.6525000000000034,0.017525,-0.112197,0.044207
2.655000000000001,0.016504,-0.110653,0.04692
2.657499999999999,0.013249,-0.108342,0.049245
2.6599999999999966,0.018109,-0.105721,0.052347
2.6624999999999943,0.015802,-0.10567,0.052992
2.664999999999992,0.01299,-0.10501,0.055937
2.6674999999999898,0.01073,-0.101209,0.060151
2.6699999999999875,0.008493,-0.100957,0.061326
2.672499999999985,0.005487,-0.099719,0.060942
2.675000000000012,0.005012,-0.096802,0.062112
2.677500000000009,0.003202,-0.097373,0.065114
2.680000000000007,0.000677,-0.091761,0.066672
2.6825000000000045,-0.002168,-0.091898,0.067734
2.6850000000000023,-0.007845,-0.092934,0.069893
2.6875,-0.007775,-0.087531,0.071796
2.6899999999999977,-0.012918,-0.086203,0.070558
2.6924999999999955,-0.016426,-0.083485,0.072958
2.694999999999993,-0.01927,-0.081429,0.074335
2.697499999999991,-0.026007,-0.081353,0.074732
2.6999999999999886,-0.027698,-0.078374,0.074177
2.7024999999999864,-0.030121,-0.075737,0.072224
2.704999999999984,-0.033061,-0.078784,0.077162
2.7075000000000102,-0.039606,-0.073321,0.075638
2.710000000000008,-0.043957,-0.071952,0.073693
2.7125000000000057,-0.045814,-0.071952,0.072764
2.7150000000000034,-0.053886,-0.065725,0.073086
2.717500000000001,-0.054944,-0.069864,0.070976
2.719999999999999,-0.062634,-0.068153,0.071349
2.7224999999999966,-0.06692,-0.060739,0.072428
2.7249999999999943,-0.073768,-0.061083,0.06995
2.727499999999992,-0.077277,-0.057958,0.069115
2.7299999999999898,-0.080742,-0.053732,0.068801
2.7324999999999875,-0.08764,-0.051576,0.064867
2.734999999999985,-0.089598,-0.048952,0.066102
2.737500000000012,-0.096235,-0.050518,0.06473
2.740000000000009,-0.103179,-0.046533,0.063435
2.742500000000007,-0.106533,-0.041938,0.064085
2.7450000000000045,-0.107785,-0.044732,0.063369
2.7475000000000023,-0.109929,-0.044948,0.066102
2.75,-0.112818,-0.048092,0.066578
2.7524999999999977,-0.114983,-0.047483,0.06362
2.7549999999999955,-0.116602,-0.049846,0.06381
2.757499999999993,-0.115825,-0.052652,0.063669
2.759999999999991,-0.116092,-0.049712,0.066813
2.7624999999999886,-0.118917,-0.055142,0.068789
2.7649999999999864,-0.115143,-0.05625,0.065013
2.767499999999984,-0.116533,-0.057022,0.065636
2.7700000000000102,-0.117713,-0.061364,0.067777
2.772500000000008,-0.115409,-0.067149,0.071045
2.7750000000000057,-0.113234,-0.067824,0.068723
2.7775000000000034,-0.117047,-0.071049,0.068866
2.780000000000001,-0.114508,-0.072734,0.07435
2.782499999999999,-0.114511,-0.07519,0.07265
2.7849999999999966,-0.1096,-0.079399,0.073909
2.7874999999999943,-0.1121,-0.084077,0.079087
2.789999999999992,-0.107585,-0.08719,0.077417
2.7924999999999898,-0.104649,-0.091024,0.080746
2.7949999999999875,-0.105979,-0.090383,0.079234
2.797499999999985,-0.10282,-0.098294,0.082728
2.800000000000012,-0.099368,-0.099897,0.083909
2.802500000000009,-0.099079,-0.103053,0.087211
2.805000000000007,-0.092372,-0.110176,0.083288
2.8075000000000045,-0.09197,-0.114369,0.087374
2.8100000000000023,-0.085963,-0.117904,0.090189
2.8125,-0.08354,-0.12117,0.090485
2.8149999999999977,-0.076447,-0.126222,0.089533
2.8174999999999955,-0.075017,-0.127327,0.093216
2.819999999999993,-0.07093,-0.132674,0.094292
2.822499999999991,-0.066082,-0.1366,0.097356
2.8249999999999886,-0.065592,-0.140715,0.100078
2.8274999999999864,-0.058645,-0.146857,0.096247
2.829999999999984,-0.053652,-0.150058,0.098325
2.8325000000000102,-0.049704,-0.153649,0.100742
2.835000000000008,-0.043714,-0.158444,0.097694
2.8375000000000057,-0.038961,-0.161068,0.102361
2.8400000000000034,-0.032476,-0.16523,0.103649
2.842500000000001,-0.028785,-0.170738,0.104026
2.844999999999999,-0.021008,-0.177224,0.105757
2.8474999999999966,-0.018208,-0.176133,0.108331
2.8499999999999943,-0.01401,-0.179248,0.107079
2.852499999999992,-0.010051,-0.184399,0.102481
2.8549999999999898,-0.00546,-0.194457,0.10804
2.8574999999999875,-0.000302,-0.192663,0.108815
2.859999999999985,0.004414,-0.197048,0.108581
2.862500000000012,0.005626,-0.201394,0.110438
2.865000000000009,0.013421,-0.201869,0.112271
2.867500000000007,0.012641,-0.206128,0.11147
2.8700000000000045,0.01713,-0.208236,0.109295
2.8725000000000023,0.020578,-0.215639,0.1079
2.875,0.022461,-0.214459,0.108436
2.8774999999999977,0.024563,-0.222648,0.108886
2.8799999999999955,0.026698,-0.225243,0.108059
2.882499999999993,0.032584,-0.229412,0.102764
2.884999999999991,0.027148,-0.230615,0.100408
2.8874999999999886,0.033858,-0.242028,0.098041
2.8899999999999864,0.034184,-0.236997,0.100655
2.892499999999984,0.039298,-0.23759,0.100417
2.8950000000000102,0.034659,-0.242242,0.096827
2.897500000000008,0.037517,-0.246075,0.093354
2.9000000000000057,0.038784,-0.249727,0.093044
2.9025000000000034,0.041699,-0.249098,0.090139
2.905000000000001,0.039165,-0.252655,0.087225
2.907499999999999,0.043871,-0.252482,0.083757
2.9099999999999966,0.043466,-0.255972,0.087184
2.9124999999999943,0.042703,-0.25727,0.080477
2.914999999999992,0.044645,-0.261278,0.079415
2.9174999999999898,0.042287,-0.263065,0.078244
2.9199999999999875,0.040904,-0.26316,0.073052
2.922499999999985,0.040638,-0.265367,0.070874
2.925000000000012,0.039972,-0.270034,0.06595
2.927500000000009,0.036625,-0.26909,0.066199
2.930000000000007,0.03795,-0.272189,0.062285
2.9325000000000045,0.038408,-0.273068,0.062115
2.9350000000000023,0.034284,-0.272499,0.055756
2.9375,0.036097,-0.272526,0.056808
2.9399999999999977,0.036684,-0.27726,0.050773
2.9424999999999955,0.037453,-0.273411,0.050702
2.944999999999993,0.036948,-0.27561,0.047285
2.947499999999991,0.036543,-0.276951,0.049106
2.9499999999999886,0.036121,-0.275229,0.041876
2.9524999999999864,0.031192,-0.279009,0.041343
2.954999999999984,0.034691,-0.278117,0.040848
2.9575000000000102,0.034664,-0.278598,0.035498
2.960000000000008,0.031903,-0.282359,0.035019
2.9625000000000057,0.028387,-0.282559,0.033296
2.9650000000000034,0.030377,-0.283735,0.028073
2.967500000000001,0.030165,-0.28342,0.027127
2.969999999999999,0.029739,-0.284474,0.02363
2.9724999999999966,0.032719,-0.282642,0.024968
2.9749999999999943,0.031205,-0.283696,0.022664
2.977499999999992,0.03403,-0.280838,0.018363
2.9799999999999898,0.036398,-0.279038,0.015352
2.9824999999999875,0.033923,-0.277077,0.015558
2.984999999999985,0.037051,-0.272839,0.013719
2.987500000000012,0.035162,-0.274667,0.009508
2.990000000000009,0.035409,-0.273684,0.01517
2.992500000000007,0.035641,-0.267452,0.012582
2.9950000000000045,0.034929,-0.264923,0.010482
2.9975000000000023,0.036772,-0.262389,0.00632
3.0,0.034829,-0.260168,0.008973
3.0024999999999977,0.033662,-0.255951,0.008304
3.0049999999999955,0.034816,-0.257732,0.010905
3.007499999999993,0.035218,-0.251676,0.006066
3.009999999999991,0.034439,-0.2478,0.006875
3.0124999999999886,0.033759,-0.246817,0.007645
3.0149999999999864,0.036826,-0.244513,0.006612
3.017499999999984,0.03844,-0.244603,0.008971
3.0200000000000102,0.037856,-0.242668,0.006755
3.022500000000008,0.040827,-0.239196,0.011898
3.0250000000000057,0.044147,-0.23572,0.009944
3.0275000000000034,0.042272,-0.235835,0.01037
3.030000000000001,0.049032,-0.234374,0.013498
3.032499999999999,0.049215,-0.233445,0.012814
3.0349999999999966,0.052933,-0.23272,0.016076
3.0374999999999943,0.054222,-0.230739,0.019669
3.039999999999992,0.054704,-0.23216,0.020311
3.0424999999999898,0.060492,-0.226106,0.019609
3.0449999999999875,0.065658,-0.219525,0.02334
3.047499999999985,0.067057,-0.219482,0.022697
3.050000000000012,0.070702,-0.217973,0.024962
3.052500000000009,0.073492,-0.21714,0.024161
3.055000000000007,0.078017,-0.212778,0.023706
3.0575000000000045,0.079928,-0.2131,0.026337
3.0600000000000023,0.084677,-0.2095,0.028471
3.0625,0.088074,-0.207856,0.023713
3.0649999999999977,0.090841,-0.204982,0.02792
3.0674999999999955,0.093248,-0.205579,0.029086
3.069999999999993,0.097082,-0.207639,0.033376
3.072499999999991,0.098225,-0.203034,0.029633
3.0749999999999886,0.100484,-0.20442,0.034677
3.0774999999999864,0.103634,-0.204284,0.03411
3.079999999999984,0.105099,-0.203945,0.040088
3.0825000000000102,0.106902,-0.199783,0.038741
3.085000000000008,0.113625,-0.198984,0.040587
3.0875000000000057,0.115674,-0.195216,0.042329
3.0900000000000034,0.114968,-0.193545,0.045084
3.092500000000001,0.1176,-0.194575,0.047064
3.094999999999999,0.115872,-0.199331,0.043593
3.0974999999999966,0.125543,-0.197984,0.048209
3.0999999999999943,0.125513,-0.195324,0.054065
3.102499999999992,0.128611,-0.196539,0.054618
3.1049999999999898,0.128084,-0.195393,0.056081
3.1074999999999875,0.133502,-0.192319,0.060704
3.109999999999985,0.133062,-0.190803,0.057483
3.112500000000012,0.137631,-0.188985,0.057729
3.115000000000009,0.13983,-0.190099,0.060072
3.117500000000007,0.13847,-0.190848,0.062517
3.1200000000000045,0.14241,-0.189586,0.060122
3.1225000000000023,0.144981,-0.190525,0.062248
3.125,0.150072,-0.192061,0.066694
3.1274999999999977,0.150495,-0.194439,0.065973
3.1299999999999955,0.151528,-0.193726,0.067454
3.132499999999993,0.154553,-0.193645,0.067192
3.134999999999991,0.152984,-0.198679,0.069607
3.1374999999999886,0.155848,-0.196344,0.066408
3.1399999999999864,0.159236,-0.196357,0.064761
3.142499999999984,0.159786,-0.194986,0.065871
3.1450000000000102,0.158315,-0.196402,0.062779
3.147500000000008,0.159694,-0.198841,0.061681
3.1500000000000057,0.162291,-0.200677,0.062188
3.1525000000000034,0.159087,-0.200667,0.059972
3.155000000000001,0.159454,-0.202245,0.059006
3.157499999999999,0.158096,-0.203893,0.058696
3.1599999999999966,0.157552,-0.205277,0.054558
3.1624999999999943,0.15663,-0.205925,0.054067
3.164999999999992,0.155132,-0.209264,0.053809
3.1674999999999898,0.152258,-0.206612,0.054441
3.1699999999999875,0.154584,-0.210318,0.051259
3.172499999999985,0.150616,-0.204407,0.0482
3.175000000000012,0.151368,-0.206612,0.050112
3.177500000000009,0.14817,-0.207669,0.041186
3.180000000000007,0.144556,-0.209937,0.042446
3.1825000000000045,0.144569,-0.206681,0.041328
3.1850000000000023,0.143585,-0.208014,0.043503
3.1875,0.14252,-0.205874,0.04013
3.1899999999999977,0.141563,-0.205286,0.041429
3.1924999999999955,0.140107,-0.207233,0.03865
3.194999999999993,0.137309,-0.207856,0.038376
3.197499999999991,0.139701,-0.205463,0.041113
3.1999999999999886,0.137038,-0.209694,0.036622
3.2024999999999864,0.132594,-0.205942,0.034282
3.204999999999984,0.130073,-0.204906,0.036316
3.2075000000000102,0.128884,-0.204016,0.030506
3.210000000000008,0.123665,-0.204648,0.031347
3.2125000000000057,0.118545,-0.205232,0.025821
3.2150000000000034,0.116276,-0.2005,0.02531
3.217500000000001,0.113788,-0.203204,0.020369
3.219999999999999,0.107595,-0.198896,0.017969
3.2224999999999966,0.099615,-0.201803,0.017009
3.2249999999999943,0.093184,-0.195664,0.014345
3.227499999999992,0.088213,-0.198235,0.010376
3.2299999999999898,0.083058,-0.193216,0.01104
3.2324999999999875,0.080349,-0.196673,0.006517
3.234999999999985,0.07532,-0.196484,0.005431
3.237500000000012,0.072073,-0.196974,0.007535
3.240000000000009,0.066315,-0.196472,0.001193
3.242500000000007,0.061504,-0.19488,0.003398
3.2450000000000045,0.055528,-0.198623,-0.000604
3.2475000000000023,0.051304,-0.196095,-0.002742
3.25,0.046813,-0.200997,-0.004426
3.2524999999999977,0.04428,-0.198536,-0.007468
3.2549999999999955,0.036839,-0.195073,-0.005679
3.257499999999993,0.03247,-0.2,-0.004208
3.259999999999991,0.028912,-0.198926,-0.007619
3.2624999999999886,0.027808,-0.200181,-0.006871
3.2649999999999864,0.024829,-0.195265,-0.007345
3.267499999999984,0.021961,-0.200902,-0.006916
3.2700000000000102,0.016724,-0.198054,-0.006473
3.272500000000008,0.014656,-0.196584,-0.004566
3.2750000000000057,0.009695,-0.197689,-0.00288
3.2775000000000034,0.008649,-0.195834,-0.00785
3.280000000000001,0.006288,-0.195977,-0.003937
3.282499999999999,0.002656,-0.196044,-0.002904
3.2849999999999966,0.000865,-0.199173,-0.002995
3.2874999999999943,-0.000788,-0.200477,-0.003488
3.289999999999992,-0.002362,-0.200959,-0.000346
3.2924999999999898,-0.005244,-0.202195,0.000716
3.2949999999999875,-0.0057,-0.202107,0.002555
3.297499999999985,-0.00699,-0.200847,0.002787
3.300000000000012,-0.009827,-0.20155,0.001927
3.302500000000009,-0.008081,-0.201871,0.002659
3.305000000000007,-0.009198,-0.20223,0.002011
3.3075000000000045,-0.011629,-0.204165,0.005082
3.3100000000000023,-0.008985,-0.20248,0.003625
3.3125,-0.012851,-0.203717,0.005171
3.3149999999999977,-0.013177,-0.206992,0.008463
3.3174999999999955,-0.017682,-0.20086,0.006928
3.319999999999993,-0.015372,-0.204097,0.010068
3.322499999999991,-0.017901,-0.205597,0.008429
3.3249999999999886,-0.017332,-0.203066,0.008481
3.3274999999999864,-0.017299,-0.200273,0.012369
3.329999999999984,-0.018613,-0.201879,0.013863
3.3325000000000102,-0.021784,-0.203486,0.012598
3.335000000000008,-0.022402,-0.196883,0.01701
3.3375000000000057,-0.021358,-0.200489,0.014944
3.3400000000000034,-0.023288,-0.200461,0.014964
3.342500000000001,-0.021376,-0.201209,0.018262
3.344999999999999,-0.022849,-0.20185,0.018371
3.3474999999999966,-0.025113,-0.19681,0.017766
3.3499999999999943,-0.025679,-0.201142,0.021336
3.352499999999992,-0.026187,-0.200062,0.021986
3.3549999999999898,-0.03202,-0.199465,0.023391
3.3574999999999875,-0.029629,-0.199765,0.022856
3.359999999999985,-0.030549,-0.200328,0.022195
3.362500000000012,-0.029206,-0.20157,0.026485
3.365000000000009,-0.028436,-0.198342,0.025935
3.367500000000007,-0.028905,-0.203523,0.027698
3.3700000000000045,-0.03463,-0.200297,0.031168
3.3725000000000023,-0.030452,-0.203969,0.033324
3.375,-0.029824,-0.203536,0.033094
3.3774999999999977,-0.029996,-0.206994,0.034832
3.3799999999999955,-0.029613,-0.207561,0.034795
3.382499999999993,-0.024855,-0.211319,0.036237
3.384999999999991,-0.026056,-0.211936,0.035884
3.3874999999999886,-0.025575,-0.210226,0.038493
3.3899999999999864,-0.022294,-0.208129,0.039301
3.392499999999984,-0.020455,-0.20963,0.040265
3.3950000000000102,-0.023037,-0.210065,0.04139
3.397500000000008,-0.019768,-0.213064,0.041995
3.4000000000000057,-0.020751,-0.216025,0.043485
3.4025000000000034,-0.019136,-0.210518,0.044823
3.405000000000001,-0.018235,-0.217246,0.04367
3.407499999999999,-0.015792,-0.216079,0.047344
3.4099999999999966,-0.016934,-0.216544,0.043631
3.4124999999999943,-0.013281,-0.222634,0.045609
3.414999999999992,-0.017285,-0.221395,0.047038
3.4174999999999898,-0.017782,-0.21978,0.047017
3.4199999999999875,-0.015773,-0.225759,0.04715
3.422499999999985,-0.014213,-0.224659,0.04843
3.425000000000012,-0.021651,-0.227751,0.046573
3.427500000000009,-0.015616,-0.229125,0.047883
3.430000000000007,-0.017728,-0.228973,0.046285
3.4325000000000045,-0.021721,-0.22379,0.044794
3.4350000000000023,-0.020806,-0.226335,0.046276
3.4375,-0.025323,-0.227459,0.047053
3.4399999999999977,-0.027168,-0.22663,0.04491
3.4424999999999955,-0.025898,-0.229803,0.046923
3.444999999999993,-0.023194,-0.231634,0.048924
3.447499999999991,-0.022286,-0.235914,0.046963
3.4499999999999886,-0.021543,-0.230208,0.04532
3.4524999999999864,-0.015642,-0.225645,0.047324
3.454999999999984,-0.016378,-0.225903,0.046095
3.4575000000000102,-0.015366,-0.223887,0.044645
3.460000000000008,-0.010601,-0.22631,0.048591
3.4625000000000057,-0.010748,-0.225426,0.048391
3.4650000000000034,-0.005478,-0.223613,0.045098
3.467500000000001,-0.005655,-0.223982,0.044595
3.469999999999999,-0.007352,-0.230752,0.045253
3.4724999999999966,-0.004184,-0.228499,0.04672
3.4749999999999943,-0.002696,-0.229949,0.048947
3.477499999999992,-0.00132,-0.227793,0.043059
3.4799999999999898,5.6e-05,-0.228591,0.045256
3.4824999999999875,0.001621,-0.230709,0.044172
3.484999999999985,0.002965,-0.228691,0.045008
3.487500000000012,0.00209,-0.233905,0.040422
3.490000000000009,0.007125,-0.237042,0.043873
3.492500000000007,0.008523,-0.232714,0.043692
3.4950000000000045,0.009187,-0.234739,0.037231
3.4975000000000023,0.009068,-0.233716,0.038683
3.5,0.011935,-0.232621,0.035729
3.5024999999999977,0.011817,-0.230709,0.035749
3.5049999999999955,0.012428,-0.230521,0.031052
3.507499999999993,0.01381,-0.231029,0.031029
3.509999999999991,0.014912,-0.225705,0.028219
3.5124999999999886,0.016227,-0.228532,0.027517
3.5149999999999864,0.014972,-0.227673,0.026599
3.517499999999984,0.016636,-0.224391,0.025664
3.5200000000000102,0.017536,-0.223115,0.023039
3.522500000000008,0.016549,-0.22631,0.019258
3.5250000000000057,0.015602,-0.228834,0.017601
3.5275000000000034,0.013383,-0.227593,0.018578
3.530000000000001,0.014298,-0.225924,0.017687
3.532499999999999,0.014812,-0.22973,0.018281
3.5349999999999966,0.014076,-0.230494,0.01457
3.5374999999999943,0.011187,-0.228062,0.015568
3.539999999999992,0.015336,-0.224945,0.013215
3.5424999999999898,0.017249,-0.229895,0.010059
3.5449999999999875,0.021306,-0.224712,0.012954
3.547499999999985,0.024102,-0.229599,0.009937
3.550000000000012,0.027805,-0.229126,0.009709
3.552500000000009,0.028246,-0.226292,0.010159
3.555000000000007,0.031792,-0.226387,0.011546
3.5575000000000045,0.030499,-0.226246,0.012612
3.5600000000000023,0.032454,-0.223224,0.010642
3.5625,0.034849,-0.221388,0.010606
3.5649999999999977,0.034387,-0.2215,0.010756
3.5674999999999955,0.039247,-0.222884,0.007866
3.569999999999993,0.040741,-0.21912,0.008535
3.572499999999991,0.04342,-0.219004,0.007797
3.5749999999999886,0.04539,-0.220399,0.008444
3.5774999999999864,0.047254,-0.217988,0.009681
3.579999999999984,0.049941,-0.218739,0.01358
3.5825000000000102,0.057551,-0.217934,0.011372
3.585000000000008,0.053775,-0.218263,0.013823
3.5875000000000057,0.059795,-0.221197,0.012925
3.5900000000000034,0.060753,-0.217095,0.012638
3.592500000000001,0.062907,-0.219376,0.011832
3.594999999999999,0.06317,-0.216784,0.010707
3.5974999999999966,0.067962,-0.219506,0.010207
3.5999999999999943,0.068346,-0.21939,0.012275
3.602499999999992,0.070227,-0.220187,0.01323
3.6049999999999898,0.075717,-0.219119,0.013354
3.607499999999988,0.077184,-0.218417,0.012464
3.609999999999985,0.078034,-0.213176,0.01355
3.6125000000000114,0.081611,-0.211887,0.013048
3.615000000000009,0.087716,-0.212352,0.011957
3.617500000000007,0.087082,-0.213553,0.01063
3.620000000000005,0.088295,-0.211738,0.013336
3.6225000000000014,0.088339,-0.211912,0.010926
3.625,0.089734,-0.211145,0.008694
3.6274999999999977,0.088529,-0.207123,0.010652
3.629999999999996,0.094818,-0.203544,0.009508
3.632499999999993,0.090235,-0.208737,0.006304
3.634999999999991,0.091832,-0.207387,0.005493
3.6374999999999886,0.092965,-0.206941,0.002388
3.6399999999999855,0.094306,-0.203122,0.004751
3.642499999999984,0.090226,-0.206268,0.00528
3.64500000000001,0.093365,-0.203481,0.004325
3.647500000000008,0.091197,-0.202887,0.004295
3.6500000000000057,0.09037,-0.200176,0.001989
3.6525000000000034,0.089609,-0.201875,0.005246
3.655000000000001,0.087725,-0.200221,0.002769
3.657499999999999,0.0877,-0.203274,0.002796
3.6599999999999966,0.087082,-0.19796,0.002491
3.6624999999999934,0.08641,-0.203174,0.002056
3.664999999999992,0.089009,-0.198827,0.000317
3.6674999999999898,0.088192,-0.197123,0.002005
3.669999999999988,0.089223,-0.198726,0.001765
3.672499999999985,0.085635,-0.198109,0.002202
3.6750000000000114,0.088524,-0.19978,0.00084
3.677500000000009,0.088254,-0.202353,0.001626
3.680000000000007,0.08725,-0.200292,0.002431
3.682500000000005,0.088315,-0.198913,0.003771
3.6850000000000014,0.088396,-0.202948,0.002699
3.6875,0.092302,-0.202151,0.002878
3.6899999999999977,0.093081,-0.204614,0.005694
3.692499999999996,0.091108,-0.202556,0.003359
3.694999999999993,0.090965,-0.202809,0.002813
3.697499999999991,0.092679,-0.207199,0.004219
3.6999999999999886,0.094382,-0.204556,0.007161
3.7024999999999855,0.096566,-0.20455,0.005948
3.704999999999984,0.096034,-0.20858,0.010183
3.70750000000001,0.095805,-0.205782,0.010175
3.710000000000008,0.099169,-0.213298,0.00946
3.7125000000000057,0.097764,-0.211793,0.011369
3.7150000000000034,0.101363,-0.212367,0.010351
3.717500000000001,0.102069,-0.213249,0.014582
3.719999999999999,0.102771,-0.210741,0.013859
3.7224999999999966,0.100739,-0.215085,0.013965
3.7249999999999934,0.101703,-0.2157,0.016356
3.727499999999992,0.101519,-0.214285,0.017979
3.7299999999999898,0.102963,-0.218274,0.017618
3.732499999999988,0.099609,-0.221111,0.019582
3.734999999999985,0.096256,-0.219092,0.01755
3.7375000000000114,0.091834,-0.221752,0.019548
3.740000000000009,0.091278,-0.225954,0.015665
3.742500000000007,0.090113,-0.223526,0.019044
3.745000000000005,0.088453,-0.223506,0.020244
3.7475000000000014,0.085684,-0.224483,0.021016
3.75,0.087548,-0.22459,0.019272
3.7524999999999977,0.089841,-0.224818,0.017741
3.754999999999996,0.090454,-0.225908,0.01489
3.757499999999993,0.092354,-0.22642,0.019345
3.759999999999991,0.088076,-0.228354,0.021761
3.7624999999999886,0.086648,-0.226705,0.021292
3.7649999999999855,0.08576,-0.22815,0.020529
3.767499999999984,0.089032,-0.228457,0.019989
3.77000000000001,0.08477,-0.2285,0.021661
3.772500000000008,0.083778,-0.232369,0.017834
3.7750000000000057,0.083344,-0.228286,0.019408
3.7775000000000034,0.08278,-0.230542,0.019819
3.780000000000001,0.078534,-0.230987,0.01981
3.782499999999999,0.07972,-0.230169,0.02091
3.7849999999999966,0.077172,-0.233585,0.019787
3.7874999999999934,0.075171,-0.229457,0.019687
3.789999999999992,0.075426,-0.231908,0.020238
3.7924999999999898,0.071491,-0.229982,0.016247
3.794999999999988,0.067287,-0.229523,0.015708
3.797499999999985,0.066682,-0.228043,0.015264
3.8000000000000114,0.063875,-0.231917,0.014237
3.802500000000009,0.061124,-0.228252,0.017988
3.805000000000007,0.057768,-0.23022,0.014172
3.807500000000005,0.055266,-0.230379,0.011972
3.8100000000000014,0.052425,-0.225496,0.012105
3.8125,0.051827,-0.228369,0.010619
3.8149999999999977,0.048537,-0.225912,0.01196
3.817499999999996,0.044905,-0.226811,0.008086
3.819999999999993,0.045674,-0.225092,0.008867
3.822499999999991,0.041313,-0.227857,0.010046
3.8249999999999886,0.042409,-0.224711,0.006311
3.8274999999999855,0.034738,-0.218524,0.008414
3.829999999999984,0.032049,-0.21994,0.009372
3.83250000000001,0.031435,-0.217968,0.008517
3.835000000000008,0.02998,-0.218584,0.008257
3.8375000000000057,0.02672,-0.216337,0.008384
3.8400000000000034,0.023591,-0.220408,0.007834
3.842500000000001,0.023042,-0.216942,0.008485
3.844999999999999,0.015818,-0.217868,0.007346
3.8474999999999966,0.01779,-0.216872,0.005265
3.8499999999999934,0.012838,-0.213641,0.00714
3.852499999999992,0.014067,-0.213605,0.004803
3.8549999999999898,0.010812,-0.211683,0.006237
3.857499999999988,0.009403,-0.210223,0.004006
3.859999999999985,0.006498,-0.211789,0.005075
3.8625000000000114,0.002768,-0.210658,0.002352
3.865000000000009,0.000667,-0.212067,0.005425
3.867500000000007,-0.00454,-0.212258,0.006298
3.870000000000005,-0.004373,-0.210688,0.004935
3.8725000000000014,-0.00824,-0.212988,0.003216
3.875,-0.006311,-0.21372,0.009079
3.8774999999999977,-0.012161,-0.209944,0.008384
3.879999999999996,-0.010659,-0.207409,0.006881
3.882499999999993,-0.014365,-0.211121,0.010972
3.884999999999991,-0.008076,-0.212587,0.010899
3.8874999999999886,-0.012082,-0.211444,0.010093
3.8899999999999855,-0.009263,-0.210515,0.013239
3.892499999999984,-0.011016,-0.212571,0.016315
3.89500000000001,-0.012524,-0.211576,0.016303
3.897500000000008,-0.011164,-0.214165,0.018284
3.9000000000000057,-0.015123,-0.216991,0.018718
3.9025000000000034,-0.016616,-0.209749,0.019518
3.905000000000001,-0.017175,-0.212759,0.016318
3.907499999999999,-0.016674,-0.211473,0.019412
3.9099999999999966,-0.016867,-0.210676,0.016741
3.9124999999999934,-0.019373,-0.20739,0.013702
3.914999999999992,-0.021303,-0.20396,0.014877
3.9174999999999898,-0.024329,-0.196435,0.014881
3.919999999999988,-0.026253,-0.190388,0.015778
3.922499999999985,-0.027063,-0.184657,0.014187
3.9250000000000114,-0.03137,-0.176318,0.00888
3.927500000000009,-0.035095,-0.169313,0.009329
3.930000000000007,-0.039616,-0.159988,0.005237
3.932500000000005,-0.041838,-0.150669,0.005788
3.9350000000000014,-0.050636,-0.142862,0.002237
3.9375,-0.052121,-0.129473,0.001778
3.9399999999999977,-0.058115,-0.120062,0.000186
3.942499999999996,-0.058559,-0.111288,-0.001982
3.944999999999993,-0.064529,-0.096279,-0.003159
3.947499999999991,-0.065579,-0.088543,-0.001718
3.9499999999999886,-0.064223,-0.077732,-0.001654
3.9524999999999855,-0.062759,-0.064825,0.000227
3.954999999999984,-0.059251,-0.054975,-0.000252
3.95750000000001,-0.060143,-0.047202,0.001248
3.960000000000008,-0.054936,-0.034176,0.00127
3.9625000000000057,-0.049698,-0.0304,-0.000481
3.9650000000000034,-0.047307,-0.019224,0.001284
3.967500000000001,-0.039721,-0.013468,0.002808
3.969999999999999,-0.034286,-0.004776,0.003906
3.9724999999999966,-0.028451,-0.000639,0.001109
3.9749999999999934,-0.024988,0.004422,0.005046
3.977499999999992,-0.013061,0.012421,0.006638
3.9799999999999898,-0.006451,0.016738,0.005942
3.982499999999988,-0.002958,0.019076,0.007761
3.984999999999985,-0.001307,0.023269,0.006407
3.9875000000000114,0.004917,0.0223,0.008219
3.990000000000009,0.004955,0.028404,0.007204
3.992500000000007,0.004976,0.031228,0.004799
3.995000000000005,0.010417,0.030901,0.008418
3.9975000000000014,0.012385,0.029843,0.00804
4.0,0.007162,0.030952,0.0057
4.002499999999998,0.013571,0.035717,0.005274
4.004999999999996,0.013504,0.03342,0.003926
4.007499999999993,0.012694,0.027562,0.002842
4.009999999999991,0.01395,0.024656,-0.000179
4.012499999999989,0.01631,0.026108,0.001896
4.014999999999986,0.014514,0.020177,0.00099
4.017499999999984,0.016285,0.018752,0.001556
4.02000000000001,0.014598,0.018247,-0.001462
4.022500000000008,0.014795,0.013564,0.00074
4.025000000000006,0.015969,0.012784,0.001883
4.027500000000003,0.011843,0.009235,0.0006
4.030000000000001,0.011038,0.00615,0.006583
4.032499999999999,0.011734,0.008609,0.004558
4.034999999999997,0.01036,0.00129,0.003719
4.037499999999994,0.008225,-0.001453,0.005408
4.039999999999992,0.007462,-0.000875,0.003595
4.04249999999999,0.009736,-0.004077,0.003239
4.044999999999988,0.004249,-0.005081,0.007135
4.047499999999985,0.004467,-0.008166,0.004763
4.050000000000011,0.003632,-0.005127,0.006195
4.052500000000009,0.001194,-0.011274,0.006127
4.055000000000007,0.000798,-0.007968,0.00736
4.0575000000000045,0.004923,-0.007042,0.006539
4.060000000000002,-0.000703,-0.009215,0.010783
4.0625,0.00296,-0.009397,0.007778
4.064999999999998,0.004081,-0.008741,0.008883
4.067499999999996,0.005104,-0.008062,0.010794
4.069999999999993,0.00244,-0.006619,0.008268
4.072499999999991,0.000266,-0.009505,0.012033
4.074999999999989,0.002042,-0.00657,0.008316
4.077499999999986,0.003753,-0.007036,0.010587
4.079999999999984,0.002038,-0.00414,0.009754
4.08250000000001,0.001306,-0.006376,0.005931
4.085000000000008,0.000944,-0.004815,0.006313
4.087500000000006,0.002835,-0.005083,0.005298
4.090000000000003,0.000452,-0.003704,0.001255
4.092500000000001,0.001995,-0.005247,0.002078
4.094999999999999,0.001296,-0.00644,0.003482
4.097499999999997,0.003576,-0.002052,0.000315
4.099999999999994,0.001685,-0.003469,-0.002626
4.102499999999992,0.003067,-0.005585,-0.002106
4.10499999999999,0.001474,-0.002879,-0.004129
4.107499999999988,0.006246,-0.004402,-0.001682
4.109999999999985,0.003982,-0.003941,-0.000918
4.112500000000011,0.001851,-0.00256,-0.00383
4.115000000000009,0.004152,-0.003071,-0.003272
4.117500000000007,0.002726,-0.005269,-0.005203
4.1200000000000045,0.004465,-0.001784,-0.00515
4.122500000000002,0.004146,-0.0035,-0.004113
4.125,0.006259,-0.002502,-0.00349
4.127499999999998,0.003154,-0.005797,-0.002746
4.129999999999996,0.004344,-0.008518,-0.00356
4.132499999999993,0.003088,-0.001457,-0.000164
4.134999999999991,0.00371,-0.006725,-0.001849
4.137499999999989,0.006176,-0.00529,-0.001614
4.139999999999986,0.005863,-0.006524,-0.002307
4.142499999999984,0.001863,-0.005403,-0.001088
4.14500000000001,0.008219,-0.00983,0.002008
4.147500000000008,0.008618,-0.009885,0.001242
4.150000000000006,0.006547,-0.010397,0.003076
4.152500000000003,0.009563,-0.009477,0.001702
4.155000000000001,0.004483,-0.011232,0.003537
4.157499999999999,0.006694,-0.011201,0.006156
4.159999999999997,0.00724,-0.011839,0.004175
4.162499999999994,0.006386,-0.011006,0.006066
4.164999999999992,0.003649,-0.012413,0.006724
4.16749999999999,0.008256,-0.018048,0.006215
4.169999999999988,0.00631,-0.013892,0.00684
4.172499999999985,0.007118,-0.011535,0.008037
4.175000000000011,0.004766,-0.018239,0.008541
4.177500000000009,0.007189,-0.019127,0.010306
4.180000000000007,0.005185,-0.018403,0.009688
4.1825000000000045,0.002689,-0.020939,0.00966
4.185000000000002,0.001032,-0.023492,0.008974
4.1875,0.006653,-0.021392,0.00869
4.189999999999998,0.003143,-0.026052,0.007912
4.192499999999996,0.004352,-0.022548,0.007115
4.194999999999993,0.004762,-0.022388,0.00586
4.197499999999991,0.002456,-0.026637,0.009482
4.199999999999989,0.006712,-0.026956,0.005954
4.202499999999986,0.004672,-0.028268,0.010169
4.204999999999984,0.005525,-0.028996,0.010052
4.20750000000001,-7.3e-05,-0.025344,0.004832
4.210000000000008,0.002607,-0.026082,0.008067
4.212500000000006,0.00438,-0.026064,0.007693
4.215000000000003,0.003424,-0.029925,0.005498
4.217500000000001,0.003389,-0.028053,0.006441
4.219999999999999,2.3e-05,-0.027306,0.002288
4.222499999999997,0.005256,-0.025684,0.003655
4.224999999999994,0.003912,-0.026962,0.00286
4.227499999999992,0.002357,-0.026335,0.005718
4.22999999999999,0.003969,-0.027046,0.001901
4.232499999999988,0.002726,-0.026363,0.000218
4.234999999999985,0.004073,-0.026688,0.003085
4.237500000000011,0.005365,-0.02415,0.001197
4.240000000000009,0.000966,-0.024408,-3.7e-05
4.242500000000007,0.006109,-0.023903,-0.000103
4.2450000000000045,0.006258,-0.022659,-0.000708
4.247500000000002,0.003286,-0.025143,-0.001295
4.25,0.00334,-0.024466,-0.000776
4.252499999999998,0.002316,-0.024362,-0.002944
4.254999999999996,-0.002301,-0.025539,-0.001088
4.257499999999993,0.00123,-0.022,-0.003256
4.259999999999991,0.000498,-0.021106,-0.002486
4.262499999999989,-0.004719,-0.022857,-0.002727
4.264999999999986,-0.003736,-0.017086,-0.002928
4.267499999999984,-0.005126,-0.02009,-0.002888
4.27000000000001,-0.003038,-0.019392,-0.005443
4.272500000000008,-0.005731,-0.022335,-0.008786
4.275000000000006,-0.00779,-0.021519,-0.006442
4.277500000000003,-0.007431,-0.017993,-0.007056
4.280000000000001,-0.007433,-0.023517,-0.008158
4.282499999999999,-0.005662,-0.01947,-0.008699
4.284999999999997,-0.004856,-0.023864,-0.008415
4.287499999999994,-0.001587,-0.022018,-0.007726
4.289999999999992,-0.001182,-0.023952,-0.006188
4.29249999999999,-0.001489,-0.027345,-0.010142
4.294999999999988,-0.004111,-0.024804,-0.007175
4.297499999999985,-0.000562,-0.02861,-0.010347
4.300000000000011,-0.002237,-0.026399,-0.011441
4.302500000000009,-0.002027,-0.026733,-0.01007
4.305000000000007,-0.00304,-0.029023,-0.010221
4.3075000000000045,-0.001968,-0.030911,-0.010221
4.310000000000002,-0.007112,-0.030467,-0.011036
4.3125,-0.005832,-0.029448,-0.006524
4.314999999999998,-0.00601,-0.028406,-0.010425
4.317499999999996,-0.009015,-0.028524,-0.010881
4.319999999999993,-0.009309,-0.030059,-0.01017
4.322499999999991,-0.004044,-0.029917,-0.008368
4.324999999999989,-0.000481,-0.02887,-0.010771
4.327499999999986,-0.001927,-0.028105,-0.005585
4.329999999999984,-0.002217,-0.027518,-0.008334
4.33250000000001,-0.004649,-0.028884,-0.005987
4.335000000000008,-0.003898,-0.027472,-0.004929
4.337500000000006,-0.001389,-0.023662,-0.006878
4.340000000000003,-0.000839,-0.027546,-0.004326
4.342500000000001,-0.003961,-0.026667,0.000279
4.344999999999999,-0.002244,-0.025912,4.4e-05
4.347499999999997,-0.003764,-0.018717,-0.000402
4.349999999999994,-0.003274,-0.025079,0.000975
4.352499999999992,-0.004749,-0.021936,0.000865
4.35499999999999,0.001157,-0.021142,0.000339
4.357499999999988,-0.002912,-0.018293,0.000872
4.359999999999985,-0.002056,-0.019251,0.004054
4.362500000000011,-0.0047,-0.017844,0.001156
4.365000000000009,-0.003619,-0.014669,0.00089
4.367500000000007,-0.003088,-0.016795,-0.000696
4.3700000000000045,-0.002138,-0.018604,0.006364
4.372500000000002,-0.003518,-0.018166,0.002738
4.375,-0.005068,-0.017335,0.003894
4.377499999999998,-9.2e-05,-0.013229,0.002504
4.379999999999996,-0.006869,-0.014649,0.004313
4.382499999999993,-0.005893,-0.012763,0.004307
4.384999999999991,-0.00087,-0.014597,-0.00214
4.387499999999989,-0.004119,-0.01349,0.002966
4.389999999999986,-0.002345,-0.012152,0.002287
4.392499999999984,-0.00364,-0.014763,0.003133
4.39500000000001,-0.001678,-0.014876,0.00191
4.397500000000008,-0.00172,-0.013942,0.003975
4.400000000000006,-0.000118,-0.013894,0.001887
4.402500000000003,-0.00191,-0.014186,0.002909
4.405000000000001,-0.005755,-0.013633,-0.00191
4.407499999999999,-0.003882,-0.009719,0.000269
4.409999999999997,-0.001784,-0.010499,-0.000617
4.412499999999994,-0.001244,-0.011303,-0.000705
4.414999999999992,-0.001886,-0.014287,-6.3e-05
4.41749999999999,-0.003485,-0.012302,-0.001937
4.419999999999988,-0.001192,-0.007439,-0.003308
4.422499999999985,-0.002483,-0.00872,-0.002562
4.425000000000011,7.8e-05,-0.01177,-0.003509
4.427500000000009,-0.002763,-0.008608,-0.001946
4.430000000000007,0.000269,-0.012176,-0.002815
4.4325000000000045,-0.000317,-0.008522,-0.004032
4.435000000000002,-0.005694,-0.006485,-0.00103
4.4375,0.000992,-0.010666,-0.004104
4.439999999999998,0.000115,-0.006375,-0.004871
4.442499999999996,-0.002131,-0.008634,-0.00616
4.444999999999993,-0.002681,-0.009073,-0.003116
4.447499999999991,-0.003436,-0.006981,-0.00505
4.449999999999989,-0.005648,-0.012201,-0.002761
4.452499999999986,-0.001365,-0.00871,-0.004567
4.454999999999984,-0.001496,-0.007242,-0.003602
4.45750000000001,0.000391,-0.011177,-0.004438
4.460000000000008,-0.00259,-0.00726,-0.003098
4.462500000000006,0.000551,-0.01103,-0.005253
4.465000000000003,-0.002325,-0.007324,-0.005248
4.467500000000001,-0.003473,-0.010036,-0.00523
4.469999999999999,-0.001803,-0.008501,-0.006461
4.472499999999997,-0.002667,-0.013231,-0.003496
4.474999999999994,-0.00056,-0.00909,-0.004119
4.477499999999992,-0.004587,-0.011124,-0.00291
4.47999999999999,-0.000679,-0.010049,-0.005253
4.482499999999988,-0.003055,-0.00876,-0.005926
4.484999999999985,-0.001925,-0.010408,-0.006646
4.487500000000011,-0.00243,-0.012405,-0.004208
4.490000000000009,-0.003083,-0.010955,-0.004548
4.492500000000007,-0.003071,-0.011839,-0.006332
4.4950000000000045,-0.002368,-0.01138,-0.004984
4.497500000000002,-0.0025,-0.007384,-0.005078
4.5,-0.002377,-0.01034,-0.001913
4.502499999999998,-0.001615,-0.013193,-0.00283
4.504999999999996,0.001175,-0.010982,-0.006646
4.507499999999993,-0.003603,-0.010206,6.3e-05
4.509999999999991,-0.003523,-0.007117,-0.004159
4.512499999999989,-0.000826,-0.008506,-0.003749
4.514999999999986,0.000804,-0.010994,-0.004537
4.517499999999984,-0.001276,-0.010516,-0.002638
4.52000000000001,-0.002825,-0.008903,-0.000469
4.522500000000008,-0.002733,-0.00913,-0.002991
4.525000000000006,-0.001343,-0.011569,-0.003085
4.527500000000003,-0.005686,-0.014362,-0.003068
4.530000000000001,0.000902,-0.006561,-0.001746
4.532499999999999,-0.001739,-0.009024,-0.000677
4.534999999999997,-0.00152,-0.007105,-0.002809
4.537499999999994,-0.003681,-0.00594,-0.003627
4.539999999999992,-0.002405,-0.0082,-0.001149
4.54249999999999,-0.000912,-0.007215,-0.004224
4.544999999999988,-0.001097,-0.009625,-0.001967
4.547499999999985,-0.002244,-0.006853,-0.002106
4.550000000000011,-0.001349,-0.008751,-0.003974
4.552500000000009,-0.002754,-0.007214,-0.005145
4.555000000000007,-0.002362,-0.006045,-0.002959
4.5575000000000045,-0.005266,-0.007874,-0.003023
4.560000000000002,-0.001703,-0.00571,-0.002663
4.5625,-0.002235,-0.008591,-0.003175
4.564999999999998,0.000571,-0.004742,-0.003372
4.567499999999996,-0.003855,-0.005232,-0.003819
4.569999999999993,0.00233,-0.004639,-0.00397
4.572499999999991,-0.003709,-0.001845,-0.002426
4.574999999999989,-0.003091,-0.001366,-0.003122
4.577499999999986,0.000619,-0.003833,-0.005035
4.579999999999984,-0.001201,-0.002207,-0.003251
4.58250000000001,0.001009,-0.001773,-0.004032
4.585000000000008,-6.3e-05,-0.003703,-0.000949
4.587500000000006,-0.000586,-0.001904,-0.000642
4.590000000000003,0.000656,-0.005573,-0.000364
4.592500000000001,0.000904,-0.005817,-0.000848
4.594999999999999,-0.002806,-0.00383,-0.003532
4.597499999999997,-0.000976,-0.00124,0.000516
4.599999999999994,-0.002985,0.000273,0.000809
4.602499999999992,-0.001711,-0.000215,-0.00049
4.60499999999999,-0.001241,-0.001393,-0.004023
4.607499999999988,0.001068,0.004082,0.000554
4.609999999999985,0.003482,0.00112,0.001393
4.612500000000011,-0.001505,0.002145,-0.00058
4.615000000000009,0.000755,0.001837,0.000469
4.617500000000007,-0.000775,-4.8e-05,0.002953
