time,Gyr_X,Gyr_Y,Gyr_Z
0.0,-0.067750463202653,-0.0219699188874563,-0.0137181988707387
0.0099999999999909,-0.0675658038555161,-0.0204874103301292,-0.0063879960059868
0.019999999999996,-0.0759057684449058,-0.0208457043372663,-0.0116983496170303
0.0299999999999869,-0.0713823481661665,-0.0174014550645355,-0.0101512236429171
0.039999999999992,-0.0743403047419942,-0.0193211822724934,-0.0097467352732442
0.0499999999999971,-0.0780047044037008,-0.0159327736835138,-0.0054968466650101
0.059999999999988,-0.0808235091946137,-0.0195767568340345,-0.0085878190515883
0.0699999999999931,-0.0873706007729613,-0.0206856112239637,-0.0031983800505789
0.0799999999999983,-0.0922503776789285,-0.0120948438703233,-0.0025283416996957
0.0899999999999892,-0.0919135780484917,-0.014277914231768,-0.0050684544290784
0.0999999999999943,-0.0826160316985698,-0.0086337457222559,0.0032490156577992
0.1099999999999994,-0.0796292512961928,-0.0076550488291336,0.0003268264988233
0.1199999999999903,-0.074689108432135,-0.0062317409654562,-0.0033804773631718
0.1299999999999954,-0.0727640149339089,-0.0005416392091924,-0.0059101381602585
0.1399999999999863,-0.0709416956836095,-0.0010010259436686,0.001219153274894
0.1499999999999914,-0.0685610559837239,-0.0044592894861609,0.0076141988825199
0.1599999999999966,-0.0675820966338671,-4.8659831051989645e-05,0.0049423676678296
0.1699999999999875,-0.0670602325784904,-0.0018591267442966,0.0062732624599359
0.1799999999999926,-0.0670841245626941,-0.0028443602657572,0.0087222701490926
0.1899999999999977,-0.0650999329176661,-0.0039394159248649,0.0087919725420811
0.1999999999999886,-0.0572006452627845,0.0026905640832631,0.0154419081571567
0.2099999999999937,-0.0598180271189134,0.0069743506367311,0.0134437883415934
0.2199999999999988,-0.0533740416322849,0.0069228491358361,0.0146509889850652
0.2299999999999897,-0.0513194794921587,0.0061384318522267,0.0221714702944435
0.2399999999999948,-0.0515773460833165,0.0023493025518293,0.0226588309085019
0.25,-0.0481761069251056,0.0014802073159075,0.0186556475731907
0.2599999999999909,-0.0409870500007277,-0.0002625332990837,0.0155810236608022
0.269999999999996,-0.0391500985730651,-0.0050468032849871,0.0183080391381089
0.2799999999999869,-0.026536058351107,-0.0096066536660456,0.0238412995673056
0.289999999999992,-0.0215744312492328,-0.0078961655742523,0.0222016588652622
0.2999999999999971,-0.0290659934911843,-0.004990416608147,0.0186097815799852
0.309999999999988,-0.0255976041928926,-0.0089395113533807,0.0274575677406086
0.3199999999999932,-0.0410786905367618,-0.0050966954268632,0.020963487427626
0.3299999999999983,-0.0423679333152199,-0.0138436308540878,0.0216213354533011
0.3399999999999892,-0.0470638118740263,-0.0149372904211072,0.0238050783792111
0.3499999999999943,-0.0551467634514893,-0.007890852589303,0.0227728937266809
0.3599999999999994,-0.0468398915254867,-0.0238809691417778,0.0260834760028792
0.3699999999999903,-0.0394105098361008,-0.0254841848927389,0.0248752183289333
0.3799999999999954,-0.0340592531143766,-0.0225469289829342,0.0204129468420019
0.3899999999999863,-0.0086347806442308,-0.0178926473147018,0.0200806269709742
0.3999999999999915,0.0030476717911558,-0.0107032751599832,0.0201885822771256
0.4099999999999966,0.009689772414576,-0.0038949952393344,0.0172576633240716
0.4199999999999875,0.0015301577612531,-0.0015963641173307,0.0151568324504937
0.4299999999999926,-0.01364401272013,0.0045355298634393,0.0157463477597467
0.4399999999999977,-0.0187841920118624,0.0006111038475228,0.0186854379347889
0.4499999999999886,-0.0316861294351863,-0.0070034903277423,0.0139004275305767
0.4599999999999937,-0.0370639867246521,-0.0074145273002216,0.0096101931166749
0.4699999999999988,-0.0420164303834786,-0.0091859846289182,0.0078859648083206
0.4799999999999897,-0.0394175820237005,-0.0060028541597784,0.0106066438867357
0.4899999999999949,-0.0422301831741997,-0.0010510854828565,0.0152872090128273
0.5,-0.0392561407520003,-0.0066466832415566,0.0087851878541414
0.5099999999999909,-0.0338882614265245,-0.0001196557531872,0.0190047139156834
0.519999999999996,-0.0208545878779234,0.005346515633124,0.0228749638902374
0.5299999999999869,-0.0222648094188665,0.0040858552518439,0.0186387684753083
0.539999999999992,-0.0175107082827119,0.006154157333867,0.0252665053387783
0.5499999999999972,-0.0127735233919781,0.0090522477139214,0.0287758920134972
0.5599999999999881,-0.0109107667619225,0.0028639107392472,0.0282614497353163
0.5699999999999932,0.0029531342438939,-0.0070413943777364,0.0337450519053126
0.5799999999999983,0.0027382596099932,-0.0117451598477434,0.0410565196146273
0.5899999999999892,0.0078786668861924,-0.0194107129269828,0.0429218807449054
0.5999999999999943,0.0072754344620187,-0.0216964716046481,0.0445061204601206
0.6099999999999994,0.0021034195049488,-0.017740099185174,0.0478384856280523
0.6199999999999903,0.000656796220682,-0.0080326032494222,0.0532071333021623
0.6299999999999955,-0.00251667127468,-0.0135743936401845,0.0506083667032848
0.6399999999999864,-0.0054182211695857,-0.0188397821595383,0.0584428137020345
0.6499999999999915,-0.0131579972307102,-0.0137998526719339,0.0614368111681213
0.6599999999999966,-0.0138729969858506,-0.0205931587529848,0.0583811491765897
0.6699999999999875,-0.0116306700177278,-0.0154797132624745,0.0646354339175953
0.6799999999999926,-0.0147767068795428,-0.0123113987788783,0.0654225938879319
0.6899999999999977,-0.0177583755992759,-0.0154595694637902,0.0754851657256638
0.6999999999999886,-0.0247570158337816,-0.0087618956461096,0.0838815853894866
0.7099999999999937,-0.0185643381765262,-0.0041605093785208,0.088117153774867
0.7199999999999989,-0.0207335909760584,0.0064177024327114,0.0993143568553265
0.7299999999999898,-0.0238521937340577,0.0168251709997807,0.1040997722174746
0.7399999999999949,-0.0223607948537407,0.0106391721490173,0.1155681402793063
0.75,-0.0200919111841006,0.0175616513055209,0.1280655415305927
0.7599999999999909,-0.0128260551117335,0.0257117127503076,0.1403343647094527
0.769999999999996,0.0024969706578086,0.0320477032519987,0.1454237615740478
0.7799999999999869,0.0189043991202379,0.0342998295330932,0.1515996240982811
0.789999999999992,0.0474196438934972,0.0486866086786175,0.1648163099228484
0.7999999999999972,0.0795584865314658,0.0617873656360868,0.1808762727491273
0.8099999999999881,0.1230245401094803,0.0655435743586797,0.1917474290797138
0.8199999999999932,0.1531335586784197,0.0671409333858362,0.2002873375782445
0.8299999999999983,0.1689854534521784,0.0537647984622741,0.2108877507591335
0.8399999999999892,0.1908870518339372,0.0552437563892084,0.2168532185472053
0.8499999999999943,0.2075942252654339,0.0544745252939221,0.2376760838890209
0.8599999999999994,0.2239562233661728,0.0581804647286433,0.2479619345387428
0.8699999999999903,0.2325755506864453,0.0643541807823909,0.261050011763997
0.8799999999999955,0.2445419619728457,0.0603839220221203,0.2771847297125608
0.8899999999999864,0.2460878679142904,0.067081026250538,0.2848037630061567
0.8999999999999915,0.2482148972310739,0.0738213322074618,0.3079244785729677
0.9099999999999966,0.2798392194728324,0.0822349275254086,0.3327443855871126
0.9199999999999876,0.2969003737589512,0.0812614025858902,0.3485725894031421
0.9299999999999926,0.3155981855057613,0.0982419402417485,0.3654006057152336
0.9399999999999976,0.332367057367601,0.105341178596896,0.3854641874374581
0.9499999999999886,0.3359741156299663,0.1217192093328082,0.4123073238947484
0.9599999999999936,0.3249373361139729,0.1286043580930481,0.4366331510819101
0.9699999999999988,0.2959337539665542,0.1233754408460536,0.4640784489842575
0.9799999999999898,0.2603002726751183,0.1309735495103983,0.492616076479171
0.9899999999999948,0.2216603949208923,0.1250172492277408,0.515883481638955
1.0,0.1956770386180625,0.1086168150731536,0.5364401102132418
1.009999999999991,0.1758137266241918,0.1004624872559439,0.5630036554309737
1.019999999999996,0.1725744141322948,0.0975336481790041,0.5930439975741402
1.029999999999987,0.1551885346752539,0.0924674460353144,0.6152219916657073
1.039999999999992,0.1369358211725142,0.0912688509887516,0.6416938468538633
1.0499999999999972,0.1096342146225108,0.1005723701157635,0.6729446470642813
1.059999999999988,0.0716817954152653,0.1044600348219247,0.7061019988591666
1.0699999999999932,0.0519641380271323,0.1052931804443294,0.7391437803384865
1.0799999999999983,0.0340259887787476,0.1024607068551711,0.775893992437225
1.0899999999999892,0.0345800256830301,0.1147921563999253,0.8069868407033399
1.0999999999999943,0.0442304262031594,0.1207462068720346,0.8489464353578701
1.1099999999999994,0.0656024160726371,0.133058955868951,0.8741155504257524
1.1199999999999903,0.0892928143502539,0.1332525789294493,0.903692525837844
1.1299999999999957,0.1142809766958207,0.1341326159112206,0.9398446869820803
1.1399999999999864,0.1328193458751496,0.1445128307563148,0.9809790567051506
1.1499999999999917,0.1312182014893654,0.1475103660096628,1.019914445542192
1.1599999999999966,0.1346350621223608,0.139613207804765,1.0591009498591604
1.1699999999999875,0.1387370649810192,0.1282872582747124,1.0986321762592937
1.1799999999999926,0.1505112003437675,0.1280516383968723,1.1375142086556094
1.1899999999999975,0.1611213662250706,0.1185090984231539,1.181973871921957
1.1999999999999886,0.1631734481547887,0.1056211777647549,1.2244491131410982
1.2099999999999935,0.1632747023193348,0.0901738178454616,1.2629798656783038
1.2199999999999989,0.1599910734193698,0.0788167153958804,1.2973163940216437
1.2299999999999898,0.154346437162657,0.0537871940782445,1.3441827687870338
1.2399999999999949,0.1274860196234349,0.0378141361624427,1.3754903518631934
1.25,0.1134346374430316,0.0225545762359316,1.4088826195905428
1.259999999999991,0.0891459617073128,0.0046400964641656,1.4440755274718011
1.269999999999996,0.0772275901927293,-0.0102990728042205,1.4642835464882047
1.279999999999987,0.0775637927555819,-0.0259970022773062,1.4874222008306883
1.289999999999992,0.0814361596138082,-0.0469259435985092,1.5188702086739567
1.2999999999999972,0.0980778825518359,-0.0521376891210533,1.5419369418286923
1.309999999999988,0.112314754689257,-0.0749095200164202,1.566010761198309
1.3199999999999932,0.1277529453260499,-0.0860466162377501,1.593902187300638
1.3299999999999983,0.1375868527616206,-0.0885794495208908,1.6195697272195693
1.3399999999999892,0.1439008836983369,-0.0964777517880067,1.6455126916277971
1.3499999999999943,0.1441054529708796,-0.1005814628254385,1.6745795668287144
1.3599999999999994,0.1540842821462377,-0.0986536122097093,1.703311096223738
1.3699999999999903,0.1548274220775296,-0.0880311583609445,1.721254901423045
1.3799999999999957,0.1562207779195184,-0.0887177371745914,1.7289817801709757
1.3899999999999864,0.1396673786383555,-0.0726942266718481,1.7490740497589314
1.3999999999999917,0.0936929172872129,-0.0445725462503481,1.770166483535553
1.4099999999999966,0.0266001776619734,-0.0174679468090537,1.776367038690834
1.4199999999999875,-0.0518198836192188,0.0152103835930092,1.7898801396718231
1.4299999999999926,-0.1414902807770977,0.05800132515595,1.7896910810685556
1.4399999999999975,-0.2279330807714838,0.0880100082650391,1.7829698017024151
1.4499999999999886,-0.2952904416180387,0.1266111745155531,1.7756537128596366
1.4599999999999935,-0.3476883651770201,0.1657202235195705,1.759697187376681
1.4699999999999989,-0.3840353193601893,0.1937459093338586,1.7394729184244848
1.4799999999999898,-0.3989950543873715,0.2329285973516042,1.7111188518956342
1.4899999999999949,-0.401355262497896,0.2664334970049563,1.6914638845052814
1.5,-0.4023197563352017,0.2908073573459127,1.6723102456443923
1.509999999999991,-0.3970890954689643,0.3180570580902331,1.6556516739081484
1.519999999999996,-0.400173764470878,0.3413576963535981,1.63079852542939
1.529999999999987,-0.3986675206766458,0.3486357573139549,1.614504593816339
1.539999999999992,-0.401538751994743,0.3422537084319444,1.5832449633210446
1.5499999999999972,-0.3937750961809675,0.3393917663497413,1.5534953384753387
1.559999999999988,-0.3877328427240908,0.331058711397237,1.5243572274113588
1.5699999999999932,-0.3716040135273012,0.3074995204282552,1.5041594298195895
1.5799999999999983,-0.3457702109212506,0.2974498270091126,1.4778227888024933
1.5899999999999892,-0.3218249394208946,0.268902462109867,1.4525365479476608
1.5999999999999943,-0.2864856536223883,0.2573015126477768,1.447009002586482
1.6099999999999994,-0.2486878818648585,0.2430876124559527,1.4341411815697658
1.6199999999999903,-0.2136223515713036,0.2113340397955882,1.432739016775762
1.6299999999999957,-0.1964947981120202,0.2004652155472287,1.426231356801761
1.6399999999999864,-0.1939011918214837,0.1700711245669225,1.42244746986431
1.6499999999999917,-0.1934176208475219,0.1522580944374226,1.4158267821297987
1.6599999999999966,-0.198268905425036,0.1353320875927213,1.4089101056533864
1.6699999999999875,-0.1988801243301376,0.1287645393862618,1.4017587682186343
1.6799999999999926,-0.1987938641630858,0.1304477752370687,1.3908944111589154
1.6899999999999975,-0.1938926938816659,0.1378100179619068,1.391284185390743
1.6999999999999886,-0.1751640135533027,0.1471233571736745,1.3941521449999588
1.7099999999999935,-0.1567696474388918,0.1623580147095481,1.3909166644242184
1.7199999999999989,-0.109757037688278,0.1694197905129779,1.3828401309312364
1.7299999999999898,-0.0624624591736289,0.1699634023891401,1.381441427013284
1.7399999999999949,-0.0308179634170263,0.1896471389619172,1.3777871953655831
1.75,-0.0023865215200712,0.1977499125770978,1.3727067836371352
1.759999999999991,0.0021055113760115,0.204259482414893,1.3603158968688522
1.769999999999996,0.0021456291782827,0.1970332157592594,1.3569965658129317
1.779999999999987,-0.0137954778235207,0.1915690518465986,1.339484981951111
1.789999999999992,-0.0161410646426856,0.1662411097363192,1.3347924637585118
1.7999999999999972,-0.0329222060456682,0.154025890941162,1.3296402242627106
1.809999999999988,-0.0523671590441798,0.1468462668898111,1.315794890214692
1.8199999999999927,-0.0687979461543777,0.1148865864428042,1.3099081863420532
1.8299999999999983,-0.0823268054727631,0.0900535421687254,1.3020697044910283
1.8399999999999888,-0.0958924800457931,0.0748949059262692,1.2955058059273274
1.8499999999999943,-0.1056375857887927,0.0576625685337731,1.293839904764062
1.8599999999999997,-0.1237019407171591,0.0319164784362679,1.2979057594435792
1.8699999999999903,-0.1369938922138548,0.0245599929266726,1.2933600442527524
1.8799999999999957,-0.1546091392056278,0.006368193440659,1.2899779200402632
1.8899999999999864,-0.1734410101882859,-0.0060696385778096,1.2855233178597407
1.8999999999999917,-0.1816820741973292,0.0035350266944342,1.2860040820111625
1.9099999999999968,-0.1810836275441532,0.0069434835767122,1.2856387300065784
1.9199999999999875,-0.1963688633770857,0.0060074775952558,1.284297064898549
1.9299999999999928,-0.2171927929814416,0.0208670537207358,1.2708215884845455
1.9399999999999975,-0.2368309762245763,0.0413385429911811,1.2569783556699048
1.9499999999999889,-0.2362796037937849,0.0593483997042154,1.2462334432167097
1.9599999999999935,-0.2378300482967063,0.0942171356744586,1.2317675049643448
1.9699999999999989,-0.2536746892234132,0.12383169952436,1.211809002404196
1.9799999999999895,-0.2524968322891117,0.1544707354896825,1.1985401392951982
1.9899999999999949,-0.2609533999051692,0.1900426523271737,1.1832955866239228
2.0,-0.2650847506571613,0.2238473968990123,1.1627306092724248
2.009999999999991,-0.271292421123125,0.2537706580716226,1.1390391614590625
2.019999999999996,-0.2647896317566222,0.2699403982994872,1.119356862893254
2.029999999999987,-0.2477285326003234,0.3020995479252941,1.0984450803040933
2.039999999999992,-0.2270076861970304,0.3361158534095754,1.0830483869645668
2.049999999999997,-0.2131711518145679,0.3664678278313103,1.06689087575283
2.059999999999988,-0.2028635790835328,0.389072064735364,1.0431456382155335
2.069999999999993,-0.1852598247900838,0.4103407317635242,1.0289070650979737
2.0799999999999983,-0.1659290868945591,0.4366087312096565,0.995330599270332
2.089999999999989,-0.1375797943505094,0.4358657237698678,0.9719120587079269
2.0999999999999943,-0.1216944554990075,0.4276753847500608,0.949907830636092
2.1099999999999994,-0.102031502906695,0.4215535233639569,0.9354961979436492
2.1199999999999903,-0.0891888626652595,0.4020350184489019,0.9223232252632262
2.1299999999999955,-0.1020282796435602,0.3832440045119691,0.9172479938529566
2.1399999999999864,-0.1263508123441293,0.3533253300742486,0.9162405112180626
2.1499999999999915,-0.160634861322419,0.3274364394212433,0.9133689825097412
2.1599999999999966,-0.2099549370058834,0.3051867646347236,0.9087253486686035
2.1699999999999875,-0.2610679147713598,0.2872964701488949,0.9020870794037418
2.1799999999999926,-0.3136724297063027,0.2780819054682679,0.905613141936296
2.1899999999999977,-0.3399494837185064,0.2710970650302147,0.9129026418046858
2.1999999999999886,-0.3430376901571205,0.2633844963728379,0.9114995365124172
2.2099999999999937,-0.3459360707560645,0.2556096303710229,0.9186385582416832
2.219999999999999,-0.3463018424562637,0.247299517871401,0.9240733886443844
2.2299999999999898,-0.3387257175170963,0.2419359906152965,0.92919040105492
2.239999999999995,-0.3327180034059782,0.2388893607626323,0.938822161994162
2.25,-0.3194507772838176,0.230110969179995,0.9480101473372408
2.259999999999991,-0.2776560096555698,0.2224070719787532,0.9658713273563088
2.269999999999996,-0.2590031786565148,0.2089746260233738,0.9713586699472532
2.279999999999987,-0.2337240706184671,0.2057913742649464,0.9678118105767204
2.289999999999992,-0.2091832641993723,0.1847854572750207,0.9666614370547402
2.299999999999997,-0.1732771009260638,0.1618598980121015,0.95822074016827
2.309999999999988,-0.1426900105020984,0.1364819508508476,0.9426633484993336
2.319999999999993,-0.1100256117966154,0.1068804768945908,0.925613022218705
2.3299999999999983,-0.0708685489103278,0.0728285406203369,0.916292563423414
2.339999999999989,-0.0309865801546534,0.038773317763961,0.9056196767860843
2.3499999999999943,-0.0064791778334783,-0.0069135673885354,0.9007508865765066
2.3599999999999994,0.0131249481573343,-0.0476734413619709,0.8947523572183095
2.3699999999999903,0.0145750015786486,-0.0751150545317739,0.8897810042430243
2.3799999999999955,-0.0013286729936012,-0.1031296893175227,0.9033256282943224
2.3899999999999864,-0.0161354474867455,-0.1299933510644609,0.8977632318232076
2.3999999999999915,-0.0451299144376992,-0.1452411236186885,0.900660491724977
2.4099999999999966,-0.0509756874809674,-0.1602718028066801,0.9118142261663544
2.4199999999999875,-0.0516487396044625,-0.1807651868771091,0.9152317414268692
2.4299999999999926,-0.0316106425053375,-0.1975558600068691,0.920042618513908
2.4399999999999977,-0.0166438638349197,-0.2057235209421239,0.92391971134141
2.4499999999999886,-0.0175313732037449,-0.2058384537311808,0.9353610548178966
2.4599999999999937,-0.0343344171931181,-0.202277595675644,0.9455640941698562
2.469999999999999,-0.0625216462109321,-0.180196870082686,0.9505194273585762
2.4799999999999898,-0.0963301601006151,-0.1689315623478945,0.951727139730302
2.489999999999995,-0.1175019810004845,-0.1613080779124624,0.949025032051122
2.5,-0.1159783676465932,-0.1562428968869855,0.9476437671579724
2.509999999999991,-0.1080212081102183,-0.1462501915778374,0.9355957379742712
2.519999999999996,-0.1018100978514488,-0.1328856457647332,0.9240220391538492
2.529999999999987,-0.106288036094425,-0.1139053944047761,0.9209644842017032
2.539999999999992,-0.1241367914702912,-0.1084369098359766,0.9225074885481986
2.549999999999997,-0.1534275332943496,-0.0803607048956439,0.9114334754125116
2.559999999999988,-0.1678513156757496,-0.0598883653499527,0.8926843704625801
2.569999999999993,-0.1861095176059439,-0.0527507971391102,0.8770175034149645
2.5799999999999983,-0.1885601415789324,-0.044300883839603,0.8546080304085973
2.589999999999989,-0.1770475441099454,-0.0520174899461018,0.8254344285930695
2.5999999999999943,-0.1570292154936138,-0.04932779510268,0.8125869177136831
2.6099999999999994,-0.1362186520014242,-0.0410675349200831,0.8000409904733178
2.6199999999999903,-0.1342579981469212,-0.0433339459694965,0.7820757059701101
2.6299999999999955,-0.1235260776009875,-0.0362921631324392,0.7716972515924939
2.6399999999999864,-0.1132887753367916,-0.0288918385351254,0.7609696891587532
2.6499999999999915,-0.1001695495355168,-0.0196207629705899,0.7332439775278596
2.6599999999999966,-0.0821736540080558,-0.0078356127197645,0.7016796015273414
2.6699999999999875,-0.0646908213594045,-0.0055027699110247,0.6704137362811187
2.6799999999999926,-0.0511809478061474,0.0085358295583966,0.6462745011902293
2.6899999999999977,-0.0624836093023641,0.0173258724421484,0.6239290486470186
2.6999999999999886,-0.0614411835924309,0.0177600150014946,0.6018888114190568
2.7099999999999937,-0.0771564444647191,0.0264743585339766,0.5920852249887711
2.719999999999999,-0.0797011769720093,0.0406134454895747,0.5888051953212763
2.7299999999999898,-0.0668735349638642,0.0445451360039721,0.5928825957181755
2.739999999999995,-0.0406022938744869,0.0456632712972467,0.5888011236182437
2.75,-0.0073854515433388,0.0618143341940019,0.5804107576992249
2.759999999999991,0.0142197520242853,0.0712929741277038,0.5732631932552229
2.769999999999996,0.0346651580009339,0.0788483715331682,0.5577879297142803
2.779999999999987,0.0600848883639831,0.0829156659215961,0.5450196358607022
2.789999999999992,0.0919718993273453,0.0946007869155672,0.5380871331137947
2.799999999999997,0.1249684912150704,0.1000654085280524,0.5298670435466074
2.809999999999988,0.1606288156542553,0.0983759761678206,0.5305568616897413
2.819999999999993,0.1905354820911891,0.1010167962542445,0.5390974102305915
2.8299999999999983,0.2011056327872125,0.097657196506982,0.5536680524351625
2.839999999999989,0.1774930119126419,0.1066869592241381,0.5692044344104802
2.8499999999999943,0.1483462549362219,0.0983047210967273,0.5759483711678762
2.8599999999999994,0.1286894642620684,0.0996346676164117,0.5817915110620262
2.8699999999999903,0.1039199156601213,0.0957511708763232,0.5805614786414843
2.8799999999999955,0.0607925577618539,0.0952441912131611,0.5698757860410468
2.8899999999999864,0.0086861237390852,0.1069189241377621,0.5620363910554357
2.8999999999999915,-0.0635377208578046,0.1097673685058193,0.5507665613607777
2.9099999999999966,-0.1423210147812979,0.1237789409702888,0.5402922446690799
2.9199999999999875,-0.2169720347447442,0.1219674115056347,0.5352124572097401
2.9299999999999926,-0.3063912713129002,0.1321083447711428,0.5314422080687486
2.9399999999999977,-0.3862518212467523,0.1404537341336894,0.5319243568774816
2.9499999999999886,-0.4524148651132856,0.1435355605302886,0.5299650256388128
2.9599999999999937,-0.4926642072498966,0.141615263603299,0.5244666231111467
2.969999999999999,-0.4882007837785828,0.1384113579134105,0.5279443717064854
2.9799999999999898,-0.4567615152846022,0.131641279319315,0.5252936238944781
2.989999999999995,-0.3903910630020656,0.1157801218587408,0.5315282018897776
3.0,-0.3226736958882358,0.1102563944159365,0.5458215252597794
3.009999999999991,-0.258767350766151,0.0995187729883683,0.5689261887935118
3.019999999999996,-0.1950365777496396,0.0953200476336677,0.5784252925224631
3.029999999999987,-0.1464176415646223,0.0748598199247121,0.5883810088901229
3.039999999999992,-0.1101691978576743,0.0439117391813355,0.6118092327689606
3.049999999999997,-0.1088763273313211,0.0246341019658568,0.6172399410986844
3.059999999999988,-0.1082314729748747,0.0022179002845719,0.6255789105875545
3.069999999999993,-0.1108717812920131,-0.0114872012410932,0.6324496382090044
3.0799999999999983,-0.1143628488867274,-0.0302331156264597,0.6167345189753639
3.089999999999989,-0.1136720819281442,-0.0461451605358557,0.6057463291839166
3.0999999999999943,-0.1357287293933812,-0.0535550121874909,0.5901533209855653
3.1099999999999994,-0.1684059645753131,-0.0545731746380941,0.5638195773558546
3.1199999999999903,-0.2012074506713876,-0.0590169726254318,0.5443508620035158
3.1299999999999955,-0.2242158776692027,-0.052862863716815,0.5134425189013355
3.1399999999999864,-0.2503073934261317,-0.0547807668829004,0.4859279585951436
3.1499999999999915,-0.2643656357488524,-0.0492626177587804,0.4537383039571681
3.1599999999999966,-0.2546122042020647,-0.038141874424454,0.4294482136001597
3.1699999999999875,-0.2314272704153503,-0.0240338735889599,0.4071534081313109
3.1799999999999926,-0.2091224217839525,-0.0042237271995408,0.390396533156184
3.1899999999999977,-0.1848909992742423,-0.0024779370233897,0.3856550717491224
3.1999999999999886,-0.1633446489873865,-0.0041784267025435,0.3618754499106444
3.2099999999999937,-0.1326757377059904,-0.0066805618197026,0.3347277580334262
3.219999999999999,-0.0836781563755327,-0.0159332134089906,0.3007197500222641
3.2299999999999898,-0.0225579615122583,-0.0219777459411722,0.2733327240708856
3.239999999999995,0.0596646357433955,-0.0343407120215796,0.2373990434748697
3.25,0.1529802686913843,-0.0442547127658538,0.2025023678581897
3.259999999999991,0.2258799924649727,-0.0494106202781741,0.1697612530407405
3.269999999999996,0.2795556739275814,-0.0599762697710111,0.1368537239630662
3.279999999999987,0.3082168581932576,-0.0662825839849451,0.1121669126918779
3.289999999999992,0.3176680706389123,-0.0802085691780862,0.0909862166595581
3.299999999999997,0.3228926010920918,-0.0800783532333983,0.070708045814596
3.309999999999988,0.3203832588521499,-0.0876375025446647,0.046657129511842
3.319999999999993,0.3209698583462627,-0.0961957601260137,0.0348259130435094
3.3299999999999983,0.3412137409418169,-0.1058364951690739,0.0168628821053559
3.339999999999989,0.339406223226072,-0.1143894281096247,-0.0080546190775329
3.3499999999999943,0.3511883331371985,-0.1136834771689599,-0.0280438881826437
3.3599999999999994,0.3604396557927108,-0.1255756661557436,-0.0430681019218783
3.3699999999999903,0.3438331439873487,-0.1307144296851042,-0.0610731074975039
3.3799999999999955,0.3216195525700129,-0.1285580350400625,-0.0733483217019631
3.3899999999999864,0.285735950316224,-0.1166584748244507,-0.0839649001172183
3.3999999999999915,0.2424070910362035,-0.1010304147864327,-0.0973619091168927
3.4099999999999966,0.1947889645013877,-0.0785571085968464,-0.1131207075812011
3.4199999999999875,0.1521071042798245,-0.0521392291685438,-0.127269497184693
3.4299999999999926,0.1246423862821569,-0.0396706557709239,-0.1439165117169697
3.4399999999999977,0.1115902292679248,-0.0323115657146744,-0.1576711280997324
3.4499999999999886,0.1134933755744784,-0.0318706020620995,-0.1780683654970593
3.4599999999999937,0.1307298583674397,-0.0287792201735672,-0.1954619641795999
3.469999999999999,0.1432173204746965,-0.0145224135062976,-0.2168586226487493
3.4799999999999898,0.1572785225596203,-0.0099053303827824,-0.2468836702735823
3.489999999999995,0.1479936916117504,0.0054102984180272,-0.2702842597238803
3.5,0.136257474308005,0.0106693074492831,-0.2991301314663478
3.509999999999991,0.1512798139799468,0.0244324485157578,-0.3317071544556881
3.519999999999996,0.1556771270127383,0.0305360386986728,-0.3634668676320826
3.529999999999987,0.1602812056189157,0.0379269600031619,-0.4025828132171323
3.539999999999992,0.1548108777300117,0.0440307811821424,-0.4393134442781733
3.549999999999997,0.1420126675227767,0.0423943687542682,-0.4713589908132328
3.559999999999988,0.1357837341184805,0.0396265289442175,-0.5048981103845089
3.569999999999993,0.1267574776350155,0.037482351069699,-0.529312576703703
3.5799999999999983,0.1012112385047881,0.0243346986580834,-0.5485085847546298
3.589999999999989,0.0837428158423076,0.0087017378347556,-0.5659661907132942
3.5999999999999943,0.0557160633400611,0.0041758747541354,-0.5774686273251176
3.61,0.0189728390365621,-0.0116686930412412,-0.5856019935654343
3.6199999999999903,-0.0118524017175992,-0.0300262439693271,-0.5896612422648937
3.629999999999996,-0.054170969132027,-0.0392199793028548,-0.5937256636893536
3.6399999999999855,-0.0865991021223755,-0.0444866728034029,-0.5998351240511036
3.649999999999992,-0.1194519056153535,-0.0626937731670251,-0.6066449484256046
3.6599999999999966,-0.1443607933280714,-0.0624323279807155,-0.6191338890700496
3.669999999999988,-0.1623811211807556,-0.0541854016717851,-0.6354073843255483
3.6799999999999926,-0.1786393072642233,-0.0474236444780968,-0.6632779868938639
3.6899999999999977,-0.1948351069167888,-0.0588605197774399,-0.6828456352645604
3.6999999999999886,-0.2197724849891231,-0.057727553338353,-0.7064384340487747
3.7099999999999937,-0.2539885341797708,-0.0556616934306108,-0.7194172688361843
3.719999999999999,-0.2893624366441851,-0.0567544882389169,-0.7218364206226375
3.7299999999999898,-0.3225456585614372,-0.0520840694783111,-0.7173779880220887
3.739999999999995,-0.349328459891895,-0.039172147828507,-0.716054495158005
3.75,-0.3691799210340159,-0.0241155783293133,-0.7217171894122634
3.759999999999991,-0.3869335099836624,-0.0042012908089227,-0.7255709472894213
3.769999999999996,-0.3866210610733399,0.0169558131824148,-0.7315230156847077
3.779999999999987,-0.4072631769489221,0.03189314501071,-0.7528146818336535
3.789999999999992,-0.4042603194974751,0.046572759142101,-0.7836894298027332
3.799999999999997,-0.3993981373938808,0.0563632683968124,-0.8098864188624515
3.809999999999988,-0.3874782385626105,0.0577125045386843,-0.8424708718996715
3.819999999999993,-0.3539371454789313,0.0511154715736927,-0.8767440762265822
3.8299999999999983,-0.3235002176358647,0.0351893062935487,-0.9143337013175834
3.839999999999989,-0.2948116172248741,0.0211433737393296,-0.9489659135877678
3.8499999999999934,-0.2815048124779135,-0.0032996473730879,-0.9820436279238288
3.86,-0.2743028578631062,-0.0315676632408542,-1.0191191839810416
3.8699999999999903,-0.2909412612570201,-0.0366696246611503,-1.062519717334486
3.879999999999996,-0.3120350456389522,-0.0489400010775054,-1.0912471988780703
3.8899999999999855,-0.3107793356550384,-0.0558572963201713,-1.1250526469737876
3.899999999999992,-0.2994906883313032,-0.069615870430462,-1.1610260443972742
3.9099999999999966,-0.2690354833711628,-0.0803448363012685,-1.185057571723935
3.919999999999988,-0.224883246491799,-0.1002023030106431,-1.2155595995896769
3.9299999999999926,-0.1933248789582747,-0.1115377889246244,-1.2466615955077465
3.9399999999999977,-0.1626548013209165,-0.1257863343873239,-1.2718167888871446
3.9499999999999886,-0.123973905610929,-0.1433317336531016,-1.282520274893004
3.9599999999999937,-0.0875760065624555,-0.1558430963113262,-1.3012827665578617
3.969999999999999,-0.0482707146336568,-0.1622480141084038,-1.3238204530016586
3.9799999999999898,-0.0055937823461825,-0.1681519973880393,-1.3344206544957786
3.989999999999995,0.039322335928876,-0.185012928851803,-1.352464543010578
4.0,0.069344229948467,-0.1883290389369614,-1.3585910573511188
4.009999999999991,0.0898601692087388,-0.1806616256716083,-1.3582491273333106
4.019999999999996,0.0957552578995737,-0.1705137568626284,-1.354910788404185
4.029999999999987,0.0852842383944682,-0.1458277612171447,-1.3485729966048658
4.039999999999992,0.0635602973319062,-0.1165972413213905,-1.345179167103729
4.049999999999997,0.061186730798232,-0.0933011303547854,-1.3419103849869438
4.059999999999988,0.0658993418239783,-0.0746347405714907,-1.341024882844011
4.069999999999993,0.0929867105956476,-0.0628641018820058,-1.331634224095625
4.079999999999998,0.1170583829423766,-0.0447247553721009,-1.31829661043111
4.089999999999989,0.1364783159668886,-0.0216841020757278,-1.3011151268147545
4.099999999999994,0.159799620999173,0.0030101554378491,-1.2887146569730703
4.109999999999999,0.1735253301130858,0.0327696143930598,-1.2717679705605762
4.11999999999999,0.194655733606063,0.0642659077625071,-1.257467686599573
4.129999999999996,0.1995397690619685,0.0989665034591934,-1.2388388208376888
4.139999999999986,0.2166187763571203,0.126821713840761,-1.2209845417271217
4.149999999999992,0.2334357682380849,0.1545310133792909,-1.2097937502296945
4.159999999999997,0.2372580816722082,0.1770617814351698,-1.197419381025305
4.169999999999988,0.2500923589286298,0.2004123910887048,-1.1672394558801202
4.179999999999993,0.2513624277918579,0.225749480080445,-1.1361810977213187
4.189999999999998,0.2617899613050854,0.2433326535893713,-1.1122749419409197
4.199999999999989,0.2820176780472972,0.2627306015106146,-1.0979932509272754
4.209999999999994,0.3007544464118358,0.2803335928569074,-1.096214672843263
4.219999999999999,0.3302264840540436,0.3033261693801793,-1.0974524120686724
4.22999999999999,0.3545134685972945,0.3131369984163288,-1.1084044436683378
4.239999999999995,0.3733782396617564,0.3244071407363742,-1.1157181718663145
4.25,0.3631285367058848,0.3476674312045781,-1.1125857778766708
4.259999999999991,0.3411031814698311,0.3451997471881185,-1.09483839464776
4.269999999999996,0.293711528748095,0.3515104763136936,-1.07301240483742
4.279999999999987,0.2124103518194134,0.3523161035032666,-1.0625108447769636
4.289999999999992,0.1269380314555273,0.3539609161071534,-1.059754807495812
4.299999999999997,0.0338415216474238,0.3595977636837372,-1.0491266797600984
4.309999999999988,-0.0618826538450817,0.3722824519296686,-1.0327363060437116
4.319999999999993,-0.1316797724522193,0.3776871895002178,-1.0169927402515648
4.329999999999998,-0.1627005855493903,0.3830597822575853,-0.9974387906461823
4.339999999999989,-0.1461940082263292,0.3887477298887151,-0.970644333458794
4.349999999999994,-0.1136223622478841,0.3822456237168007,-0.9287383287104164
4.359999999999999,-0.0776118816251031,0.3862232826358409,-0.8973751974696
4.36999999999999,-0.034087028710567,0.3835383410877467,-0.8721755825847233
4.379999999999996,0.0034713211438761,0.387910702716748,-0.8359616923484209
4.389999999999986,0.0456281720818578,0.391628464998138,-0.8077224278151919
4.399999999999992,0.0939326863666175,0.3877469805921211,-0.78023353349865
4.409999999999997,0.1343427868462074,0.3811732421294885,-0.7664393907174161
4.419999999999988,0.1876710216985751,0.3742060087863522,-0.767136756424861
4.429999999999993,0.2322318516411766,0.3485647675866265,-0.776829809361726
4.439999999999998,0.2513461594656451,0.3310370587799708,-0.7975257444632137
4.449999999999989,0.2726826255832671,0.2999040814873933,-0.8191488094656861
4.459999999999994,0.2918775785937149,0.2592058432543357,-0.8391247774638084
4.469999999999999,0.318493323462235,0.226313162569398,-0.8675195442405671
4.47999999999999,0.3482327493498975,0.1947362453550277,-0.8907194987912372
4.489999999999995,0.3758499537585322,0.1713850666174883,-0.9145603905965756
4.5,0.4054370543422974,0.1494585618997529,-0.9317242679111476
4.509999999999991,0.4353428329555783,0.1295392504120253,-0.935374936145015
4.519999999999996,0.4648114830405633,0.111726234016605,-0.9480027883968976
4.529999999999987,0.4862107126183302,0.0983224763618276,-0.9538996725806844
4.539999999999992,0.5044479275842871,0.0832189659425137,-0.9614159844796446
4.549999999999997,0.5254121690375634,0.0840616688168466,-0.9474914671981184
4.559999999999988,0.5384263483408466,0.0739957489960936,-0.93615452812062
4.569999999999993,0.538898439323016,0.0606149561700597,-0.9213017092852038
4.579999999999998,0.5455909418932026,0.0608870850002063,-0.9031159477364282
4.589999999999989,0.5413269520285593,0.0660766725369484,-0.8849675856913309
4.599999999999994,0.5381135834647708,0.068672187350116,-0.8677218424457717
4.609999999999999,0.5226534226140809,0.0650568797162837,-0.8532348002988707
4.61999999999999,0.506419161956261,0.0766903312183657,-0.8539831602091675
4.629999999999996,0.491424262543349,0.0811244652840752,-0.8565107126726843
4.639999999999986,0.483182892563711,0.068015451453167,-0.8606555827862912
4.649999999999992,0.4821888005784971,0.0686350629065207,-0.852093623161934
4.659999999999997,0.4651582061477214,0.064089759103344,-0.8504017787924704
4.669999999999988,0.4534319389787467,0.0522522205159089,-0.8502423105223594
4.679999999999993,0.4280961093934514,0.0492821784999083,-0.8677655027181366
4.689999999999998,0.3900142811074142,0.0538641351623783,-0.8882488468950236
4.699999999999989,0.3519040409164756,0.0594340922147962,-0.92062187688574
4.709999999999994,0.3083418397206525,0.0531583019402847,-0.9447561180326816
4.719999999999999,0.270564594777133,0.0463124039777772,-0.973971589850092
4.72999999999999,0.2316471438719311,0.0308111016913937,-1.0041575744871003
4.739999999999995,0.1895391277049099,0.0204374591264045,-1.0286798962236572
4.75,0.1540703441838827,0.0147704144292343,-1.053876660519244
4.759999999999991,0.1305751248093026,0.017685138937592,-1.0661860253565136
4.769999999999996,0.1245616446046756,0.0195451828578035,-1.0862994344172268
4.779999999999987,0.127682927692723,0.0224177694043711,-1.1018470846041355
4.789999999999992,0.1425204300266722,0.0231483581462351,-1.114946812834788
4.799999999999997,0.1620352091276877,0.0218908170020894,-1.1226750702973072
4.809999999999988,0.1669733222518396,0.0221583079351981,-1.125559548987408
4.819999999999993,0.1756314016749926,0.0197658116895189,-1.1202883382567048
4.829999999999998,0.1756811196225661,0.0133074460508671,-1.1166104980721827
4.839999999999989,0.1495522644613116,-0.0018253220529593,-1.11474907147165
4.849999999999994,0.1040788028584348,-0.0142627920318149,-1.1226836696034044
4.859999999999999,0.051296844238898,-0.0332021231056954,-1.1417545965904836
4.86999999999999,-0.0138038335595815,-0.0465759543853911,-1.168556858625925
4.879999999999996,-0.0999553985143032,-0.0648639646538568,-1.1917096780420646
4.889999999999986,-0.1919829861092833,-0.0739171792636456,-1.2019116507801757
4.899999999999992,-0.2758561298672342,-0.0874053406046254,-1.198826277467611
4.909999999999997,-0.3338007046702195,-0.1018152325863601,-1.181839171230264
4.919999999999988,-0.3683295027685603,-0.1227449111489953,-1.161134672926715
4.929999999999993,-0.378253050302833,-0.1485910580970141,-1.1344976082031213
4.939999999999998,-0.3697212620425789,-0.1671063537936163,-1.113061763896255
4.949999999999989,-0.3407495057292943,-0.1904597386512415,-1.0936990511080242
4.959999999999994,-0.2951440493301767,-0.2007021583320887,-1.077785016992471
4.969999999999999,-0.2432914974583278,-0.2139567153235672,-1.0641450876209828
4.97999999999999,-0.1700521019363506,-0.2216195322288477,-1.0402490629117689
4.989999999999995,-0.0980523834204153,-0.218781116998587,-1.0310341061165889
5.0,-0.0117562018151679,-0.2092881881207477,-1.0006093467554855
5.009999999999991,0.0606235001667788,-0.2032428275531586,-0.9808731007998506
5.019999999999996,0.1288088964827442,-0.2065443898793434,-0.9635910049440894
5.029999999999987,0.1790380395179358,-0.2009659512613811,-0.9321218610173688
5.039999999999992,0.2196756445254024,-0.2023780091848344,-0.8985307920738067
5.049999999999997,0.24756787157176,-0.2168233216512722,-0.8768977929578365
5.059999999999988,0.2559062930297333,-0.2186209511665375,-0.851630223749286
5.069999999999993,0.2757559697211809,-0.2210710019529777,-0.8337562828990489
5.079999999999998,0.2619684143239606,-0.2347910993424355,-0.8236635489547394
5.089999999999989,0.2543019126119412,-0.2226569581683727,-0.8150494928003689
5.099999999999994,0.2445838303091928,-0.2095143590117347,-0.8029709615317869
5.109999999999999,0.2244588085037683,-0.1990569902877011,-0.7912642639305237
5.11999999999999,0.2195602572431234,-0.1837314434976552,-0.7792549101476085
5.129999999999996,0.2182973168222106,-0.1721605878016248,-0.7617261536486183
5.139999999999986,0.2071195392064947,-0.1568464253064387,-0.7486995231630219
5.149999999999992,0.21349623086272,-0.1369992479195781,-0.7361288381163199
5.159999999999997,0.2274318035139406,-0.111602542223382,-0.7165428306014334
5.169999999999988,0.2288904432724432,-0.1019045891083933,-0.6942473296595185
5.179999999999993,0.2350789414041005,-0.0763677645768061,-0.6798652949536416
5.189999999999998,0.2381584941384731,-0.0571338641036363,-0.6469532130783456
5.199999999999989,0.2514459342101046,-0.0349833396482008,-0.6144283899562555
5.209999999999994,0.2640565277403883,-0.0044617406567694,-0.5817210971430385
5.219999999999999,0.2892310805083371,0.0141052995976324,-0.5454206523401285
5.22999999999999,0.3102347175993528,0.0441859749844858,-0.5049423580903231
5.239999999999995,0.3278894920226925,0.0622726544586934,-0.4630288731535239
5.25,0.3475841535792436,0.0717900348999042,-0.4232089860390571
5.259999999999991,0.3584569761244242,0.0681470741657935,-0.3811325622457993
5.269999999999996,0.3655387681649502,0.0628213707931817,-0.3474036232942344
5.279999999999987,0.3691062320730586,0.0552971447235105,-0.3201996486965889
5.289999999999992,0.370208536041684,0.0625735976314147,-0.2978185112631601
5.299999999999997,0.3502901640594442,0.060758038835201,-0.2932844786002554
5.309999999999988,0.3121079952824807,0.0673275371173363,-0.2931870175818804
5.319999999999993,0.2354487638937681,0.0882956639700939,-0.2983799195998284
5.329999999999998,0.1374544681923877,0.1023430468011915,-0.3003429597513558
5.339999999999989,0.0198561862830758,0.1138346850941782,-0.2842924036655175
5.349999999999994,-0.114614477161108,0.1239980595715751,-0.2718077133272766
5.359999999999999,-0.2440243062138186,0.1259652305702816,-0.2403344391733036
5.36999999999999,-0.3637055908564003,0.123910951836456,-0.2070473425059706
5.379999999999996,-0.4458512407782272,0.130750887059922,-0.1633887474860877
5.389999999999986,-0.4922954521876039,0.1382459736774246,-0.1350872050534908
5.399999999999992,-0.5028094284384758,0.1447655975049523,-0.1214070800990969
5.409999999999997,-0.4805939874004195,0.148854131477709,-0.1180527152434631
5.419999999999988,-0.4473084273310461,0.1544960197795195,-0.1310115874911368
5.429999999999993,-0.3956191568309364,0.1410214325665278,-0.1440485971898046
5.439999999999998,-0.3319461805989331,0.116967318074314,-0.1686255041424912
5.449999999999989,-0.2662159864760767,0.0777543955294857,-0.1823132006032383
5.459999999999994,-0.1966224027910987,0.0272025756076483,-0.2071913969023164
5.469999999999999,-0.1488568764386413,-0.0123425963937321,-0.2328447834056702
5.47999999999999,-0.1178783481429396,-0.0526288751870178,-0.2667644836881807
5.489999999999995,-0.0819771327533462,-0.0948716678800912,-0.3101149913470336
5.5,-0.0569111132591531,-0.1474760781452014,-0.3550003433630656
5.509999999999991,-0.0485385146715989,-0.1965157664120534,-0.4069945074999249
5.519999999999996,-0.0417381774796379,-0.2415115621527163,-0.453250982971854
5.529999999999987,-0.0251673374281323,-0.2884216451008094,-0.4911442060938975
5.539999999999992,-0.0068435947717938,-0.33045658232267,-0.5101673923921056
5.549999999999997,0.0044280738348083,-0.3727754511744441,-0.5352604744922871
5.559999999999988,0.0147691510192993,-0.4028897809259519,-0.5460927161553204
5.569999999999993,0.0363977737796831,-0.4358577126321246,-0.5621504876409795
5.579999999999998,0.0616672447291509,-0.4695244129875545,-0.578534210926836
5.589999999999989,0.0861011974091401,-0.4910698126434381,-0.5994321708542805
5.599999999999994,0.1129998977070941,-0.5052352072916987,-0.6250382661284289
5.609999999999999,0.1282263515982451,-0.5081664654488799,-0.648099600595087
5.61999999999999,0.1537566729760145,-0.5037055856002628,-0.6756966221697134
5.629999999999996,0.1761047575626155,-0.4927999065459449,-0.6878495501325481
5.639999999999986,0.1968496692723683,-0.4809496934005253,-0.7021450799055812
5.649999999999992,0.2144128917600301,-0.455980569896388,-0.7281127699878907
5.659999999999997,0.2311616829529142,-0.4307809479240896,-0.7472554525410131
5.669999999999988,0.2549221595683642,-0.4174468922052629,-0.7751411901178158
5.679999999999993,0.2701230603913155,-0.3894087528532733,-0.7935816473935231
5.689999999999998,0.2622077344325165,-0.3518956051988059,-0.8153682698711385
5.699999999999989,0.2562098783746301,-0.3184813238960171,-0.8245041891356325
5.709999999999994,0.2464869691877717,-0.2915825643076931,-0.8304463146539913
5.719999999999999,0.2261449694794543,-0.2564179480224199,-0.8399198449347667
5.72999999999999,0.2133039879633087,-0.2316661541044906,-0.8376872003875586
5.739999999999995,0.1816922025852684,-0.2060749993105118,-0.840962707347117
5.75,0.1595950664586665,-0.1777036684511174,-0.8421094402588035
5.759999999999991,0.147321612042663,-0.1584706000339067,-0.8369919800152535
5.769999999999996,0.1235220626036568,-0.1374145138924545,-0.8465280842214339
5.779999999999987,0.0913130458376646,-0.1182448798315145,-0.8504522513698829
5.789999999999992,0.0578794343986181,-0.1102665991831697,-0.8607135741011598
5.799999999999997,0.0203513209079453,-0.1119779432264316,-0.8604246817242175
5.809999999999988,-0.030185102679462,-0.1180141161320325,-0.8525866423363418
5.819999999999993,-0.0921067841591036,-0.1335727998288685,-0.8317620235718283
5.829999999999998,-0.1511032999813438,-0.1345672012518753,-0.7950201076701426
5.839999999999989,-0.2277754383801941,-0.128175292808955,-0.7553708972316943
5.849999999999994,-0.2930771597004479,-0.1095976343981513,-0.7129294722816708
5.859999999999999,-0.3172170994060253,-0.0824895257189066,-0.673731168578586
5.86999999999999,-0.3102821157522509,-0.0587593989246477,-0.6454459196174055
5.879999999999996,-0.2701106036187171,-0.0405110790076897,-0.6293426041676766
5.889999999999986,-0.2071268216010671,-0.0357466904049909,-0.6140275481017009
5.899999999999992,-0.1328056405225327,-0.025473621330895,-0.6065126999168932
5.909999999999997,-0.0535091788179938,-0.0199398804300155,-0.6026756106733637
5.919999999999988,0.0061891994697955,-0.0366378214654237,-0.6005006565110138
5.929999999999993,0.0585731861336657,-0.0631265366012286,-0.6042682546794809
5.939999999999998,0.1061348649085365,-0.0948937483993839,-0.6173991752435745
5.949999999999989,0.1341243121695156,-0.1259752295833315,-0.6369267933721339
5.959999999999994,0.1530423768966683,-0.1439641891730946,-0.663473768943299
5.969999999999999,0.1465148082121678,-0.1639674736503444,-0.7066709774868954
5.97999999999999,0.1356713296400824,-0.1696559228795751,-0.7573321960977626
5.989999999999995,0.1237594546419859,-0.17051010299963,-0.7992901392005105
6.0,0.1101152043775581,-0.1714849025344708,-0.834579457919125
6.009999999999991,0.0989946580430834,-0.1603556993180794,-0.8616369763718036
6.019999999999996,0.0937831507288016,-0.1610128335569718,-0.882844449615891
6.029999999999987,0.0833201180078748,-0.1460825812180994,-0.8970405865284119
6.039999999999992,0.0927372664912108,-0.1278834907184251,-0.9076048470628209
6.049999999999997,0.1341286572883422,-0.1190105593681563,-0.9085244574665756
6.059999999999988,0.1922340148342305,-0.1157173848649672,-0.915784830917308
6.069999999999993,0.2626387031115588,-0.1156079066691311,-0.9352091990282484
6.079999999999998,0.3197415067504633,-0.1226375765767437,-0.9579481395892728
6.089999999999989,0.387583488890953,-0.1409959680852107,-0.9776667780799374
6.099999999999994,0.4468945489026159,-0.1615014077452253,-0.9861152151826372
6.109999999999999,0.4920996098714094,-0.1647070055693153,-0.9981638873798316
6.11999999999999,0.5231243824949467,-0.1632267350419323,-0.996623947893536
6.129999999999996,0.5445932630027095,-0.1598171414080491,-0.9808155683262556
6.139999999999986,0.5585343830357173,-0.1588441681904994,-0.95860415950134
6.149999999999992,0.55865360899125,-0.1658980430579067,-0.9356103245154735
6.159999999999997,0.5545326118318848,-0.1870719726719021,-0.92156578408739
6.169999999999988,0.5329123892084986,-0.209950994458774,-0.9089179014911016
6.179999999999993,0.4951647231472563,-0.2283907788950706,-0.8921385264259509
6.189999999999998,0.4727868778791715,-0.2539535802163163,-0.8814454053051218
6.199999999999989,0.4394739365120905,-0.2703294745634617,-0.8762976174383293
6.209999999999994,0.3973239407129517,-0.2678572728299289,-0.8642878474313352
6.219999999999999,0.3589861824346116,-0.2761305561985587,-0.8483220296555987
6.22999999999999,0.3116785963379651,-0.2898337357730478,-0.8375491739971208
6.239999999999995,0.2519672061677345,-0.3048027806221356,-0.8366458993366629
6.25,0.1862361753958344,-0.3187183853538549,-0.8374573281605528
6.259999999999991,0.1071905466732165,-0.3399755750647934,-0.8449447589288516
6.269999999999996,0.031646472805452,-0.3698156250500815,-0.8589738314191475
6.279999999999987,-0.0543312545136352,-0.3795322650569134,-0.8701509635439568
6.289999999999992,-0.1428974939904656,-0.383512622491918,-0.8695394791395845
6.299999999999997,-0.2406490154921469,-0.3719266728055566,-0.8714657242422066
6.309999999999988,-0.3532117553243196,-0.3595309607458679,-0.8478559573049671
6.319999999999993,-0.4360464981834075,-0.3399153590825083,-0.8257571391260645
6.329999999999998,-0.5022952286151656,-0.3164294339439268,-0.8068259474561548
6.339999999999989,-0.5430743809532346,-0.2958711573270898,-0.784941977069837
6.349999999999994,-0.5745644535153553,-0.2732369708216733,-0.7732924193639682
6.359999999999999,-0.5928250831328707,-0.2515553375581138,-0.7678674503858695
6.36999999999999,-0.5917636556722417,-0.2194035048191882,-0.7785747923901881
6.379999999999996,-0.578289349532993,-0.1983190916438162,-0.8090137798358624
6.389999999999986,-0.5437547860650153,-0.1642249335940566,-0.8267855012791003
6.399999999999992,-0.4901877821377119,-0.1283882448755213,-0.8462800008059584
6.409999999999997,-0.4121794067177167,-0.1031529875971371,-0.8671074343247289
6.419999999999988,-0.3052004496027357,-0.0765469103133226,-0.8824461577083635
6.429999999999993,-0.1915194639183811,-0.0456835247812482,-0.9173129728367037
6.439999999999998,-0.0774828549544637,-0.0161333658312562,-0.9496560344152932
6.449999999999989,0.0235197495132084,0.0085927378450015,-0.9981883098839616
6.459999999999994,0.1126099839305246,0.0201555455293717,-1.0405148555529216
6.469999999999999,0.1668648183416196,0.0238538600575927,-1.0892961394471234
6.47999999999999,0.1991917297539513,0.0443101951996279,-1.1383758053905135
6.489999999999995,0.2107891921433311,0.0691104169750823,-1.184130498172821
6.5,0.2027431767974044,0.0905548246088801,-1.2288725187210308
6.509999999999991,0.1882144768999386,0.1232689313278147,-1.2635395859635754
6.519999999999996,0.1754582713115057,0.1531808627487822,-1.2972232084890194
6.529999999999987,0.1572001291193672,0.1772983758975104,-1.32454538838653
6.539999999999992,0.1218096575446792,0.1943743143318098,-1.3455854921890835
6.549999999999997,0.0806327086610012,0.2030133263324317,-1.357062716867449
6.559999999999988,0.0338532652425682,0.1981958546625144,-1.355902078969735
6.569999999999993,0.0097682903893291,0.1894081326582962,-1.352329433609569
6.579999999999984,-0.0054875791354421,0.1756161322703606,-1.3500275761472496
6.590000000000003,-0.0110260695160333,0.1651427296721628,-1.35981070623223
6.599999999999994,-0.0188714735015653,0.164995939373915,-1.3802012417520724
6.609999999999985,-0.0152262764816691,0.1562543205536356,-1.3805724735812677
6.6200000000000045,0.0041479145120283,0.1332169492651951,-1.37825449600351
6.629999999999996,0.0173146993012787,0.1191631155541821,-1.374266999556405
6.639999999999986,0.0158197241573178,0.0939508409098298,-1.372564449701355
6.650000000000006,0.0026366716877872,0.0697378286315296,-1.3591356491055644
6.659999999999997,-0.0166250531038832,0.0326991724522614,-1.3639079659564484
6.669999999999988,-0.0398939393959284,0.0006543946516461,-1.3757951443864664
6.680000000000007,-0.0655749808461794,-0.0317796092159466,-1.388129125673928
6.689999999999998,-0.0791426517997511,-0.0507462478341763,-1.394139549288466
6.699999999999989,-0.079060397085139,-0.0705150073523152,-1.3904200289483322
6.70999999999998,-0.0803033245897545,-0.0843659020260045,-1.3892996153415949
6.719999999999999,-0.064364730362239,-0.0936875333455924,-1.3871123828590457
6.72999999999999,-0.0363640425477227,-0.1269877544599026,-1.3903394867533947
6.739999999999981,0.0098876027095923,-0.1456945946748721,-1.386548912080614
6.75,0.0692950772913951,-0.177687007217011,-1.3868704055413088
6.759999999999991,0.1166648311436415,-0.2143166138129982,-1.390484363486788
6.769999999999982,0.1592913108291893,-0.2257605626439527,-1.4046238718890869
6.780000000000001,0.1886722607300233,-0.2441673441765635,-1.4083468572121676
6.789999999999992,0.2099477949079448,-0.2483785060083975,-1.4204277141012822
6.799999999999983,0.2084373283334836,-0.2613436361647587,-1.442464501300296
6.810000000000002,0.1774087152474432,-0.2779463837126144,-1.450991545894147
6.819999999999993,0.1477606031865109,-0.2842815876061094,-1.4516884562814405
6.829999999999984,0.1106546109210369,-0.288479766035191,-1.453432638108182
6.840000000000003,0.0689855434030913,-0.2807261508459792,-1.452815072491846
6.849999999999994,0.0327278187565818,-0.2638742793319167,-1.4387322876261668
6.859999999999985,-0.0218732773131203,-0.2446003511074744,-1.4293585142488772
6.8700000000000045,-0.0711367555991757,-0.2229919034888237,-1.4175676955088634
6.879999999999996,-0.1058783960315203,-0.1935647185326302,-1.3896224100109416
6.889999999999986,-0.127883126232702,-0.1634221823098276,-1.3645524628206571
6.900000000000006,-0.1501367127448997,-0.1413528871199284,-1.3413963001868514
6.909999999999997,-0.1738633599809799,-0.1229442050572781,-1.3096440054311873
6.919999999999988,-0.1809338936658518,-0.1052396536909966,-1.2936491039512945
6.930000000000007,-0.171709648462776,-0.0832187282652973,-1.2742190266649058
6.939999999999998,-0.1631677122134953,-0.0709144129198983,-1.2579103331034958
6.949999999999989,-0.1283897970977391,-0.0489283327546964,-1.2478419637127145
6.95999999999998,-0.0894830120874169,-0.0303466761977559,-1.2477641260174928
6.969999999999999,-0.0520308987002189,-0.0144034445146527,-1.2565036958802682
6.97999999999999,-0.0137406667937868,0.0031347647607568,-1.2654636884095298
6.989999999999981,0.0175031291656092,0.0187951188900884,-1.276859680510379
7.0,0.0440760786647599,0.0262411675718738,-1.292748530923654
7.009999999999991,0.0392110834995478,0.0373166222776874,-1.3057158507185185
7.019999999999982,0.0180906725290239,0.0565602640814129,-1.309873876991091
7.030000000000001,-0.015627950404749,0.0724497510723393,-1.3178873524227912
7.039999999999992,-0.0622784503491114,0.0848395103841405,-1.3194259130693409
7.049999999999983,-0.1204580879285577,0.1008193024323796,-1.3246959477127678
7.060000000000002,-0.1867282326605871,0.1227922754156892,-1.3468600238910302
7.069999999999993,-0.2534292657132498,0.1476855724725842,-1.3554668310853453
7.079999999999984,-0.3217792923200313,0.1585213644782656,-1.37483483819486
7.090000000000003,-0.3682582023177273,0.1685705387133434,-1.390020162876146
7.099999999999994,-0.4053217506682824,0.1792313542596239,-1.3994639460085443
7.109999999999985,-0.4333003683691374,0.1830150611267667,-1.3970693328402923
7.1200000000000045,-0.4402717088949896,0.1758265518153372,-1.3967169663966923
7.129999999999996,-0.4197561399528052,0.157491804477988,-1.3978611074977625
7.139999999999986,-0.3892676092756982,0.1297560048994843,-1.391995409675882
7.150000000000006,-0.3367069718545074,0.1023614551808535,-1.396680776717753
7.159999999999997,-0.2748648942518779,0.0608156071969498,-1.4001048359185924
7.169999999999988,-0.1997959727196321,0.016533415207692,-1.4004933765655767
7.180000000000007,-0.1140683831791419,-0.0172234306770575,-1.4016937010006427
7.189999999999998,-0.0572418020330307,-0.043550973757511,-1.3925442381873523
7.199999999999989,-0.0217978382769272,-0.0750978917411084,-1.383314418365976
7.2099999999999795,-0.0073929619635113,-0.0886054144641054,-1.3816675999397638
7.219999999999999,-0.0187936506618219,-0.1096129042586756,-1.376334354060675
7.22999999999999,-0.033255532222293,-0.1160381884117239,-1.3707848576300568
7.239999999999981,-0.0629431762448785,-0.1247245690265494,-1.3644829148220936
7.25,-0.0915532055907589,-0.1411331432973172,-1.3547736445697989
7.259999999999991,-0.0929847061861934,-0.1432057020032858,-1.3367614592588353
7.269999999999982,-0.1008625841197177,-0.1545750727216508,-1.3209388652850012
7.280000000000001,-0.0932828669304497,-0.148861567399972,-1.304913879944156
7.289999999999992,-0.0834945625228496,-0.1404288412636278,-1.274867372237617
7.299999999999983,-0.0656745623294176,-0.1272399645140913,-1.2488098213379373
7.310000000000002,-0.0322055264282901,-0.1230623627204816,-1.2285098038954347
7.319999999999993,0.0090971293873069,-0.1245749525245701,-1.1979069442969303
7.329999999999984,0.0496399734776113,-0.1074236694521917,-1.1777834316043767
7.340000000000003,0.0846107212400378,-0.0936367129706771,-1.1603201089591997
7.349999999999994,0.1177402383267239,-0.0759387325421638,-1.1374303913566872
7.359999999999985,0.1449029768741568,-0.0553509786998043,-1.1089056974584732
7.370000000000003,0.1748990995428936,-0.0283359742758029,-1.08133943277362
7.3799999999999955,0.1914702455993652,-0.0095868073310584,-1.050659617478447
7.389999999999986,0.2197063203671557,0.0079103474251189,-1.027911321818905
7.400000000000006,0.2276242838389665,0.0318170058463642,-1.010844388020396
7.409999999999997,0.2350585780237048,0.0514197712124734,-0.9942207335698784
7.4199999999999875,0.2385447053972439,0.0681155318646031,-0.9756002015464228
7.430000000000007,0.2150865140354703,0.089658187017746,-0.9615066743284068
7.439999999999998,0.1946841301442291,0.1110099854660562,-0.949227806969704
7.449999999999989,0.1750516301911128,0.1240614546364949,-0.9404382530652282
7.4599999999999795,0.1606742588832991,0.1321679641427735,-0.9207567617598263
7.469999999999999,0.145285761472376,0.1322151190257219,-0.9050868292719696
7.47999999999999,0.1258064623084804,0.1305622203532506,-0.8998063850983512
7.489999999999981,0.1219375452407242,0.1187087851497444,-0.8859527068242151
7.5,0.129615130985707,0.1012478954121324,-0.8619448398434572
7.509999999999991,0.1314496232496078,0.0831106536992243,-0.841380546977538
7.519999999999982,0.1399901089560113,0.0604003120578335,-0.8177805574006249
7.530000000000001,0.1517048560190776,0.0515673479909819,-0.7958706983276325
7.539999999999992,0.1400634551628424,0.0450356393998937,-0.7765192842772869
7.549999999999983,0.1153841641207898,0.0310170163472781,-0.7651789734001385
7.560000000000002,0.0745741826934153,0.0258964325297574,-0.7516032083570355
7.569999999999993,0.0197475356011754,0.0068095110741827,-0.7372380120759913
7.579999999999984,-0.0282682900125547,-0.0087533572877997,-0.7214862940822371
7.590000000000003,-0.0794581349535674,-0.02188586096739,-0.7071674380902575
7.599999999999994,-0.1128855778201331,-0.0375799566891562,-0.6873363166118102
7.609999999999985,-0.1382869219172663,-0.0414920545811933,-0.6651267213824371
7.620000000000003,-0.1601241155782681,-0.0409645286191348,-0.6479337622025486
7.6299999999999955,-0.1633560149011812,-0.0527888958024068,-0.6284928213814721
7.639999999999986,-0.153841775073118,-0.0667190923431565,-0.6084319955100873
7.650000000000006,-0.130179818191733,-0.0714994262428301,-0.5733684397330988
7.659999999999997,-0.1096840094209232,-0.0703729176936999,-0.5508037204614791
7.6699999999999875,-0.0776313074790802,-0.070362006113774,-0.5132460033765325
7.680000000000007,-0.0462367484525166,-0.0649455837389854,-0.4914845250925304
7.689999999999998,-0.017464255150951,-0.0613102333785015,-0.4516939651825142
7.699999999999989,0.0161686837335632,-0.0605039147235131,-0.4259451788019048
7.7099999999999795,0.0611322301037117,-0.0769515282163223,-0.4008765548636779
7.719999999999999,0.0823385984071777,-0.0873894439770264,-0.3702775506493088
7.72999999999999,0.085934001421187,-0.0843105418072985,-0.3570404834432253
7.739999999999981,0.0805750613615935,-0.0836533892114531,-0.3401521133922008
7.75,0.075680223599822,-0.0818315867979526,-0.3341724612470535
7.759999999999991,0.0776992171510567,-0.0841651473146682,-0.3273164239861245
7.769999999999982,0.0770145505068854,-0.0766740521541154,-0.3242175113675571
7.780000000000001,0.0541565443830439,-0.0617494436898737,-0.3207427480081457
7.789999999999992,0.037412184364514,-0.0365991965355316,-0.3061917742004751
7.799999999999983,0.0115598831613728,-0.0040105132196664,-0.2884895879432646
7.810000000000002,-0.017006477019591,0.0206648851493831,-0.2736877013750851
7.819999999999993,-0.0311432565636939,0.0433144958365096,-0.2635137149722923
7.829999999999984,-0.0562175546261912,0.0488220515804409,-0.2523470474103627
7.840000000000003,-0.0721386482091855,0.0537422318901412,-0.2451411764267044
7.849999999999994,-0.0971485301097482,0.0539814781600345,-0.2494869981727266
7.859999999999985,-0.1117980041169531,0.0431283138180842,-0.2416160702483288
7.870000000000003,-0.1212245103697053,0.0487956133534172,-0.2260152858353039
7.8799999999999955,-0.1184537451463437,0.0507047369360223,-0.2056943910874183
7.889999999999986,-0.115474896383007,0.0548607808276716,-0.1899385508089887
7.900000000000006,-0.1136006690966191,0.0542205133639718,-0.183585756167537
7.909999999999997,-0.1135850985796487,0.0634477614871173,-0.1713952140265967
7.9199999999999875,-0.1201757961685237,0.0588060182560866,-0.1738670144558103
7.930000000000007,-0.1184524302275582,0.0577917909549631,-0.1802887230536021
7.939999999999998,-0.1305355205017357,0.0540111506757972,-0.1939563570344895
7.949999999999989,-0.1479771437696304,0.0482797978834627,-0.2168330998125654
7.9599999999999795,-0.1479901750491733,0.0415337045983396,-0.2353597795575369
7.969999999999999,-0.1610342562278962,0.041343431828905,-0.2539023193138722
7.97999999999999,-0.1720395865872761,0.0473705012732037,-0.262980004637343
7.989999999999981,-0.1849029264879801,0.0440797915984855,-0.2656706269362782
8.0,-0.2112700137493044,0.053886553678703,-0.2685097818767422
8.009999999999991,-0.2392058965300619,0.0538611001760407,-0.2569305578837329
8.019999999999982,-0.2663732898915438,0.0538784964706078,-0.2518015799904124
8.030000000000001,-0.2785161940290495,0.0473946831189699,-0.2592204424226017
8.039999999999992,-0.2854370258033359,0.0363187624649199,-0.2598601443607122
8.049999999999983,-0.2781565038978804,0.0365051752211796,-0.2644798533944927
8.060000000000002,-0.2733818012587035,0.0182542373477016,-0.2575987074391831
8.069999999999993,-0.2698981896300194,-0.0005251143053593,-0.2440643420357179
8.079999999999984,-0.2738539328423302,-0.0148167677924867,-0.2440916067386176
8.090000000000003,-0.2755715160617963,-0.0574480198000248,-0.2496752858074269
8.099999999999994,-0.2821861035478368,-0.1062920096829537,-0.2690868753441741
8.109999999999985,-0.2994944908858578,-0.168726203738933,-0.2958452778256373
8.120000000000005,-0.314782248126171,-0.2135245371560212,-0.3170299964507302
8.129999999999995,-0.294709295537987,-0.2443714592531178,-0.3173020120346328
8.139999999999986,-0.1665858273216087,-0.2772050964550742,-0.3123043637802792
8.150000000000006,-0.1356137940842494,-0.2311429641297145,-0.2846664984674882
8.159999999999997,-0.1103016212306965,-0.2000267867918398,-0.269304451755299
8.169999999999987,-0.0326464735511382,-0.1877400863368713,-0.2594704193840255
8.180000000000007,-0.0112739311893834,-0.1679520609228158,-0.2571434769458309
8.189999999999998,0.0044819389873746,-0.1627462988573771,-0.2551585968751595
8.199999999999989,7.323682722063097e-05,-0.1715648757012019,-0.2482113674917679
8.20999999999998,0.0050217825345935,-0.1763055467133759,-0.2572851703053813
8.219999999999999,-0.00823152316828,-0.178604549927818,-0.2520790500663751
8.22999999999999,-0.0105320887549478,-0.1662481624800275,-0.2566140080209514
8.23999999999998,-0.0294044006156457,-0.1619712136097716,-0.2633754805028275
8.25,0.0275063646931961,-0.1437122710418296,-0.2675577555886761
8.259999999999991,0.2606053608552432,-0.0973142184214493,-0.2657137357904133
8.269999999999982,0.2834416964130725,-0.0859205591391473,-0.2475607293659182
8.280000000000001,0.278242869219771,-0.0704741793083668,-0.2408364999657093
8.289999999999992,0.2828502383262711,-0.0619051104328162,-0.2367570167322884
8.299999999999983,0.206135486866314,-0.056533123897395,-0.2166838429587887
8.310000000000002,0.2159202543141753,-0.0563708875504878,-0.20912941535618
8.319999999999993,0.2571643657199357,-0.0543489523796412,-0.1886353874542704
8.329999999999984,0.2164374210684265,-0.0277955302221158,-0.166447542848886
8.340000000000003,0.200388834206454,-0.0318221628219001,-0.1566995895616466
8.349999999999994,0.1868663852751577,-0.0226344357797605,-0.1384124326806959
8.359999999999985,0.2203854680039264,-0.0207203484623795,-0.1328655818271212
8.370000000000005,0.2246874766059444,-0.0330296299344585,-0.1352324680217531
8.379999999999995,0.2066726779921882,-0.0604282093795705,-0.1432513714701857
8.389999999999986,0.1940577902415642,-0.0949987510002137,-0.1531018987502027
8.400000000000006,0.2098312354219853,-0.1230411392654039,-0.1702369223314715
8.409999999999997,0.2423159507068892,-0.1305242005837693,-0.1829839038145602
8.419999999999987,0.2522675297860842,-0.1345727725751677,-0.1926498988998496
8.430000000000007,0.2441416818611703,-0.1359855278858679,-0.1976189929793053
8.439999999999998,0.2506843094396512,-0.1393552969413547,-0.197942613419138
8.449999999999989,0.2793456748277678,-0.1509336746282104,-0.1992648980277608
8.45999999999998,0.2867783171988098,-0.1458689209785395,-0.1930467953393184
8.469999999999999,0.285372585425431,-0.1407276755166562,-0.1908953330949288
8.47999999999999,0.2738617410893029,-0.1430464949805945,-0.1976786612113067
8.48999999999998,0.2666634605420941,-0.1527902119170324,-0.1909487377602856
8.5,0.2619730220635962,-0.1470598380572778,-0.185753256543703
8.509999999999991,0.2506518211913212,-0.1450382646398225,-0.1818548802578194
8.519999999999982,0.2230443570683506,-0.1338874932877773,-0.1756667384495581
8.530000000000001,0.1974309632052344,-0.1242508890994355,-0.1697501167502879
8.539999999999992,0.187377944469413,-0.1110120743233107,-0.161755560623169
8.549999999999983,0.1863091565129231,-0.1093271681673982,-0.1587208993838575
8.560000000000002,0.1737705174805881,-0.1014475903882585,-0.1527212352674554
8.569999999999993,0.1521465444750379,-0.1019244448221511,-0.1423419905002728
8.579999999999984,0.134817868473434,-0.0941324404163307,-0.1344962328874406
8.590000000000003,0.1351956430769478,-0.0789823139054237,-0.1349450734474154
8.599999999999994,0.1299621202255206,-0.0795060935464329,-0.1350996823741369
8.609999999999985,0.1130495521394355,-0.0704721011583877,-0.1463697272095502
8.620000000000005,0.1111779741332508,-0.0803380731774221,-0.1593858708092993
8.629999999999995,0.1001778362026719,-0.0713303021155877,-0.1662274895948604
8.639999999999986,0.1307850069284395,-0.0595865453956364,-0.163796523513984
8.650000000000006,0.0699990447936093,-0.0558569338131973,-0.1583424712152595
8.659999999999997,-0.0134702446318146,-0.0369403967555412,-0.1446613388914809
8.669999999999987,-0.0109668946097341,-0.0124941430320001,-0.1212882176015991
8.680000000000007,-0.036416204926418,0.0155121907588417,-0.1011611323197475
8.689999999999998,-0.0477417489190228,0.02325094287706,-0.0899747579683211
8.699999999999989,-0.0336594294881188,0.0172552194911616,-0.0976966048032579
8.70999999999998,-0.0323433730442891,0.0232744248327632,-0.1133480635252709
8.719999999999999,-0.0173665822525817,0.0137680055462032,-0.1160996814174478
8.72999999999999,0.0009593442825159,0.013026584804797,-0.1131349624559041
8.73999999999998,-0.014858128778015,0.0277586473242388,-0.1029750860858462
8.75,-0.0157648537821722,0.0166071262807233,-0.095942352792805
8.759999999999991,-0.0197025223376427,0.0149405757098108,-0.0827957389019177
8.769999999999982,-0.0289423999543035,0.0306224159274057,-0.0626866540217584
8.780000000000001,-0.0199561527761416,0.0362029559962374,-0.0569364953782837
8.789999999999992,-0.0355384881698334,0.0367449629869132,-0.0429199626720656
8.799999999999983,-0.0340198735202873,0.0243211196497829,-0.0469033847442946
8.810000000000002,-0.0225073442868569,0.0147055979096717,-0.0525581302544871
8.819999999999993,-0.0230466591786405,0.0075769889434851,-0.0434634240434924
8.829999999999984,-0.0122468810749362,0.00884653259957,-0.0349909060960818
8.840000000000003,-0.0115254941394591,0.0307688013344683,-0.03152406120846
8.849999999999994,-0.0053639086862476,0.0192770175469205,-0.0277373942356988
8.859999999999985,-0.0105962993900747,0.0157659355802525,-0.0198586580907639
8.870000000000005,-0.024450322180492,0.0150745718647338,-0.0194599718818126
8.879999999999995,-0.0145128305309245,0.0043518516522949,-0.0137877365923699
8.889999999999986,-0.0194270300233809,0.0247983226976984,-0.0105096026271514
8.900000000000006,-0.0218084351466709,0.0365027900834645,-0.0049942514363843
8.909999999999997,-0.0214451826423957,0.0422263501174377,0.0065416526988188
8.919999999999987,-0.0235660599373859,0.0459065847760098,0.0342352080138869
8.930000000000007,-0.0303088068505878,0.0468825540766035,0.0495488897940335
8.939999999999998,-0.0340835355675103,0.0472889837039172,0.0488081649164015
8.949999999999989,-0.0412208281408492,0.0367222929168352,0.0529904212073551
8.95999999999998,-0.0284762611786463,0.0277876179731617,0.0426902473893313
8.969999999999999,-0.0128380309291919,0.0320687677361662,0.0351629634767963
8.97999999999999,-0.0147554101529586,0.0335137070101229,0.0280583868018819
8.98999999999998,-0.0143286405670086,0.0499053534346253,0.0261644914722717
9.0,-0.0221303028727177,0.0717900585709945,0.0305502262397605
9.009999999999993,-0.030544288698427,0.0740740961611681,0.0237716523107682
9.019999999999982,-0.0371993066006048,0.0587642653911861,0.023027483356309
9.03,-0.0391961899345458,0.0401400899461157,0.0111228807030727
9.039999999999992,-0.0371209689627203,0.0169009257268686,-0.0053237511171568
9.049999999999985,-0.0251219065979544,-0.010514236439758,-0.011161741351314
9.060000000000002,-0.016926956879399,-0.0027075473211659,-0.0238087283776734
9.069999999999991,-0.0154411986428924,0.0228506571260537,-0.0316658601731156
9.079999999999984,-0.0147850752111297,0.0476465627696668,-0.0208530874379097
9.090000000000003,-0.0163037045904831,0.061958621984916,-0.0135610224012625
9.099999999999994,-0.025795528697911,0.0647887480513863,-0.0051902673903389
9.109999999999983,-0.0395634439394379,0.059329120473035,0.0069230210899204
9.120000000000005,-0.0423268529778387,0.0492359141627724,0.0077817738392007
9.129999999999995,-0.0395045777639677,0.0405983646079514,0.0198538064733599
9.139999999999986,-0.0382613054505463,0.0223990445613871,0.0175237016138961
9.150000000000006,-0.0208714353010497,0.0191092735134235,0.0249002269311888
9.159999999999997,-0.0145236829306269,0.0279622775468944,0.0327392848052228
9.169999999999987,-0.0139762640992009,0.027862086116204,0.041044840311716
9.180000000000009,-0.0159073180315727,0.0376238146535481,0.0482529576988236
9.189999999999998,-0.0221695503585351,0.0301966869492062,0.0505034608101172
9.199999999999989,-0.0302033832349751,0.0228339821048163,0.0545027988159899
9.20999999999998,-0.0373549669672983,0.022593464503135,0.0593595047727546
9.22,-0.0273164488527699,0.0314515976788916,0.0638536953340889
9.22999999999999,-0.0284677521789767,0.0234679645795092,0.0550811655123796
9.23999999999998,-0.0244315280315792,0.0156102825773138,0.0420877637608007
9.25,-0.0159446731576071,0.0037405156229659,0.0284599775021361
9.259999999999993,-0.020627390438898,0.0036090679476359,0.0171324109460284
9.269999999999982,-0.0176246825335177,0.0053471269090782,0.0124354472588538
9.28,-0.0166489722818269,0.0205757126698528,0.0154652853016438
9.289999999999992,-0.0205430372077964,0.0258591031318173,0.0217564402604251
9.299999999999985,-0.0296226531746015,0.0282401784447568,0.0226519170373256
9.310000000000002,-0.0297474252851159,0.0308584073232525,0.0209991181433906
9.319999999999991,-0.0231619538569972,0.0316936072163637,0.0156681773722829
9.329999999999984,-0.0302232433757074,0.0202955659984573,0.0018366364770874
9.340000000000003,-0.026530674406798,0.0093612126488227,-0.0157667602606811
9.349999999999994,-0.0301144483995536,0.0159113035163581,-0.0247640108024916
9.359999999999983,-0.0380174964159123,0.019167396151996,-0.0327275803448164
9.370000000000005,-0.028515180319293,0.0103559586492201,-0.036098340855068
9.379999999999995,-0.0251822446856223,0.0035999477365289,-0.0416081402064644
9.389999999999986,-0.0152132545846824,0.0072477654485061,-0.0538776927850205
9.400000000000006,-0.0185191660705302,0.0139978217868942,-0.0559048246841102
9.409999999999997,-0.0154729325269969,0.0154734969638841,-0.0582961279497472
9.419999999999987,-0.0257893401732233,0.0086463266401356,-0.0514955604250535
9.430000000000009,-0.032538129248648,0.0040803668125383,-0.0427017275366294
9.439999999999998,-0.0193854355227842,0.0062387031020861,-0.0429356542737629
9.449999999999989,-0.0272294061726262,0.0160217783452519,-0.0421138326480603
9.45999999999998,-0.0161836194683406,0.0209234859301804,-0.0346336023000663
9.47,-0.0221604177032351,0.0290178279132711,-0.0302053650564398
9.47999999999999,-0.016669541982391,0.028976443389998,-0.0223941007089386
9.48999999999998,-0.0162733723580005,0.0239715071000048,-0.0200298315240976
9.5,-0.025368832742586,0.01229150860073,-0.0202725048764249
9.509999999999993,-0.036074942621793,0.0072621574454076,-0.0176286220264529
9.519999999999982,-0.0288205464388136,0.0063035818592646,-0.0064005639424263
9.53,-0.0233048608973083,0.011900145447523,-0.0055256429113274
9.539999999999992,-0.0314378719047929,0.041203443992507,0.0006121436087004
9.549999999999985,-0.0222534366324434,0.0436876793409582,0.0029844200346098
9.560000000000002,-0.0150573097196732,0.0215517595499397,-0.0055751936627362
9.569999999999991,-0.0157879416129585,0.007389469582728,-0.0091056274046589
9.579999999999984,-0.0221457914206726,0.0147783399593868,0.0097310255284781
9.590000000000003,-0.0304677377415071,0.0380010303121353,0.0185363380592817
9.599999999999994,-0.014634682217592,0.0606150043486462,0.030704269007905
9.609999999999983,-0.0156696879187259,0.0753491900025605,0.0325100855752128
9.620000000000005,-0.0146579249336447,0.0659409352608381,0.0335197526758354
9.629999999999995,-0.0142162183490759,0.0463662993782295,0.0446499691640555
9.639999999999986,-0.0209304653137727,0.0624961352610214,0.0467845389043576
9.650000000000006,-0.0150686887938486,0.07922181694177,0.0704695776591046
9.659999999999997,-0.0239125973546732,0.1014967582259803,0.0868148976058874
9.669999999999987,-0.0329944520199623,0.1141615410297517,0.0958679058955056
9.680000000000009,-0.0357694602364591,0.1205943958375617,0.0932018139086572
9.689999999999998,-0.0294016528088276,0.1180204085597418,0.0921055006612333
9.699999999999989,-0.0351489645063656,0.1248370957664509,0.0876006163479353
9.70999999999998,-0.0360148324644423,0.1607729194944821,0.0835612958546357
9.72,-0.0405747435293428,0.2074040254245354,0.0912334059430845
9.72999999999999,-0.0338769582335594,0.2711287555025347,0.1109731796894026
9.73999999999998,0.0256710417475816,0.134080533976402,0.1095913184056458
9.75,0.0031189328772887,0.0131680089504267,0.06451999453753
9.759999999999993,-0.0758662801788234,-0.0210920007431012,0.0415991087349222
