time,Gyr_X,Gyr_Y,Gyr_Z
0.0,0.007105,-0.034676,0.002119
0.009999999999998,-0.019438,-0.029441,-0.012794
0.019999999999996,-0.000247,-0.027524,-0.018916
0.0300000000000011,0.001654,-0.027565,-0.009767
0.0399999999999991,-0.007493,-0.026739,-0.012629
0.0499999999999971,-0.012097,-0.02949,-0.01182
0.0599999999999951,-0.011161,-0.033103,-0.001809
0.0700000000000002,-0.000263,-0.033,-0.012627
0.0799999999999983,-0.012866,-0.025873,8.2e-05
0.0899999999999963,0.002469,-0.040176,0.001948
0.0999999999999943,-0.000986,-0.027567,0.003894
0.1099999999999994,3.4e-05,-0.020342,0.004002
0.1199999999999974,-0.00207,-0.033858,-0.005313
0.1299999999999954,-0.008396,-0.0294,-0.00351
0.1400000000000005,0.002419,-0.036543,-0.009847
0.1499999999999985,-0.011222,-0.033034,-0.007246
0.1599999999999966,-0.014776,-0.024046,-0.012674
0.1699999999999946,-0.01305,-0.033958,-0.006383
0.1799999999999997,-0.011994,-0.023136,-0.010819
0.1899999999999977,0.002612,-0.023926,-0.012461
0.1999999999999957,-0.002,-0.029377,-0.007114
0.2100000000000008,-0.011088,-0.027647,-0.002648
0.2199999999999988,-0.015911,-0.034863,-0.021977
0.2299999999999968,0.008881,-0.03654,-0.003394
0.2399999999999948,-0.018448,-0.034033,0.005408
0.25,0.002571,-0.032984,0.002051
0.259999999999998,-0.005521,-0.023102,0.000246
0.269999999999996,-0.012655,-0.007805,-0.006969
0.2800000000000011,-0.005465,-0.016754,-0.00515
0.2899999999999991,-0.011256,-0.031185,-0.016364
0.2999999999999971,0.003415,-0.026582,-0.020684
0.3099999999999951,-0.014926,-0.033939,-0.012801
0.3200000000000003,-0.014906,-0.033967,-0.010069
0.3299999999999983,-0.004637,-0.018583,-0.014318
0.3399999999999963,-0.007535,-0.029434,-0.012667
0.3499999999999943,0.000625,-0.038388,-0.001686
0.3599999999999994,-0.007349,-0.018582,-0.008856
0.3699999999999974,-0.011131,-0.023991,-0.014443
0.3799999999999954,-0.007274,-0.018562,0.002121
0.3900000000000005,-0.015152,-0.041987,-0.025671
0.3999999999999986,-0.012989,-0.02307,-0.019938
0.4099999999999966,-0.011276,-0.029405,-0.023665
0.4199999999999946,-0.029555,-0.034129,-0.013032
0.4299999999999997,-0.005666,-0.025896,-0.016283
0.4399999999999977,-0.016499,-0.020539,-0.012715
0.4499999999999957,0.00363,-0.0258,0.001196
0.4600000000000008,-0.001905,-0.029419,0.005669
0.4699999999999988,-0.001896,-0.031243,0.015694
0.4799999999999969,-0.025672,-0.025979,0.003567
0.4899999999999949,-0.018186,-0.020551,0.011958
0.5,-0.0092,-0.02769,0.004681
0.509999999999998,-0.001535,-0.011405,0.016868
0.519999999999996,-0.011014,-0.023996,0.00017
0.5300000000000011,0.005267,-0.029249,-0.009717
0.5399999999999991,0.005622,-0.013981,0.007825
0.5499999999999972,-0.016492,-0.02951,0.01647
0.5599999999999952,-0.016623,-0.034976,0.007249
0.5700000000000003,-0.018106,-0.015224,0.011099
0.5799999999999983,-0.012712,-0.026033,0.021974
0.5899999999999963,-0.015176,-0.01249,0.031229
0.5999999999999943,-0.02135,-0.002716,0.034861
0.6099999999999994,-0.014248,-0.02429,0.047465
0.6199999999999974,0.002486,-0.019657,0.078837
0.6299999999999955,-0.012425,-0.04232,0.09299
0.6400000000000006,0.011476,-0.036809,0.102492
0.6499999999999986,-0.013928,-0.026165,0.1078
0.6599999999999966,-0.021159,-0.0235,0.109547
0.6699999999999946,-0.011779,-0.008067,0.108951
0.6799999999999997,-0.010053,-0.009772,0.099866
0.6899999999999977,-0.008509,-0.022353,0.08971
0.6999999999999957,-0.001263,-0.024103,0.084275
0.7100000000000009,-0.014179,-0.033147,0.087636
0.7199999999999989,-0.012345,-0.030309,0.085003
0.7299999999999969,-0.006971,-0.030339,0.073181
0.7399999999999949,-0.030493,-0.023635,0.085638
0.75,-0.026559,-0.020045,0.109488
0.759999999999998,-0.01543,-0.01804,0.128907
0.769999999999996,-0.011859,-0.017053,0.117107
0.7800000000000011,-0.022017,-0.026189,0.124147
0.7899999999999991,-0.018662,-0.041479,0.114879
0.7999999999999972,-0.006496,-0.02249,0.114368
0.8099999999999952,-0.002975,-0.034189,0.120678
0.8200000000000003,-0.006496,-0.020678,0.111636
0.8299999999999983,-0.019718,-0.044157,0.105702
0.8399999999999963,-0.019453,-0.038787,0.132288
0.8499999999999943,-0.040569,-0.03896,0.123815
0.8599999999999994,-0.055994,-0.029972,0.123765
0.8699999999999974,-0.057576,-0.013664,0.123978
0.8799999999999955,-0.066769,-0.020922,0.131065
0.8900000000000006,-0.081615,-0.03184,0.121563
0.8999999999999986,-0.090973,-0.034614,0.097622
0.9099999999999966,-0.101764,-0.017635,0.086694
0.9199999999999946,-0.096451,-0.021215,0.072124
0.9299999999999996,-0.120139,-0.015942,0.075556
0.9399999999999976,-0.143948,-0.02505,0.086115
0.9499999999999956,-0.132943,-0.026698,0.091741
0.9600000000000009,-0.130899,-0.021271,0.106427
0.9699999999999988,-0.141907,-0.01594,0.090807
0.9799999999999968,-0.120239,-0.032027,0.090905
0.9899999999999948,-0.14421,-0.035775,0.071348
1.0,-0.147729,-0.026877,0.067723
1.009999999999998,-0.140176,-0.00794,0.061629
1.019999999999996,-0.149694,-0.032292,0.067631
1.0300000000000011,-0.162395,-0.026943,0.072101
1.0399999999999991,-0.17702,-0.021564,0.056446
1.0499999999999972,-0.167582,0.000172,0.047693
1.0599999999999952,-0.186231,-0.013407,0.032671
1.0700000000000005,-0.212032,-0.018014,0.017682
1.0799999999999983,-0.215491,-0.013543,0.032307
1.0899999999999963,-0.209989,-0.009851,0.024181
1.0999999999999943,-0.215442,-0.010828,0.026826
1.1099999999999994,-0.193466,-0.010728,0.027087
1.1199999999999974,-0.180748,-0.00879,0.012649
1.1299999999999957,-0.158745,-0.008662,0.015672
1.1400000000000006,-0.140399,-0.001401,0.004077
1.1499999999999986,-0.109232,-0.004865,0.020851
1.1599999999999966,-0.072476,0.004361,0.026893
1.1699999999999946,-0.072351,0.015189,0.021503
1.1799999999999995,-0.075457,0.042135,0.043708
1.1899999999999975,-0.057609,0.027894,0.018235
1.1999999999999955,-0.075794,0.037686,0.011724
1.2100000000000009,-0.051781,0.062292,-0.010476
1.2199999999999989,-0.026649,0.086869,-0.00256
1.2299999999999969,-0.021732,0.117631,-0.015776
1.2399999999999949,-0.03426,0.14169,-0.029373
1.25,-0.064664,0.166607,0.013435
1.259999999999998,-0.076759,0.204337,0.029234
1.269999999999996,-0.080109,0.20962,0.057577
1.2800000000000011,0.018103,0.167167,0.076682
1.2899999999999991,0.023009,0.235766,0.094961
1.2999999999999972,0.056293,0.259358,0.10111
1.3099999999999952,0.087793,0.277389,0.125433
1.3200000000000005,0.071506,0.289996,0.118133
1.3299999999999983,0.080869,0.300883,0.12752
1.3399999999999963,0.079453,0.331787,0.113295
1.3499999999999943,0.136446,0.357547,0.095205
1.3599999999999994,0.195447,0.388586,0.097302
1.3699999999999974,0.226902,0.413992,0.098057
1.3799999999999957,0.237878,0.414972,0.100967
1.3900000000000006,0.202967,0.404833,0.106796
1.3999999999999986,0.156347,0.344959,0.110923
1.4099999999999966,0.077084,0.301142,0.118474
1.4199999999999946,0.019589,0.250286,0.111608
1.4299999999999995,-0.019432,0.210387,0.109674
1.4399999999999975,-0.064117,0.165025,0.093019
1.4499999999999955,-0.089896,0.107317,0.066443
1.4600000000000009,-0.09683,0.074937,0.064184
1.4699999999999989,-0.117801,0.018971,0.065974
1.4799999999999969,-0.138876,-0.03065,0.040428
1.4899999999999949,-0.147279,-0.095542,0.028581
1.5,-0.153225,-0.120765,0.01358
1.509999999999998,-0.097322,-0.159056,-0.017192
1.519999999999996,-0.035584,-0.180236,-0.033994
1.5300000000000011,0.026378,-0.18707,-0.048799
1.5399999999999991,0.078675,-0.23191,-0.05416
1.5499999999999972,0.142534,-0.245132,-0.044356
1.5599999999999952,0.178812,-0.272894,-0.02228
1.5700000000000005,0.210475,-0.29795,-0.01483
1.5799999999999983,0.251589,-0.323051,0.031078
1.5899999999999963,0.284446,-0.339163,0.054139
1.5999999999999943,0.320459,-0.319123,0.061241
1.6099999999999994,0.349555,-0.331574,0.068779
1.6199999999999974,0.359545,-0.331529,0.061589
1.6299999999999957,0.354038,-0.330693,0.059707
1.6400000000000006,0.360558,-0.324393,0.067199
1.6499999999999986,0.335087,-0.329192,0.097862
1.6599999999999966,0.328917,-0.327516,0.126101
1.6699999999999946,0.323666,-0.324891,0.150702
1.6799999999999995,0.318758,-0.301564,0.17829
1.6899999999999975,0.295378,-0.27284,0.17101
1.6999999999999955,0.264809,-0.236951,0.165539
1.7100000000000009,0.232387,-0.207417,0.169116
1.7199999999999989,0.242148,-0.159624,0.15155
1.7299999999999969,0.207616,-0.143675,0.149464
1.7399999999999949,0.193307,-0.127597,0.162261
1.75,0.18269,-0.104274,0.162404
1.759999999999998,0.173907,-0.088141,0.175286
1.769999999999996,0.179834,-0.066496,0.186584
1.7800000000000011,0.182323,-0.026841,0.192561
1.7899999999999991,0.179066,-0.00163,0.192813
1.7999999999999972,0.178728,0.039817,0.183244
1.8099999999999952,0.154496,0.06487,0.193256
1.8200000000000005,0.156226,0.071245,0.169607
1.8299999999999983,0.133372,0.066585,0.183863
1.8399999999999963,0.095746,0.062766,0.1742
1.8499999999999943,0.068014,0.040947,0.177235
1.8599999999999997,0.052601,0.040834,0.193478
1.8699999999999972,0.046421,0.042591,0.219009
1.8799999999999957,0.015208,0.042472,0.20034
1.8900000000000008,0.004419,0.049635,0.209418
1.8999999999999984,-0.004627,0.062264,0.196671
1.9099999999999968,-0.037319,0.077386,0.198256
1.9199999999999944,-0.075678,0.090707,0.175992
1.93,-0.106852,0.088756,0.166424
1.9399999999999975,-0.147961,0.094838,0.155904
1.949999999999996,-0.128918,0.090511,0.140593
1.9600000000000009,-0.099367,0.112388,0.13304
1.9699999999999989,-0.110174,0.132228,0.114888
1.9799999999999969,-0.102467,0.159328,0.112582
1.9899999999999949,-0.105893,0.177328,0.105447
2.0,-0.135867,0.195138,0.094293
2.009999999999998,-0.149822,0.186027,0.081206
2.019999999999996,-0.152646,0.186034,0.07204
2.030000000000001,-0.171957,0.179637,0.071722
2.039999999999999,-0.137183,0.177196,0.081301
2.049999999999997,-0.121835,0.171074,0.068655
2.059999999999995,-0.099358,0.146026,0.070479
2.0700000000000003,-0.082977,0.138035,0.076071
2.0799999999999983,-0.064953,0.121929,0.07245
2.0899999999999963,-0.064251,0.105715,0.075919
2.0999999999999943,-0.03035,0.102314,0.092769
2.1099999999999994,-0.003091,0.09168,0.092996
2.119999999999997,0.005337,0.046699,0.092584
2.1299999999999955,0.015999,0.031482,0.081589
2.140000000000001,0.017301,0.003629,0.064817
2.1499999999999986,0.002057,0.021537,0.063888
2.1599999999999966,0.01547,0.009012,0.048381
2.1699999999999946,0.029653,-0.007089,0.020973
2.18,0.042948,-0.017766,-0.013677
2.1899999999999977,0.076367,-0.040058,-0.020791
2.199999999999996,0.070295,-0.057135,-0.063074
2.210000000000001,0.075674,-0.067916,-0.055815
2.219999999999999,0.077055,-0.094935,-0.063466
2.229999999999997,0.082098,-0.12376,-0.063741
2.239999999999995,0.083694,-0.132774,-0.07571
2.25,0.061321,-0.152736,-0.089912
2.259999999999998,0.036335,-0.174512,-0.08316
2.269999999999996,0.002329,-0.196386,-0.05827
2.280000000000001,-0.03532,-0.205657,-0.060706
2.289999999999999,-0.089365,-0.216853,-0.052433
2.299999999999997,-0.125149,-0.226086,-0.053033
2.309999999999995,-0.161134,-0.242514,-0.064722
2.3200000000000003,-0.192387,-0.240812,-0.088764
2.3299999999999983,-0.225239,-0.241233,-0.083789
2.3399999999999963,-0.265328,-0.232495,-0.084271
2.3499999999999943,-0.278633,-0.254081,-0.106604
2.3599999999999994,-0.257398,-0.235928,-0.118931
2.369999999999997,-0.21634,-0.241062,-0.120303
2.3799999999999955,-0.194629,-0.239053,-0.154709
2.390000000000001,-0.161438,-0.221698,-0.154056
2.3999999999999986,-0.113948,-0.214964,-0.177086
2.4099999999999966,-0.082429,-0.18952,-0.173629
2.4199999999999946,-0.030678,-0.145933,-0.190682
2.43,-0.003091,-0.134987,-0.190152
2.4399999999999977,0.027015,-0.095285,-0.156379
2.449999999999996,0.047569,-0.073653,-0.140312
2.460000000000001,0.062834,-0.058377,-0.082375
2.469999999999999,0.05608,-0.043191,-0.033864
2.479999999999997,0.061857,-0.047732,0.020071
2.489999999999995,0.029308,-0.050733,0.078991
2.5,0.046376,-0.045315,0.153291
2.509999999999998,0.066822,-0.04432,0.198363
2.519999999999996,0.067177,-0.045278,0.24953
2.530000000000001,0.080415,-0.034429,0.284553
2.539999999999999,0.095573,-0.03451,0.354153
2.549999999999997,0.120135,-0.008327,0.405941
2.559999999999995,0.129718,-0.000315,0.449099
2.5700000000000003,0.15777,0.021368,0.487161
2.5799999999999983,0.139715,0.026578,0.505234
2.5899999999999963,0.114474,0.037098,0.532435
2.5999999999999943,0.081285,0.060188,0.573391
2.6099999999999994,0.005897,0.075868,0.610043
2.619999999999997,-0.013735,0.097397,0.63015
2.6299999999999955,-0.042913,0.094537,0.648915
2.640000000000001,-0.038805,0.113511,0.672005
2.6499999999999986,-0.064435,0.107982,0.680735
2.6599999999999966,-0.062272,0.126991,0.686492
2.6699999999999946,-0.084813,0.145809,0.690081
2.68,-0.078225,0.155724,0.693947
2.6899999999999977,-0.103588,0.166317,0.702881
2.699999999999996,-0.097668,0.179789,0.732346
2.710000000000001,-0.117579,0.185006,0.748576
2.719999999999999,-0.104191,0.205771,0.785532
2.729999999999997,-0.096612,0.210304,0.813092
2.739999999999995,-0.096236,0.219252,0.846086
2.75,-0.095161,0.21651,0.874381
2.759999999999998,-0.106949,0.210077,0.902463
2.769999999999996,-0.118485,0.222606,0.924386
2.780000000000001,-0.146969,0.198943,0.954768
2.789999999999999,-0.131986,0.213426,0.971573
2.799999999999997,-0.140258,0.205238,0.982327
2.809999999999995,-0.135924,0.193603,0.975849
2.8200000000000003,-0.130712,0.17563,0.977526
2.8299999999999983,-0.125452,0.163039,0.972864
2.8399999999999963,-0.09469,0.139808,0.978494
2.8499999999999943,-0.086006,0.111028,0.97736
2.8599999999999994,-0.05882,0.091286,0.983874
2.869999999999997,-0.05384,0.066219,0.971788
2.8799999999999955,-0.05001,0.024887,0.960407
2.890000000000001,-0.056917,0.001428,0.939932
2.8999999999999986,-0.041897,-0.027276,0.926099
2.9099999999999966,-0.011873,-0.030653,0.911845
2.9199999999999946,-0.006624,-0.04501,0.911766
2.93,0.034833,-0.070825,0.88462
2.9399999999999977,0.073673,-0.102995,0.888421
2.949999999999996,0.114545,-0.123435,0.894195
2.960000000000001,0.158355,-0.124932,0.885616
2.969999999999999,0.176523,-0.128423,0.875774
2.979999999999997,0.190939,-0.141871,0.874911
2.989999999999995,0.183551,-0.149144,0.879331
3.0,0.205457,-0.155324,0.88597
3.009999999999998,0.212836,-0.155304,0.893382
3.019999999999996,0.238565,-0.147972,0.893806
3.030000000000001,0.22943,-0.15352,0.906385
3.039999999999999,0.25711,-0.138949,0.909658
3.049999999999997,0.284273,-0.153174,0.90346
3.059999999999995,0.315211,-0.1602,0.89832
3.0700000000000003,0.361718,-0.166271,0.893385
3.0799999999999983,0.388273,-0.174341,0.917378
3.0899999999999963,0.367949,-0.188963,0.921495
3.0999999999999943,0.343012,-0.210791,0.934617
3.1099999999999994,0.320316,-0.203705,0.943557
3.119999999999997,0.27081,-0.218415,0.95736
3.1299999999999955,0.243571,-0.202301,0.945331
3.140000000000001,0.220998,-0.193449,0.960673
3.1499999999999986,0.227935,-0.164581,0.972077
3.1599999999999966,0.222907,-0.133801,0.971516
3.1699999999999946,0.232902,-0.07605,0.965955
3.18,0.236724,-0.06519,0.966129
3.1899999999999977,0.240867,-0.034529,0.965619
3.199999999999996,0.254484,0.014173,0.97092
3.210000000000001,0.256913,0.048368,0.979562
3.219999999999999,0.249194,0.087946,0.966227
3.229999999999997,0.224388,0.116525,1.017409
3.239999999999995,0.194998,0.154145,1.047649
3.25,0.149771,0.181798,1.057445
3.259999999999998,0.134066,0.205967,1.110505
3.269999999999996,0.128888,0.222123,1.117921
3.280000000000001,0.131322,0.254532,1.132028
3.289999999999999,0.151799,0.270829,1.148006
3.299999999999997,0.168569,0.278981,1.175722
3.309999999999995,0.169746,0.293387,1.184135
3.3200000000000003,0.174378,0.296108,1.188793
3.3299999999999983,0.162246,0.285189,1.180254
3.3399999999999963,0.143032,0.28496,1.179042
3.3499999999999943,0.119792,0.256744,1.18384
3.3599999999999994,0.0776,0.248299,1.183176
3.369999999999997,0.04013,0.244459,1.197303
3.3799999999999955,0.012315,0.222749,1.196758
3.390000000000001,-0.021652,0.222572,1.182636
3.3999999999999986,-0.029043,0.21166,1.197915
3.4099999999999966,-0.039677,0.17911,1.188224
3.4199999999999946,-0.055045,0.171641,1.225345
3.43,-0.056182,0.146362,1.244208
3.4399999999999977,-0.045303,0.132142,1.269852
3.449999999999996,-0.035069,0.089214,1.277837
3.460000000000001,-0.068086,0.044243,1.246811
3.469999999999999,-0.102889,-0.011827,1.230107
3.479999999999997,-0.121769,-0.044588,1.208363
3.489999999999995,-0.144708,-0.10806,1.20083
3.5,-0.218461,-0.150245,1.209332
3.509999999999998,-0.308681,-0.199737,1.231265
3.519999999999996,-0.407782,-0.247399,1.283255
3.530000000000001,-0.463038,-0.301789,1.343068
3.539999999999999,-0.478184,-0.345802,1.362436
3.549999999999997,-0.438403,-0.378598,1.36531
3.559999999999995,-0.349758,-0.372303,1.338234
3.5700000000000003,-0.1971,-0.342192,1.260191
3.5799999999999983,-0.065124,-0.292595,1.191213
3.5899999999999963,0.035556,-0.257787,1.130765
3.5999999999999943,0.051623,-0.237926,1.041671
3.61,0.014756,-0.238294,1.01013
3.619999999999997,-0.038582,-0.237773,0.969269
3.629999999999996,-0.112399,-0.264267,0.93332
3.640000000000001,-0.139981,-0.262467,0.906521
3.649999999999999,-0.140004,-0.256871,0.889264
3.6599999999999966,-0.101407,-0.234846,0.866287
3.6699999999999946,-0.079949,-0.238166,0.8053
3.68,-0.037636,-0.208984,0.777858
3.6899999999999977,-0.02097,-0.176318,0.73644
3.699999999999996,-0.013669,-0.149131,0.672904
3.710000000000001,-0.008103,-0.13107,0.643031
3.719999999999999,0.008701,-0.093115,0.609007
3.729999999999997,0.009737,-0.069678,0.575523
3.739999999999995,0.001056,-0.024672,0.541251
3.75,0.002109,-0.006606,0.521392
3.759999999999998,-0.021532,0.013076,0.499388
3.769999999999996,-0.018709,0.025681,0.484969
3.780000000000001,-0.013733,0.047216,0.492605
3.789999999999999,0.001252,0.070659,0.489426
3.799999999999997,0.005109,0.068778,0.520491
3.809999999999995,-8.2e-05,0.084039,0.527902
3.82,-0.016029,0.104558,0.553484
3.8299999999999983,-0.031202,0.120599,0.57173
3.839999999999996,-0.04849,0.133147,0.558877
3.8499999999999934,-0.095897,0.140099,0.563833
3.86,-0.108608,0.159073,0.534694
3.869999999999997,-0.104747,0.176322,0.524938
3.879999999999996,-0.083702,0.185576,0.506172
3.890000000000001,-0.056912,0.216452,0.47766
3.899999999999999,-0.043747,0.243542,0.470841
3.9099999999999966,-0.039899,0.272419,0.438366
3.9199999999999946,-0.025116,0.285108,0.435081
3.93,-0.038908,0.28234,0.433062
3.9399999999999977,-0.061565,0.297527,0.429299
3.949999999999996,-0.07979,0.302824,0.427284
3.960000000000001,-0.10996,0.302624,0.426869
3.969999999999999,-0.117383,0.303485,0.408499
3.979999999999997,-0.109617,0.275594,0.404605
3.989999999999995,-0.124548,0.262912,0.390542
4.0,-0.117636,0.234155,0.396683
4.009999999999998,-0.108645,0.221652,0.400318
4.019999999999996,-0.105175,0.217262,0.381138
4.030000000000001,-0.063375,0.205837,0.368755
4.039999999999999,-0.052616,0.193278,0.36783
4.049999999999997,-0.057056,0.148218,0.358101
4.059999999999995,-0.053745,0.132031,0.346076
4.07,-0.053971,0.115813,0.347696
4.079999999999998,-0.062346,0.109541,0.339294
4.089999999999996,-0.074719,0.085275,0.322418
4.099999999999994,-0.052858,0.080082,0.319012
4.109999999999999,-0.017915,0.087494,0.326869
4.119999999999997,0.01762,0.089537,0.303613
4.129999999999996,0.076446,0.107941,0.306438
4.140000000000001,0.115746,0.110953,0.298788
4.149999999999999,0.152607,0.131979,0.294058
4.159999999999997,0.193027,0.135841,0.312003
4.169999999999995,0.204,0.147706,0.288539
4.18,0.231798,0.17765,0.276482
4.189999999999998,0.226231,0.175694,0.26722
4.199999999999996,0.222596,0.173719,0.272601
4.210000000000001,0.188071,0.187906,0.274154
4.219999999999999,0.180719,0.187947,0.272255
4.229999999999997,0.158732,0.200534,0.242905
4.239999999999995,0.14411,0.213134,0.219135
4.25,0.097983,0.2021,0.187353
4.259999999999998,0.101782,0.209294,0.191126
4.269999999999996,0.114577,0.211143,0.185808
4.280000000000001,0.103693,0.211009,0.200261
4.289999999999999,0.109878,0.185752,0.229274
4.299999999999997,0.08307,0.164829,0.239644
4.309999999999995,0.059178,0.143914,0.271081
4.32,0.040775,0.132967,0.278937
4.329999999999998,0.005582,0.100255,0.287195
4.339999999999996,-0.008997,0.087445,0.31971
4.349999999999994,-0.027404,0.073733,0.330246
4.359999999999999,-0.036536,0.061875,0.355526
4.369999999999997,-0.069571,0.038231,0.389519
4.379999999999996,-0.093666,0.015618,0.394402
4.390000000000001,-0.102609,0.016492,0.418049
4.399999999999999,-0.098979,0.012934,0.417124
4.409999999999997,-0.07535,0.007696,0.403638
4.419999999999995,-0.034791,0.029591,0.39893
4.43,0.009097,0.041585,0.37405
4.439999999999998,0.029719,0.026425,0.35406
4.449999999999996,0.052354,0.021211,0.337898
4.460000000000001,0.070603,0.020427,0.33542
4.469999999999999,0.079242,0.002512,0.305193
4.479999999999997,0.091763,-0.009075,0.291517
4.489999999999995,0.106258,-0.01436,0.28343
4.5,0.110985,-0.046745,0.247465
4.509999999999998,0.103198,-0.059379,0.207919
4.519999999999996,0.101274,-0.054837,0.184188
4.530000000000001,0.093181,-0.095388,0.163504
4.539999999999999,0.065906,-0.077542,0.148758
4.549999999999997,0.035203,-0.099339,0.122535
4.559999999999995,-0.029877,-0.110551,0.125209
4.57,-0.068448,-0.110751,0.102774
4.579999999999998,-0.136206,-0.112997,0.09269
4.589999999999996,-0.181924,-0.113299,0.088411
4.599999999999994,-0.203635,-0.099029,0.084639
4.609999999999999,-0.217128,-0.086497,0.08553
4.619999999999997,-0.191011,-0.057481,0.092625
4.629999999999996,-0.193374,-0.032237,0.089249
4.640000000000001,-0.17537,-0.002439,0.112677
4.649999999999999,-0.16057,0.007531,0.116638
4.659999999999997,-0.17215,0.027229,0.119428
4.669999999999995,-0.185207,0.010874,0.119034
4.68,-0.203119,0.026917,0.134517
4.689999999999998,-0.2101,0.043041,0.144657
4.699999999999996,-0.200459,0.066466,0.163328
4.710000000000001,-0.198423,0.077281,0.168966
4.719999999999999,-0.172297,0.09362,0.206056
4.729999999999997,-0.173303,0.084575,0.215075
4.739999999999995,-0.162805,0.100806,0.242809
4.75,-0.187469,0.090672,0.266108
4.759999999999998,-0.182575,0.106004,0.274561
4.769999999999996,-0.188753,0.105921,0.304605
4.780000000000001,-0.175748,0.111372,0.321275
4.789999999999999,-0.1823,0.098695,0.328329
4.799999999999997,-0.194583,0.065279,0.346966
4.809999999999995,-0.204588,0.057021,0.373229
4.82,-0.208491,0.028081,0.400229
4.829999999999998,-0.201241,0.004664,0.438401
4.839999999999996,-0.183719,-0.004205,0.475069
4.849999999999994,-0.142323,-0.007569,0.515752
4.859999999999999,-0.114972,-0.009138,0.507871
4.869999999999997,-0.065576,-0.014168,0.522172
4.879999999999996,-0.040303,-0.031927,0.515903
4.890000000000001,-0.020593,-0.05243,0.504059
4.899999999999999,0.039484,-0.069139,0.502821
4.909999999999997,0.052087,-0.076269,0.49558
4.919999999999995,0.045271,-0.100661,0.493367
4.93,0.05116,-0.130358,0.486682
4.939999999999998,0.043376,-0.159269,0.483476
4.950000000000003,0.0269,-0.163,0.486856
4.959999999999994,0.026856,-0.175645,0.503135
4.969999999999999,0.037204,-0.216989,0.501875
4.980000000000004,0.059046,-0.227671,0.5066
4.989999999999995,0.101154,-0.235553,0.529907
5.0,0.150314,-0.248763,0.532221
5.009999999999991,0.119755,-0.264225,0.517926
5.019999999999996,0.128259,-0.299265,0.51031
5.030000000000001,0.07724,-0.335625,0.49091
5.039999999999992,0.000641,-0.364944,0.456651
5.049999999999997,-0.076279,-0.42134,0.434843
5.060000000000002,-0.127995,-0.445107,0.411929
5.069999999999993,-0.17416,-0.461604,0.381877
5.079999999999998,-0.212935,-0.483507,0.372868
5.090000000000003,-0.232478,-0.49808,0.35324
5.099999999999994,-0.224203,-0.492722,0.346081
5.109999999999999,-0.205676,-0.471074,0.333794
5.1200000000000045,-0.189261,-0.479153,0.346693
5.129999999999996,-0.172558,-0.465536,0.352554
5.140000000000001,-0.137594,-0.450801,0.349566
5.149999999999992,-0.091372,-0.419795,0.351482
5.159999999999997,-0.040689,-0.387883,0.336996
5.170000000000002,0.013809,-0.34882,0.330869
5.179999999999993,0.034561,-0.309131,0.338925
5.189999999999998,0.051878,-0.25498,0.346218
5.200000000000003,0.064781,-0.245852,0.343776
5.209999999999994,0.095414,-0.221316,0.357272
5.219999999999999,0.101176,-0.200536,0.352125
5.230000000000004,0.107944,-0.174323,0.347064
5.239999999999995,0.099045,-0.160868,0.351685
5.25,0.095562,-0.146473,0.345421
5.259999999999991,0.065551,-0.126804,0.326993
5.269999999999996,0.021199,-0.103702,0.341301
5.280000000000001,-0.025453,-0.104021,0.337047
5.289999999999992,-0.033059,-0.060831,0.328346
5.299999999999997,-0.027255,-0.041003,0.330493
5.310000000000002,-0.047086,-0.017667,0.321392
5.319999999999993,-0.06035,0.007497,0.328833
5.329999999999998,-0.060069,0.025547,0.329045
5.340000000000003,-0.089173,0.038896,0.32333
5.349999999999994,-0.099149,0.057783,0.296014
5.359999999999999,-0.11899,0.077475,0.292329
5.3700000000000045,-0.150132,0.079105,0.280979
5.379999999999996,-0.157531,0.077303,0.271736
5.390000000000001,-0.14388,0.083751,0.248253
5.399999999999992,-0.137499,0.088337,0.235615
5.409999999999997,-0.126674,0.088442,0.214751
5.420000000000002,-0.137758,0.0848,0.206341
5.429999999999993,-0.130441,0.090276,0.19372
5.439999999999998,-0.110542,0.081381,0.18292
5.450000000000003,-0.096091,0.066112,0.192071
5.459999999999994,-0.094368,0.063433,0.184763
5.469999999999999,-0.085482,0.040052,0.199228
5.480000000000004,-0.089201,0.023759,0.224564
5.489999999999995,-0.085791,0.01391,0.209873
5.5,-0.082897,0.011209,0.234539
5.509999999999991,-0.048945,0.007783,0.25594
5.519999999999996,-0.014337,-0.003696,0.25992
5.530000000000001,0.022237,-0.007979,0.267657
5.539999999999992,0.05161,-0.004171,0.273582
5.549999999999997,0.084751,0.00507,0.285101
5.560000000000002,0.121188,-0.005488,0.290941
5.569999999999993,0.118484,-7.5e-05,0.28732
5.579999999999998,0.100733,-0.019971,0.279556
5.590000000000003,0.098669,-0.028957,0.26664
5.599999999999994,0.06748,-0.035458,0.266146
5.609999999999999,0.055729,-0.027398,0.266092
5.6200000000000045,0.053022,-0.025602,0.266072
5.629999999999996,0.038299,-0.034734,0.271239
5.640000000000001,0.042053,-0.032925,0.278605
5.649999999999992,0.038409,-0.027521,0.267655
5.659999999999997,0.03794,-0.005911,0.28252
5.670000000000002,0.036944,-0.009495,0.278812
5.679999999999993,0.046478,0.008574,0.29376
5.689999999999998,0.050366,0.021233,0.297611
5.700000000000003,0.052434,0.037484,0.295996
5.709999999999994,0.08366,0.049387,0.289229
5.719999999999999,0.100396,0.051191,0.324167
5.730000000000004,0.089421,0.061,0.304015
5.739999999999995,0.076831,0.062629,0.331262
5.75,0.063935,0.048034,0.350987
5.759999999999991,0.051104,0.028019,0.390749
5.769999999999996,0.03616,-0.001001,0.408465
5.780000000000001,0.030737,-0.009267,0.43385
5.789999999999992,0.037968,-0.039089,0.486557
5.799999999999997,0.043225,-0.062546,0.506435
5.810000000000002,0.010095,-0.088021,0.532172
5.819999999999993,-0.006378,-0.099844,0.556479
5.829999999999998,-0.008272,-0.106135,0.560028
5.840000000000003,-0.022855,-0.102585,0.558054
5.849999999999994,-0.010112,-0.106066,0.556363
5.859999999999999,-0.010157,-0.109672,0.558148
5.8700000000000045,0.001039,-0.086165,0.537565
5.879999999999996,0.030229,-0.088704,0.532435
5.890000000000001,0.061882,-0.047085,0.521465
5.899999999999992,0.101269,-0.036973,0.512966
5.909999999999997,0.104261,-0.011754,0.496872
5.920000000000002,0.124379,-0.002629,0.478989
5.929999999999993,0.117358,0.018927,0.476417
5.939999999999998,0.099057,0.020595,0.474389
5.950000000000003,0.088122,0.026816,0.467025
5.959999999999994,0.077347,0.047464,0.449783
5.969999999999999,0.039198,0.057973,0.462194
5.980000000000004,0.037805,0.083202,0.467969
5.989999999999995,0.021574,0.099375,0.463392
6.0,-0.001961,0.117296,0.456903
6.009999999999991,-0.032969,0.123434,0.454746
6.019999999999996,-0.047642,0.124292,0.445439
6.030000000000001,-0.065643,0.153098,0.421809
6.039999999999992,-0.074808,0.151324,0.421692
6.049999999999997,-0.093052,0.165722,0.396052
6.060000000000002,-0.082225,0.16587,0.375198
6.069999999999993,-0.082103,0.191192,0.336233
6.079999999999998,-0.09118,0.198366,0.328907
6.090000000000003,-0.076763,0.2021,0.292605
6.099999999999994,-0.097649,0.214569,0.288836
6.109999999999999,-0.11884,0.210817,0.276649
6.1200000000000045,-0.160884,0.224087,0.251603
6.129999999999996,-0.19761,0.210334,0.259176
6.140000000000001,-0.233193,0.220092,0.248781
6.149999999999992,-0.241544,0.217405,0.237675
6.159999999999997,-0.265731,0.199289,0.220688
6.170000000000002,-0.297282,0.182914,0.191758
6.179999999999993,-0.289992,0.190176,0.171832
6.189999999999998,-0.319563,0.170157,0.170278
6.200000000000003,-0.334326,0.164694,0.160884
6.209999999999994,-0.339873,0.166521,0.146215
6.219999999999999,-0.341293,0.189972,0.150124
6.230000000000004,-0.33204,0.197255,0.1485
6.239999999999995,-0.312075,0.191974,0.138638
6.25,-0.282654,0.200218,0.14276
6.259999999999991,-0.27001,0.19399,0.134611
6.269999999999996,-0.239002,0.190609,0.131315
6.280000000000001,-0.231025,0.179906,0.118503
6.289999999999992,-0.207813,0.199885,0.124529
6.299999999999997,-0.17363,0.170393,0.111843
6.310000000000002,-0.17786,0.149685,0.080485
6.319999999999993,-0.179982,0.126196,0.092969
6.329999999999998,-0.197026,0.09817,0.072316
6.340000000000003,-0.192001,0.071195,0.064757
6.349999999999994,-0.172076,0.066871,0.045786
6.359999999999999,-0.163238,0.0426,0.05476
6.3700000000000045,-0.158065,0.021925,0.055507
6.379999999999996,-0.120827,0.004147,0.059446
6.390000000000001,-0.094266,0.007918,0.058926
6.399999999999992,-0.094679,-0.012802,0.047713
6.409999999999997,-0.08733,-0.012791,0.052374
6.420000000000002,-0.067684,-0.041531,0.047713
6.429999999999993,-0.067969,-0.057782,0.042942
6.439999999999998,-0.096106,-0.096716,0.029322
6.450000000000003,-0.103398,-0.100421,0.039239
6.459999999999994,-0.097802,-0.093177,0.036657
6.469999999999999,-0.106988,-0.102249,0.049207
6.480000000000004,-0.085217,-0.11473,0.052078
6.489999999999995,-0.088972,-0.125623,0.061935
6.5,-0.097909,-0.125773,0.090117
6.509999999999991,-0.103279,-0.125875,0.105556
6.519999999999996,-0.108775,-0.128615,0.109096
6.530000000000001,-0.093144,-0.131231,0.125711
6.539999999999992,-0.084945,-0.131161,0.120351
6.549999999999997,-0.058833,-0.103977,0.131984
6.560000000000002,-0.042593,-0.112875,0.122961
6.569999999999993,-0.02606,-0.107382,0.12507
6.579999999999998,-0.041799,-0.118322,0.122888
6.590000000000003,-0.046289,-0.116609,0.130145
6.599999999999994,-0.037244,-0.121958,0.126538
6.609999999999999,-0.046887,-0.152617,0.122387
6.6200000000000045,-0.046787,-0.147187,0.124285
6.629999999999996,-0.045162,-0.157935,0.118718
6.640000000000001,-0.033016,-0.141625,0.119997
6.649999999999992,-0.046851,-0.145297,0.113387
6.659999999999997,-0.052013,-0.12912,0.122657
6.670000000000002,-0.059243,-0.136378,0.148044
6.679999999999993,-0.049996,-0.125441,0.137334
6.689999999999998,-0.025633,-0.092852,0.148999
6.700000000000003,0.002708,-0.090852,0.143901
6.709999999999994,0.025557,-0.096113,0.155093
6.719999999999999,0.044027,-0.08885,0.164545
6.730000000000004,0.047719,-0.088905,0.169162
6.739999999999995,0.073371,-0.096029,0.190433
6.75,0.095431,-0.095862,0.207192
6.759999999999991,0.106384,-0.095731,0.207372
6.769999999999996,0.11729,-0.104638,0.220235
6.780000000000001,0.102819,-0.093898,0.220176
6.789999999999992,0.096794,-0.120936,0.203316
6.799999999999997,0.079522,-0.113859,0.200414
6.810000000000002,0.087485,-0.124631,0.186678
6.819999999999993,0.076265,-0.135497,0.175433
6.829999999999998,0.076239,-0.128259,0.156333
6.840000000000003,0.061624,-0.128383,0.157044
6.849999999999994,0.050534,-0.130219,0.142251
6.859999999999999,0.046974,-0.123015,0.138641
6.8700000000000045,0.058019,-0.11751,0.138866
6.879999999999996,0.048466,-0.130125,0.111192
6.890000000000001,0.050303,-0.124677,0.100314
6.899999999999992,0.031827,-0.122927,0.069018
6.909999999999997,0.045487,-0.119192,0.052783
6.920000000000002,0.0574,-0.112785,0.043874
6.929999999999993,0.082729,-0.132452,0.049446
6.939999999999998,0.086391,-0.126066,0.036786
6.950000000000003,0.08278,-0.122446,0.034957
6.959999999999994,0.084675,-0.111572,0.021406
6.969999999999999,0.089919,-0.125946,0.019471
6.980000000000004,0.093359,-0.129439,-0.001517
6.989999999999995,0.115132,-0.130985,-0.021335
7.0,0.133094,-0.145191,-0.035881
7.009999999999991,0.167645,-0.135816,-0.082799
7.019999999999996,0.208421,-0.149903,-0.104347
7.030000000000001,0.218167,-0.147955,-0.151691
7.039999999999992,0.240496,-0.162159,-0.194496
7.049999999999997,0.258367,-0.171007,-0.231813
7.060000000000002,0.271385,-0.20155,-0.261237
7.069999999999993,0.291229,-0.201356,-0.29932
7.079999999999998,0.298093,-0.219297,-0.322262
7.090000000000003,0.303277,-0.232804,-0.332389
7.099999999999994,0.261496,-0.254664,-0.371552
7.109999999999999,0.242152,-0.26111,-0.377356
7.1200000000000045,0.230789,-0.281009,-0.389617
7.129999999999996,0.215329,-0.266682,-0.410673
7.140000000000001,0.215944,-0.282916,-0.418186
7.149999999999992,0.201216,-0.279375,-0.440257
7.159999999999997,0.179247,-0.275911,-0.45238
7.170000000000002,0.168279,-0.266953,-0.471608
7.179999999999993,0.148088,-0.270702,-0.473749
7.189999999999998,0.128095,-0.262742,-0.473914
7.200000000000003,0.101141,-0.235018,-0.466622
7.209999999999994,0.064266,-0.251494,-0.472776
7.219999999999999,0.026231,-0.233823,-0.46209
7.230000000000004,-0.006224,-0.21066,-0.450395
7.239999999999995,-0.042502,-0.194677,-0.446144
7.25,-0.056693,-0.173161,-0.433318
7.259999999999991,-0.061949,-0.151541,-0.447746
7.269999999999996,-0.083377,-0.126479,-0.429474
7.280000000000001,-0.088485,-0.105758,-0.421983
7.289999999999992,-0.077299,-0.088531,-0.428953
7.299999999999997,-0.093574,-0.074209,-0.434483
7.310000000000002,-0.091305,-0.047187,-0.434135
7.319999999999993,-0.091024,-0.031022,-0.433964
7.329999999999998,-0.064659,0.015064,-0.429437
7.340000000000003,-0.057017,0.039458,-0.436362
7.349999999999994,-0.043581,0.079179,-0.432971
7.359999999999999,-0.032264,0.10089,-0.4298
7.370000000000003,-0.059418,0.118791,-0.428092
7.3799999999999955,-0.06637,0.1377,-0.416988
7.390000000000001,-0.095519,0.153812,-0.437284
7.399999999999991,-0.084277,0.17648,-0.451476
7.409999999999997,-0.0624,0.179359,-0.469421
7.420000000000002,-0.038975,0.212845,-0.463218
7.429999999999993,-0.018891,0.218467,-0.479291
7.439999999999998,0.022469,0.238629,-0.491258
7.450000000000003,0.017056,0.253086,-0.507573
7.459999999999994,0.011122,0.235105,-0.526107
7.469999999999999,-0.03222,0.215009,-0.53329
7.480000000000004,-0.077011,0.216499,-0.536592
7.489999999999995,-0.11176,0.218069,-0.542514
7.5,-0.161431,0.205171,-0.556122
7.509999999999991,-0.175311,0.199716,-0.567318
7.519999999999996,-0.173932,0.18175,-0.591266
7.530000000000001,-0.160243,0.18005,-0.592913
7.539999999999992,-0.144814,0.175608,-0.600979
7.549999999999997,-0.111022,0.171225,-0.596951
7.560000000000002,-0.127772,0.160253,-0.611938
7.569999999999993,-0.131698,0.140374,-0.602189
7.579999999999998,-0.181272,0.130139,-0.604794
7.590000000000003,-0.203276,0.129124,-0.612401
7.599999999999994,-0.23441,0.12533,-0.611958
7.609999999999999,-0.24116,0.113657,-0.635038
7.620000000000003,-0.223921,0.112938,-0.651285
7.6299999999999955,-0.213115,0.113954,-0.6749
7.640000000000001,-0.180539,0.106095,-0.703801
7.649999999999991,-0.169868,0.102522,-0.737506
7.659999999999997,-0.168321,0.087091,-0.744068
7.670000000000002,-0.194331,0.064268,-0.752029
7.679999999999993,-0.238469,0.062177,-0.783727
7.689999999999998,-0.275307,0.052967,-0.804449
7.700000000000003,-0.298924,0.069098,-0.821029
7.709999999999994,-0.320902,0.092442,-0.877698
7.719999999999999,-0.313608,0.097831,-0.894013
7.730000000000004,-0.30616,0.1204,-0.928367
7.739999999999995,-0.267433,0.144059,-0.93855
7.75,-0.239907,0.166821,-0.974459
7.759999999999991,-0.230612,0.192137,-1.006934
7.769999999999996,-0.224947,0.208379,-1.017642
7.780000000000001,-0.242208,0.22636,-1.041395
7.789999999999992,-0.239395,0.249922,-1.083077
7.799999999999997,-0.215452,0.269949,-1.10261
7.810000000000002,-0.218973,0.28437,-1.112519
7.819999999999993,-0.229734,0.307796,-1.130632
7.829999999999998,-0.219801,0.30795,-1.147837
7.840000000000003,-0.219672,0.316976,-1.151367
7.849999999999994,-0.206208,0.308082,-1.169552
7.859999999999999,-0.183401,0.299246,-1.156552
7.870000000000003,-0.152561,0.286932,-1.161744
7.8799999999999955,-0.135305,0.27986,-1.161579
7.890000000000001,-0.104673,0.243989,-1.145157
7.899999999999991,-0.090369,0.22431,-1.143357
7.909999999999997,-0.069346,0.158681,-1.129255
7.920000000000002,-0.033193,0.112925,-1.090986
7.929999999999993,0.004455,0.057279,-1.074746
7.939999999999998,0.047635,-0.014644,-1.016619
7.950000000000003,0.087288,-0.079412,-0.959363
7.959999999999994,0.151691,-0.131292,-0.923527
7.969999999999999,0.198851,-0.182425,-0.870559
7.980000000000004,0.236257,-0.212001,-0.821091
7.989999999999995,0.245309,-0.237207,-0.7829
8.0,0.283394,-0.265798,-0.766298
8.009999999999991,0.301286,-0.294501,-0.759112
8.019999999999996,0.347117,-0.306913,-0.718486
8.030000000000001,0.385727,-0.30401,-0.697858
8.039999999999992,0.428472,-0.329972,-0.675657
8.049999999999997,0.471915,-0.311773,-0.652898
8.060000000000002,0.485684,-0.306304,-0.658094
8.069999999999993,0.479513,-0.292004,-0.653411
8.079999999999998,0.444499,-0.299436,-0.6713
8.090000000000003,0.413502,-0.292364,-0.673438
8.099999999999994,0.368426,-0.297973,-0.699682
8.11,0.363062,-0.289916,-0.699657
8.120000000000005,0.332871,-0.282936,-0.71639
8.129999999999995,0.323981,-0.272256,-0.707236
8.14,0.320561,-0.255199,-0.714399
8.149999999999991,0.304444,-0.230135,-0.721634
8.159999999999997,0.2585,-0.181827,-0.728938
8.170000000000002,0.199177,-0.165098,-0.747793
8.179999999999993,0.124493,-0.152046,-0.735893
8.189999999999998,0.079439,-0.102761,-0.748724
8.200000000000003,0.023313,-0.069811,-0.738156
8.209999999999994,-0.036692,-0.037691,-0.758641
8.219999999999999,-0.059684,0.010856,-0.75654
8.230000000000004,-0.089379,0.048575,-0.770186
8.239999999999995,-0.128358,0.073629,-0.775019
8.25,-0.142738,0.106068,-0.805883
8.259999999999991,-0.131661,0.131372,-0.839236
8.269999999999996,-0.135626,0.122352,-0.85856
8.280000000000001,-0.122556,0.14589,-0.872723
8.289999999999992,-0.124514,0.149505,-0.898288
8.299999999999997,-0.122783,0.154943,-0.920118
8.310000000000002,-0.110825,0.165845,-0.932604
8.319999999999993,-0.08257,0.160628,-0.934128
8.329999999999998,-0.037546,0.172646,-0.929743
8.340000000000003,-0.015559,0.17366,-0.925813
8.349999999999994,0.002379,0.159354,-0.939456
8.36,-0.029874,0.153774,-0.957305
8.370000000000005,-0.066771,0.139034,-0.968972
8.379999999999995,-0.107673,0.106281,-0.989117
8.39,-0.120405,0.060309,-1.005362
8.399999999999991,-0.153146,0.016878,-1.014549
8.409999999999997,-0.161367,0.01414,-1.010154
8.420000000000002,-0.160696,0.007055,-1.028511
8.429999999999993,-0.153875,-0.014377,-1.049682
8.439999999999998,-0.135641,-0.00422,-1.079461
8.450000000000003,-0.093898,-0.006485,-1.117286
8.459999999999994,-0.063965,-0.004298,-1.149721
8.469999999999999,-0.041178,-0.043664,-1.191879
8.480000000000004,-0.033653,-0.074234,-1.214039
8.489999999999995,-0.026923,-0.104843,-1.22893
8.5,0.011068,-0.117217,-1.263317
8.509999999999991,0.03797,-0.144131,-1.278833
8.519999999999996,0.064963,-0.170986,-1.281517
8.530000000000001,0.08503,-0.181689,-1.263112
8.539999999999992,0.102348,-0.197929,-1.233818
8.549999999999997,0.097414,-0.221449,-1.232351
8.560000000000002,0.079252,-0.234269,-1.185211
8.569999999999993,0.044256,-0.256126,-1.171261
8.579999999999998,0.007157,-0.287038,-1.175803
8.590000000000003,-0.009961,-0.330396,-1.172935
8.599999999999994,-0.037821,-0.358525,-1.170905
8.61,-0.077796,-0.39942,-1.174637
8.620000000000005,-0.09566,-0.422973,-1.194313
8.629999999999995,-0.112159,-0.422976,-1.204528
8.64,-0.066632,-0.431505,-1.218606
8.649999999999991,-0.022749,-0.436472,-1.212604
8.659999999999997,-0.003191,-0.413701,-1.21572
8.670000000000002,0.003696,-0.382027,-1.220711
8.679999999999993,0.005946,-0.342292,-1.251254
8.689999999999998,-0.061341,-0.315757,-1.268062
8.700000000000003,-0.130388,-0.284663,-1.27417
8.709999999999994,-0.146469,-0.249619,-1.297863
8.719999999999999,-0.069894,-0.256271,-1.307954
8.730000000000004,0.006993,-0.25027,-1.299449
8.739999999999995,0.034285,-0.261814,-1.294605
8.75,0.036601,-0.246431,-1.265172
8.759999999999991,0.058738,-0.249934,-1.240199
8.769999999999996,0.102683,-0.253131,-1.22774
8.780000000000001,0.121313,-0.235028,-1.220912
8.789999999999992,0.139647,-0.235071,-1.207873
8.799999999999997,0.155972,-0.249497,-1.184021
8.810000000000002,0.14125,-0.272262,-1.137909
8.819999999999993,0.12312,-0.294371,-1.073561
8.829999999999998,0.103272,-0.31642,-0.993749
8.840000000000003,0.07457,-0.316045,-0.922904
8.849999999999994,0.018156,-0.331023,-0.856221
8.86,0.016784,-0.334781,-0.779486
8.870000000000005,0.017813,-0.305981,-0.69868
8.879999999999995,0.044091,-0.293242,-0.636979
8.89,0.08361,-0.248007,-0.581176
8.899999999999991,0.116108,-0.23526,-0.541344
8.909999999999997,0.147226,-0.18831,-0.513928
8.920000000000002,0.104091,-0.155299,-0.478508
8.929999999999993,0.062635,-0.124049,-0.458608
8.939999999999998,-0.004007,-0.065976,-0.438716
8.950000000000003,-0.060302,-0.036606,-0.444591
8.959999999999994,-0.105477,-0.002639,-0.443854
8.969999999999999,-0.157669,0.039338,-0.424924
8.980000000000004,-0.219407,0.072321,-0.445505
8.989999999999995,-0.231606,0.113751,-0.459806
9.0,-0.227227,0.164294,-0.472841
9.009999999999993,-0.201137,0.200563,-0.483925
9.019999999999996,-0.171774,0.26201,-0.475495
9.03,-0.174095,0.294431,-0.486106
9.039999999999992,-0.163225,0.340441,-0.470773
9.049999999999995,-0.170724,0.393646,-0.482075
9.060000000000002,-0.158369,0.431721,-0.495122
9.069999999999991,-0.168652,0.482261,-0.503758
9.079999999999998,-0.165761,0.500412,-0.521746
9.090000000000003,-0.175408,0.534618,-0.543405
9.099999999999994,-0.167604,0.563485,-0.542976
9.11,-0.12474,0.561982,-0.558888
9.120000000000005,-0.106158,0.574644,-0.5439
9.129999999999995,-0.091447,0.574699,-0.530001
9.14,-0.059071,0.546163,-0.536279
9.149999999999991,-0.054739,0.52904,-0.530945
9.159999999999997,-0.072455,0.497366,-0.511467
9.170000000000002,-0.0913,0.463952,-0.517598
9.179999999999993,-0.102746,0.439625,-0.528979
9.189999999999998,-0.111657,0.390933,-0.51504
9.200000000000005,-0.112414,0.347723,-0.522846
9.209999999999994,-0.117858,0.288214,-0.512674
9.22,-0.120246,0.2458,-0.500441
9.230000000000004,-0.139434,0.18528,-0.499595
9.239999999999997,-0.122073,0.11683,-0.483762
9.25,-0.124746,0.056362,-0.474505
9.259999999999993,-0.142041,-0.01144,-0.449071
9.269999999999996,-0.14046,-0.042093,-0.420169
9.28,-0.154459,-0.078201,-0.384227
9.289999999999992,-0.171933,-0.085421,-0.384524
9.299999999999995,-0.148062,-0.081592,-0.380499
9.310000000000002,-0.14784,-0.081599,-0.351262
9.319999999999991,-0.179204,-0.099869,-0.351923
9.329999999999998,-0.168253,-0.107049,-0.340911
9.340000000000003,-0.183634,-0.094493,-0.346441
9.349999999999994,-0.166048,-0.087131,-0.333319
9.36,-0.156843,-0.081641,-0.336777
9.370000000000005,-0.141918,-0.068978,-0.321817
9.379999999999995,-0.1362,-0.052735,-0.322482
9.39,-0.130518,-0.036456,-0.328628
9.399999999999991,-0.119968,-0.065205,-0.32519
9.409999999999997,-0.116553,-0.077828,-0.334453
9.420000000000002,-0.110371,-0.092258,-0.337304
9.429999999999993,-0.073868,-0.09746,-0.337784
9.439999999999998,-0.029384,-0.109747,-0.353785
9.450000000000005,0.008084,-0.118569,-0.335138
9.459999999999994,0.016043,-0.131156,-0.343423
9.47,0.025888,-0.14377,-0.344378
9.480000000000004,0.034492,-0.177116,-0.347416
9.489999999999997,0.021494,-0.188956,-0.350499
9.5,0.007507,-0.205266,-0.354551
9.509999999999993,-0.014419,-0.209019,-0.345751
9.519999999999996,-0.010242,-0.176515,-0.3453
9.53,-0.004492,-0.167516,-0.330495
9.539999999999992,-0.000461,-0.145938,-0.328359
9.549999999999995,0.04042,-0.116978,-0.303719
9.560000000000002,0.082892,-0.087906,-0.310124
9.569999999999991,0.112102,-0.094098,-0.304349
9.579999999999998,0.142713,-0.062376,-0.312691
9.590000000000003,0.175802,-0.047742,-0.3157
9.599999999999994,0.178761,-0.033346,-0.2999
9.61,0.176377,-0.022562,-0.271493
9.620000000000005,0.159216,-0.010936,-0.264273
9.629999999999995,0.130182,0.000598,-0.255377
9.64,0.140645,-0.028106,-0.261043
9.649999999999991,0.115065,-0.030082,-0.253174
9.659999999999997,0.098182,-0.051797,-0.267356
9.670000000000002,0.090447,-0.072552,-0.283225
9.679999999999993,0.108817,-0.064347,-0.291092
9.689999999999998,0.127163,-0.069728,-0.268981
9.700000000000005,0.123639,-0.064575,-0.239717
9.709999999999994,0.03828,-0.090613,-0.20917
9.72,-0.039293,-0.116413,-0.140137
9.730000000000004,-0.041269,-0.157766,-0.094984
9.739999999999997,-0.00274,-0.174554,-0.060009
9.75,0.029615,-0.162656,-0.046713
9.759999999999993,0.076462,-0.156115,-0.035117
9.769999999999996,0.129625,-0.156633,-0.021712
9.78,0.171945,-0.14552,-0.008265
9.789999999999992,0.198567,-0.132775,-0.011404
9.799999999999995,0.207178,-0.112031,0.005429
9.810000000000002,0.181658,-0.111326,0.021555
9.819999999999991,0.159637,-0.112349,0.015782
9.829999999999998,0.137665,-0.118826,0.02638
9.840000000000003,0.128512,-0.129742,0.051715
9.849999999999994,0.109959,-0.15157,0.065831
9.86,0.056352,-0.196205,0.086521
9.870000000000005,0.012343,-0.219118,0.120392
9.879999999999995,-0.01678,-0.233749,0.165535
9.89,-0.013112,-0.250798,0.194632
9.899999999999991,0.025342,-0.262227,0.218751
9.909999999999997,0.053462,-0.285451,0.231601
9.920000000000002,0.092437,-0.308695,0.231799
9.929999999999993,0.087397,-0.336815,0.235915
9.939999999999998,0.021872,-0.372514,0.239181
9.950000000000005,-0.017051,-0.399763,0.225601
9.959999999999994,-0.0569,-0.432326,0.223821
9.97,-0.089348,-0.463118,0.229448
9.980000000000004,-0.106002,-0.484873,0.249079
9.989999999999997,-0.121193,-0.521007,0.250275
10.0,-0.150373,-0.513981,0.245395
10.009999999999993,-0.163333,-0.525784,0.244165
10.019999999999996,-0.176217,-0.535869,0.247503
10.03,-0.148945,-0.551127,0.251301
10.039999999999992,-0.13787,-0.544825,0.24783
10.049999999999995,-0.144946,-0.523244,0.23704
10.060000000000002,-0.159627,-0.522442,0.233223
10.069999999999991,-0.164035,-0.504375,0.222449
10.079999999999998,-0.151823,-0.482636,0.221047
10.090000000000003,-0.151193,-0.440282,0.214224
10.099999999999994,-0.187333,-0.418922,0.224927
10.11,-0.188673,-0.381029,0.208905
10.120000000000005,-0.21557,-0.347858,0.208939
10.129999999999995,-0.193117,-0.312622,0.200514
10.14,-0.17438,-0.290986,0.213798
10.149999999999991,-0.155379,-0.248617,0.22186
10.159999999999997,-0.178557,-0.20647,0.212924
10.170000000000002,-0.189284,-0.177694,0.18754
10.179999999999993,-0.214424,-0.130872,0.156704
10.189999999999998,-0.175648,-0.107116,0.15933
10.200000000000005,-0.195446,-0.088317,0.162026
10.209999999999994,-0.17204,-0.062089,0.177249
10.22,-0.162576,-0.051293,0.191164
10.230000000000004,-0.138748,-0.04937,0.187804
10.239999999999997,-0.131997,-0.01685,0.162709
10.25,-0.124074,0.026465,0.154205
10.259999999999993,-0.129277,0.049868,0.145303
10.269999999999996,-0.135991,0.093969,0.135702
10.28,-0.115471,0.131061,0.113571
10.289999999999992,-0.104043,0.165403,0.103161
10.299999999999995,-0.070604,0.196255,0.108547
10.310000000000002,-0.015079,0.241728,0.103425
10.319999999999991,0.020318,0.272631,0.128032
10.329999999999998,0.052065,0.312492,0.13349
10.340000000000003,0.051232,0.366511,0.156947
10.349999999999994,0.050971,0.412479,0.148357
10.36,0.054243,0.444005,0.152439
10.370000000000005,0.047494,0.476326,0.160047
10.379999999999995,0.055003,0.490766,0.154833
10.39,0.048328,0.526756,0.165223
10.399999999999991,0.061491,0.544871,0.177497
10.409999999999997,0.083457,0.545045,0.183279
10.420000000000002,0.076559,0.563015,0.205342
10.429999999999993,0.090802,0.537913,0.208888
10.439999999999998,0.101718,0.519969,0.240787
10.450000000000005,0.10345,0.510099,0.248906
10.459999999999994,0.135944,0.473415,0.27176
10.47,0.153776,0.448383,0.266247
10.480000000000004,0.198653,0.405498,0.249016
10.489999999999997,0.214383,0.36614,0.236052
10.5,0.2083,0.332001,0.228253
10.509999999999993,0.163132,0.312836,0.218253
10.519999999999996,0.170408,0.265168,0.188532
10.53,0.153222,0.222765,0.180519
10.539999999999992,0.143482,0.201231,0.146365
10.549999999999995,0.127963,0.155322,0.126455
10.560000000000002,0.130965,0.126611,0.100605
10.569999999999991,0.113558,0.083305,0.061498
10.579999999999998,0.12101,0.052757,0.015539
10.590000000000003,0.097438,0.027436,-0.032578
10.599999999999994,0.080264,0.007566,-0.090583
10.61,0.049488,-0.008751,-0.13776
10.620000000000005,0.042548,-0.008562,-0.209972
10.629999999999995,0.025434,-0.026541,-0.25882
10.64,0.019305,-0.046286,-0.304796
10.649999999999991,0.002256,-0.073413,-0.330933
10.659999999999997,-0.019993,-0.077118,-0.367823
10.670000000000002,-0.047995,-0.102509,-0.395009
10.679999999999993,-0.057401,-0.109754,-0.417151
10.689999999999998,-0.056559,-0.106131,-0.432611
10.700000000000005,-0.065285,-0.125972,-0.457606
10.709999999999994,-0.080185,-0.144089,-0.455267
10.72,-0.080272,-0.14952,-0.455339
10.730000000000004,-0.086655,-0.158649,-0.435461
10.739999999999997,-0.060283,-0.167553,-0.437103
10.75,-0.036707,-0.171895,-0.455124
10.759999999999993,-0.008989,-0.152816,-0.457253
10.769999999999996,0.006035,-0.136576,-0.437654
10.78,0.029806,-0.13648,-0.437342
10.789999999999992,0.062935,-0.123677,-0.434927
10.799999999999995,0.112536,-0.12165,-0.406843
10.810000000000002,0.101323,-0.103588,-0.349858
10.819999999999991,0.162523,-0.085411,-0.269513
10.829999999999998,0.241303,-0.043682,-0.223364
10.840000000000003,0.293703,-0.030805,-0.215284
10.849999999999994,0.317179,0.004524,-0.20541
10.86,0.323363,0.046865,-0.197493
10.870000000000005,0.31648,0.079312,-0.20995
10.879999999999995,0.28595,0.120516,-0.220809
10.89,0.250034,0.154464,-0.202573
10.899999999999991,0.221119,0.174063,-0.195404
10.909999999999997,0.173695,0.180974,-0.194134
10.920000000000002,0.161433,0.207961,-0.175705
10.929999999999993,0.144982,0.205216,-0.166854
10.939999999999998,0.160792,0.222478,-0.164586
10.950000000000005,0.147404,0.240403,-0.155376
10.959999999999994,0.155426,0.240515,-0.180803
10.97,0.132591,0.242173,-0.177399
10.980000000000004,0.110388,0.233984,-0.196037
10.989999999999997,0.080961,0.231156,-0.21473
11.0,0.067997,0.234741,-0.246843
11.009999999999993,0.044972,0.230127,-0.261824
11.019999999999996,0.031341,0.245419,-0.283733
11.03,0.020222,0.243629,-0.300315
11.039999999999992,0.01647,0.25091,-0.32856
11.049999999999995,0.023843,0.261845,-0.341096
11.060000000000002,0.035908,0.270931,-0.333533
11.069999999999991,0.042099,0.258347,-0.333615
11.079999999999998,0.055831,0.255714,-0.326157
11.090000000000003,0.042302,0.265507,-0.32441
11.099999999999994,0.021674,0.234753,-0.331454
11.11,0.012561,0.22567,-0.308853
11.120000000000005,-0.003568,0.236368,-0.288848
11.129999999999995,0.000104,0.230986,-0.276984
11.14,-0.018336,0.215527,-0.263701
11.149999999999991,-0.002937,0.194863,-0.23633
11.159999999999997,0.014526,0.18772,-0.206944
11.170000000000002,0.007309,0.185795,-0.189707
11.179999999999993,0.023407,0.146202,-0.154349
11.189999999999998,0.023378,0.124494,-0.112611
11.200000000000005,0.003908,0.104549,-0.107627
11.209999999999994,0.001206,0.091881,-0.074018
11.22,-0.008308,0.062989,-0.0617
11.230000000000004,-0.035818,0.052887,-0.050315
11.239999999999997,-0.041512,0.030309,-0.03057
11.25,-0.0362,0.021358,-0.036089
11.259999999999993,-0.031954,-0.002041,-0.028992
11.269999999999996,-0.036764,-0.01286,-0.036479
11.28,-0.036601,-0.016515,-0.005469
11.289999999999992,-0.046245,-0.045395,-0.014181
11.299999999999995,-0.060858,-0.043674,-0.017121
11.310000000000002,-0.068399,-0.056294,-0.021021
11.319999999999991,-0.059159,-0.048994,-0.020789
11.329999999999998,-0.072325,-0.069774,-0.024844
11.340000000000003,-0.076059,-0.072497,-0.029489
11.349999999999994,-0.070235,-0.045409,-0.040972
11.36,-0.06849,-0.047198,-0.049215
11.370000000000005,-0.068634,-0.05077,-0.061146
11.379999999999995,-0.074349,-0.050745,-0.094122
11.39,-0.059822,-0.056033,-0.098567
11.399999999999991,-0.057076,-0.052389,-0.106704
11.409999999999997,-0.041273,-0.036067,-0.107207
11.420000000000002,-0.030426,-0.034179,-0.128034
11.429999999999993,-0.043476,-0.040574,-0.149302
11.439999999999998,-0.034985,-0.019788,-0.158086
11.450000000000005,-0.021398,-0.021463,-0.170713
11.459999999999994,-0.017902,-0.032229,-0.16804
11.47,-0.027779,-0.019679,-0.170764
11.480000000000004,-0.019496,-0.015138,-0.175188
11.489999999999997,-0.009706,-0.032204,-0.177097
11.5,-0.00673,-0.021406,-0.167797
11.509999999999993,0.018773,-0.023039,-0.176615
11.519999999999996,0.019528,-0.030242,-0.182175
11.53,0.015982,-0.021266,-0.185776
11.539999999999992,0.016869,-0.023078,-0.185794
11.549999999999995,0.027472,-0.046472,-0.187773
11.560000000000002,0.01099,-0.048422,-0.188016
11.569999999999991,0.029219,-0.059205,-0.173304
11.579999999999998,0.028084,-0.07366,-0.173502
11.590000000000003,0.014435,-0.071977,-0.168183
11.599999999999994,0.023497,-0.080054,-0.162683
11.61,0.026808,-0.105285,-0.15563
11.620000000000005,0.037056,-0.091717,-0.157162
11.629999999999995,0.041508,-0.102515,-0.149007
11.64,0.043407,-0.100716,-0.141656
11.649999999999991,0.038004,-0.095359,-0.140754
11.659999999999997,0.039674,-0.109796,-0.131776
11.670000000000002,0.031068,-0.090075,-0.100601
11.679999999999993,0.012886,-0.086593,-0.095323
11.689999999999998,0.011153,-0.077579,-0.102535
11.700000000000005,0.013261,-0.066781,-0.087749
11.709999999999994,0.016354,-0.05779,-0.058354
11.72,0.039418,-0.045016,-0.057885
11.730000000000004,0.039649,-0.036029,-0.046815
11.739999999999997,0.036131,-0.037003,-0.026789
11.75,0.031611,-0.036139,-0.02135
11.759999999999993,0.032641,-0.032545,-0.012153
11.769999999999996,0.035275,-0.033396,-0.024898
11.78,0.039246,-0.021678,-0.006431
11.789999999999992,0.02219,-0.009197,0.009932
11.799999999999995,0.020038,-0.027198,0.004216
11.810000000000002,0.020391,-0.00918,0.015405
11.819999999999991,0.005693,-0.012881,0.015182
11.829999999999998,-0.007002,-0.009393,0.022358
11.840000000000003,-0.012598,-0.014838,0.018558
11.849999999999994,-0.008904,-0.016636,0.02771
11.86,-0.026068,-0.007759,0.037635
11.870000000000005,-0.0252,-0.007761,0.031251
11.879999999999995,-0.026997,-0.009596,0.039425
11.89,-0.028835,-0.015017,0.049389
11.899999999999991,-0.047154,-0.016937,0.04912
11.909999999999997,-0.036128,-0.014148,0.051136
11.920000000000002,-0.038033,-0.018665,0.051052
11.929999999999993,-0.045345,-0.02053,0.056404
11.939999999999998,-0.030572,-0.016842,0.069427
11.950000000000005,-0.048789,-0.009731,0.063777
11.959999999999994,-0.032564,-0.02404,0.061987
11.97,-0.043167,-0.002507,0.065754
11.980000000000004,-0.043231,-0.005202,0.062063
11.989999999999997,-0.041236,0.001105,0.070389
12.0,-0.039178,0.015535,0.06968
12.009999999999993,-0.045063,-0.005234,0.058381
12.019999999999996,-0.026636,-0.002422,0.071453
12.03,-0.019391,-0.007768,0.073311
12.039999999999992,-0.030355,-0.00241,0.064101
12.049999999999995,-0.028508,-0.006021,0.075043
12.060000000000002,-0.028564,-0.008715,0.07319
12.069999999999991,-0.037552,-0.00426,0.085004
12.079999999999998,-0.025635,-0.007788,0.096995
12.090000000000003,-0.015545,-0.004098,0.093526
12.099999999999994,-0.036017,-0.024042,0.087544
12.11,-0.014003,-0.016684,0.081534
12.120000000000005,0.007946,-0.01654,0.081828
12.129999999999995,-0.02165,-0.031104,0.067574
12.14,-0.011541,-0.026517,0.065943
12.149999999999991,-0.030897,-0.033837,0.061953
12.159999999999997,-0.023654,-0.038283,0.061997
12.170000000000002,-0.023916,-0.043638,0.037261
12.179999999999993,-0.014647,-0.034564,0.033829
12.189999999999998,-0.027902,-0.065302,0.036019
12.200000000000005,-0.016659,-0.051725,0.04363
12.209999999999994,-0.026075,-0.063479,0.031493
12.22,-0.031351,-0.052718,0.037953
12.230000000000004,-0.03112,-0.038323,0.039959
12.239999999999997,-0.033868,-0.038348,0.039939
12.25,-0.031363,-0.048253,0.028884
12.259999999999993,-0.04208,-0.028487,0.021663
12.269999999999996,-0.060536,-0.033077,0.008565
12.28,-0.061148,-0.017766,0.017867
12.289999999999992,-0.056883,-0.036675,0.015856
12.299999999999995,-0.060246,-0.01415,0.007858
12.310000000000002,-0.06746,-0.013323,0.018732
12.319999999999991,-0.062671,-0.004297,0.028957
12.329999999999998,-0.050907,-0.016851,0.03902
12.340000000000003,-0.054676,-0.013242,0.016178
12.349999999999994,-0.028761,-0.005008,0.041282
12.36,-0.014263,-0.016632,0.047729
12.370000000000005,-0.014369,-0.022022,0.044005
12.379999999999995,-0.017335,-0.038273,0.047413
12.39,-0.012635,-0.031043,0.049379
12.399999999999991,-0.017947,-0.025677,0.062158
12.409999999999997,-0.018111,-0.027439,0.043873
12.420000000000002,-0.00905,-0.033677,0.04575
12.429999999999993,-0.014523,-0.029183,0.038431
12.439999999999998,-0.007111,-0.023741,0.04042
12.450000000000005,-0.004525,-0.032755,0.038513
12.459999999999994,-0.020102,-0.026528,0.020109
12.47,-0.022728,-0.023877,0.030147
12.480000000000004,-0.016904,-0.059883,0.027052
12.489999999999997,-0.015245,-0.066185,0.016025
12.5,-0.00968,-0.061649,0.016152
12.509999999999993,-0.029862,-0.063577,0.010381
12.519999999999996,-0.029741,-0.054559,0.006834
12.53,-0.028808,-0.052766,0.005035
12.539999999999992,-0.027002,-0.055475,0.006845
12.549999999999995,-0.015092,-0.05451,0.007929
12.560000000000002,-0.015183,-0.05721,0.0015
12.569999999999991,-0.008968,-0.059832,-0.01762
12.579999999999998,0.012081,-0.068742,0.004476
12.590000000000003,-0.000538,-0.048066,-0.014623
12.599999999999994,0.002913,-0.058837,-0.020184
12.61,-0.000402,-0.038153,-0.017247
12.620000000000005,-0.000562,-0.043543,-0.027358
12.629999999999995,0.006979,-0.032711,-0.019824
12.64,0.008919,-0.023679,-0.024261
12.649999999999991,0.019965,-0.016401,-0.030427
12.659999999999997,0.021673,-0.02723,-0.024132
12.670000000000002,0.017989,-0.023636,-0.034177
12.679999999999993,0.03254,-0.029841,-0.030392
12.689999999999998,0.02709,-0.021744,-0.041324
12.700000000000005,0.02181,-0.007356,-0.043048
12.709999999999994,0.031833,-0.009095,-0.04477
12.72,0.021986,0.008877,-0.053826
12.730000000000004,0.031138,0.014361,-0.064603
12.739999999999997,0.027452,0.012536,-0.064679
12.75,0.034695,0.007174,-0.063739
12.759999999999993,0.018225,0.013415,-0.078491
12.769999999999996,0.021875,0.010721,-0.073905
12.78,0.03119,0.027031,-0.084539
12.789999999999992,0.02034,0.034169,-0.082765
12.799999999999995,0.021167,0.028794,-0.08282
12.810000000000002,0.016528,0.023366,-0.079295
12.819999999999991,-0.005326,0.031343,-0.084967
12.829999999999998,0.025454,0.006311,-0.074812
12.840000000000003,0.021724,0.001782,-0.075825
12.849999999999994,0.031582,-0.007103,-0.083087
12.86,0.041591,-0.007017,-0.08843
12.870000000000005,0.045322,-0.005179,-0.081039
12.879999999999995,0.034265,-0.01245,-0.075784
12.89,0.032532,-0.003463,-0.081187
12.899999999999991,0.02611,-0.005296,-0.079471
12.909999999999997,0.042756,0.001102,-0.068222
12.920000000000002,0.021703,0.000986,-0.072163
12.929999999999993,0.021955,0.014491,-0.067443
12.939999999999998,0.03113,0.009117,-0.051853
12.950000000000005,0.034504,-0.007075,-0.055639
12.959999999999994,0.031776,-0.005293,-0.055639
12.97,0.035422,-0.00709,-0.051955
12.980000000000004,0.038263,0.003761,-0.060922
12.989999999999997,0.034288,-0.014283,-0.064852
13.0,0.043219,-0.021392,-0.077612
13.009999999999993,0.02868,-0.016059,-0.075909
13.019999999999996,0.012395,-0.004441,-0.076897
13.03,0.029158,0.018216,-0.082794
13.039999999999992,0.0218,0.016337,-0.08474
13.049999999999995,0.027908,0.051481,-0.073265
13.060000000000002,0.044258,0.048899,-0.080383
13.069999999999991,0.051428,0.038127,-0.075846
13.079999999999998,0.036993,0.052479,-0.078604
13.090000000000003,0.041983,0.07593,-0.070031
13.099999999999994,0.05398,0.081426,-0.066142
13.11,0.047028,0.103892,-0.06506
13.120000000000005,0.042511,0.099299,-0.04874
13.129999999999995,0.037248,0.111858,-0.046848
13.14,0.031088,0.121709,-0.036763
13.149999999999991,0.020026,0.113523,-0.032429
13.159999999999997,0.019504,0.12153,0.004198
13.170000000000002,0.026543,0.10627,-0.001367
13.179999999999993,0.036828,0.110804,0.018912
13.189999999999998,0.051244,0.090168,0.032555
13.200000000000005,0.062383,0.099244,0.036456
13.209999999999994,0.034955,0.093642,0.050644
13.22,0.02409,0.092675,0.068765
13.230000000000004,0.046076,0.102796,0.053657
13.239999999999997,0.051547,0.100128,0.057354
13.25,0.057212,0.110091,0.059382
13.259999999999993,0.046302,0.108201,0.069254
13.269999999999996,0.051677,0.099222,0.070124
13.28,0.063681,0.108325,0.064911
13.289999999999992,0.082367,0.088677,0.033871
13.299999999999995,0.078771,0.094064,0.028405
13.310000000000002,0.076946,0.094031,0.027459
13.319999999999991,0.075028,0.095843,0.010097
13.329999999999998,0.073646,0.074237,-0.008444
13.340000000000003,0.061375,0.056164,-0.023441
13.349999999999994,0.0413,0.061453,-0.030046
13.36,0.050184,0.052564,-0.047376
13.370000000000005,0.058946,0.027435,-0.047544
13.379999999999995,0.046892,0.025624,-0.069631
13.39,0.062155,0.015866,-0.091461
13.399999999999991,0.042769,0.002223,-0.090972
13.409999999999997,0.038873,-0.004967,-0.109378
13.420000000000002,0.034078,-0.013994,-0.119595
13.429999999999993,0.021252,-0.016784,-0.115222
13.439999999999998,0.031817,-0.037409,-0.125367
13.450000000000005,0.018718,-0.054602,-0.127558
13.459999999999994,0.020576,-0.057299,-0.116594
13.47,0.012937,-0.071719,-0.12964
13.480000000000004,0.016493,-0.079802,-0.126033
13.489999999999997,0.012681,-0.0843,-0.137097
13.5,-0.000235,-0.095225,-0.127358
13.509999999999993,-0.001589,-0.115046,-0.143152
13.519999999999996,-0.015331,-0.127811,-0.117928
13.53,-0.043063,-0.146013,-0.120348
13.539999999999992,-0.073964,-0.135421,-0.116995
13.549999999999995,-0.088122,-0.166177,-0.110249
13.560000000000002,-0.092361,-0.150005,-0.095489
13.569999999999991,-0.087792,-0.153598,-0.085412
13.579999999999998,-0.072371,-0.166129,-0.074392
13.590000000000003,-0.090639,-0.168075,-0.068273
13.599999999999994,-0.093196,-0.159135,-0.062751
13.61,-0.075782,-0.162672,-0.049792
13.620000000000005,-0.091006,-0.152021,-0.029788
13.629999999999995,-0.102106,-0.161117,-0.03005
13.64,-0.097356,-0.150286,-0.029849
13.649999999999991,-0.089292,-0.159254,-0.033492
13.659999999999997,-0.084571,-0.157491,-0.016966
13.670000000000002,-0.075233,-0.150283,-0.00489
13.679999999999993,-0.064128,-0.142149,-0.003757
13.689999999999998,-0.061584,-0.159287,0.005198
13.700000000000005,-0.063151,-0.148499,0.017168
13.709999999999994,-0.069633,-0.159347,0.027004
13.72,-0.068304,-0.138609,0.036408
13.730000000000004,-0.060038,-0.130437,0.020163
13.739999999999997,-0.067109,-0.121515,0.032962
13.75,-0.052252,-0.101593,0.021515
13.759999999999993,-0.048231,-0.079959,0.02639
13.769999999999996,-0.028033,-0.070801,0.021293
13.78,-0.024007,-0.045542,0.02166
13.789999999999992,-0.025724,-0.038346,0.0254
13.799999999999995,-0.036466,-0.02037,0.021828
13.810000000000002,-0.033203,0.010335,0.02956
13.819999999999991,-0.06668,0.026366,0.04393
13.829999999999998,-0.061794,0.051706,0.031516
13.840000000000003,-0.058632,0.07877,0.028223
13.849999999999994,-0.043744,0.098684,0.019513
13.86,-0.039831,0.111283,0.027008
13.870000000000005,-0.015917,0.118625,0.031061
13.879999999999995,-0.03436,0.116707,0.014351
13.89,-0.030214,0.145548,0.022068
13.899999999999991,-0.014853,0.13306,0.025793
13.909999999999997,-0.008376,0.134918,0.033214
13.920000000000002,0.000925,0.145821,0.031649
13.929999999999993,-1.7e-05,0.14042,0.038882
13.939999999999998,0.006505,0.145882,0.042685
13.950000000000005,0.004701,0.149494,0.037217
13.959999999999994,0.00628,0.135101,0.033411
13.97,0.013331,0.124357,0.020582
13.980000000000004,-0.00283,0.135927,0.037855
13.989999999999997,-0.023576,0.107922,0.012582
14.0,-0.004896,0.124242,0.033119
14.009999999999993,-0.024427,0.104313,0.030802
14.019999999999996,-0.029149,0.100716,0.017912
14.03,-0.023865,0.085432,0.023286
14.039999999999992,-0.011186,0.075619,0.027913
14.049999999999995,-0.005965,0.055836,0.032304
14.060000000000002,-0.013137,0.064821,0.032319
14.069999999999991,-0.013534,0.042323,0.024735
14.079999999999998,-0.01368,0.032422,0.025529
14.090000000000003,-0.019381,0.0243,0.013484
14.099999999999994,-0.015124,-3.2e-05,0.0233
14.11,-0.007159,-0.008974,0.006855
14.120000000000005,-0.004398,-0.008966,0.010546
14.129999999999995,-0.014757,-0.025241,0.003819
14.14,-0.015059,-0.042357,-0.001875
14.149999999999991,0.001152,-0.053946,-0.012772
14.159999999999997,-0.004279,-0.052191,-0.011004
14.170000000000002,-0.006141,-0.054911,-0.011055
14.179999999999993,-0.000697,-0.057583,-0.011009
14.189999999999998,0.012922,-0.061113,-0.016353
14.200000000000005,0.021193,-0.058369,-0.016216
14.209999999999994,0.031319,-0.046571,-0.031466
14.22,0.038531,-0.05916,-0.018734
14.230000000000004,0.034026,-0.046552,-0.035993
14.239999999999997,0.046103,-0.040191,-0.02296
14.25,0.037918,-0.035741,-0.026669
14.259999999999993,0.051002,-0.02216,-0.017203
14.269999999999996,0.021754,-0.015994,-0.028473
14.28,0.032507,-0.030331,-0.028501
14.289999999999992,0.046534,-0.005904,-0.038065
14.299999999999995,0.041049,-0.001437,-0.048132
14.310000000000002,0.04758,0.003983,-0.042503
14.319999999999991,0.040318,0.005725,-0.038922
14.329999999999998,0.04382,-0.003262,-0.040812
14.340000000000003,0.038345,0.000309,-0.046319
14.349999999999994,0.028349,0.009287,-0.055457
14.36,0.042952,0.011209,-0.06254
14.370000000000005,0.034585,0.002151,-0.06184
14.379999999999995,0.050311,0.011264,-0.056955
14.39,0.044065,0.016614,-0.048757
14.399999999999991,0.060415,0.005912,-0.041365
14.409999999999997,0.038604,0.018408,-0.049732
14.420000000000002,0.036824,0.014772,-0.034267
14.429999999999993,0.043974,0.005819,-0.03701
14.439999999999998,0.031149,0.006642,-0.040817
14.450000000000005,0.029095,-0.008681,-0.038275
14.459999999999994,0.032777,-0.015908,-0.019127
14.47,0.029207,-0.005086,-0.029999
14.480000000000004,0.034777,-0.001455,-0.026232
14.489999999999997,0.034642,-0.006832,-0.033601
14.5,0.038061,-0.02212,-0.033744
14.509999999999993,0.045429,-0.022086,-0.026347
14.519999999999996,0.030854,-0.014964,-0.033766
14.53,0.038283,-0.004096,-0.04084
14.539999999999992,0.012604,-0.008781,-0.041237
14.549999999999995,0.004766,-0.037665,-0.051735
14.560000000000002,0.012175,-0.03042,-0.054296
14.569999999999991,0.011852,-0.04843,-0.059999
14.579999999999998,0.008542,-0.030455,-0.050696
14.590000000000003,0.001851,-0.043081,-0.063716
14.599999999999994,0.004624,-0.039444,-0.067286
14.61,0.008982,-0.054732,-0.063748
14.620000000000005,0.013638,-0.04838,-0.065433
14.629999999999995,0.020897,-0.051928,-0.065375
14.64,0.017152,-0.057374,-0.065497
14.649999999999991,-0.003898,-0.061141,-0.060351
14.659999999999997,0.006403,-0.048468,-0.054578
14.670000000000002,0.008925,-0.065587,-0.048355
14.679999999999993,-0.001866,-0.052138,-0.052906
14.689999999999998,0.004308,-0.062895,-0.061172
14.700000000000005,-0.008332,-0.054884,-0.056678
14.709999999999994,-0.00297,-0.055723,-0.073063
14.72,-0.003783,-0.05034,-0.071189
14.730000000000004,-0.001355,-0.066544,-0.080489
14.739999999999997,-0.002776,-0.041334,-0.078374
14.75,-0.006455,-0.046777,-0.069351
14.759999999999993,-0.01275,-0.036893,-0.075708
14.769999999999996,-0.004561,-0.03411,-0.087444
14.78,-0.004483,-0.034107,-0.07648
14.789999999999992,-0.008275,-0.04857,-0.063921
14.799999999999995,-0.006095,-0.026915,-0.060884
14.810000000000002,-0.013423,-0.028767,-0.058264
14.819999999999991,-0.00786,-0.02151,-0.063588
14.829999999999998,-0.015217,-0.026055,-0.06008
14.840000000000003,-0.015251,-0.026057,-0.065568
14.849999999999994,-0.015177,-0.028786,-0.049162
14.86,-0.009678,-0.032368,-0.03999
14.870000000000005,-0.004162,-0.02873,-0.043531
14.879999999999995,-0.000702,-0.04494,-0.035457
14.89,0.002302,-0.025096,-0.041581
14.899999999999991,-0.007952,-0.030537,-0.056399
14.909999999999997,-0.01156,-0.030566,-0.049136
14.920000000000002,-0.002261,-0.026921,-0.035267
14.929999999999993,-0.009469,-0.01615,-0.043457
14.939999999999998,-0.006118,-0.030521,-0.054535
14.950000000000005,-0.011761,-0.042271,-0.0511
14.959999999999994,-0.000495,-0.021451,-0.056186
14.97,0.012335,-0.018661,-0.059644
14.980000000000004,0.011118,-0.035803,-0.065356
14.989999999999997,0.011983,-0.041219,-0.059922
15.0,0.012153,-0.029513,-0.061606
15.009999999999993,0.02828,-0.048326,-0.065268
15.019999999999996,0.02814,-0.051909,-0.076273
15.03,0.024446,-0.057348,-0.069078
15.039999999999992,0.015106,-0.068214,-0.072986
15.049999999999995,0.008822,-0.061047,-0.072987
15.060000000000002,0.000388,-0.065579,-0.091422
15.069999999999991,-0.003396,-0.07281,-0.093383
15.079999999999998,0.003857,-0.073662,-0.100606
15.090000000000003,-0.003556,-0.075506,-0.109861
15.099999999999994,0.023658,-0.087941,-0.113301
15.11,0.023753,-0.077115,-0.124131
15.120000000000005,0.023797,-0.073526,-0.125919
15.129999999999995,0.027552,-0.066283,-0.127611
15.14,0.023709,-0.07351,-0.138721
15.149999999999991,0.015593,-0.063643,-0.145105
15.159999999999997,0.007155,-0.077233,-0.146299
15.170000000000002,0.026971,-0.093311,-0.153528
15.179999999999993,0.018218,-0.071747,-0.146077
15.189999999999998,0.020048,-0.068112,-0.153311
15.200000000000005,0.034401,-0.086034,-0.153332
15.209999999999994,0.018057,-0.077135,-0.157101
15.22,0.027329,-0.072584,-0.149613
15.230000000000004,0.026279,-0.079785,-0.153357
15.239999999999997,0.019937,-0.073512,-0.158838
15.25,0.032685,-0.077038,-0.157802
15.259999999999993,0.031865,-0.073435,-0.151373
15.269999999999996,0.039985,-0.079683,-0.151337
15.28,0.056533,-0.075071,-0.148321
15.289999999999992,0.037958,-0.091412,-0.153326
15.299999999999995,0.036923,-0.097715,-0.157067
15.310000000000002,0.041623,-0.080542,-0.176898
15.319999999999991,0.034391,-0.082426,-0.160569
15.329999999999998,0.03444,-0.077011,-0.164153
15.340000000000003,0.02982,-0.082469,-0.158803
15.349999999999994,0.034421,-0.084256,-0.151461
15.36,0.032697,-0.075246,-0.156864
15.370000000000005,0.019808,-0.086158,-0.146199
15.379999999999995,0.010972,-0.066399,-0.145161
15.39,0.011683,-0.082629,-0.137112
15.399999999999991,-0.002088,-0.093578,-0.120987
15.409999999999997,0.01254,-0.087173,-0.135339
15.420000000000002,-0.003748,-0.088237,-0.110003
15.429999999999993,-0.003929,-0.099054,-0.111967
15.439999999999998,-0.01023,-0.099135,-0.098352
15.450000000000005,-0.00935,-0.103653,-0.093828
15.459999999999994,-0.010034,-0.09377,-0.08459
15.47,-0.001597,-0.088342,-0.067981
15.480000000000004,-0.008858,-0.084784,-0.068957
15.489999999999997,-0.016189,-0.086631,-0.066337
15.5,-0.016193,-0.097493,-0.043639
15.509999999999993,-0.016053,-0.093918,-0.031721
15.519999999999996,-0.035061,-0.074204,-0.048182
15.53,-0.039515,-0.074262,-0.03272
15.539999999999992,-0.028397,-0.06337,-0.037016
15.549999999999995,-0.024669,-0.065177,-0.024204
15.560000000000002,-0.039234,-0.061668,-0.022524
15.569999999999991,-0.028174,-0.052569,-0.027747
15.579999999999998,-0.031541,-0.042698,-0.007573
15.590000000000003,-0.037043,-0.043602,-0.00765
15.599999999999994,-0.036888,-0.034573,-0.005707
15.61,-0.02643,-0.014681,0.00563
15.620000000000005,-0.031052,-0.019217,0.007333
15.629999999999995,-0.034566,-0.012921,0.012844
15.64,-0.027165,-0.003856,0.005744
15.649999999999991,-0.028765,0.006928,0.014987
15.659999999999997,-0.030735,-0.003902,0.020322
15.670000000000002,-0.034297,-0.002141,0.031263
15.679999999999993,-0.04514,0.010425,0.023058
15.689999999999998,-0.046961,0.007705,0.030311
15.700000000000005,-0.065469,-0.002304,0.021724
15.709999999999994,-0.077014,0.015634,0.03091
15.72,-0.085392,0.00476,0.032481
15.730000000000004,-0.081497,0.02102,0.029065
15.739999999999997,-0.077899,0.016536,0.029054
15.75,-0.065294,0.004901,0.027257
15.759999999999993,-0.070541,0.022897,0.021929
15.769999999999996,-0.056041,0.013964,0.023836
15.78,-0.068749,0.021089,0.021921
15.789999999999992,-0.062531,0.006708,0.027305
15.799999999999995,-0.067393,-0.004101,0.008832
15.810000000000002,-0.072749,0.004896,0.005218
15.819999999999991,-0.08208,-0.00054,-0.010501
15.829999999999998,-0.072995,-0.01131,0.003189
15.840000000000003,-0.054894,-0.019284,-0.0058
15.849999999999994,-0.055508,-0.005788,0.007139
15.86,-0.059274,-0.013024,0.007913
15.870000000000005,-0.043834,-0.018329,0.005312
15.879999999999995,-0.022657,-0.016419,0.022054
15.89,-0.036563,-0.023699,0.011731
15.899999999999991,-0.016543,-0.034394,0.02192
15.909999999999997,-0.018139,-0.019989,0.023901
15.920000000000002,-0.011609,-0.02181,0.04589
15.929999999999993,-0.01839,-0.039876,0.032795
15.939999999999998,-0.016464,-0.038086,0.043808
15.950000000000005,-0.020223,-0.048948,0.05368
15.959999999999994,-0.026827,-0.057086,0.043448
15.97,-0.019335,-0.057969,0.070031
15.980000000000004,-0.022268,-0.066978,0.062585
15.989999999999997,-0.027948,-0.074212,0.050549
16.0,-0.029737,-0.07606,0.059638
16.00999999999999,-0.066508,-0.081689,0.044469
16.019999999999996,-0.055419,-0.078032,0.05196
16.03,-0.061036,-0.09161,0.060848
16.039999999999992,-0.062145,-0.095191,0.040692
16.049999999999997,-0.066651,-0.094326,0.047036
16.060000000000002,-0.057575,-0.105105,0.06073
16.069999999999993,-0.064901,-0.101536,0.051545
16.08,-0.044818,-0.104116,0.053612
16.090000000000003,-0.041189,-0.114062,0.071805
16.099999999999994,-0.02452,-0.095917,0.063111
16.11,-0.050458,-0.114097,0.05707
16.120000000000005,-0.035583,-0.099598,0.06109
16.129999999999995,-0.044956,-0.117698,0.068052
16.14,-0.05326,-0.110503,0.042449
16.14999999999999,-0.037576,-0.106834,0.053662
16.159999999999997,-0.055797,-0.108815,0.066176
16.17,-0.041153,-0.101519,0.051833
16.179999999999993,-0.05051,-0.119638,0.060613
16.189999999999998,-0.081373,-0.103623,0.056735
16.200000000000003,-0.099676,-0.096512,0.037395
16.209999999999994,-0.095978,-0.100121,0.049273
16.22,-0.110513,-0.093019,0.04551
16.230000000000004,-0.097937,-0.101942,0.032774
16.239999999999995,-0.092348,-0.101949,0.046539
16.25,-0.096805,-0.087555,0.032944
16.25999999999999,-0.107726,-0.08584,0.03646
16.269999999999996,-0.112314,-0.08134,0.025489
16.28,-0.116751,-0.063297,0.007389
16.289999999999992,-0.13412,-0.062514,0.009007
16.299999999999997,-0.156189,-0.062624,-0.004061
16.310000000000002,-0.155111,-0.048178,-0.009353
16.319999999999993,-0.177944,-0.041967,-0.015967
16.33,-0.192566,-0.032085,-0.035228
16.340000000000003,-0.185378,-0.035629,-0.046152
16.349999999999994,-0.202397,-0.010518,-0.052483
16.36,-0.206908,-0.002411,-0.062505
16.370000000000005,-0.22525,-0.001563,-0.07003
16.379999999999995,-0.216107,0.003971,-0.078963
16.39,-0.197573,0.022153,-0.082152
16.39999999999999,-0.17875,0.047492,-0.062425
16.409999999999997,-0.182239,0.056476,-0.059637
16.42,-0.167077,0.094447,-0.068126
16.429999999999993,-0.141433,0.098249,-0.06958
16.439999999999998,-0.119082,0.120016,-0.058077
16.450000000000003,-0.076704,0.142844,-0.059084
16.459999999999994,-0.074257,0.184307,-0.056751
16.47,-0.063325,0.185298,-0.060266
16.480000000000004,-0.063045,0.211431,-0.078246
16.489999999999995,-0.064593,0.228497,-0.079912
16.5,-0.081921,0.231934,-0.085599
16.50999999999999,-0.073616,0.245462,-0.109103
16.519999999999996,-0.08092,0.249884,-0.121948
16.53,-0.0796,0.218324,-0.127789
16.539999999999992,-0.072513,0.203941,-0.131521
16.549999999999997,-0.05716,0.199564,-0.150544
16.560000000000002,-0.040012,0.182543,-0.147783
16.569999999999993,-0.041983,0.175332,-0.154286
16.58,-0.012981,0.162036,-0.161345
16.590000000000003,-0.007728,0.156713,-0.180493
16.599999999999994,0.007766,0.160467,-0.19484
16.61,0.012493,0.171356,-0.198285
16.620000000000005,0.016078,0.175999,-0.220084
16.629999999999995,0.019914,0.190584,-0.230797
16.64,0.030989,0.212433,-0.263256
16.64999999999999,0.045957,0.225891,-0.251949
16.659999999999997,0.063254,0.227784,-0.265404
16.67,0.078701,0.21529,-0.251628
16.679999999999993,0.078758,0.217161,-0.247024
16.689999999999998,0.077158,0.229831,-0.244134
16.700000000000003,0.09699,0.208376,-0.239545
16.709999999999994,0.077005,0.22005,-0.247875
16.72,0.070736,0.23002,-0.253322
16.730000000000004,0.086375,0.235572,-0.253981
16.739999999999995,0.110865,0.228555,-0.265609
16.75,0.103795,0.239303,-0.250913
16.75999999999999,0.133884,0.22687,-0.230525
16.769999999999996,0.134108,0.236027,-0.213893
16.78,0.112778,0.255947,-0.168039
16.789999999999992,0.145166,0.279316,-0.154628
16.799999999999997,0.195309,0.276028,-0.166775
16.810000000000002,0.200751,0.283423,-0.190353
16.819999999999993,0.189669,0.297911,-0.236015
16.83,0.196662,0.286994,-0.263491
16.840000000000003,0.207366,0.282653,-0.290835
16.849999999999994,0.21386,0.245011,-0.321399
16.86,0.233507,0.219139,-0.32964
16.870000000000005,0.22017,0.183063,-0.32474
16.879999999999995,0.209361,0.130675,-0.314555
16.89,0.191177,0.074626,-0.305437
16.89999999999999,0.161058,0.017627,-0.299235
16.909999999999997,0.131992,-0.035728,-0.279261
16.92,0.098999,-0.102619,-0.269543
16.929999999999993,0.064175,-0.169532,-0.261648
16.939999999999998,0.011278,-0.225829,-0.24837
16.950000000000003,-0.017179,-0.294575,-0.244054
16.959999999999994,-0.058143,-0.347138,-0.234236
16.97,-0.092302,-0.415794,-0.259254
16.980000000000004,-0.109021,-0.437518,-0.248787
16.989999999999995,-0.101854,-0.500534,-0.26044
17.0,-0.117831,-0.527702,-0.262845
17.00999999999999,-0.11768,-0.565516,-0.290727
17.019999999999996,-0.132131,-0.612408,-0.298793
17.03,-0.086995,-0.655394,-0.296891
17.039999999999992,-0.032988,-0.709191,-0.296886
17.049999999999997,-0.088346,-0.782976,-0.300256
17.060000000000002,-0.12293,-0.848035,-0.281312
17.069999999999993,-0.134777,-0.91397,-0.269601
17.08,-0.174721,-0.953853,-0.274376
17.090000000000003,-0.185222,-0.932154,-0.272491
17.099999999999994,-0.165249,-0.874404,-0.302658
17.11,-0.125649,-0.794182,-0.312174
17.120000000000005,-0.113439,-0.708642,-0.329249
17.129999999999995,-0.080396,-0.59693,-0.30191
17.14,-0.054439,-0.465453,-0.283561
17.14999999999999,-0.057882,-0.348517,-0.247516
17.159999999999997,-0.068539,-0.222471,-0.215099
17.17,-0.077471,-0.092707,-0.211813
17.179999999999993,-0.086589,0.012611,-0.183264
17.189999999999998,-0.091428,0.112556,-0.180301
17.200000000000003,-0.103945,0.179119,-0.15501
17.209999999999994,-0.123422,0.229582,-0.173868
17.22,-0.150189,0.27997,-0.188268
17.230000000000004,-0.145905,0.316049,-0.18413
17.239999999999995,-0.117529,0.36659,-0.171305
17.25,-0.08616,0.375593,-0.149777
17.25999999999999,-0.049796,0.346794,-0.116787
17.269999999999996,-0.031632,0.312521,-0.0567
17.28,0.0213,0.291621,-0.034428
17.289999999999992,0.032786,0.264618,-0.00618
17.299999999999997,0.00159,0.204902,-0.004473
17.310000000000002,-0.034287,0.121747,0.012377
17.319999999999993,-0.031647,0.101869,0.038725
17.33,-0.008646,0.037085,0.072108
17.340000000000003,0.009951,-0.02424,0.122793
17.349999999999994,0.058237,-0.058277,0.168707
17.36,0.082428,-0.10688,0.20495
17.370000000000005,0.107571,-0.156302,0.246704
17.379999999999995,0.140823,-0.21107,0.279366
17.39,0.169531,-0.266767,0.315614
17.39999999999999,0.191933,-0.299023,0.315501
17.409999999999997,0.21357,-0.329471,0.33735
17.42,0.239309,-0.327423,0.356004
17.429999999999993,0.234688,-0.330928,0.36504
17.439999999999998,0.21579,-0.316499,0.383237
17.450000000000003,0.188993,-0.26797,0.376173
17.459999999999994,0.147509,-0.221391,0.357948
17.47,0.091004,-0.147932,0.352622
17.480000000000004,0.027038,-0.0835,0.345257
17.489999999999995,-0.037481,-0.002821,0.349012
17.5,-0.085295,0.102381,0.33226
17.50999999999999,-0.113043,0.213148,0.299406
17.519999999999996,-0.126278,0.308631,0.28394
17.53,-0.127404,0.418482,0.26885
17.539999999999992,-0.097735,0.50329,0.266527
17.549999999999997,-0.080143,0.570104,0.27485
17.560000000000002,-0.071068,0.617872,0.293827
17.569999999999993,-0.040971,0.621705,0.275991
17.58,-0.044622,0.621694,0.277723
17.590000000000003,-0.0158,0.611108,0.244104
17.599999999999994,-0.009262,0.578801,0.209981
17.61,-0.013131,0.523966,0.176421
17.620000000000005,0.010264,0.459383,0.141283
17.629999999999995,-0.019085,0.359334,0.095873
17.64,-0.016843,0.291021,0.051252
17.64999999999999,-0.023057,0.204613,0.013607
17.659999999999997,-0.020157,0.119066,-0.031217
17.67,-0.027461,0.020901,-0.067162
17.679999999999993,-0.038226,-0.077342,-0.079419
17.689999999999998,-0.019455,-0.154649,-0.099271
17.700000000000003,-0.024216,-0.219532,-0.114742
17.709999999999994,-0.002911,-0.263573,-0.110431
17.72,0.021573,-0.329237,-0.124558
17.730000000000004,0.031865,-0.370592,-0.133135
17.739999999999995,0.056986,-0.397491,-0.147755
17.75,0.071171,-0.424498,-0.156125
17.75999999999999,0.074439,-0.444339,-0.171863
17.769999999999996,0.072274,-0.460598,-0.186715
17.78,0.072513,-0.43898,-0.201073
17.789999999999992,0.065407,-0.424674,-0.204656
17.799999999999997,0.06608,-0.382363,-0.204133
17.810000000000002,0.068416,-0.347243,-0.210993
17.819999999999993,0.065568,-0.300438,-0.199499
17.83,0.057799,-0.221233,-0.180378
17.840000000000003,0.039338,-0.170874,-0.18639
17.849999999999994,0.026884,-0.100699,-0.163773
17.86,0.015319,-0.028682,-0.147515
17.870000000000005,0.00026,0.055907,-0.133901
17.879999999999995,0.004876,0.109958,-0.116752
17.89,0.00087,0.138733,-0.100029
17.89999999999999,0.005963,0.164912,-0.083202
17.909999999999997,0.010364,0.200063,-0.053485
17.92,0.012404,0.196447,-0.015128
17.929999999999993,0.006169,0.197275,0.007634
17.939999999999998,-0.005469,0.200771,0.035835
17.950000000000003,-0.003903,0.182787,0.039304
17.959999999999994,-0.016607,0.179985,0.05921
17.97,0.001028,0.140486,0.055338
17.980000000000004,-0.010266,0.114279,0.070418
17.989999999999995,-0.00145,0.09002,0.08029
18.0,0.023153,0.082104,0.087818
18.00999999999999,0.005098,0.043292,0.077964
18.02,0.03319,0.020024,0.094493
18.03,0.009614,-0.017937,0.078207
18.039999999999992,-0.014353,-0.025265,0.067756
18.05,-0.016726,-0.058578,0.062752
18.06,-0.025909,-0.061319,0.061671
18.069999999999997,-0.022501,-0.072118,0.046942
18.08,-0.019326,-0.093721,0.022957
18.090000000000003,-0.019757,-0.117136,0.010781
18.099999999999994,-0.013996,-0.147695,-0.012346
18.11,-0.00023,-0.138565,-0.024829
18.120000000000005,-0.000795,-0.161932,-0.050678
18.129999999999995,0.014779,-0.14917,-0.074074
18.14,0.004333,-0.158178,-0.109039
18.14999999999999,-0.004767,-0.132919,-0.157282
18.16,-0.00135,-0.132836,-0.189229
18.17,-0.017738,-0.103991,-0.243937
18.179999999999996,0.000937,-0.111843,-0.302274
18.19,0.001736,-0.083831,-0.376859
18.200000000000003,-0.022678,-0.093902,-0.443036
18.209999999999997,-0.015546,-0.083906,-0.488483
18.22,0.01697,-0.070911,-0.570119
18.230000000000004,0.034962,-0.059789,-0.634608
18.239999999999995,0.092962,-0.062864,-0.699698
18.25,0.108603,-0.068,-0.801002
18.25999999999999,0.142305,-0.08565,-0.906771
18.27,0.144785,-0.1053,-1.027593
18.28,0.160108,-0.112232,-1.171823
18.289999999999992,0.167917,-0.129985,-1.32082
18.3,0.170409,-0.141437,-1.459761
18.31,0.184105,-0.137465,-1.601133
18.319999999999997,0.221934,-0.1504,-1.783515
18.33,0.263663,-0.150672,-1.958364
18.340000000000003,0.293258,-0.152784,-2.160749
18.349999999999994,0.32478,-0.143176,-2.370237
18.36,0.343569,-0.128281,-2.582583
18.370000000000005,0.330253,-0.120842,-2.794526
18.379999999999995,0.331535,-0.108728,-3.021744
18.39,0.309801,-0.108496,-3.246693
18.39999999999999,0.27656,-0.091232,-3.456985
18.41,0.253969,-0.090935,-3.676455
18.42,0.265544,-0.075983,-3.882513
18.429999999999996,0.267779,-0.062846,-4.110591
18.44,0.283093,-0.037059,-4.325552
18.450000000000003,0.28501,0.003074,-4.522226
18.459999999999997,0.296545,0.072096,-4.710213
18.47,0.275912,0.117359,-4.866076
18.480000000000004,0.225725,0.196599,-5.010066
18.489999999999995,0.185247,0.25248,-5.159694
18.5,0.123081,0.316386,-5.29763
18.50999999999999,0.086899,0.398414,-5.425912
18.52,0.077287,0.481493,-5.548325
18.53,0.081798,0.57615,-5.641178
18.539999999999992,0.07751,0.674244,-5.692109
18.55,0.087978,0.76613,-5.70455
18.56,0.112123,0.897767,-5.673368
18.569999999999997,0.123342,1.004147,-5.604335
18.58,0.121177,1.12131,-5.515298
18.590000000000003,0.118902,1.232865,-5.426399
18.599999999999994,0.117442,1.331791,-5.330292
18.61,0.101472,1.416113,-5.189788
18.620000000000005,0.114471,1.461785,-5.005506
18.629999999999995,0.116216,1.4821,-4.806132
18.64,0.099194,1.468974,-4.603773
18.64999999999999,0.076839,1.452247,-4.372283
18.66,0.063653,1.430136,-4.122458
18.67,0.04843,1.391754,-3.868303
18.679999999999996,0.002047,1.333306,-3.583759
18.69,-0.033687,1.262361,-3.316549
18.700000000000003,-0.056756,1.180661,-3.043838
18.709999999999997,-0.091051,1.071855,-2.747857
18.72,-0.135019,0.932277,-2.46519
18.730000000000004,-0.129777,0.785783,-2.194761
18.739999999999995,-0.091631,0.634095,-1.912993
18.75,-0.047769,0.500496,-1.632732
18.75999999999999,-0.015621,0.37775,-1.349716
18.77,0.012861,0.242285,-1.041278
18.78,0.066121,0.117717,-0.742434
18.789999999999992,0.102985,-0.001516,-0.445584
18.8,0.137665,-0.12968,-0.177178
18.81,0.138593,-0.25454,0.090786
18.819999999999997,0.159836,-0.363938,0.350972
18.83,0.173213,-0.44999,0.611314
18.840000000000003,0.202013,-0.534988,0.856364
18.849999999999994,0.194991,-0.574231,1.107896
18.86,0.196677,-0.582774,1.362666
18.870000000000005,0.18546,-0.590483,1.601746
18.879999999999995,0.175881,-0.61621,1.853432
18.89,0.129743,-0.635838,2.092846
18.89999999999999,0.110923,-0.657115,2.316153
18.91,0.084326,-0.693733,2.509024
18.92,0.069669,-0.737496,2.725722
18.929999999999996,0.053299,-0.763141,2.919776
18.94,0.039464,-0.801337,3.112815
18.950000000000003,0.022114,-0.827828,3.302325
18.959999999999997,-0.004149,-0.841778,3.496443
18.97,-0.01777,-0.858332,3.675165
18.980000000000004,-0.064387,-0.882268,3.859761
18.989999999999995,-0.151444,-0.906468,4.012738
19.0,-0.229944,-0.923475,4.192394
19.00999999999999,-0.28357,-0.976368,4.346349
19.02,-0.359636,-1.006016,4.507568
19.03,-0.415702,-1.035463,4.653525
19.039999999999992,-0.46466,-1.077431,4.801266
19.05,-0.520002,-1.115772,4.948086
19.06,-0.566219,-1.151397,5.087722
19.069999999999997,-0.622746,-1.201527,5.219715
19.08,-0.670866,-1.304846,5.356656
19.090000000000003,-0.688952,-1.402518,5.459343
19.099999999999994,-0.688032,-1.518139,5.571172
19.11,-0.663867,-1.606559,5.679982
19.120000000000005,-0.601008,-1.671293,5.782303
19.129999999999995,-0.558974,-1.71635,5.875439
19.14,-0.523192,-1.752401,5.974098
19.14999999999999,-0.494997,-1.755151,6.090453
19.16,-0.470578,-1.757905,6.184827
19.17,-0.473459,-1.741884,6.251646
19.179999999999996,-0.439748,-1.723816,6.316195
19.19,-0.405757,-1.685859,6.378217
19.200000000000003,-0.372755,-1.595684,6.443635
19.209999999999997,-0.302784,-1.48375,6.517139
19.22,-0.248807,-1.34393,6.598073
19.230000000000004,-0.197349,-1.179623,6.662851
19.239999999999995,-0.135188,-1.023346,6.707554
19.25,-0.097448,-0.857422,6.763028
19.25999999999999,-0.082047,-0.698744,6.777021
19.27,-0.090345,-0.540186,6.799788
19.28,-0.098569,-0.369872,6.809005
19.289999999999992,-0.125181,-0.19784,6.804306
19.3,-0.125015,-0.066212,6.798558
19.31,-0.131996,0.066192,6.81468
19.319999999999997,-0.13543,0.141035,6.812797
19.33,-0.151733,0.215001,6.805254
19.340000000000003,-0.180949,0.238481,6.769537
19.349999999999994,-0.17014,0.25323,6.725125
19.36,-0.215005,0.21892,6.672041
19.370000000000005,-0.238351,0.164886,6.601633
19.379999999999995,-0.251067,0.096589,6.512966
19.39,-0.272155,0.032864,6.395991
19.39999999999999,-0.274051,-0.0308,6.275617
19.41,-0.283127,-0.075551,6.13255
19.42,-0.25514,-0.140786,5.970486
19.429999999999996,-0.195796,-0.182397,5.794478
19.44,-0.117163,-0.217655,5.616046
19.450000000000003,-0.019283,-0.245622,5.42331
19.459999999999997,0.083972,-0.275242,5.221514
19.47,0.167421,-0.274264,5.002501
19.480000000000004,0.23339,-0.273374,4.770449
19.489999999999995,0.280775,-0.285184,4.520644
19.5,0.308827,-0.241289,4.258457
19.50999999999999,0.33286,-0.223631,3.997728
19.52,0.373129,-0.213095,3.724344
19.53,0.397791,-0.190866,3.425344
19.539999999999992,0.403878,-0.182183,3.118648
19.55,0.416377,-0.169797,2.804764
19.56,0.375614,-0.167666,2.479089
19.569999999999997,0.373581,-0.145504,2.150474
19.58,0.324646,-0.133629,1.805574
19.590000000000003,0.242741,-0.122822,1.457512
19.599999999999994,0.14775,-0.127335,1.102727
19.61,0.076853,-0.107312,0.739446
19.620000000000005,0.001043,-0.108079,0.372182
19.629999999999995,-0.030967,-0.114929,0.00447
19.64,-0.030899,-0.113418,-0.370026
19.64999999999999,-0.025649,-0.12902,-0.748314
19.66,-0.014144,-0.15366,-1.124816
19.67,-0.028206,-0.183905,-1.483443
19.679999999999996,-0.060733,-0.230409,-1.832449
19.69,-0.077652,-0.274972,-2.180316
19.700000000000003,-0.076298,-0.330293,-2.510706
19.709999999999997,-0.082769,-0.359564,-2.841821
19.72,-0.043566,-0.394861,-3.166941
19.730000000000004,0.003839,-0.440018,-3.473788
19.739999999999995,0.07761,-0.504042,-3.758584
19.75,0.144214,-0.564511,-4.028803
19.75999999999999,0.217923,-0.642904,-4.28998
19.77,0.278963,-0.724979,-4.525792
19.78,0.334251,-0.774679,-4.741179
19.789999999999992,0.375865,-0.826298,-4.943932
19.8,0.398966,-0.876225,-5.181643
19.81,0.418914,-0.911818,-5.379048
19.819999999999997,0.407662,-0.942157,-5.602367
19.83,0.409027,-0.947192,-5.776826
19.840000000000003,0.383753,-0.959604,-5.955387
19.849999999999994,0.35618,-0.960365,-6.101839
19.86,0.349613,-0.968232,-6.23525
19.870000000000005,0.358715,-0.916611,-6.35041
19.879999999999995,0.401155,-0.85136,-6.437613
19.89,0.4294,-0.761939,-6.517427
19.89999999999999,0.461798,-0.653603,-6.567727
19.91,0.468589,-0.547135,-6.61565
19.92,0.504632,-0.449504,-6.646886
19.929999999999996,0.515004,-0.344795,-6.703053
19.94,0.4886,-0.258379,-6.747115
19.950000000000003,0.474645,-0.186253,-6.810337
19.959999999999997,0.429485,-0.126958,-6.859469
19.97,0.438664,-0.096137,-6.917365
19.980000000000004,0.433313,-0.074531,-6.941791
19.989999999999995,0.422642,-0.049355,-6.951638
20.0,0.423021,-0.018687,-6.964063
20.00999999999999,0.416346,0.022731,-6.962765
20.02,0.399183,0.078471,-6.926709
20.03,0.389932,0.116243,-6.895288
20.039999999999992,0.390212,0.179288,-6.859713
20.05,0.376565,0.233227,-6.834476
20.06,0.348537,0.290619,-6.78477
20.069999999999997,0.317733,0.347995,-6.741556
20.08,0.305605,0.418107,-6.673319
20.090000000000003,0.298134,0.473765,-6.564124
20.099999999999994,0.304427,0.540384,-6.471014
20.11,0.342982,0.560315,-6.364275
20.120000000000005,0.34836,0.623294,-6.258349
20.129999999999995,0.387078,0.649505,-6.140584
20.14,0.411798,0.639487,-5.984214
20.14999999999999,0.434408,0.612327,-5.830829
20.16,0.441224,0.570668,-5.68149
20.17,0.436405,0.537939,-5.517568
20.179999999999996,0.431461,0.49984,-5.359175
20.19,0.401128,0.474156,-5.197304
20.200000000000003,0.342183,0.428427,-5.029666
20.209999999999997,0.27657,0.42141,-4.856161
20.22,0.217366,0.412591,-4.681715
20.230000000000004,0.19985,0.383287,-4.517028
20.239999999999995,0.166436,0.373664,-4.317573
20.25,0.162686,0.37861,-4.09106
20.25999999999999,0.141864,0.397824,-3.852769
20.27,0.119134,0.404367,-3.597304
20.28,0.09522,0.389224,-3.332058
20.289999999999992,0.056972,0.377549,-3.033175
20.3,0.034846,0.339885,-2.726163
20.31,0.002178,0.321926,-2.404451
20.319999999999997,-0.013812,0.258104,-2.08216
20.33,-0.0019,0.216066,-1.741866
20.340000000000003,0.010553,0.156964,-1.410855
20.349999999999994,-0.013297,0.102991,-1.050099
20.36,-0.006005,0.044682,-0.674367
20.370000000000005,-0.007772,-0.013703,-0.290549
20.379999999999995,-0.014794,-0.052184,0.082466
20.39,-0.018337,-0.097836,0.449962
20.39999999999999,-0.024663,-0.139926,0.804673
20.41,-0.047774,-0.202006,1.15801
20.42,-0.078764,-0.242564,1.513338
20.429999999999996,-0.108408,-0.306485,1.850151
20.44,-0.140097,-0.380249,2.179524
20.450000000000003,-0.193806,-0.454096,2.497635
20.459999999999997,-0.237823,-0.498154,2.824453
20.47,-0.296873,-0.556702,3.127167
20.480000000000004,-0.310283,-0.604077,3.395914
20.489999999999995,-0.349162,-0.639825,3.658983
20.5,-0.388237,-0.689097,3.924619
20.50999999999999,-0.448692,-0.74842,4.163364
20.52,-0.496779,-0.821155,4.371966
20.53,-0.534884,-0.891998,4.565203
20.539999999999992,-0.592243,-0.963887,4.754534
20.55,-0.64625,-1.062852,4.95541
20.56,-0.702668,-1.124702,5.120167
20.569999999999997,-0.730939,-1.203548,5.294207
20.58,-0.778785,-1.241062,5.456612
20.590000000000003,-0.791408,-1.302649,5.610972
20.599999999999994,-0.810998,-1.335416,5.754641
20.61,-0.8386,-1.346593,5.883842
20.620000000000005,-0.848153,-1.364851,5.993102
20.629999999999995,-0.87137,-1.388658,6.118557
20.64,-0.868844,-1.388844,6.213562
20.64999999999999,-0.887004,-1.374613,6.324879
20.66,-0.875665,-1.329518,6.398623
20.67,-0.845306,-1.282631,6.443388
20.679999999999996,-0.82214,-1.220462,6.477267
20.69,-0.778764,-1.151905,6.511508
20.700000000000003,-0.77813,-1.077366,6.563528
20.709999999999997,-0.761412,-1.018857,6.594557
20.72,-0.728218,-0.954784,6.61671
20.730000000000004,-0.695537,-0.860868,6.6319
20.739999999999995,-0.661742,-0.748834,6.640012
20.75,-0.639798,-0.626025,6.630773
20.75999999999999,-0.618922,-0.510569,6.615973
20.77,-0.620089,-0.397045,6.588061
20.78,-0.614392,-0.26363,6.578759
20.789999999999992,-0.631814,-0.139354,6.553493
20.8,-0.654997,-0.033061,6.533412
20.81,-0.687545,0.06966,6.489409
20.819999999999997,-0.686509,0.150841,6.459301
20.83,-0.69753,0.226522,6.418915
20.840000000000003,-0.720784,0.285033,6.36719
20.849999999999994,-0.750798,0.32556,6.300531
20.86,-0.783197,0.338172,6.212505
20.870000000000005,-0.767467,0.336645,6.109404
20.879999999999995,-0.734588,0.322604,6.008237
20.89,-0.709367,0.294159,5.894938
20.89999999999999,-0.685388,0.25318,5.767808
20.91,-0.672554,0.213171,5.614982
20.92,-0.642042,0.140798,5.442845
20.929999999999996,-0.62604,0.089963,5.241539
20.94,-0.615002,0.013851,5.036192
20.950000000000003,-0.565533,-0.045711,4.796855
20.959999999999997,-0.519131,-0.11968,4.542661
20.97,-0.432152,-0.165458,4.276525
20.980000000000004,-0.343248,-0.194932,3.992343
20.989999999999995,-0.261275,-0.191923,3.693833
21.0,-0.192175,-0.187165,3.379689
21.00999999999999,-0.163703,-0.193569,3.031981
21.02,-0.14418,-0.183785,2.674296
21.03,-0.135923,-0.183025,2.296271
21.039999999999992,-0.103723,-0.174059,1.926892
21.05,-0.081293,-0.182294,1.509678
21.06,-0.042143,-0.184173,1.113765
21.069999999999997,-0.025302,-0.206851,0.711833
21.08,-0.024451,-0.197167,0.304569
21.090000000000003,-0.040285,-0.201968,-0.101264
21.099999999999994,-0.063475,-0.210447,-0.507222
21.11,-0.082737,-0.202703,-0.914771
21.120000000000005,-0.06741,-0.2182,-1.294721
21.129999999999995,-0.044009,-0.195918,-1.650378
21.14,0.009853,-0.214872,-2.00243
21.14999999999999,0.06246,-0.203324,-2.339547
21.16,0.137446,-0.240262,-2.640399
21.17,0.224112,-0.241048,-2.918751
21.179999999999996,0.316262,-0.243614,-3.193422
21.19,0.377242,-0.266277,-3.435876
21.200000000000003,0.426514,-0.280055,-3.67288
21.209999999999997,0.468102,-0.266875,-3.893213
21.22,0.531482,-0.26614,-4.106079
21.230000000000004,0.607196,-0.252797,-4.283927
21.239999999999995,0.664786,-0.232348,-4.456462
21.25,0.711294,-0.220911,-4.625571
21.25999999999999,0.749061,-0.196982,-4.767233
21.27,0.798991,-0.201769,-4.938303
21.28,0.865581,-0.206523,-5.079924
21.289999999999992,0.897573,-0.195244,-5.232749
21.3,0.957022,-0.18743,-5.368826
21.31,1.002393,-0.152675,-5.48285
21.319999999999997,1.053206,-0.112414,-5.616822
21.33,1.081125,-0.094039,-5.714865
21.340000000000003,1.093831,-0.043205,-5.838289
21.349999999999994,1.112781,-0.013996,-5.934448
21.36,1.095176,-0.011991,-6.095333
21.370000000000005,1.083157,-0.017243,-6.227938
21.379999999999995,1.047258,-0.024423,-6.373687
21.39,1.020398,-0.057677,-6.476685
21.39999999999999,1.010365,-0.056545,-6.602808
21.41,0.986488,-0.029515,-6.672179
21.42,0.973258,-0.011367,-6.763413
21.429999999999996,0.963535,0.039176,-6.817634
21.44,0.906094,0.086773,-6.892599
21.450000000000003,0.883787,0.141742,-6.932335
21.459999999999997,0.854928,0.181257,-6.958687
21.47,0.81622,0.231443,-6.977754
21.480000000000004,0.779759,0.241132,-6.98084
21.489999999999995,0.721244,0.237125,-6.969759
21.5,0.655427,0.243867,-6.982388
21.50999999999999,0.601176,0.278623,-6.974432
21.52,0.534637,0.337639,-6.947196
21.53,0.518627,0.402371,-6.899139
21.539999999999992,0.513378,0.451816,-6.844728
21.55,0.524712,0.499518,-6.764534
21.56,0.53787,0.552673,-6.696115
21.569999999999997,0.542459,0.578741,-6.615297
21.58,0.54175,0.602002,-6.503525
21.590000000000003,0.493014,0.599693,-6.407325
21.599999999999994,0.446313,0.606364,-6.303746
21.61,0.404712,0.598728,-6.224049
21.620000000000005,0.33265,0.619703,-6.120677
21.629999999999995,0.294409,0.637309,-6.009565
21.64,0.24703,0.647579,-5.879478
21.64999999999999,0.182597,0.667626,-5.729406
21.66,0.145881,0.691392,-5.552452
21.67,0.121798,0.706196,-5.379067
21.679999999999996,0.097717,0.717324,-5.193865
21.69,0.066216,0.707606,-4.977987
21.700000000000003,0.036638,0.694309,-4.741109
21.709999999999997,0.003613,0.686372,-4.48593
21.72,-0.007112,0.691127,-4.210206
21.730000000000004,-0.025277,0.677807,-3.912879
21.739999999999995,-0.045013,0.668973,-3.589041
21.75,-0.073618,0.665441,-3.237867
21.75999999999999,-0.095252,0.637539,-2.88508
21.77,-0.113268,0.596979,-2.513233
21.78,-0.126104,0.540322,-2.148794
21.789999999999992,-0.14096,0.462901,-1.765411
21.8,-0.13575,0.375683,-1.369984
21.81,-0.108335,0.295792,-0.952242
21.819999999999997,-0.101196,0.211298,-0.543947
21.83,-0.088514,0.125948,-0.120985
21.840000000000003,-0.111576,0.034962,0.30325
21.849999999999994,-0.11641,-0.058623,0.724952
21.86,-0.1316,-0.162084,1.124478
21.870000000000005,-0.127208,-0.29153,1.504798
21.879999999999995,-0.112848,-0.378566,1.904034
21.89,-0.101017,-0.483551,2.244549
21.89999999999999,-0.100404,-0.604856,2.588385
21.91,-0.096667,-0.690013,2.908973
21.92,-0.116685,-0.759047,3.19931
21.929999999999996,-0.157805,-0.822817,3.46752
21.94,-0.186259,-0.895563,3.734856
21.950000000000003,-0.213061,-0.966377,3.972074
21.959999999999997,-0.241667,-1.026339,4.189292
21.97,-0.281203,-1.080046,4.400059
21.980000000000004,-0.317145,-1.116501,4.566357
21.989999999999995,-0.360762,-1.179171,4.737711
22.0,-0.387772,-1.226387,4.897581
22.00999999999999,-0.431506,-1.28274,5.038844
22.02,-0.461033,-1.356135,5.156326
22.03,-0.50296,-1.407116,5.280307
22.039999999999992,-0.53375,-1.446324,5.400906
22.05,-0.586483,-1.486611,5.523901
22.06,-0.61192,-1.52843,5.630783
22.069999999999997,-0.649466,-1.575659,5.721059
22.08,-0.668542,-1.608345,5.806296
22.090000000000003,-0.686692,-1.640151,5.895183
22.099999999999994,-0.731999,-1.643236,5.962119
22.11,-0.744121,-1.627177,6.018744
22.120000000000005,-0.760773,-1.609399,6.07349
22.129999999999995,-0.752438,-1.568935,6.119726
22.14,-0.736707,-1.519406,6.160688
22.14999999999999,-0.722388,-1.501425,6.205839
22.16,-0.708902,-1.464504,6.223767
22.17,-0.697556,-1.443755,6.23229
22.179999999999996,-0.67463,-1.38603,6.239606
22.19,-0.655543,-1.348233,6.261262
22.200000000000003,-0.643677,-1.303211,6.280165
22.209999999999997,-0.58778,-1.243397,6.287981
22.22,-0.544063,-1.193561,6.283622
22.230000000000004,-0.527934,-1.145664,6.266114
22.239999999999995,-0.530727,-1.082588,6.251304
22.25,-0.520744,-1.008553,6.209371
22.25999999999999,-0.521188,-0.902146,6.172248
22.27,-0.534775,-0.817447,6.131024
22.28,-0.531665,-0.72184,6.099279
22.289999999999992,-0.532385,-0.62799,6.047366
22.3,-0.521057,-0.519675,5.98665
22.31,-0.542262,-0.43315,5.90147
22.319999999999997,-0.559701,-0.33757,5.81004
22.33,-0.570511,-0.226626,5.717052
22.340000000000003,-0.569465,-0.111987,5.614218
22.349999999999994,-0.563763,-0.039663,5.488146
22.36,-0.557911,0.036196,5.375824
22.370000000000005,-0.539785,0.086108,5.242354
22.379999999999995,-0.542005,0.125162,5.102131
22.39,-0.535935,0.128321,4.928714
22.39999999999999,-0.520642,0.139656,4.75005
22.41,-0.527981,0.105766,4.574165
22.42,-0.494103,0.072134,4.408862
22.429999999999996,-0.463943,0.041244,4.227132
22.44,-0.424164,-0.01395,4.035192
22.450000000000003,-0.39158,-0.063818,3.849624
22.459999999999997,-0.372002,-0.111891,3.627382
22.47,-0.366771,-0.142014,3.402417
22.480000000000004,-0.359895,-0.176611,3.164603
22.489999999999995,-0.331173,-0.203836,2.898828
22.5,-0.311781,-0.241022,2.630988
22.50999999999999,-0.286612,-0.257465,2.358934
22.52,-0.281817,-0.281232,2.060941
22.53,-0.260475,-0.30577,1.77412
22.539999999999992,-0.249821,-0.297925,1.460155
22.55,-0.237389,-0.291939,1.143401
22.56,-0.256201,-0.289747,0.811559
22.569999999999997,-0.22756,-0.300793,0.492061
22.58,-0.202557,-0.307366,0.165273
22.590000000000003,-0.170531,-0.329199,-0.165229
22.599999999999994,-0.132472,-0.323088,-0.478862
22.61,-0.102078,-0.331414,-0.811047
22.620000000000005,-0.065892,-0.334345,-1.112036
22.629999999999995,-0.019437,-0.314648,-1.432712
22.64,0.000236,-0.313153,-1.750312
22.64999999999999,0.057362,-0.326776,-2.040197
22.66,0.11599,-0.307949,-2.316881
22.67,0.185052,-0.323322,-2.594756
22.679999999999996,0.250744,-0.324352,-2.864263
22.69,0.3147,-0.323573,-3.12738
22.700000000000003,0.373284,-0.319259,-3.385067
22.709999999999997,0.447831,-0.301347,-3.613155
22.72,0.524277,-0.294301,-3.811205
22.730000000000004,0.602937,-0.25569,-4.024377
22.739999999999995,0.683547,-0.21527,-4.224685
22.75,0.725818,-0.169615,-4.4208
22.75999999999999,0.781044,-0.110386,-4.620231
22.77,0.782532,-0.03707,-4.820221
22.78,0.786795,0.028135,-5.000184
22.789999999999992,0.806162,0.115004,-5.164196
22.8,0.838122,0.187554,-5.330055
22.81,0.879012,0.233136,-5.46594
22.819999999999997,0.917308,0.290419,-5.601669
22.83,0.956357,0.333293,-5.724741
22.840000000000003,0.960388,0.361502,-5.850289
22.849999999999994,0.960012,0.397788,-5.969414
22.86,0.921094,0.411298,-6.061926
22.870000000000005,0.875207,0.45453,-6.173342
22.879999999999995,0.818509,0.495735,-6.261222
22.89,0.757878,0.517075,-6.345757
22.89999999999999,0.701633,0.569069,-6.396963
22.91,0.657731,0.595962,-6.457438
22.92,0.634976,0.633763,-6.523012
22.929999999999996,0.584693,0.655137,-6.563562
22.94,0.54084,0.671187,-6.58764
22.950000000000003,0.463405,0.703242,-6.613786
22.959999999999997,0.391458,0.723563,-6.617164
22.97,0.335027,0.744887,-6.627645
22.980000000000004,0.277793,0.768908,-6.628051
22.989999999999995,0.220245,0.774015,-6.628677
23.0,0.180266,0.787311,-6.618029
23.00999999999999,0.127349,0.79699,-6.616744
23.02,0.070351,0.830936,-6.600637
23.03,0.029717,0.859533,-6.588063
23.039999999999992,-0.004173,0.900777,-6.556024
23.05,-0.049862,0.954551,-6.536775
23.06,-0.080738,1.006595,-6.486299
23.069999999999997,-0.094251,1.05152,-6.421085
23.08,-0.102148,1.106376,-6.362102
23.090000000000003,-0.108559,1.139613,-6.307019
23.099999999999994,-0.13581,1.11953,-6.240036
23.11,-0.163298,1.131837,-6.150732
23.120000000000005,-0.203868,1.133272,-6.076342
23.129999999999995,-0.226944,1.131122,-5.978065
23.14,-0.246234,1.127102,-5.857901
23.14999999999999,-0.221658,1.112552,-5.716244
23.16,-0.203206,1.103341,-5.545353
23.17,-0.216012,1.087638,-5.381314
23.179999999999996,-0.219233,1.077283,-5.168663
23.19,-0.224303,1.067771,-4.962466
23.200000000000003,-0.215343,1.04654,-4.690461
23.209999999999997,-0.226833,1.008966,-4.430801
23.22,-0.222969,0.984889,-4.102279
23.230000000000004,-0.232313,0.931815,-3.770595
23.239999999999995,-0.210883,0.846449,-3.413314
23.25,-0.17256,0.77376,-3.021883
23.25999999999999,-0.166863,0.706291,-2.6016
23.27,-0.143053,0.620921,-2.163921
23.28,-0.120987,0.530923,-1.700751
23.289999999999992,-0.090869,0.43018,-1.233928
23.3,-0.075313,0.327555,-0.752668
23.31,-0.0645,0.214182,-0.273409
23.319999999999997,-0.047893,0.112562,0.21886
23.33,-0.020237,0.005585,0.727642
23.340000000000003,0.040122,-0.102888,1.210358
23.349999999999994,0.123984,-0.212946,1.662317
23.36,0.166702,-0.316048,2.103759
23.370000000000005,0.201046,-0.415549,2.519582
23.379999999999995,0.210441,-0.517021,2.903998
23.39,0.193549,-0.592526,3.262813
23.39999999999999,0.183877,-0.66077,3.590736
23.41,0.157361,-0.746167,3.899954
23.42,0.117823,-0.832434,4.17792
23.429999999999996,0.091508,-0.880648,4.432796
23.44,0.068608,-0.929731,4.656651
23.450000000000003,0.036308,-0.985219,4.861163
23.459999999999997,0.002049,-1.037054,5.041032
23.47,-0.056728,-1.077361,5.219771
23.480000000000004,-0.132343,-1.134891,5.380721
23.489999999999995,-0.195819,-1.169801,5.526549
23.5,-0.272244,-1.215582,5.672037
23.50999999999999,-0.339547,-1.251292,5.793106
23.52,-0.368652,-1.287583,5.890964
23.53,-0.411211,-1.347294,5.952754
23.539999999999992,-0.483579,-1.386542,6.022598
23.55,-0.557168,-1.434839,6.069466
23.56,-0.627867,-1.471439,6.106436
23.569999999999997,-0.685042,-1.518751,6.132461
23.58,-0.730747,-1.537102,6.162634
23.590000000000003,-0.726077,-1.547988,6.189003
23.599999999999994,-0.72015,-1.580497,6.188632
23.61,-0.718585,-1.591326,6.178431
23.620000000000005,-0.737934,-1.593279,6.165327
23.629999999999995,-0.735234,-1.598801,6.169808
23.64,-0.730708,-1.590753,6.140687
23.64999999999999,-0.719029,-1.59709,6.119709
23.66,-0.708001,-1.583508,6.092555
23.67,-0.718894,-1.559146,6.050621
23.679999999999996,-0.70788,-1.533749,5.999879
23.69,-0.691464,-1.515574,5.950935
23.700000000000003,-0.663886,-1.482923,5.894091
23.709999999999997,-0.647107,-1.454023,5.866305
23.72,-0.613591,-1.395238,5.814427
23.730000000000004,-0.561595,-1.332727,5.786587
23.739999999999995,-0.534453,-1.238908,5.797132
23.75,-0.494541,-1.132315,5.776038
23.75999999999999,-0.472543,-1.013218,5.778631
23.77,-0.454371,-0.906738,5.782867
23.78,-0.476126,-0.778904,5.784992
23.789999999999992,-0.500392,-0.679936,5.755669
23.8,-0.530207,-0.584578,5.724397
23.81,-0.560119,-0.48372,5.668543
23.819999999999997,-0.583135,-0.418867,5.634292
23.83,-0.617234,-0.348633,5.575275
23.840000000000003,-0.582034,-0.286028,5.507936
23.849999999999994,-0.57255,-0.222612,5.42476
23.86,-0.532398,-0.18518,5.339838
23.870000000000005,-0.536182,-0.146256,5.243384
23.879999999999995,-0.486994,-0.102364,5.123975
23.89,-0.450952,-0.076554,4.993209
23.89999999999999,-0.396729,-0.055209,4.857151
23.91,-0.361251,-0.049284,4.69875
23.92,-0.305602,-0.041334,4.54613
23.929999999999996,-0.27177,-0.02627,4.391444
23.94,-0.216364,-0.030891,4.226742
23.950000000000003,-0.153244,-0.012035,4.065166
23.959999999999997,-0.116349,-0.022181,3.87918
23.97,-0.068377,-0.025103,3.692528
23.980000000000004,-0.031702,-0.037938,3.482795
23.989999999999995,-0.014478,-0.063478,3.266234
24.0,0.026897,-0.055518,3.03395
24.00999999999999,0.086918,-0.067226,2.769714
24.02,0.125033,-0.079113,2.507909
24.03,0.148621,-0.085705,2.244155
24.039999999999992,0.144477,-0.092322,1.935307
24.05,0.118045,-0.117111,1.61682
24.06,0.117264,-0.122841,1.267832
24.069999999999997,0.1236,-0.137551,0.91515
24.08,0.137398,-0.135026,0.544472
24.090000000000003,0.15846,-0.141433,0.182926
24.099999999999994,0.214073,-0.153043,-0.193752
24.11,0.244046,-0.169366,-0.563501
24.120000000000005,0.286442,-0.205431,-0.941528
24.129999999999995,0.341711,-0.240536,-1.312051
24.14,0.380572,-0.279376,-1.66911
24.14999999999999,0.386028,-0.347308,-2.034302
24.16,0.371388,-0.419,-2.389753
24.17,0.367948,-0.471709,-2.755792
24.179999999999996,0.342551,-0.531785,-3.109434
24.19,0.333626,-0.586241,-3.47373
24.200000000000003,0.357011,-0.626123,-3.828282
24.209999999999997,0.39955,-0.627266,-4.145573
24.22,0.489308,-0.609159,-4.421798
24.230000000000004,0.588359,-0.591089,-4.675984
24.239999999999995,0.660599,-0.54707,-4.900966
24.25,0.732652,-0.510206,-5.136081
24.25999999999999,0.81781,-0.465165,-5.345335
24.27,0.896398,-0.380553,-5.533189
24.28,0.949404,-0.298878,-5.704077
24.289999999999992,0.960714,-0.201275,-5.853399
24.3,0.931004,-0.096664,-6.004084
24.31,0.912794,-0.026195,-6.140393
24.319999999999997,0.894149,0.062256,-6.252747
24.33,0.908766,0.113075,-6.365115
24.340000000000003,0.892266,0.16551,-6.485198
24.349999999999994,0.872857,0.203518,-6.596358
24.36,0.845794,0.212551,-6.693381
24.370000000000005,0.830488,0.207169,-6.775816
24.379999999999995,0.789502,0.199853,-6.862281
24.39,0.739177,0.176277,-6.939908
24.39999999999999,0.667981,0.159765,-7.010384
24.41,0.595375,0.163013,-7.065105
24.42,0.485295,0.173282,-7.134855
24.429999999999996,0.387619,0.198022,-7.164987
24.44,0.262629,0.246058,-7.229009
24.450000000000003,0.145427,0.301169,-7.241744
24.459999999999997,0.005064,0.390376,-7.242519
24.47,-0.119585,0.490518,-7.24569
24.480000000000004,-0.19385,0.601858,-7.260835
24.489999999999995,-0.256053,0.704197,-7.230229
24.5,-0.293511,0.821155,-7.221053
24.50999999999999,-0.287945,0.932949,-7.191305
24.52,-0.302534,1.042842,-7.161861
24.53,-0.319191,1.135555,-7.126226
24.539999999999992,-0.363018,1.240659,-7.081705
24.55,-0.388504,1.346786,-7.033285
24.56,-0.423685,1.425839,-7.005418
24.569999999999997,-0.431466,1.490604,-6.949961
24.58,-0.428259,1.553604,-6.888031
24.590000000000003,-0.403593,1.574372,-6.805301
24.599999999999994,-0.371544,1.592497,-6.708771
24.61,-0.337854,1.588079,-6.589615
24.620000000000005,-0.336993,1.591491,-6.47448
24.629999999999995,-0.320116,1.555253,-6.334087
24.64,-0.334145,1.523265,-6.179441
24.64999999999999,-0.344705,1.479532,-6.028534
24.66,-0.376295,1.425791,-5.861557
24.67,-0.373506,1.383912,-5.648321
24.679999999999996,-0.362156,1.354731,-5.416553
24.69,-0.351084,1.296693,-5.157717
24.700000000000003,-0.317533,1.262172,-4.87184
24.709999999999997,-0.250273,1.202535,-4.545629
24.72,-0.170093,1.139256,-4.195589
24.730000000000004,-0.133561,1.070192,-3.802341
24.739999999999995,-0.075521,0.97423,-3.413667
24.75,-0.005083,0.836834,-2.992427
24.75999999999999,0.065212,0.701329,-2.594876
24.77,0.143148,0.56758,-2.152453
24.78,0.209775,0.414857,-1.712263
24.789999999999992,0.282143,0.264872,-1.24367
24.8,0.330607,0.103775,-0.771882
24.81,0.422809,-0.068643,-0.297741
24.819999999999997,0.495306,-0.221322,0.191952
24.83,0.554855,-0.374014,0.663214
24.840000000000003,0.605448,-0.517781,1.142682
24.849999999999994,0.60482,-0.654688,1.605118
24.86,0.610027,-0.774499,2.076972
24.870000000000005,0.595325,-0.866456,2.515984
24.879999999999995,0.582205,-0.960111,2.924831
24.89,0.570923,-1.040166,3.308303
24.89999999999999,0.524486,-1.09703,3.711684
24.91,0.476947,-1.137527,4.054966
24.92,0.417499,-1.188932,4.41898
24.929999999999996,0.348299,-1.200684,4.739487
24.94,0.265225,-1.226969,5.066
24.950000000000003,0.186912,-1.231508,5.369094
24.959999999999997,0.136514,-1.249287,5.640475
24.97,0.113518,-1.256077,5.885858
24.980000000000004,0.09418,-1.252889,6.111288
24.989999999999995,0.058135,-1.262412,6.330865
25.0,0.003574,-1.27375,6.523695
25.00999999999999,-0.063914,-1.284259,6.695343
25.02,-0.145865,-1.267855,6.829656
25.03,-0.245513,-1.264196,6.948033
25.039999999999992,-0.335848,-1.240555,7.046679
25.05,-0.4407,-1.19624,7.111582
25.06,-0.512066,-1.172483,7.169378
25.069999999999997,-0.550073,-1.116046,7.217052
25.08,-0.580122,-1.080288,7.273706
25.090000000000003,-0.584369,-1.035419,7.341741
25.099999999999994,-0.585256,-0.995934,7.385074
25.11,-0.569686,-0.954496,7.428639
25.120000000000005,-0.591969,-0.924018,7.446026
25.129999999999995,-0.615071,-0.870061,7.426249
25.14,-0.640314,-0.832357,7.3962
25.14999999999999,-0.662524,-0.771138,7.352781
25.16,-0.651003,-0.724063,7.322414
25.17,-0.649957,-0.693307,7.270667
25.179999999999996,-0.62861,-0.655249,7.23021
25.19,-0.575128,-0.598837,7.169406
25.200000000000003,-0.522081,-0.555016,7.077428
25.209999999999997,-0.49523,-0.496157,6.999908
25.22,-0.470695,-0.448054,6.880222
25.230000000000004,-0.513483,-0.383318,6.770802
25.239999999999995,-0.536462,-0.338248,6.657748
25.25,-0.553178,-0.30574,6.548254
25.25999999999999,-0.557054,-0.271409,6.437076
25.27,-0.520345,-0.216076,6.328506
25.28,-0.473259,-0.194799,6.215136
25.289999999999992,-0.425219,-0.172617,6.110953
25.3,-0.397841,-0.177613,5.992488
25.31,-0.365752,-0.188926,5.905065
25.319999999999997,-0.352525,-0.221877,5.78245
25.33,-0.346295,-0.243159,5.681833
25.340000000000003,-0.336764,-0.271569,5.553766
25.349999999999994,-0.323173,-0.278375,5.433265
25.36,-0.289863,-0.30294,5.290888
25.370000000000005,-0.243163,-0.292314,5.150933
25.379999999999995,-0.184283,-0.293285,4.952536
25.39,-0.116054,-0.271673,4.738077
25.39999999999999,-0.070153,-0.25832,4.488497
25.41,-0.055375,-0.243389,4.231227
25.42,-0.042092,-0.23732,3.913599
25.429999999999996,-0.030131,-0.251069,3.579232
25.44,-0.035436,-0.234219,3.192016
25.450000000000003,-0.025848,-0.235259,2.750883
25.459999999999997,-0.050267,-0.232849,2.276487
25.47,-0.116938,-0.237902,1.789568
25.480000000000004,-0.203116,-0.237533,1.251322
25.489999999999995,-0.273112,-0.264157,0.733972
25.5,-0.34511,-0.298058,0.205548
25.50999999999999,-0.404016,-0.312033,-0.330654
25.52,-0.410042,-0.350965,-0.831758
25.53,-0.40616,-0.400657,-1.327384
25.539999999999992,-0.39977,-0.423315,-1.787913
25.55,-0.379766,-0.466715,-2.217466
25.56,-0.377463,-0.48777,-2.615037
25.569999999999997,-0.357034,-0.529474,-2.994312
25.58,-0.35236,-0.545246,-3.334202
25.590000000000003,-0.296851,-0.585003,-3.671864
25.599999999999994,-0.225685,-0.577858,-3.964895
25.61,-0.18023,-0.584422,-4.242004
25.620000000000005,-0.106804,-0.525981,-4.457683
25.629999999999995,-0.035396,-0.49279,-4.649023
25.64,0.021524,-0.410264,-4.803456
25.64999999999999,0.116365,-0.309602,-4.93619
25.66,0.173224,-0.195713,-5.038229
25.67,0.236419,-0.08893,-5.134764
25.679999999999996,0.305639,0.042237,-5.208993
25.69,0.383478,0.144716,-5.288906
25.700000000000003,0.465174,0.252589,-5.345859
25.709999999999997,0.557627,0.346098,-5.399181
25.72,0.600769,0.440211,-5.446751
25.730000000000004,0.668971,0.502073,-5.5017
25.739999999999995,0.718017,0.561063,-5.545985
25.75,0.793783,0.583254,-5.607687
25.75999999999999,0.8464,0.59904,-5.693514
25.77,0.897558,0.631997,-5.761794
25.78,0.907002,0.633189,-5.839231
25.789999999999992,0.909934,0.630757,-5.925006
25.8,0.891472,0.606572,-6.01405
25.81,0.827394,0.58929,-6.10454
25.819999999999997,0.752074,0.56563,-6.219007
25.83,0.710845,0.549408,-6.315606
25.840000000000003,0.663864,0.520625,-6.423334
25.849999999999994,0.641141,0.508147,-6.500359
25.86,0.600316,0.504496,-6.572073
25.870000000000005,0.528452,0.500603,-6.636949
25.879999999999995,0.449561,0.516499,-6.704429
25.89,0.393347,0.510902,-6.749895
25.89999999999999,0.292563,0.514879,-6.783938
25.91,0.174554,0.51871,-6.799945
25.92,0.029151,0.526896,-6.821784
25.929999999999996,-0.090553,0.538917,-6.837773
25.94,-0.183821,0.556608,-6.871603
25.950000000000003,-0.276594,0.601317,-6.892346
25.959999999999997,-0.34396,0.640784,-6.927423
25.97,-0.443454,0.71783,-6.933264
25.980000000000004,-0.530045,0.793069,-6.926181
25.989999999999995,-0.579508,0.888291,-6.888228
26.0,-0.609445,0.990743,-6.820776
26.00999999999999,-0.598866,1.086101,-6.699008
26.02,-0.574556,1.185178,-6.582499
26.03,-0.539523,1.248128,-6.424279
26.039999999999992,-0.519043,1.312691,-6.25895
26.05,-0.479088,1.321396,-6.061173
26.06,-0.462005,1.328166,-5.863724
26.069999999999997,-0.436016,1.308843,-5.646305
26.08,-0.407357,1.27233,-5.405319
26.090000000000003,-0.356458,1.235031,-5.125716
26.099999999999994,-0.324053,1.173417,-4.821033
26.11,-0.274798,1.117216,-4.472188
26.120000000000005,-0.212826,1.035657,-4.080546
26.129999999999995,-0.154696,0.932312,-3.668206
26.14,-0.073179,0.796677,-3.240411
26.14999999999999,0.017459,0.652993,-2.798888
26.16,0.100529,0.48579,-2.339492
26.17,0.150498,0.301265,-1.8643
26.179999999999996,0.239793,0.127936,-1.406702
26.19,0.274519,-0.03225,-0.934137
26.200000000000003,0.303596,-0.197838,-0.470837
26.209999999999997,0.323054,-0.335523,-0.008222
26.22,0.317791,-0.484179,0.468553
26.230000000000004,0.333731,-0.617319,0.931199
26.239999999999995,0.350048,-0.717967,1.374158
26.25,0.392533,-0.830099,1.7954
26.25999999999999,0.442769,-0.913374,2.21801
26.27,0.486893,-0.962435,2.609896
26.28,0.529705,-1.018627,2.964247
26.289999999999992,0.567552,-1.038796,3.31533
26.3,0.58785,-1.066267,3.656946
26.31,0.615688,-1.072025,3.980648
26.319999999999997,0.608759,-1.072532,4.290263
26.33,0.61808,-1.075554,4.578146
26.340000000000003,0.62947,-1.047003,4.831697
26.349999999999994,0.601949,-1.041238,5.062525
26.36,0.556346,-1.011216,5.269691
26.370000000000005,0.489205,-0.952419,5.469636
26.379999999999995,0.432571,-0.919632,5.657552
26.39,0.375953,-0.881443,5.834573
26.39999999999999,0.328886,-0.808038,5.992903
26.41,0.292372,-0.755289,6.138301
26.42,0.269007,-0.66643,6.255051
26.429999999999996,0.175414,-0.602181,6.32677
26.44,0.056789,-0.506532,6.4086
26.450000000000003,-0.104154,-0.423782,6.478747
26.459999999999997,-0.235834,-0.330941,6.521985
26.47,-0.356692,-0.257929,6.581545
26.480000000000004,-0.464823,-0.188402,6.637541
26.489999999999995,-0.51226,-0.144622,6.670182
26.5,-0.525132,-0.100608,6.681301
26.50999999999999,-0.519955,-0.054609,6.66255
26.52,-0.534298,0.002199,6.587088
26.53,-0.528245,0.047256,6.455155
26.539999999999992,-0.516173,0.090205,6.272185
26.55,-0.490057,0.131531,6.010827
26.56,-0.485148,0.160886,5.741708
26.569999999999997,-0.452949,0.189652,5.446431
26.58,-0.417526,0.202273,5.123534
26.590000000000003,-0.357297,0.197925,4.73403
26.599999999999994,-0.312942,0.178929,4.338711
26.61,-0.318369,0.14701,3.918013
26.620000000000005,-0.325652,0.115031,3.493656
26.629999999999995,-0.33095,0.080322,3.092129
26.64,-0.337972,0.049311,2.693389
26.64999999999999,-0.337336,0.020969,2.33225
26.66,-0.330378,-0.025429,1.993822
26.67,-0.34703,-0.059206,1.647907
26.679999999999996,-0.338721,-0.100113,1.353373
26.69,-0.307966,-0.108429,1.059537
26.700000000000003,-0.268118,-0.132965,0.798528
26.709999999999997,-0.231599,-0.146838,0.565952
26.72,-0.184079,-0.175181,0.36809
26.730000000000004,-0.166491,-0.193817,0.185481
26.739999999999995,-0.134352,-0.22856,0.032046
26.75,-0.119274,-0.255288,-0.095971
26.75999999999999,-0.100124,-0.26933,-0.190789
26.77,-0.081329,-0.30681,-0.284048
26.78,-0.064081,-0.33898,-0.351717
26.789999999999992,-0.050306,-0.365848,-0.405689
26.8,-0.049307,-0.381965,-0.482507
26.81,-0.060887,-0.39815,-0.529391
26.819999999999997,-0.046776,-0.406941,-0.585901
26.83,-0.019688,-0.412077,-0.625781
26.840000000000003,0.016744,-0.402718,-0.665358
26.849999999999994,0.035067,-0.391771,-0.683256
26.86,0.077121,-0.375248,-0.714465
26.870000000000005,0.088378,-0.348993,-0.725829
26.879999999999995,0.10342,-0.317317,-0.731577
26.89,0.105449,-0.292068,-0.753137
26.89999999999999,0.103262,-0.252606,-0.758229
26.91,0.078461,-0.251056,-0.775931
26.92,0.027871,-0.219084,-0.761622
26.929999999999996,-0.004752,-0.20223,-0.763704
26.94,-0.02715,-0.176273,-0.765536
26.950000000000003,-0.033054,-0.151189,-0.754346
26.959999999999997,-0.037854,-0.12269,-0.719382
26.97,-0.047118,-0.099451,-0.658941
26.980000000000004,-0.035649,-0.081261,-0.625668
26.989999999999995,-0.042044,-0.101092,-0.582158
27.0,-0.049444,-0.117368,-0.564185
27.00999999999999,-0.085773,-0.113207,-0.546362
27.02,-0.103786,-0.103527,-0.53649
27.03,-0.116334,-0.102797,-0.506544
27.039999999999992,-0.110923,-0.12082,-0.477472
27.05,-0.097639,-0.116308,-0.416937
27.06,-0.091506,-0.102823,-0.355458
27.069999999999997,-0.067525,-0.109064,-0.317757
27.08,-0.048202,-0.1163,-0.289284
27.090000000000003,-0.027259,-0.146093,-0.239162
27.099999999999994,-0.032275,-0.14635,-0.177153
27.11,-0.017411,-0.167255,-0.104161
27.120000000000005,-0.003824,-0.154711,-0.025298
27.129999999999995,0.040839,-0.145498,0.062167
27.14,0.056015,-0.136485,0.120892
27.14999999999999,0.067881,-0.104086,0.18261
27.16,0.022769,-0.08644,0.235209
27.17,-0.026162,-0.081415,0.287597
27.179999999999996,-0.061115,-0.10321,0.30515
27.19,-0.09361,-0.083534,0.317754
27.200000000000003,-0.109877,-0.079147,0.335856
27.209999999999997,-0.115058,-0.054846,0.328724
27.22,-0.118577,-0.045815,0.334269
27.230000000000004,-0.116061,-0.006994,0.343039
27.239999999999995,-0.089975,0.022063,0.342838
27.25,-0.056889,0.026771,0.356111
27.25999999999999,-0.010686,0.06313,0.344366
27.27,0.021904,0.059764,0.30456
27.28,0.025412,0.057954,0.288128
27.289999999999992,0.041679,0.058044,0.261837
27.3,0.056684,0.038371,0.229824
27.31,0.061031,0.027598,0.220592
27.319999999999997,0.069933,0.022328,0.196898
27.33,0.107147,0.011817,0.179912
27.340000000000003,0.135267,0.014797,0.142878
27.349999999999994,0.132898,-0.009488,0.122467
27.36,0.134148,-0.029201,0.087548
27.370000000000005,0.141557,-0.007435,0.056865
27.379999999999995,0.124782,-0.016497,0.034618
27.39,0.126295,-0.020031,-0.001047
27.39999999999999,0.140449,-0.036096,-0.033031
27.41,0.125503,-0.036986,-0.076156
27.42,0.130993,-0.02879,-0.093326
27.429999999999996,0.130923,-0.028737,-0.100596
27.44,0.130688,-0.026857,-0.133418
27.450000000000003,0.114057,-0.023309,-0.162785
27.459999999999997,0.115003,-0.017892,-0.169989
27.47,0.108418,-0.021548,-0.188394
27.480000000000004,0.101056,-0.018906,-0.202179
27.489999999999995,0.115582,-0.016093,-0.224796
