time,Gyr_X,Gyr_Y,Gyr_Z
0.0,-0.0189598188592066,0.0162302461349592,-0.0132244143462249
0.0100000000000051,-0.026011032490562,0.017431938708749,-0.0177517409442365
0.0200000000000102,-0.0322217646784646,0.0185983855465341,-0.0232807568401826
0.0300000000000011,-0.0259597959288656,0.0115213596942951,-0.0181982569030744
0.0400000000000062,-0.0169863386662867,0.0096451934345202,-0.0079107394475946
0.0499999999999971,-0.02243794038691,0.0115963545083716,-0.0141889605909916
0.0600000000000022,-0.0256359719879579,0.0088029741683546,-0.0155398736433622
0.0700000000000073,-0.0319971672088178,0.0120741887218433,-0.0162131694783628
0.0799999999999983,-0.0379275961339111,0.0108266024135323,-0.018054544721478
0.0900000000000034,-0.0324452125580223,0.0022609969191125,-0.0184019879777909
0.1000000000000085,-0.0249611750302569,-0.0015868640597998,-0.0178941559166733
0.1099999999999994,-0.0230359830344101,0.0027732229301375,-0.0278295659246046
0.1200000000000045,-0.0194355387952188,-0.0038701998489338,-0.0261682811185421
0.1300000000000096,-0.0208189620269499,-0.0007405917024972,-0.0231802614032812
0.1400000000000005,-0.011390191864861,0.0025210012298373,-0.0217526635224318
0.1500000000000056,-0.013210557247121,0.0030816785552714,-0.0173686467150285
0.1600000000000108,-0.0067572177585661,0.0011820263135079,-0.0149082406872235
0.1700000000000017,0.0027662837472234,-0.0037867400847034,-0.0058044163911506
0.1800000000000068,-0.0030742811141628,-0.0003209270313239,-0.0152674739006589
0.1899999999999977,-0.0015469196964842,-0.0033259681861684,-0.0145866679908703
0.2000000000000028,-0.0100194862652363,0.0007533605753249,-0.0214367495573196
0.2100000000000079,-0.0153769266240851,0.0065874852339798,-0.0350065652063906
0.2199999999999988,-0.0172673707006221,0.0065471963690006,-0.0354902817734693
0.2300000000000039,-0.0263414374669349,0.0013896160974421,-0.029722476296044
0.2400000000000091,-0.0419322157608311,-0.0032581852707904,-0.0296521105207521
0.25,-0.0430931535509792,-0.0100101565290502,-0.0287220636820147
0.2600000000000051,-0.0460828922850612,-0.0128476901528137,-0.0207558499293904
0.2700000000000102,-0.0444928168114158,-0.0133996407587178,-0.0189385093887643
0.2800000000000011,-0.0428787083024743,-0.0192615545901806,-0.0185525551865639
0.2900000000000062,-0.0403679081328525,-0.0166068540620752,-0.0193158698303652
0.2999999999999971,-0.0372360518358952,-0.0196264440645326,-0.020187356738024
0.3100000000000023,-0.0444500382660595,-0.0208544553318076,-0.0156713103767536
0.3200000000000074,-0.0416792075078241,-0.0184974610260172,-0.021857750327146
0.3299999999999983,-0.0355152659795727,-0.0193444502662462,-0.0141960705076788
0.3400000000000034,-0.0197764494320001,-0.020531226000224,-0.0177837433745155
0.3500000000000085,-0.0196299783799983,-0.0170354136105406,-0.0140884022271853
0.3599999999999994,-0.0061421295752016,-0.0088774233740602,-0.0125899488299395
0.3700000000000045,0.0078027167729023,-0.0089079440991123,-0.0136423874869843
0.3800000000000096,0.0216932456403167,-0.0059193043186244,-0.0177958845037901
0.3900000000000005,0.0309176172539361,-0.0075589209053325,-0.0259865793837337
0.4000000000000057,0.0391901521841804,-0.0050110236104906,-0.0231895617768165
0.4100000000000108,0.0584396952212951,0.0034530244841874,-0.019901071250024
0.4200000000000017,0.0660523516779513,0.001894218345859,-0.0184587738410161
0.4300000000000068,0.0796806369953914,0.0043867215293567,-0.0194728318527024
0.4399999999999977,0.082705328552087,0.0012160452670528,-0.0148065767833434
0.4500000000000028,0.0746542926856725,-0.0042806005024086,-0.0094674687216629
0.4600000000000079,0.0632296644109572,-0.0063137160377384,-0.0078062798004467
0.4699999999999988,0.0641751259818964,-0.0058990796376335,-0.0052486318778837
0.480000000000004,0.0471890614169307,-0.017045629480286,-0.0068194036163373
0.4900000000000091,0.0339361232546917,-0.0119480059886265,-0.0067966161927378
0.5,0.010278046828836,-0.0113120384707685,-0.005693567436209
0.5100000000000051,-0.0004264486171165,-0.009873016777841,-0.0126966228764933
0.5200000000000102,-0.0211629316453687,-0.0111428492881191,-0.0070894884057032
0.5300000000000011,-0.0411175070296305,-0.0062060024354748,-0.0063053952940775
0.5400000000000063,-0.054276200693177,-0.0123938237449896,-0.0027074273679416
0.5499999999999972,-0.0655489967876162,-0.004991613551353,0.00188656658509
0.5600000000000023,-0.0678927904429749,0.0007906269057969,0.004261414083063
0.5700000000000074,-0.0689128148373787,0.0029727704955501,-0.0003479236451327
0.5799999999999983,-0.0656881504671543,0.005030269534468,-0.0077095385951297
0.5900000000000034,-0.0573769425859991,0.005979624118665,-0.0110374643838343
0.6000000000000085,-0.0534460559189883,0.0062018504729448,-0.0152553322153093
0.6099999999999994,-0.0485179709304592,0.0063310458321412,-0.0166055543306369
0.6200000000000045,-0.0550283752957942,0.0101614766957657,-0.0247394525122663
0.6300000000000097,-0.0535786699230481,0.0071456682628507,-0.0197695223627447
0.6400000000000006,-0.049174821566546,-0.0005965299477409,-0.020845777188755
0.6500000000000057,-0.048181975573696,0.0012833349678709,-0.0164377589937883
0.6600000000000108,-0.042202562071379,-0.0092698335003148,-0.0074300039785522
0.6700000000000017,-0.0395081648716289,-0.0131682164351042,-0.012343501713301
0.6800000000000068,-0.0357516917706581,-0.0187197481070483,-0.0159685733401318
0.6899999999999977,-0.0276472895471826,-0.0232117249756669,-0.026063931926009
0.7000000000000028,-0.0279019654372366,-0.0236090979372354,-0.0327696789854476
0.710000000000008,-0.0261412284924997,-0.0230684979544247,-0.0341833257142794
0.7199999999999989,-0.0293427024123643,-0.0223304277239384,-0.0315504517463792
0.730000000000004,-0.0432071958792698,-0.0226291099922797,-0.0321577558065526
0.7400000000000091,-0.0447430584655834,-0.0146383064821617,-0.0300845510539442
0.75,-0.0477979157241533,-0.0135054221625872,-0.0254647645915367
0.7600000000000051,-0.0560602409343703,0.0055501537082738,-0.0274584456270879
0.7700000000000102,-0.0493642085581676,0.0073286246740708,-0.0222667437006867
0.7800000000000011,-0.0507729532550934,0.0055013898938473,-0.0170520571751773
0.7900000000000063,-0.0491921815030248,0.0088568373844899,-0.0170865187743603
0.7999999999999972,-0.0463314018992772,0.0146275395762093,-0.0105909219250218
0.8100000000000023,-0.041884454984244,0.0243622737367116,-0.0064402887611472
0.8200000000000074,-0.0401093305721271,0.029334786363388,-0.0037793736871013
0.8299999999999983,-0.04266212722788,0.0342439020668317,-0.0005582971325942
0.8400000000000034,-0.059426945400088,0.0382786143721515,0.0021534762341617
0.8500000000000085,-0.0688605274220144,0.0320960205250106,0.0071155443710188
0.8599999999999994,-0.0824606799713035,0.0287812825752775,0.014602516182685
0.8700000000000045,-0.097772184995158,0.0248540041383694,0.012070846034807
0.8800000000000097,-0.1129262999283091,0.0245533380421634,0.0066743018669912
0.8900000000000006,-0.1165044828828501,0.0137189273368056,0.0103827903905946
0.9000000000000057,-0.1130366787085767,0.0096198728980729,0.0085690939096301
0.9100000000000108,-0.0958682730214294,0.0128503308705053,0.0132463840219407
0.9200000000000016,-0.0865041345786187,0.0183619356347455,0.0008463065283079
0.9300000000000068,-0.0745004143127884,0.0216033019758834,-0.0056234780730968
0.9399999999999976,-0.0703618375377219,0.0254246284539993,-0.006256532591215
0.9500000000000028,-0.0716744804226495,0.0281402825798841,-0.0076250490319448
0.960000000000008,-0.0762103089854875,0.0296356746431079,-0.008182299766894
0.9699999999999988,-0.0830558162689974,0.0305109108224973,-0.0114398960984767
0.980000000000004,-0.0787470142538902,0.0305124499609825,-0.0030361603832174
0.9900000000000092,-0.0695841612547095,0.0373264878961344,0.0040810274119649
1.0,-0.0599412021392132,0.0382144266147324,0.0060370301021237
1.0100000000000051,-0.0464790918491119,0.0325602869005403,0.0173044160091835
1.0200000000000102,-0.035675561178631,0.0285554380108223,0.0191856121438914
1.0300000000000011,-0.0371889748007125,0.0392150037278644,0.0325253095407485
1.0400000000000065,-0.0400732711720595,0.0422990340833211,0.0355400735312846
1.0499999999999972,-0.0483729496031705,0.0413562918781739,0.0380355241909369
1.0600000000000025,-0.0594804207219074,0.0474009757397739,0.0372874129797275
1.0700000000000074,-0.0605262413270829,0.0471717104448618,0.039438337950631
1.0799999999999983,-0.0607813221831205,0.0482511375015066,0.0434323067428595
1.0900000000000034,-0.051331876531826,0.0556341621967136,0.0414452310021389
1.1000000000000083,-0.0489387708270802,0.0515819910290908,0.0453306755431154
1.1099999999999994,-0.0484566479687678,0.0538471413851302,0.0431177654846896
1.1200000000000043,-0.0403853807969286,0.0530341566256305,0.0425852915777279
1.1300000000000097,-0.0406771105936129,0.0444374658739551,0.0360635492655519
1.1400000000000006,-0.0239253726974391,0.0493010243331375,0.020211157934578
1.1500000000000057,-0.0077733095412375,0.0438466884768753,0.0046090455506026
1.1600000000000108,0.0172754728283345,0.0393394369828283,-0.0030965300235302
1.1700000000000017,0.0390083796940212,0.0323871842241246,-0.0143116926773961
1.1800000000000068,0.0604156102113872,0.0290731133349657,-0.0242442356573417
1.1899999999999975,0.0715686675526593,0.023221758614566,-0.0251259277564869
1.2000000000000028,0.0618895133790092,0.0239362539503459,-0.0295592460239127
1.210000000000008,0.0548154994109634,0.0103643644438937,-0.0396220247184801
1.2199999999999989,0.0311781206085917,-0.0027662908801768,-0.0413681959833268
1.230000000000004,0.0073319726017258,-0.0132844050326541,-0.0402261071923666
1.240000000000009,-0.0097646037677262,-0.0213002145790044,-0.0490054048070797
1.25,-0.0238808407435747,-0.0244116444772204,-0.0543944403913135
1.2600000000000051,-0.049467068347089,-0.0169544635875497,-0.059026411664751
1.2700000000000102,-0.06878425535036,-0.0155396720613653,-0.060047734611883
1.2800000000000011,-0.0772449260859152,-0.0037491184371777,-0.063996729621028
1.2900000000000065,-0.0928788380830712,0.0055670218032666,-0.0670743296712842
1.2999999999999972,-0.0948721005652897,0.0022709683949578,-0.0607885770670208
1.3100000000000025,-0.1055706263733647,0.0138062664604583,-0.0470310105799513
1.3200000000000074,-0.1202128451269874,0.0286438402843475,-0.0300887271064684
1.3299999999999983,-0.1446013239466139,0.037682008497111,-0.0206753796506642
1.3400000000000034,-0.165073020918259,0.039479951557472,-0.0223248582210885
1.3500000000000083,-0.1534253008851188,0.0452882195552645,-0.022523649521089
1.3599999999999994,-0.1335928969429872,0.0546987829224337,-0.0075451699252941
1.3700000000000043,-0.0788072610717708,0.0486480789472786,-0.0138515607292203
1.3800000000000097,-0.0207027543319609,0.03880099225529,-0.0178449617349326
1.3900000000000006,0.0568104579001171,0.0343490116317608,-0.0301330611023271
1.4000000000000057,0.1539344987628039,0.034279033595405,-0.0313028641300715
1.4100000000000108,0.2334332189738971,0.0380959519139751,-0.0341697722083204
1.4200000000000017,0.3072451239581963,0.0398240484837116,-0.0393864874137726
1.4300000000000068,0.3557257045334246,0.0403758994373188,-0.0580180388634153
1.4399999999999975,0.3708668030299784,0.0438132870754742,-0.0771828779783256
1.4500000000000028,0.3818572142155935,0.0462031152572797,-0.0981484030546305
1.460000000000008,0.3756357094257788,0.0446934232939028,-0.1080701332492948
1.4699999999999989,0.3589381639767512,0.0475664875986336,-0.1170668056505267
1.480000000000004,0.3444318374228028,0.0587633394054574,-0.1113893947064011
1.490000000000009,0.3185240348842285,0.0618216248904125,-0.1075605842485555
1.5,0.2802866009458281,0.0855510057118674,-0.0920071314332807
1.5100000000000051,0.2292478880715643,0.0940085397336225,-0.0790549987229238
1.5200000000000102,0.1596629818699964,0.1010516910512896,-0.0667533927008923
1.5300000000000011,0.0762159724776863,0.1047856919767599,-0.0651559215772841
1.5400000000000065,0.0030996358034578,0.1059171416985096,-0.0540842720271756
1.5499999999999972,-0.058913336201,0.1065616698655676,-0.0472788636852877
1.5600000000000025,-0.1082550342850848,0.1024667179980484,-0.0444916521012576
1.5700000000000074,-0.1481646886152364,0.105751068715774,-0.0375674442769191
1.5799999999999983,-0.1971891526700095,0.1063624842333622,-0.0190021774741499
1.5900000000000034,-0.2301397322454362,0.1074518864555371,-0.0113704632674181
1.6000000000000083,-0.2702352208240674,0.1182630334020062,-0.0008881117285218
1.6099999999999994,-0.325422152404315,0.1337531327822186,0.0043038216212453
1.6200000000000043,-0.3465644552071627,0.1519767550111465,0.0130393256762104
1.6300000000000097,-0.3611366550747771,0.1602180144185562,0.0122743947924691
1.6400000000000006,-0.3497943743824977,0.1766455006010303,0.0162075640362991
1.6500000000000057,-0.309500528140434,0.1846402480580196,0.0186342438865864
1.6600000000000108,-0.2627385583929433,0.1901226755895321,0.0255578750442721
1.6700000000000017,-0.2113529539891865,0.1982373269779123,0.036140671584442
1.6800000000000068,-0.1542118352873126,0.198601899635826,0.0364847306516406
1.6899999999999975,-0.1057149485651212,0.2002214312160521,0.0459679771537938
1.7000000000000028,-0.0714614966871182,0.1923827921622254,0.0452778540137412
1.710000000000008,-0.0394398869863121,0.1805410019163109,0.0541731490142109
1.7199999999999989,-0.0195544765220862,0.1637132109385178,0.0524352791539877
1.730000000000004,-0.0085057799833325,0.1471063653067949,0.0320950584958803
1.740000000000009,0.0082684590351223,0.123381718360874,0.0138130201180191
1.75,0.0288796325684353,0.1067251485120402,-0.0119343113384142
1.7600000000000051,0.0592421199858885,0.0873608237400452,-0.0345644551434579
1.7700000000000102,0.1012536928318253,0.0753843440321578,-0.0458764032429574
1.7800000000000011,0.1304459264128643,0.061793818453385,-0.0682323050483298
1.7900000000000065,0.1535731165193154,0.0447443044088931,-0.0840201554326184
1.7999999999999972,0.1664223146288244,0.0367846754085045,-0.0880432364873334
1.8100000000000025,0.1622268193928713,0.0190863003519376,-0.090720306938623
1.8200000000000076,0.1541214333406133,0.0096067334098386,-0.0946364169255758
1.8299999999999983,0.1235678891837297,-0.0056667755782847,-0.0889211857806087
1.8400000000000036,0.0779752060747375,-0.0150803222229861,-0.0820394862999291
1.8500000000000083,0.0122081830935026,-0.0391485909381799,-0.0802147094129877
1.8599999999999997,-0.0357998599880934,-0.0401371063607366,-0.0702680794916809
1.8700000000000043,-0.0921533638358799,-0.0240319447477298,-0.0600255508506573
1.8800000000000097,-0.1364159296717554,-0.0121863081681134,-0.0473073228658121
1.8900000000000008,-0.1711322217132761,0.0069452903119261,-0.0477212346107876
1.9000000000000057,-0.1829823675837168,0.0272659597847689,-0.0501081322935011
1.9100000000000108,-0.200229206332076,0.0464937399639169,-0.0564223927949129
1.9200000000000017,-0.2104740807765412,0.0595891404210762,-0.0601130521335901
1.9300000000000068,-0.2350089693601024,0.0542390105477024,-0.0743695869781422
1.9399999999999975,-0.255131906532165,0.0347441036791558,-0.0861436391705373
1.9500000000000028,-0.2477252675666694,0.0265332880977636,-0.0997140076358969
1.960000000000008,-0.2134874010610673,0.0357436514894596,-0.0998874753448253
1.9699999999999989,-0.1587914210647873,0.038120678158937,-0.0904310082046501
1.980000000000004,-0.1116044931136421,0.0634262698824866,-0.0839943969364678
1.990000000000009,-0.0931657359041611,0.0902772254175578,-0.0537765122373517
2.0,-0.0949053642591351,0.1035562888446885,-0.0356570903689203
2.010000000000005,-0.0977570479313486,0.1220017783414623,-0.0265972404292109
2.0200000000000102,-0.0871675356025444,0.1434261202922952,-0.0067505309344236
2.030000000000001,-0.068329046436445,0.1553769762620612,-0.0063190550429668
2.0400000000000063,-0.0199810220404361,0.1756451255062935,-0.0244020245456068
2.049999999999997,0.0478458933799632,0.1934468650956537,-0.0310246914134668
2.0600000000000023,0.1058391749838794,0.179391265722967,-0.0461754771043873
2.0700000000000074,0.1409654511679624,0.1783612713211059,-0.0537394648916463
2.0799999999999983,0.1446885475958734,0.1809284165569517,-0.0599488661266029
2.0900000000000034,0.1344877173884529,0.1830257229215761,-0.0633628830608738
2.1000000000000085,0.1154774351995888,0.1856182197413101,-0.0611313468397092
2.1099999999999994,0.1067858725852673,0.1911074812897698,-0.0561776027816247
2.1200000000000045,0.1126791920348126,0.2066523663296988,-0.044123532890393
2.1300000000000097,0.1347989165035668,0.2240634829989143,-0.0379022038298711
2.140000000000001,0.1406833281162171,0.2455326948477898,-0.033218666017369
2.1500000000000057,0.1405559147321547,0.264260448271148,-0.0336702039587567
2.160000000000011,0.1209089028287532,0.2803298206265993,-0.0107757046097995
2.1700000000000017,0.0865280336238672,0.2925771874066446,0.0101826826612439
2.180000000000007,0.060492224605148,0.3184373909875058,0.0343184236184219
2.1899999999999977,0.0343682539320129,0.3399466123332852,0.044485661886505
2.200000000000003,0.0248641608384279,0.3631601824534515,0.0556287922468651
2.210000000000008,0.0382336759540194,0.3929410392747092,0.0693044083097775
2.219999999999999,0.0463952868055574,0.4243526825235761,0.070721481380977
2.230000000000004,0.0607914624732264,0.4547072277162653,0.0833694557982746
2.240000000000009,0.0810859859721269,0.4755275151334031,0.1035612332877758
2.25,0.1126294557797633,0.5137165231436278,0.1161031179769488
2.260000000000005,0.1471836151703501,0.546763935986623,0.1256789408572294
2.2700000000000102,0.1937498750199766,0.5848623584516324,0.1297063775256794
2.280000000000001,0.2253697952043822,0.6338072977146746,0.1409920217558592
2.2900000000000063,0.2363302342891128,0.6898763782528574,0.1655511516729886
2.299999999999997,0.1983385358634393,0.737317823275179,0.1981541169433711
2.3100000000000023,0.1462828939414749,0.7675293131029136,0.2173341822088141
2.3200000000000074,0.09465998697952,0.787455679082173,0.2384791168238652
2.3299999999999983,0.0463880622482839,0.8064040551262324,0.2631622117034385
2.3400000000000034,0.0095904457674466,0.8223814349258339,0.2955464323183344
2.3500000000000085,-0.019897815028845,0.8272037116919533,0.3288100613542551
2.3599999999999994,-0.0415699558920117,0.8375855114528504,0.3575947464404624
2.3700000000000045,-0.0578839198572901,0.8516362989824998,0.3793985679186332
2.3800000000000097,-0.0706347312611233,0.8667103440074635,0.3913797445854819
2.390000000000001,-0.0694343493777267,0.8914277430813983,0.4068074026289215
2.4000000000000057,-0.0660138642390726,0.9042237033573286,0.4250122345626035
2.410000000000011,-0.0663560188165181,0.9132926640576968,0.4515368362875696
2.4200000000000017,-0.0913082857278088,0.9113693403107792,0.4842012131868473
2.430000000000007,-0.1309742003227915,0.93037667626507,0.5138571129325739
2.4399999999999977,-0.1409505123250549,0.9460058102536358,0.5413850402993402
2.450000000000003,-0.1201718425020298,0.9704928283399472,0.5655246205165356
2.460000000000008,-0.0969646826149797,1.0055287620398192,0.5634331616378647
2.469999999999999,-0.0645792286681244,1.0165042114609837,0.5636882537750848
2.480000000000004,-0.0728705836624278,1.0265069689301227,0.5616072468572099
2.490000000000009,-0.0978994201665997,1.0364891281490876,0.5696877671031414
2.5,-0.1281505656952748,1.041447034383688,0.5847310707906034
2.510000000000005,-0.1493873377452771,1.041201178416192,0.5993539261620077
2.5200000000000102,-0.1694576889196024,1.0305979000992145,0.5929464955368057
2.530000000000001,-0.1155287278959989,1.0053051167688911,0.5533040037551907
2.5400000000000063,-0.0836668844533239,1.0224378681068635,0.5042489643178363
2.549999999999997,-0.1693611583469437,1.1016375369383018,0.4933578410623265
2.5600000000000023,-0.268144083049439,1.1599820276038917,0.505157137439333
2.5700000000000074,-0.3324812669562321,1.1762553833091345,0.5105352471592209
2.5799999999999983,-0.3710363624730953,1.2059514574405394,0.5242938037231731
2.5900000000000034,-0.422273352674333,1.2348785687645891,0.5477801200571724
2.6000000000000085,-0.4553979012245461,1.2748752446501084,0.5661419058278471
2.6099999999999994,-0.4542665504441491,1.311802326575969,0.5673837723621106
2.6200000000000045,-0.4284364708162374,1.3524025996447138,0.5637194033852986
2.6300000000000097,-0.4068071549364757,1.3883388013714952,0.5597928533751495
2.640000000000001,-0.3958341752773458,1.4233976031159934,0.541174103534145
2.6500000000000057,-0.4014580669846905,1.4595791020921014,0.5242603997174696
2.660000000000011,-0.4271257111978421,1.484945309942423,0.5122957799633504
2.6700000000000017,-0.4180974876197504,1.514108284130774,0.4947951105933461
2.680000000000007,-0.4033128867384253,1.5532425410257202,0.4678186806730436
2.6899999999999977,-0.3553996185452523,1.5655053886104957,0.4529436055902793
2.700000000000003,-0.3110383970218794,1.5925665855532314,0.4508738801849472
2.710000000000008,-0.2545955493820235,1.6101379468644714,0.4493452122331129
2.719999999999999,-0.2240479253010758,1.6243243094000437,0.4398683753686431
2.730000000000004,-0.2281604176010128,1.635560032098741,0.4404094886740263
2.740000000000009,-0.2402567533676837,1.6319270404711337,0.4294277242996154
2.75,-0.2434187393787632,1.6458490436036262,0.4194438798873129
2.760000000000005,-0.2332784405246401,1.6512472443159096,0.3958966617972808
2.7700000000000102,-0.2101264704378614,1.6482333080550489,0.3626564483200618
2.780000000000001,-0.1596012423172799,1.656312927919238,0.3325415040456846
2.7900000000000063,-0.1321288533731251,1.6523077156280854,0.3105061185372738
2.799999999999997,-0.1089678600305388,1.6364936190600696,0.3023147495111138
2.8100000000000023,-0.0766941829537899,1.6123102303384,0.3035799698924887
2.8200000000000074,-0.044847814998354,1.5932122366699908,0.311861798867153
2.8299999999999983,-0.0156257326610439,1.5722868547132822,0.3133070364623398
2.8400000000000034,0.036000414622594,1.551013566783924,0.3127308966128659
2.8500000000000085,0.1082500844149333,1.5245661879566716,0.313299166758833
2.8599999999999994,0.1793128254298383,1.4860687532493129,0.300171772587965
2.8700000000000045,0.2529503069645443,1.446025938186511,0.2782419169056627
2.8800000000000097,0.3122674256888398,1.3991011077576625,0.2659378274302296
2.890000000000001,0.3500836364681939,1.3732078514709225,0.2288070908046104
2.9000000000000057,0.3722839850743842,1.3580180529256265,0.2006456917774469
2.910000000000011,0.3727095212042846,1.3623417504811266,0.1806392498193821
2.9200000000000017,0.3744219525891215,1.346007751800605,0.1694171339868431
2.930000000000007,0.3679743551935645,1.321337157571914,0.1733543066253575
2.9399999999999977,0.3678109094887677,1.2885285750037887,0.1834749637886413
2.950000000000003,0.3503237066872741,1.2565129792072576,0.1908950966597025
2.960000000000008,0.3409862875951395,1.2349802772986658,0.1850156404016459
2.969999999999999,0.326866673783275,1.2289484654448306,0.1615955989437557
2.980000000000004,0.3154709904803462,1.2065557197790808,0.143707169943096
2.990000000000009,0.2992657030486295,1.1967784914961357,0.119133875640682
3.0,0.2762815999637541,1.1934932184755689,0.1066552680774842
3.010000000000005,0.2699570092842627,1.2118509672621125,0.104959126885707
3.0200000000000102,0.2431203387691972,1.2225591709995371,0.1092292844041124
3.030000000000001,0.2162311004149116,1.212985964528681,0.1057835230747384
3.0400000000000063,0.1869713388612388,1.1880816884830507,0.1019850052366084
3.049999999999997,0.1520607750294433,1.1620281734992208,0.0927635675933263
3.0600000000000023,0.123379782859365,1.134022771157231,0.0855987783801407
3.0700000000000074,0.1000351975391925,1.1291814503133677,0.0763813776474604
3.0799999999999983,0.0776834651107798,1.137184136211422,0.0662237678628596
3.0900000000000034,0.0696019497391956,1.1499722280679674,0.0670213712326417
3.1000000000000085,0.0859154399159393,1.1481876121257035,0.0724336574598219
3.1099999999999994,0.105638429154834,1.1487870736061352,0.0596600605649723
3.1200000000000045,0.1127989839623452,1.149651224081427,0.0417191859855851
3.1300000000000097,0.1174562986810949,1.1461973804268288,0.0208787029899818
3.140000000000001,0.1090622911602992,1.1425032768771726,0.0250676029287404
3.1500000000000057,0.0826174144063485,1.139173303142294,0.0343727437559367
3.160000000000011,0.0726661896220108,1.1416713935810183,0.037515337164631
3.1700000000000017,0.0806413295586856,1.149932534818824,0.0245074986431515
3.180000000000007,0.0921431211281072,1.1444234925052146,0.0111425849990366
3.1899999999999977,0.1199817634172105,1.117217287764415,0.0162342161278724
3.200000000000003,0.1358415884961819,1.0817404785077926,0.0097860588410678
3.210000000000008,0.1502286766151825,1.0399809948815015,0.0137284066290286
3.219999999999999,0.159012347094771,1.0041183172500516,0.0222152101827422
3.230000000000004,0.1571126856801082,0.9735829313018088,0.0216696509891704
3.240000000000009,0.1585719673923393,0.9498025437343506,0.0235532208796438
3.25,0.1557368409224105,0.9346486640022742,0.0120301189908518
3.260000000000005,0.1555402403022091,0.890061725705812,0.0007009838880224
3.2700000000000102,0.1521264457602857,0.840259128847565,0.0088646593794133
3.280000000000001,0.1238113035520717,0.7780627298427772,0.0132564302486509
3.2900000000000063,0.0913177095373513,0.7079238601807835,0.0239537277748491
3.299999999999997,0.0702318227320679,0.6274482865025752,0.0229296552941305
3.3100000000000023,0.0675047266583513,0.5528673946384768,0.0121142243097012
3.3200000000000074,0.0697481005470435,0.4727694037793193,0.0058073467034282
3.3299999999999983,0.0847729567438414,0.3952822162749446,-0.0109024100201127
3.3400000000000034,0.086005864192024,0.3061047233260713,-0.0340042321928241
3.3500000000000085,0.0722754498510401,0.2112946252703121,-0.0392275699178228
3.3599999999999994,0.0385415121184286,0.1325106173507681,-0.0366881903684338
3.3700000000000045,0.0005660599375187,0.0611037776725697,-0.041779541750598
3.3800000000000097,-0.028731485908833,-0.0243178756533108,-0.0520919463833388
3.390000000000001,-0.0490337184290412,-0.0971492681807014,-0.0670808967535575
3.4000000000000057,-0.0498967376648389,-0.1581253045824337,-0.0785813710089291
3.410000000000011,-0.0417266371294142,-0.2215097967261968,-0.0757548593806521
3.4200000000000017,-0.0240786629173995,-0.2798018665911175,-0.0731600598119301
3.430000000000007,-0.0027230389537658,-0.3278419670385349,-0.0743971882094385
3.4399999999999977,0.0261265888497492,-0.3811634269314891,-0.0771313394755833
3.450000000000003,0.0568009451170068,-0.4357677206570665,-0.0745389217572982
3.460000000000008,0.0915167053872308,-0.4828037361248139,-0.0850118578561201
3.469999999999999,0.1333081400993505,-0.5296372237228685,-0.0772804658775241
3.480000000000004,0.1696046055713223,-0.5766943423804699,-0.0728744131454834
3.490000000000009,0.1984841189921663,-0.6155348276007889,-0.0835401771420751
3.5,0.22751661204188,-0.6536386443801467,-0.0727772835362994
3.510000000000005,0.2271687685379106,-0.6982492646230088,-0.0786651755620157
3.5200000000000102,0.2248586378808696,-0.7332406141279012,-0.0797331716900572
3.530000000000001,0.204195095971081,-0.7652201631930925,-0.0850224604063027
3.5400000000000063,0.1712293639553119,-0.8067271760734507,-0.0928832302003978
3.549999999999997,0.1406798942862808,-0.8557464447693727,-0.0902883417646009
3.5600000000000023,0.1181697037915312,-0.902940478559252,-0.089405736869883
3.5700000000000074,0.1241471538518473,-0.9519831743094432,-0.0901624409856169
3.5799999999999983,0.1460710010549829,-0.9908944792135824,-0.0894399906322328
3.5900000000000034,0.1623858127401057,-1.0494889403609882,-0.0863888198991475
3.6000000000000085,0.1630535774174893,-1.0967484104040477,-0.0783158934256616
3.61,0.1432409659056555,-1.1529493715805978,-0.0626053572488841
3.620000000000005,0.1027853318983269,-1.2099295703075237,-0.0550970904932448
3.6300000000000097,0.0592543430004675,-1.2592990669810953,-0.0398206842791814
3.640000000000001,0.0373987258251793,-1.3183763260142267,-0.0440407032882667
3.6500000000000057,0.0360957832073267,-1.3657472407946512,-0.0684271603583409
3.660000000000011,0.054538570931484,-1.4113657048204686,-0.0715806046935571
3.6700000000000017,0.0672640344236011,-1.4521025298941903,-0.0871876105025129
3.680000000000007,0.0547071450644915,-1.5008811276336649,-0.0804955458807664
3.6899999999999977,0.0302104365151412,-1.5509240463008478,-0.0652993174464623
3.700000000000003,-0.0184863318337202,-1.592109172708614,-0.0572382901548511
3.710000000000008,-0.0695969690806896,-1.6382779553486442,-0.0480426375330832
3.719999999999999,-0.1081582954216969,-1.6852180070427278,-0.0549997215243182
3.730000000000004,-0.108464376912238,-1.7310072022553995,-0.0769204103851564
3.740000000000009,-0.0987002498159127,-1.774557516616465,-0.1003864462763477
3.75,-0.0707373138161569,-1.8067343761385328,-0.1144797331175874
3.760000000000005,-0.0358691125486141,-1.8476477667177815,-0.1040443565703702
3.77000000000001,-0.010475900544153,-1.874147861482697,-0.0934459937890091
3.780000000000001,0.0221478379808085,-1.903720827332871,-0.0880468762048704
3.7900000000000063,0.0341364555624737,-1.9220515426690312,-0.0869577782919676
3.799999999999997,0.0213286925525531,-1.9433941012651876,-0.0974984475094362
3.8100000000000014,0.0133658300106193,-1.9761576161329009,-0.1133068041416154
3.820000000000008,-0.0148719749919021,-2.0003164485178666,-0.1317894818618293
3.8299999999999983,-0.0485946950720448,-2.0316685979270024,-0.1519900740159122
3.8400000000000034,-0.0801298903176886,-2.059143837494635,-0.1613351876608826
3.850000000000009,-0.1088276341665028,-2.089941522238491,-0.1687753922833071
3.86,-0.1128078450212388,-2.0884525464091777,-0.1772880921551469
3.870000000000005,-0.1142959965377186,-2.0989147481017847,-0.1811551887959735
3.8800000000000097,-0.1047115522998436,-2.1159668701980494,-0.1810175602427767
3.890000000000001,-0.0937645885001589,-2.111276850740617,-0.1825199586077037
3.9000000000000057,-0.0922695577320819,-2.123411272266236,-0.1841801044026474
3.910000000000011,-0.1088387571682057,-2.1397962377841053,-0.1860420005410713
3.9200000000000017,-0.1165797028922385,-2.140884314106821,-0.1880897030666175
3.930000000000007,-0.1104358650497082,-2.1297847570466453,-0.1911729811083045
3.9399999999999977,-0.1031760428758169,-2.124632111354577,-0.1989771264037187
3.950000000000003,-0.0772394122827825,-2.1122826232908807,-0.1930692086471179
3.960000000000008,-0.0352590700658894,-2.092393720503964,-0.1828316548364186
3.969999999999999,-0.0042205804180379,-2.067251044405334,-0.1586012511544986
3.980000000000004,0.0143851913668873,-2.0347162147284386,-0.1642320909860894
3.990000000000009,0.0248420755290826,-2.011245792352246,-0.1683580420762727
4.0,0.0277850263574261,-1.969224237630508,-0.1958425831797594
4.010000000000005,0.0181337533670583,-1.9349617735852889,-0.2019840624297993
4.02000000000001,0.0288662655485684,-1.915695841634239,-0.1943533932824088
4.030000000000001,0.0516818531100514,-1.895790681545056,-0.1801156540265264
4.040000000000006,0.1019402143847554,-1.8785184159537351,-0.1687246398841977
4.049999999999997,0.1654113174571911,-1.848802727340563,-0.1504139516357832
4.060000000000002,0.2242030648556493,-1.8119315289915492,-0.1347419393310334
4.070000000000007,0.2661151723187545,-1.7743486919023668,-0.1028177236972113
4.079999999999998,0.2984922290335569,-1.7520096426521583,-0.0805529082072302
4.090000000000003,0.3014361968225401,-1.720996582048807,-0.0785277637969148
4.1000000000000085,0.2922803468298174,-1.6958416943275252,-0.0659242057452851
4.109999999999999,0.2814453319266153,-1.6720342555931835,-0.0628443653378737
4.1200000000000045,0.2925518628990599,-1.6630475148036774,-0.0584255146458927
4.13000000000001,0.3056900768634508,-1.6562962830187815,-0.0505538112103007
4.140000000000001,0.3120868308268344,-1.6380588124313606,-0.0481869284808051
4.150000000000006,0.3161161979326575,-1.6234857656700648,-0.0375452277387517
4.160000000000011,0.3173599638306228,-1.600249483794069,-0.01294349294886
4.170000000000002,0.3070024271786133,-1.6016367508185942,0.0093440786302157
4.180000000000007,0.2775412510255519,-1.6029146068064768,0.0249418562848942
4.189999999999998,0.2460838690011821,-1.62033430917741,0.0424174531887481
4.200000000000003,0.2084194892839879,-1.6263653391488828,0.0397413721171555
4.210000000000008,0.1753002841723538,-1.6428119234272305,0.0368796074029569
4.219999999999999,0.1485328288934125,-1.6659493399488785,0.0249607600214288
4.230000000000004,0.1199406008651461,-1.679724257699874,0.0052772563986283
4.240000000000009,0.0849492025217822,-1.6940176597567689,-0.0115661546499297
4.25,0.0554571158495231,-1.7155656502437997,-0.0322776882975541
4.260000000000005,0.0376923666784068,-1.7351081597630378,-0.0414641162997603
4.27000000000001,0.0193740329984005,-1.7489542051328637,-0.0582056692818435
4.280000000000001,0.0007334383686364,-1.7579440810419396,-0.074214485443318
4.290000000000006,-0.008954132656921,-1.759530890000362,-0.0922707950425832
4.299999999999997,-0.0247873091642887,-1.7668123190025504,-0.1056957949363066
4.310000000000002,-0.0347695489665808,-1.7721701318493948,-0.124227299028317
4.320000000000007,-0.0493066186405253,-1.7727631330367537,-0.1416479394681208
4.329999999999998,-0.0594587927853163,-1.7792514432025577,-0.1585754284933768
4.340000000000003,-0.0516316234730065,-1.7749805819389983,-0.1714372175266459
4.3500000000000085,-0.0430458891717501,-1.7829216514986248,-0.1746580402642473
4.359999999999999,-0.0311958292861499,-1.7907070278814805,-0.1705162549516562
4.3700000000000045,-0.0236604999237787,-1.803014669824735,-0.1684490308617197
4.38000000000001,-0.0055481710275692,-1.8072732703746868,-0.1738234757294825
4.390000000000001,0.0045394278234933,-1.80821679631471,-0.190742731642296
4.400000000000006,0.0396367313476459,-1.813930183523213,-0.202807590953133
4.410000000000011,0.0458218872694724,-1.8229766858726308,-0.2240653344576878
4.420000000000002,0.0469058199952171,-1.8409727390684507,-0.2416393926475389
4.430000000000007,0.0343870436437389,-1.8324525716021307,-0.252044752285945
4.439999999999998,0.0042011308344775,-1.8230974885356128,-0.2538709189612562
4.450000000000003,-0.0223849913836245,-1.8248070947768704,-0.2466656600134927
4.460000000000008,-0.0688562478936098,-1.8234748984636968,-0.232264789416667
4.469999999999999,-0.105575605041906,-1.81924805544212,-0.2173679012004816
4.480000000000004,-0.1194841261004993,-1.8101869632502088,-0.1964129874981392
4.490000000000009,-0.1288591250450546,-1.793875327929366,-0.1925079702706257
4.5,-0.1114439654129341,-1.7671398942277003,-0.1865792522171304
4.510000000000005,-0.1066957876652706,-1.7475412549731093,-0.1857020766858167
4.52000000000001,-0.0980226742021304,-1.73262106471367,-0.17448593490366
4.530000000000001,-0.1028908872857454,-1.7442957495081215,-0.1636480217095618
4.540000000000006,-0.1069586410332748,-1.7434588518819198,-0.1529294710910582
4.549999999999997,-0.1163262054929399,-1.7273814406115686,-0.1419975842243791
4.560000000000002,-0.1195469881722956,-1.7277013932636502,-0.138499970562192
4.570000000000007,-0.1178310326636321,-1.716925017224295,-0.1418576347196418
4.579999999999998,-0.1116352357765006,-1.7120006522414988,-0.1420893402416486
4.590000000000003,-0.0920002028343641,-1.7123063974095476,-0.1408467012518996
4.6000000000000085,-0.0724283433704666,-1.7280792647607786,-0.1426033115220737
4.609999999999999,-0.0438190528551798,-1.7315584703446003,-0.1456984670573013
4.6200000000000045,-0.0252700586464351,-1.7423481672348322,-0.1461410133239107
4.63000000000001,-0.0039858185584077,-1.7622131370377756,-0.1462142519225417
4.640000000000001,0.0179839103348943,-1.7753436557526767,-0.1440081464051771
4.650000000000006,0.0572338442730722,-1.7783343916992742,-0.142223840877222
4.660000000000011,0.0845235315024449,-1.7671363452275486,-0.1395713629415621
4.670000000000002,0.113398329946534,-1.7546356562214367,-0.1246241314964969
4.680000000000007,0.141112533081979,-1.7367865529578523,-0.1266556305103409
4.689999999999998,0.1666133659770563,-1.73101753793331,-0.1291711948898716
4.700000000000003,0.1814763368711523,-1.71232717344274,-0.1222642527434721
4.710000000000008,0.1790932663320347,-1.7214684171816812,-0.1072129153197137
4.719999999999999,0.170881192583172,-1.7111350552681177,-0.0884083560295142
4.730000000000004,0.1755481502228801,-1.7055182326988545,-0.0696993618463209
4.740000000000009,0.1778670899852023,-1.6794991335944245,-0.0527046942562234
4.75,0.1855081454426757,-1.6448820055344495,-0.0526476058475702
4.760000000000005,0.2030687053169717,-1.6150627015941377,-0.0488023435264798
4.77000000000001,0.2159434221193049,-1.5786918259373903,-0.0494274610189105
4.780000000000001,0.2170012868062622,-1.5621660960424693,-0.0367977478087486
4.790000000000006,0.2117848689847966,-1.5311096790218666,-0.0187127286227418
4.799999999999997,0.1936506883110572,-1.507409371081979,0.0010830356933444
4.810000000000002,0.1541490223467893,-1.4750982411747202,0.0327797411660104
4.820000000000007,0.1185723451036681,-1.433420656797879,0.055361221826974
4.829999999999998,0.0950127091218246,-1.3947034832618477,0.0719940577485439
4.840000000000003,0.0709677367809839,-1.3504067691864854,0.0888982736206269
4.8500000000000085,0.060130732702626,-1.312263438068613,0.0934443037258938
4.859999999999999,0.0541635437352087,-1.275012387204871,0.1021697911260359
4.8700000000000045,0.0452505928475617,-1.2301970200867924,0.1022340045579426
4.88000000000001,0.0363521711146341,-1.186733184283548,0.1100321788818259
4.890000000000001,0.0388397928181253,-1.1412985892317675,0.1145360557133462
4.900000000000006,0.0315474599938087,-1.0887681756189271,0.1170452595259441
4.910000000000011,0.0070569178357853,-1.041196431736528,0.1356087528699081
4.920000000000002,-0.0205637999895936,-1.0064855316765755,0.142485603405171
4.930000000000007,-0.0463540986908345,-0.963570089743432,0.1453961787849489
4.939999999999998,-0.0815679016537239,-0.9113796705043432,0.1397587490909608
4.950000000000003,-0.1043583787146843,-0.8608612946795499,0.1271421023644262
4.960000000000008,-0.1160386909212067,-0.797061495869123,0.0980935458359507
4.969999999999999,-0.1346277415764189,-0.7439529639468101,0.079963453002562
4.980000000000004,-0.1567856806325278,-0.6990459426861855,0.0709733514667513
4.990000000000009,-0.1753962847883025,-0.6593478457607571,0.0674664709782998
5.0,-0.1882830627814744,-0.619267303191261,0.0605584609490716
5.010000000000005,-0.1998514001313593,-0.5757009268884802,0.0574213638814094
5.02000000000001,-0.2121083455341152,-0.5368296784841061,0.0510869235674273
5.030000000000001,-0.2184533898727041,-0.488511026927612,0.037306908240814
5.040000000000006,-0.2181463389325842,-0.4400676060139202,0.0321831083530402
5.049999999999997,-0.2204556960355392,-0.3904067302734679,0.0272476179244034
5.060000000000002,-0.2249899145256149,-0.3421558457963707,0.0216055870281913
5.070000000000007,-0.2168946334371779,-0.3059175587389127,0.015097931927249
5.079999999999998,-0.2145666841772768,-0.246152718827072,0.0090784268191014
5.090000000000003,-0.2131064718188594,-0.1931520906652266,0.0010870170592293
5.1000000000000085,-0.21415938374448,-0.1410413860406224,-0.0036562610044493
5.109999999999999,-0.2148240623372405,-0.0942877237059464,-0.0049889694007071
5.1200000000000045,-0.2038745742481389,-0.0394946169417675,-0.018211071125235
5.13000000000001,-0.1892725926184679,-0.0009096976879532,-0.0115534367779261
5.140000000000001,-0.1731963792705104,0.0500051408480269,-0.0084674593220366
5.150000000000006,-0.1527067924293699,0.0917314217595673,-0.0004605990040023
5.160000000000011,-0.125754571376133,0.1443069212066977,0.0009700238855208
5.170000000000002,-0.1136009325806409,0.2000231672377249,-0.0054087259693928
5.180000000000007,-0.0946950718524229,0.2438037299370752,-0.0033480833210103
5.189999999999998,-0.0752558632545264,0.2944608980084197,-0.0067144190815979
5.200000000000003,-0.0412386998495479,0.351422064707454,-0.0035467134105471
5.210000000000008,-0.0196887631980096,0.4030597969277056,-0.0048436999604715
5.219999999999999,0.007898530665145,0.4575268926376424,-0.0036679474469822
5.230000000000004,0.0232998119052643,0.5237383087230096,-0.003214802133844
5.240000000000009,0.0309399188284142,0.5867596598359051,-0.0019370779698112
5.25,0.0384915307025327,0.6416766854501557,-0.0058176483437931
5.260000000000005,0.0357351195826327,0.7013719287099526,-0.0121173501666182
5.27000000000001,0.0412627248101227,0.760246098393272,-0.0193435689217558
5.280000000000001,0.047221506037567,0.8019961144441164,-0.0250850880102234
5.290000000000006,0.0509339561653229,0.8534276353800317,-0.031839275859553
5.299999999999997,0.053928145202625,0.9072696761688608,-0.0272521015190916
5.310000000000002,0.0708555295440072,0.9711870936819584,-0.0255386428073467
5.320000000000007,0.0735021766010161,1.030824263391842,-0.025729823062569
5.329999999999998,0.0702494184371763,1.0909116402363177,-0.0270063605819005
5.340000000000003,0.0636787714601536,1.1459276635623656,-0.0438969607115256
5.3500000000000085,0.0536863601826522,1.2003509993389867,-0.0534994994230777
5.359999999999999,0.0294540976851321,1.2492484476486891,-0.0762144178145111
5.3700000000000045,0.0155198597844341,1.2822630245165991,-0.0885742339571947
5.38000000000001,0.0192705429214443,1.3357297189441624,-0.1131753504636896
5.390000000000001,0.0209142762620106,1.3798148631004228,-0.1272683939875418
5.400000000000006,0.024791612173674,1.4261092517114968,-0.1362462653309357
5.410000000000011,0.026384212512576,1.4709850748366962,-0.1368743698923169
5.420000000000002,0.0154322638073277,1.524732597354483,-0.135475073588333
5.430000000000007,0.0010059846780901,1.5768562171307383,-0.1382089414882028
5.439999999999998,-0.0168995211979857,1.600743460045774,-0.1356126329042511
5.450000000000003,-0.0303916898793988,1.634692006026891,-0.1271128981247987
5.460000000000008,-0.0195413962982407,1.664957655065874,-0.126002141640149
5.469999999999999,-0.0033458143273164,1.6905319504402436,-0.1263132515159228
5.480000000000004,0.0179440995094736,1.7157022810857687,-0.1259420859666019
5.490000000000009,0.0387306562709868,1.7373901777632517,-0.1201631477489358
5.5,0.0423789222297587,1.7513143515588063,-0.1052205120172039
5.510000000000005,0.0411308475831769,1.773346315533869,-0.0907462621908235
5.52000000000001,0.0321667182464015,1.7964371104233587,-0.0672831891674901
5.530000000000001,0.0409193649796668,1.8187554948979785,-0.0420254579564092
5.540000000000006,0.0437850485256637,1.8400641836011693,-0.0257473656643139
5.549999999999997,0.0438841777123035,1.848095830103882,-0.0163323660052521
5.560000000000002,0.0218519549247176,1.856397807749805,-0.0160518653680105
5.570000000000007,-0.0085896745120121,1.8586535914446904,-0.0304802601053883
5.579999999999998,-0.0485244076181963,1.844836780343159,-0.0330979381881299
5.590000000000003,-0.0866217277409137,1.8375171083720048,-0.0459340567914406
5.6000000000000085,-0.1219978431336239,1.8369191751813077,-0.0431454582485407
5.609999999999999,-0.1397767142519982,1.835546271449897,-0.0370416356109137
5.6200000000000045,-0.1588616911495524,1.8209806775041693,-0.0334078592789675
5.63000000000001,-0.1776866621263127,1.8136334133798493,-0.0214517446237354
5.640000000000001,-0.2072432047035212,1.796353708647065,-0.0153998234040415
5.650000000000006,-0.2474097110781454,1.7688618559372815,-0.0002827037908077
5.660000000000011,-0.2915252285686512,1.7655563477043952,0.005931200749719
5.670000000000002,-0.3154120367872032,1.7542699893529146,0.0143181601539996
5.680000000000007,-0.3373051055296366,1.7331607439069057,0.0147601277877487
5.689999999999998,-0.3303733251507117,1.7236769736056727,0.0197061038643594
5.700000000000003,-0.3079254419309252,1.7033473260183856,0.0321357060893158
5.710000000000008,-0.2720394707227666,1.6940421739823894,0.0480501484946867
5.719999999999999,-0.2254519379202341,1.67343744818094,0.0584473746972401
5.730000000000004,-0.1975412294006396,1.6579212017240403,0.0616390012674993
5.740000000000009,-0.1684180382183084,1.6491850486929291,0.0665429286042201
5.75,-0.1324330527830663,1.6382287326508864,0.0600998851096627
5.760000000000005,-0.1109224929466475,1.6320825844363511,0.0491492917209266
5.77000000000001,-0.0865147072846342,1.636635684326113,0.0436907222802876
5.780000000000001,-0.0835136270512443,1.6469993191246393,0.0455660978426316
5.790000000000006,-0.0841155747781837,1.6497575698949103,0.0520517061527197
5.799999999999997,-0.0852106744671803,1.663905763314201,0.0676738474451275
5.810000000000002,-0.0844976033167099,1.6834646571902965,0.0852414005448695
5.820000000000007,-0.0869301016268257,1.6930442320343984,0.1084800278713837
5.829999999999998,-0.0767145744724738,1.7019177219340709,0.1230428698122032
5.840000000000003,-0.0637339800375981,1.7174869841248088,0.1467568527625837
5.8500000000000085,-0.0510144523777634,1.742134133086091,0.1528984635749196
5.859999999999999,-0.0407243601137282,1.7524422552229388,0.1627543209456989
5.8700000000000045,-0.0495847754922094,1.7648395850388463,0.1702203800272144
5.88000000000001,-0.0587444833286888,1.7707175052298088,0.1654239346915682
5.890000000000001,-0.0765361237619255,1.7755050352618464,0.1733967740181919
5.900000000000006,-0.0812306539418657,1.773483010293252,0.1949667705172815
5.910000000000011,-0.0808155611251517,1.7799788986056406,0.2055996144088867
5.920000000000002,-0.0799576638014118,1.7963367541359574,0.2239202209644433
5.930000000000007,-0.0861402235069884,1.795578955331517,0.2407487453954255
5.939999999999998,-0.0861070018891443,1.804440294248952,0.2551895788341389
5.950000000000003,-0.0950061233062864,1.8185719415051091,0.2593669890414199
5.960000000000008,-0.094219712428826,1.8242789790362068,0.2685674065491816
5.969999999999999,-0.0863846723510925,1.8353073931554345,0.2721399373936205
5.980000000000004,-0.0903603730222142,1.8376178068729547,0.269519536816527
5.990000000000009,-0.0840513131191837,1.833888638449704,0.2749915483342998
6.0,-0.0833237320388051,1.815038352434823,0.2770835033279596
6.010000000000005,-0.0845384829270362,1.7986287206876244,0.2889353495212705
6.02000000000001,-0.0965514014900892,1.7898991207762969,0.3023709474025136
6.030000000000001,-0.1099382518970513,1.7761085383029578,0.3125078821523167
6.040000000000006,-0.1286947962669185,1.7700346012257384,0.3214168041513738
6.049999999999997,-0.1330384079742912,1.7741002832622794,0.3235017305981445
6.060000000000002,-0.1216584022460948,1.7659314311441234,0.3248138008154373
6.070000000000007,-0.1045876780839754,1.756393819365646,0.3204277688210445
6.079999999999998,-0.1091664494056533,1.743203989801,0.3232086976215387
6.090000000000003,-0.103882882351422,1.7241973977887948,0.3373169428723166
6.1000000000000085,-0.1195640335856732,1.7200131752271175,0.3550314776087492
6.109999999999999,-0.1217554985589031,1.7099630685450975,0.3609706273961948
6.1200000000000045,-0.1298005469299094,1.710562337885568,0.3694023655716693
6.13000000000001,-0.1307301975822748,1.7123143534654617,0.3821813622950665
6.140000000000001,-0.114266416480128,1.7142240000527125,0.3792734786720695
6.150000000000006,-0.0980325676447711,1.7070158268129396,0.3802838735814101
6.160000000000011,-0.0799963042670345,1.7067080349281398,0.3846600245792025
6.170000000000002,-0.0886423624334656,1.7113609349408312,0.3781500137298536
6.180000000000007,-0.1044253705783926,1.7143610423493152,0.3690260613620544
6.189999999999998,-0.130577275591526,1.706421235199339,0.3582232680660942
6.200000000000003,-0.17229005183426,1.6903181660493571,0.3486903743370061
6.210000000000008,-0.2113504129524119,1.680402246942972,0.3421142194224565
6.219999999999999,-0.2472257988322235,1.675050309765535,0.329421471284708
6.230000000000004,-0.2783794233857734,1.6735895397170368,0.3178821075077678
6.240000000000009,-0.2982918563487413,1.6779491364633428,0.3031675698462721
6.25,-0.324399131185433,1.6766573868675694,0.2945020266406706
6.260000000000005,-0.3377602537095803,1.6723569260399438,0.3015034698479791
6.27000000000001,-0.3562497060666472,1.6643424800371085,0.3070478307205097
6.280000000000001,-0.3611957320652678,1.6552264482674988,0.3157103450211294
6.290000000000006,-0.3445143506097899,1.645495819055259,0.3130270725047436
6.299999999999997,-0.3211802869773476,1.6416570335123428,0.3197337560919284
6.310000000000002,-0.289906239872955,1.6355500895678792,0.315442551969861
6.320000000000007,-0.2557120322996759,1.6263141334264404,0.3092036598233847
6.329999999999998,-0.2270071355435368,1.609631395545503,0.3007134070789881
6.340000000000003,-0.2149012453520145,1.5861518923321458,0.2921488436263528
6.3500000000000085,-0.2141181456281916,1.55769670804569,0.2849849269002913
6.359999999999999,-0.213887481288905,1.531959370091193,0.2774127248618079
6.3700000000000045,-0.2131978967291869,1.5228445602605336,0.2649682774698402
6.38000000000001,-0.2064022010933685,1.5213284480204017,0.2590067180044165
6.390000000000001,-0.1942496783053279,1.5209950464657345,0.245819499328998
6.400000000000006,-0.182753736130823,1.5017985789337105,0.2359144238641412
6.410000000000011,-0.1870436332309717,1.49091880802236,0.2198765113841073
6.420000000000002,-0.2003872239284615,1.4855702920255316,0.1985867849399035
6.430000000000007,-0.2247847079891086,1.471125166816302,0.1785118423101278
6.439999999999998,-0.2546109304477438,1.464537221751661,0.1673829853550191
6.450000000000003,-0.2831705653861402,1.4601625259334592,0.162977422814509
6.460000000000008,-0.2995124958756697,1.45096387545105,0.1662288033917192
6.469999999999999,-0.288487482710302,1.4449539120779142,0.1645000113663152
6.480000000000004,-0.2681490057882157,1.4458209209197883,0.1519048776161969
6.490000000000009,-0.2355983599970621,1.4319368486379334,0.1402423672209692
6.5,-0.1829123911923466,1.435701926697271,0.1202028227992581
6.510000000000005,-0.1610068974335599,1.4508073062423992,0.1118576682022509
6.52000000000001,-0.1479890063256714,1.4816722899194883,0.1053582873433705
6.530000000000001,-0.1779831829917278,1.5149576466304149,0.1062922084735802
6.540000000000006,-0.2192423243257198,1.5300107606241786,0.1082709878381781
6.549999999999997,-0.2585567228897682,1.5287140301609872,0.1151502377436451
6.560000000000002,-0.3113373890913956,1.5173932385880435,0.1207722680228109
6.570000000000007,-0.3445909350586351,1.499855128354926,0.1266647182296326
6.579999999999998,-0.351626853482172,1.4882873975728657,0.1466467556844281
6.590000000000003,-0.3438964634701686,1.484839933106207,0.1694796406469817
6.6000000000000085,-0.302338609568955,1.48230864452101,0.1919300160998419
6.609999999999999,-0.2513134529018068,1.4752830809279005,0.2107470627758489
6.6200000000000045,-0.1850312070429461,1.4746588769603752,0.2140251546099281
6.63000000000001,-0.1230398703808876,1.4728515548749166,0.2191264108808897
6.640000000000001,-0.0686437770367594,1.4726678410157883,0.2156572567724053
6.650000000000006,-0.0262967004227413,1.469246565372779,0.2076519148785852
6.660000000000011,-0.0069158851717814,1.458843164899046,0.207763096433214
6.670000000000002,0.0130265849753553,1.4579468776113689,0.2110793846172733
6.680000000000007,-0.0015169815872537,1.4608814950317264,0.2244995320742646
6.689999999999998,-0.0157412811180685,1.4552665694415825,0.2386046994536824
6.700000000000003,-0.032215985709729,1.440685452876783,0.2556395220127705
6.710000000000008,-0.0391414077784063,1.4117626304651698,0.2643558985487697
6.719999999999999,-0.0456969412630291,1.3584130049794167,0.2734139631645774
6.730000000000004,-0.0651453647831195,1.2959270924578865,0.2718669749553193
6.740000000000009,-0.0608175175971546,1.2703345035839,0.2755925288471735
6.75,-0.0376119414122892,1.245494857555448,0.2876085001390895
6.760000000000005,0.003220902860184,1.22933097306079,0.2908244538927603
6.77000000000001,0.0350794050680834,1.2005353821074152,0.3107994658572013
6.780000000000001,0.0690181174577027,1.1465400802474168,0.3221893991043448
6.790000000000006,0.0887125453830279,1.0922262488046586,0.3334693050231114
6.799999999999997,0.0695955835302959,1.0414792864722044,0.3420565179251639
6.810000000000002,0.0537971581498942,1.0124532963010364,0.3302956766934689
6.820000000000007,0.0380336177587356,0.9868114040459546,0.3294522930550519
6.829999999999998,0.0311926168624959,0.9633296188173291,0.3060065914616943
6.840000000000003,0.0182654509762398,0.939224972500591,0.2756943701910359
6.8500000000000085,-0.0010914292827262,0.8885337674392487,0.2432169670163463
6.859999999999999,-0.0320914306353831,0.8470164640760847,0.2220057862889357
6.8700000000000045,-0.0511468758062849,0.8020395545653173,0.2072277817404184
6.88000000000001,-0.0550361109117032,0.7542013458275938,0.2034174362789749
6.890000000000001,-0.0622143113021072,0.707060158920348,0.2051963536807768
6.900000000000006,-0.0352532038698044,0.6688451988463651,0.1995406260773682
6.910000000000011,-0.0153464112123908,0.6267722128554181,0.1826534016370263
6.920000000000002,-0.0010103538842714,0.584474570314678,0.1547073874596916
6.930000000000007,0.0194649420894718,0.5432640608706362,0.13652055920992
6.939999999999998,0.0208698541515604,0.4997061184636741,0.1231733940005397
6.950000000000003,-0.0020477877665748,0.4444904837486332,0.1126675809154539
6.960000000000008,-0.0329853870567367,0.3971600410844652,0.1036162213031018
6.969999999999999,-0.037856374153575,0.3334795932071722,0.0877525578285609
6.980000000000004,-0.0451211887474918,0.2554192449926224,0.0774082793745925
6.990000000000009,-0.0347224631819726,0.1622591657004187,0.0604494442556216
7.0,-0.0098636223370371,0.0698891123546566,0.0426103218117163
7.010000000000005,0.0214502128661713,-0.0416724348740149,0.0381194703895045
7.02000000000001,0.053904264605779,-0.1632054293505829,0.032857353692313
7.030000000000001,0.0742573435102669,-0.288278839376031,0.0347631704436908
7.040000000000006,0.0945001242371724,-0.4103237354473905,0.0370433456668863
7.049999999999997,0.1229778597087482,-0.5212422662050685,0.0329412211746969
7.060000000000002,0.1373940360076483,-0.63204553383046,0.0289864596778999
7.070000000000007,0.1616101195798653,-0.7495446393846189,0.0184119958817346
7.079999999999998,0.1848076448639226,-0.8716472276741328,0.0047546215091163
7.090000000000003,0.1914083328370229,-0.9932178095478008,-0.0115024934194487
7.1000000000000085,0.1801073393944923,-1.125494833356519,-0.0267922200787676
7.109999999999999,0.1619487840712572,-1.25302055982465,-0.044030420794502
7.1200000000000045,0.1378688354352766,-1.360787608617649,-0.0657430997492655
7.13000000000001,0.1216548602658347,-1.47358373493756,-0.0956580743491558
7.140000000000001,0.1185566236289634,-1.5814332501994697,-0.1256346742569569
7.150000000000006,0.1261059922981823,-1.6820437802976267,-0.1526774990754204
7.160000000000011,0.1333067904652809,-1.779178878779666,-0.1806838333774291
7.170000000000002,0.1265168672252033,-1.8742863861896617,-0.1989778358950535
7.180000000000007,0.1008995698361671,-1.9756404213167889,-0.2275143523922788
7.189999999999998,0.0461124290439135,-2.069908330206189,-0.2529386425094206
7.200000000000003,-0.0125506881190435,-2.1592848597408287,-0.2828242997727654
7.210000000000008,-0.0704174514288099,-2.248310525511429,-0.306797809694284
7.219999999999999,-0.1186841055429516,-2.335226971908059,-0.3263819432926986
7.230000000000004,-0.1263939768144832,-2.4226341235651154,-0.3379438419955477
7.240000000000009,-0.1253113906217289,-2.49207417963788,-0.3577830689557502
7.25,-0.0894541583470477,-2.556106867491412,-0.3810216596716924
7.260000000000005,-0.0560042025845847,-2.623786084247086,-0.4074648031354589
7.27000000000001,-0.0248677031974114,-2.68236878016364,-0.4354231021181854
7.280000000000001,0.0006517882161821,-2.7293209401494454,-0.4527238814802133
7.290000000000006,0.0016630021539912,-2.7544605595529204,-0.4703712545085901
7.299999999999997,-0.0044152252396232,-2.777940632688503,-0.4840265956375326
7.310000000000002,-0.003697202914763,-2.793471705091747,-0.4941276297606933
7.320000000000007,-0.0131488121217947,-2.796157991551484,-0.5079302948729891
7.329999999999998,-0.0184401043040917,-2.8046199201861994,-0.5235886590418548
7.340000000000003,-0.0067083589222579,-2.803165500252543,-0.5256195978990837
7.350000000000008,0.0077920027463518,-2.813964566763894,-0.5152128735594034
7.359999999999999,0.0341020440205347,-2.827028317330705,-0.4907081096044567
7.370000000000003,0.075444114507996,-2.823619134716063,-0.4626510255860824
7.38000000000001,0.1146419482013526,-2.805703649220593,-0.4466466357524295
7.390000000000001,0.1405885098434398,-2.7748056720193226,-0.4569300949991265
7.400000000000006,0.171384411624082,-2.750949522586632,-0.4586290149498578
7.410000000000011,0.2138823531984673,-2.7132342550786275,-0.4566503046140832
7.420000000000002,0.2674028333870697,-2.659750151837551,-0.4540820628311635
7.430000000000007,0.3111872515331013,-2.615005680261488,-0.4389520758092236
7.439999999999998,0.3559295846612612,-2.5761114091201605,-0.4095790046957313
7.450000000000003,0.3779892169908646,-2.574072714623437,-0.3604747677676597
7.460000000000008,0.393725594822529,-2.556969137474965,-0.3183010824095381
7.469999999999999,0.3833106742684891,-2.5374265841818304,-0.28687678475582
7.480000000000004,0.3654082141834369,-2.507545301790819,-0.2539425771942346
7.490000000000009,0.3657010692104629,-2.4589914949209426,-0.2228841127981373
7.5,0.3725966652007572,-2.4081561490155927,-0.2034590864034937
7.510000000000005,0.3928827329103849,-2.366745605226116,-0.1856674510790857
7.52000000000001,0.4099556165051014,-2.3240761521791478,-0.1654333829854182
7.530000000000001,0.405515307030952,-2.286840954945728,-0.1389028602655597
7.540000000000006,0.391469758327178,-2.2655789666215203,-0.1046399657610781
7.549999999999997,0.3570644838265066,-2.244712571836579,-0.0685874855959902
7.560000000000002,0.3572702247085186,-2.217417654709249,-0.0458144419116623
7.570000000000007,0.3691346757632023,-2.182483277982421,-0.0407023799166274
7.579999999999998,0.3896503475555156,-2.127169374065524,-0.0362546206928677
7.590000000000003,0.4173921161989199,-2.088839937473676,-0.033030689893231
7.600000000000008,0.4146056347657392,-2.0555957695660467,-0.0189515744354031
7.609999999999999,0.3865340596563714,-2.0364812031513004,-0.005775948805565
7.620000000000003,0.3499891646405743,-2.0376470214157525,0.0010263220683664
7.63000000000001,0.3088733864188603,-2.0353044539041973,-0.0122184711141372
7.640000000000001,0.2531518654907878,-2.030862007101627,-0.0158020869865677
7.650000000000006,0.2039709233291068,-2.0181755973936624,-0.0168130527547243
7.660000000000011,0.1403087480367562,-2.0116895560726022,-0.0208477128060999
7.670000000000002,0.0726631751766912,-2.013558300956376,-0.0164757482022393
7.680000000000007,0.0056816822523361,-2.001823564736796,-0.0210040052662995
7.689999999999998,-0.0425881359265832,-2.007674064116435,-0.0230018090322413
7.700000000000003,-0.0873615962830987,-2.0036507623972035,-0.0296438644685514
7.710000000000008,-0.111092866952102,-1.9987579513046525,-0.0465303373405772
7.719999999999999,-0.1085155476520329,-1.991763136228199,-0.0739840951993637
7.730000000000004,-0.0770987933161511,-1.9827105929011808,-0.1010789822024466
7.740000000000009,-0.0210205716029871,-1.9762278630405257,-0.1233358312077379
7.75,0.035362615936377,-1.9595363545304696,-0.1461060557078192
7.760000000000005,0.0893120089791944,-1.961553370656955,-0.1467075321811809
7.77000000000001,0.1173547931332842,-1.961031408968972,-0.1543479345887224
7.780000000000001,0.1366208816347038,-1.9743071700623531,-0.1548989375166263
7.790000000000006,0.1353446326247653,-1.9902111780848908,-0.1740885492672308
7.799999999999997,0.1210091197734708,-2.008631305638996,-0.1828343198076014
7.810000000000002,0.0971483501966044,-2.0338032663639294,-0.1944303097213658
7.820000000000007,0.0637421376217264,-2.050194084927052,-0.214987548494291
7.829999999999998,0.0438901255820198,-2.05209746986098,-0.2259165076317494
7.840000000000003,0.0275202250902,-2.0577184501183767,-0.2257806377146533
7.850000000000008,0.0169627330754352,-2.04719772701921,-0.223047134114249
7.859999999999999,0.0075367304511978,-2.046197380784898,-0.2142914113968815
7.870000000000003,-0.0157890754470249,-2.063437462827852,-0.211917400933542
7.88000000000001,-0.0287949067997501,-2.066757214974688,-0.2233852794550037
7.890000000000001,-0.0462961726526438,-2.0681712296740105,-0.2350360691821165
7.900000000000006,-0.0630208330430163,-2.0824531679579787,-0.2488134206289974
7.910000000000011,-0.0814676507608344,-2.0882303305523666,-0.2446010139373343
7.920000000000002,-0.1117287414920912,-2.092797275433005,-0.2404792570660915
7.930000000000007,-0.1328448538407065,-2.101451024169585,-0.2257741752661415
7.939999999999998,-0.1408995800368366,-2.096364181920334,-0.2140655957611958
7.950000000000003,-0.1474393820361115,-2.087887413533944,-0.2122375313289105
7.960000000000008,-0.1452319128761421,-2.0769265430538058,-0.199186800837691
7.969999999999999,-0.1407079971689256,-2.067880125070031,-0.1984936521611942
7.980000000000004,-0.1394458326638715,-2.043296987997385,-0.1951227785274793
7.990000000000009,-0.1402859142265923,-2.023973672256251,-0.1913359983786611
8.0,-0.1598178387559523,-2.002056127943512,-0.182028219477164
8.010000000000005,-0.1871980868261377,-1.976861444744439,-0.171198675694259
8.02000000000001,-0.2088336637134012,-1.963846887630828,-0.1561551896418517
8.030000000000001,-0.2445515529318654,-1.9625882834665,-0.1471212633763562
8.040000000000006,-0.286616287830979,-1.9594360526451369,-0.135401413277715
8.049999999999997,-0.3234519863476412,-1.9543426505529389,-0.1222882968135981
8.060000000000002,-0.3561307852569468,-1.938365666797488,-0.1188636797707478
8.070000000000007,-0.3597652626947089,-1.9145186595863104,-0.1112796903247301
8.079999999999998,-0.3638638229576258,-1.901872252233982,-0.1081674534339879
8.090000000000003,-0.3510257340154037,-1.8733473325867984,-0.1088937693239148
8.100000000000009,-0.3376310564659094,-1.868556151290994,-0.113726029012615
8.11,-0.3294931552049415,-1.866525929156499,-0.1127511078714117
8.120000000000005,-0.32287193613706,-1.8495742797189536,-0.1156461540303298
8.13000000000001,-0.3339297955905284,-1.8430016566353893,-0.1116964183310121
8.14,-0.3338661941514347,-1.8194443035980947,-0.1113933177380596
8.150000000000006,-0.3374137093607342,-1.7910010230604607,-0.1151086840105856
8.16000000000001,-0.339232287154884,-1.7447601272991118,-0.1200549094570607
8.170000000000002,-0.3346250220069426,-1.7071723640020875,-0.1199679259040863
8.180000000000007,-0.3355494405060469,-1.6755353254544938,-0.1072856656256953
8.189999999999998,-0.3478905200282401,-1.6457827042381443,-0.0950603263596257
8.200000000000003,-0.3681819703124197,-1.6036164414896237,-0.0672264079343832
8.210000000000008,-0.3827006189303683,-1.551034058019167,-0.0532897027516088
8.219999999999999,-0.3845839852002966,-1.484520429328127,-0.0488460857735185
8.230000000000004,-0.3850130643204874,-1.4009621081010966,-0.0502876663396075
8.240000000000009,-0.3834016071306851,-1.315143472374366,-0.0527663422260744
8.25,-0.3803872047381556,-1.243932022406757,-0.0495483931041522
8.260000000000005,-0.3716999677997344,-1.1629731959505845,-0.0393115511521801
8.27000000000001,-0.3649918305456515,-1.0674446995322988,-0.021579491264715
8.280000000000001,-0.3601049093653531,-0.973463046360611,-0.0159729684736092
8.290000000000006,-0.3683889024870015,-0.8697805005100739,-0.009713826075029
8.299999999999997,-0.36548850709139,-0.7757818118264581,-0.0128707142705462
8.310000000000002,-0.3776876390167272,-0.6975435761478931,-0.0226363655624357
8.320000000000007,-0.3922419287515898,-0.6187340745753713,-0.0308449435164026
8.329999999999998,-0.3915275583079275,-0.5463333532811072,-0.0379234647844223
8.340000000000003,-0.3941879789814972,-0.4850141677170263,-0.0336120063447287
8.350000000000009,-0.3788932055942772,-0.4101079698646444,-0.0287558306909374
8.36,-0.3475319396814894,-0.3267551738406117,-0.0217378959662436
8.370000000000005,-0.3250086343752653,-0.2531779808716956,-0.0208948737315223
8.38000000000001,-0.2925903606951327,-0.1723859617660405,-0.031707531279289
8.39,-0.2699220918418987,-0.0976296491246695,-0.0344848349906523
8.400000000000006,-0.2470469692688241,-0.0175740116668521,-0.0450647235652087
8.41000000000001,-0.2297634789740103,0.0509407307966474,-0.0411929351437164
8.420000000000002,-0.2113829670726665,0.1251111976073779,-0.043369422097856
8.430000000000007,-0.1940265803858279,0.2024177874260546,-0.0526433928410356
8.439999999999998,-0.1803243356017304,0.2671845120421087,-0.0662684371559549
8.450000000000003,-0.1648186866906684,0.33095450239496,-0.0659876681680611
8.460000000000008,-0.1484368421297106,0.3976242118516102,-0.0646378152068229
8.469999999999999,-0.1205827509875885,0.4586200123728072,-0.0471929237717053
8.480000000000004,-0.0805170720390903,0.5358041562218464,-0.0317130602285395
8.490000000000009,-0.0335454414451841,0.6012437345676916,-0.01267917605608
8.5,0.0170967074178993,0.6583426649560455,-0.0023324388710551
8.510000000000005,0.0703918016190405,0.7156311909016302,0.0108341500041445
8.52000000000001,0.109388505044286,0.7732373491422828,0.0134938487210004
8.530000000000001,0.1523804878071858,0.830455943228596,0.0088202037450248
8.540000000000006,0.1832340950115006,0.8791775952940484,-0.0015656373322508
8.549999999999997,0.2159793580967378,0.9309026712940068,-6.535577681657408e-05
8.560000000000002,0.2429998484130761,0.9939619905079916,0.0158921607296375
8.570000000000007,0.2608501778162548,1.0550800063634058,0.0193142349420046
8.579999999999998,0.2627034556811999,1.1090086012635925,0.0257603277327776
8.590000000000003,0.2600037479118765,1.1573105432846753,0.0266203972430618
8.600000000000009,0.2715018860994289,1.2053365709694677,0.0347706461232577
8.61,0.2826640248158231,1.2545536988471224,0.0304165493130342
8.620000000000005,0.2922073554692928,1.2889919668275729,0.0143165497786322
8.63000000000001,0.3168540167391799,1.3281862670948208,0.0018316761523526
8.64,0.3362195623251058,1.3597375188458285,-0.0225559487741746
8.650000000000006,0.3435867456248251,1.408537640650777,-0.0544058147816738
8.66000000000001,0.3200907436619486,1.445511544216206,-0.0673551370302991
8.670000000000002,0.2809723523500442,1.4735589744058746,-0.0962198907500797
8.680000000000007,0.2145019887596323,1.51139332856872,-0.1184301457137748
8.689999999999998,0.1515058371838213,1.5492369643676105,-0.1260156602726702
8.700000000000003,0.1080767452223534,1.579843266219236,-0.1410799435207815
8.710000000000008,0.0703267846529214,1.5994279331022214,-0.141372183967737
8.719999999999999,0.0569416293095104,1.6196784221562457,-0.1462543244735469
8.730000000000004,0.0390928932812632,1.652994596779353,-0.1531672226188934
8.740000000000009,0.0198358749254508,1.6830291138350053,-0.1659136888626947
8.75,-0.0071139509516097,1.710750471572798,-0.165012162531326
8.760000000000005,-0.0346373742586608,1.7444008302494185,-0.1831731953494257
8.77000000000001,-0.0531061279219884,1.791777067396065,-0.1846849188147301
8.780000000000001,-0.0606737149262029,1.8251045580285676,-0.1755466294029616
8.790000000000006,-0.0620040353285207,1.8538749754543795,-0.1580202420687504
8.799999999999997,-0.0728690448429628,1.893328122042844,-0.1524018494601372
8.810000000000002,-0.0862068589319725,1.9165750636825345,-0.1373011079099879
8.820000000000007,-0.106473068307868,1.9305668383943824,-0.1242727573100231
8.829999999999998,-0.1404563949837965,1.938050989053788,-0.1283044679020008
8.840000000000003,-0.1742896087129441,1.9515377378013865,-0.1240262457302687
8.850000000000009,-0.2040039734017756,1.9509778284815529,-0.1234147839111339
8.86,-0.2177855899016601,1.957449062199823,-0.1236758219619568
8.870000000000005,-0.2247621486670186,1.972109669312946,-0.1235265611253727
8.88000000000001,-0.2362566483116872,1.9855604810527,-0.1148561365095769
8.89,-0.2420306306132789,2.0160907385481406,-0.1173442459166924
8.900000000000006,-0.2607868648650783,2.023223781605872,-0.10694599315093
8.91000000000001,-0.2781011447642094,2.021771719039438,-0.0890199338670286
8.920000000000002,-0.2909991700071792,2.022777170510351,-0.0649006882874942
8.930000000000007,-0.2901016606396233,2.031454088284571,-0.0404778516840079
8.939999999999998,-0.2954377774255309,2.018940677342159,-0.0224698075561454
8.950000000000003,-0.2887575583150542,2.023052305384585,0.0004170386081191
8.960000000000008,-0.2888050834462209,2.0220422010059496,0.0079346864086803
8.969999999999999,-0.2855590317133552,2.0208727014975194,0.0184222673578682
8.980000000000004,-0.2819165878334241,2.019387843440652,0.0224753254412982
8.990000000000009,-0.268355861390796,2.015092633472184,0.0407582412862657
9.0,-0.2244843482399212,2.006907656234047,0.0829626355859128
9.010000000000003,-0.1734796480378388,1.9958507333778928,0.1323770485520126
9.02000000000001,-0.0998951829970625,2.003343775472081,0.172620934142176
9.03,-0.0325541494466135,2.0074441548268505,0.1988655963497009
9.040000000000006,0.0184411999040218,1.9912013267921975,0.2260292220863126
9.049999999999995,0.0352791577380285,1.9769249889906984,0.2375764745581688
9.060000000000002,0.0385683475668129,1.9533532249797136,0.2496230761140108
9.070000000000007,0.029481522887652,1.9341033745260372,0.250232555770737
9.079999999999998,0.0309162024984797,1.916850350071377,0.2472631549499505
9.090000000000003,0.0403633068882999,1.8931522092596564,0.2408295783821197
9.100000000000009,0.0503472034702143,1.8908036447749672,0.2316372997102485
9.11,0.0466204813469045,1.8936737546233784,0.2324139044210558
9.120000000000005,0.0318364591258277,1.895366118156692,0.2171552665698327
9.13000000000001,0.0068985641498317,1.8807551092339323,0.2100667803588372
9.14,-0.0381510889094003,1.868740576122408,0.2051798777180193
9.150000000000006,-0.0771364401683816,1.849042787885522,0.2061166618772914
9.16000000000001,-0.103120922139588,1.841218058341656,0.2112756850887694
9.170000000000002,-0.1164567265192292,1.84610802659734,0.2182182768667391
9.180000000000009,-0.1287737290662394,1.846284089015932,0.2402981793884401
9.189999999999998,-0.1353227555710397,1.8519747257262995,0.2559679820198348
9.200000000000005,-0.1621012732372487,1.8568532748739448,0.2759751233809586
9.210000000000008,-0.2004652441435575,1.8707957223107732,0.2914941992557017
9.22,-0.2558906440491033,1.866431380001684,0.3055224586450695
9.230000000000004,-0.321161085288311,1.8660701420036787,0.3198536030701102
9.240000000000007,-0.3958557733091088,1.8709505601750265,0.3411382549945317
9.25,-0.4685067317969252,1.8573752911195924,0.3579022376088375
9.260000000000003,-0.5181533727885158,1.8253754677908405,0.385501766066452
9.27000000000001,-0.5532097155478887,1.7898722425198224,0.4159623346667768
9.28,-0.5591988977370648,1.766489286825081,0.4478099091168517
9.290000000000006,-0.5421585102718965,1.7524238261069631,0.4587312877904536
9.299999999999995,-0.513688227991121,1.744142859593374,0.4654666292611384
9.310000000000002,-0.4882560883060166,1.7383987426049456,0.4650863108943291
9.320000000000007,-0.4849972854552424,1.7235479820448365,0.4648508240660102
9.329999999999998,-0.4658869433081673,1.7079854548409976,0.4796814492899124
9.340000000000003,-0.4402324972426044,1.6845998302618987,0.4838219491768752
9.350000000000009,-0.4000276508554426,1.6741923960609773,0.4795521698168051
9.36,-0.3445750226429033,1.656118634553837,0.468312182082116
9.370000000000005,-0.2855480513677022,1.6511527411871585,0.457666851700751
9.38000000000001,-0.2294496105109753,1.6494992136786666,0.4287094429110786
9.39,-0.1823451569162143,1.639376204440714,0.4031767374825835
9.400000000000006,-0.1652461793263869,1.6365226514544176,0.3843745796872481
9.41000000000001,-0.1517105534146026,1.6161908389893975,0.3682992733603885
9.420000000000002,-0.1339315085817889,1.602900160011376,0.3600965831434186
9.430000000000009,-0.1234371588250405,1.6001016339031529,0.3430282332669302
9.439999999999998,-0.0851720681261986,1.6020381067746905,0.3200013427137175
9.450000000000005,-0.0546638812510857,1.604698501231031,0.2970015297007977
9.460000000000008,-0.0302760008170744,1.6060481304360898,0.2656099277778651
9.47,-0.0106887822084416,1.603263053983399,0.25174607738639
9.480000000000004,0.0091341478006346,1.6122624443843048,0.2269071893744552
9.490000000000007,0.0225697945633481,1.6174848301756788,0.2087138258385371
9.5,0.0490970319790649,1.6130111058392604,0.2011974192396654
9.510000000000003,0.0681786713219538,1.612321915437436,0.2036066542214423
9.52000000000001,0.1078268080685668,1.5857102911958505,0.2055724650313929
9.53,0.2533254595603326,1.5380414738131345,0.1983297154648011
9.540000000000006,0.4178398550480233,1.5239284196515903,0.1906321551950878
9.549999999999995,0.5360568970221663,1.541657867856426,0.1731865833476451
9.560000000000002,0.5806040449122117,1.565007911039869,0.1749681660646012
9.570000000000007,0.5736525404686486,1.5829770976962727,0.1762859177954088
9.579999999999998,0.5476606886846891,1.6040519118400005,0.1657349440176997
9.590000000000003,0.4904658865819847,1.588521735167354,0.1550753627937835
9.600000000000009,0.4034222804684702,1.5852787125223091,0.1360751539754547
9.61,0.3180981722297976,1.5592450946594272,0.1226176150892262
9.620000000000005,0.2324549002555556,1.5323591188155743,0.0869368496050641
9.63000000000001,0.1519621449897132,1.5170871881389236,0.0528271048429439
9.64,0.0691568855784219,1.5092070221009086,0.0215136263748005
9.650000000000006,-0.0086608067227585,1.5214885686190316,-0.0169938944610938
9.66000000000001,-0.0689549033533975,1.5442583286537033,-0.037477557933382
9.670000000000002,-0.1153142896853827,1.571496735280065,-0.0591143953984516
9.680000000000009,-0.141268049632443,1.5848092652963477,-0.0755668176532927
9.689999999999998,-0.1621823476103871,1.597584476241933,-0.0895635910183869
9.700000000000005,-0.1709998949926494,1.5878695213801166,-0.106943178954556
9.710000000000008,-0.1649148472513496,1.5820872740892942,-0.1045644426166203
9.72,-0.1775936113751288,1.57308728026371,-0.1122255408446451
9.730000000000004,-0.1778904098889067,1.5729371839479784,-0.1238862080908049
9.740000000000007,-0.1744113486312383,1.5752985966004796,-0.1377784204333826
9.75,-0.149811437500181,1.5702372451654223,-0.1574533926120408
9.760000000000003,-0.1413708305710615,1.5558037495685249,-0.1749790060517735
9.77000000000001,-0.1241683240144933,1.53270954293425,-0.1905438181844308
9.78,-0.1189853637253938,1.4925524348360706,-0.178967495402166
9.790000000000006,-0.1042967047856366,1.4684100521119916,-0.1678432297432648
9.799999999999995,-0.0902378777390196,1.443895842297936,-0.1561126005304953
9.810000000000002,-0.0749074612116065,1.4320754604113584,-0.1423703724837371
9.820000000000007,-0.0590471807103585,1.4117641265201688,-0.1383742719560978
9.829999999999998,-0.0438832953526237,1.3921842701832832,-0.1230786267931873
9.840000000000003,-0.0336743706560526,1.3632207937439995,-0.1020487698055487
9.850000000000009,-0.019824611688581,1.3162002192895168,-0.0757065558640408
9.86,-0.0129601600032468,1.2807931984232563,-0.0579288540003309
9.870000000000005,-0.0063057708615406,1.2690449139818814,-0.0398737914611391
9.88000000000001,-0.0108674452745145,1.2501689956870528,-0.0371963035731181
9.89,-0.0244891080922532,1.225290917654238,-0.0405018625975762
9.900000000000006,-0.040622545808612,1.2097275090262112,-0.0409184707391816
9.91000000000001,-0.0720334572048649,1.1915625091197708,-0.045173757409973
9.920000000000002,-0.1063894556918126,1.1807383308560624,-0.0516003816150139
9.930000000000009,-0.1276119002101586,1.1587977595225822,-0.0419516256215291
9.939999999999998,-0.1415675202069391,1.154083329637201,-0.0308662349723528
9.950000000000005,-0.1209246897600144,1.1529862427872182,-0.0036866356674619
9.960000000000008,-0.083458180987346,1.1711284913574953,0.0178070517632729
9.97,-0.0448355271308838,1.1947816999744838,0.0396369967564739
9.980000000000004,0.0018055675347701,1.2126207584611202,0.0466022916590473
9.990000000000007,0.0098353664539527,1.2312340570920512,0.0591236430926063
10.0,-0.0058399939045001,1.235251916730381,0.0699014916945994
10.010000000000003,-0.0254183102160565,1.2236373347572729,0.0804389141558225
10.02000000000001,-0.0416831925094285,1.2032772193312382,0.079698056843255
10.03,-0.0351528065321675,1.1777903991665684,0.0818875163017011
10.040000000000006,-0.0119219324883934,1.130183462806628,0.0830251940713845
10.049999999999995,0.0042760752653019,1.0958148643422183,0.0910150850928745
10.060000000000002,-0.0059423873615959,1.0597821866657933,0.0914492791515382
10.070000000000007,-0.0329931726678541,1.0148194113223077,0.1045840446326042
10.079999999999998,-0.0743330344159203,0.9686602840241187,0.1227072530211521
10.090000000000003,-0.116967673059747,0.908629132759402,0.1295498511743992
10.100000000000009,-0.1481521307568425,0.8347964733559516,0.1461844750207274
10.11,-0.1579618071612539,0.7500560331082804,0.1641059115294426
10.120000000000005,-0.1647218256890228,0.6667769620565249,0.1939918570596401
10.13000000000001,-0.1569343128660077,0.5793816911063621,0.2039886138627483
10.14,-0.1361008603198597,0.4948931662078125,0.2077764661503087
10.150000000000006,-0.0929316787562958,0.4027047891468249,0.1965267779980164
10.16000000000001,-0.0373499574101074,0.3183012232532843,0.154794412320858
10.170000000000002,0.023512647010162,0.2300792769851506,0.1128580502391857
10.180000000000009,0.0771612037185959,0.1405523426245747,0.0795730026790733
10.189999999999998,0.1083732638545381,0.0477934515972002,0.0598700980673256
10.200000000000005,0.1266192207982568,-0.0371352980906301,0.0570575391071786
10.210000000000008,0.1183104109320867,-0.1280534827586697,0.0555286538502538
10.22,0.1159410831516141,-0.2163560285404,0.0638352658294013
10.230000000000004,0.1033833139264593,-0.3295737752911075,0.0685738160595588
10.240000000000007,0.1106317857938786,-0.4265718005274572,0.070294408759882
10.25,0.1242072686435649,-0.5339131979159218,0.0715356019704019
10.260000000000003,0.1405016214219035,-0.6445820004170043,0.0636815872658861
10.27000000000001,0.1555217172809649,-0.7385981983750898,0.0557537137804428
10.28,0.1765492277843396,-0.8291544139144781,0.050348470222463
10.290000000000006,0.204710191523421,-0.8994168274291767,0.0422444977996755
10.299999999999995,0.2298112590663648,-0.9840260454364405,0.0290690784551575
10.310000000000002,0.2587447740911164,-1.070430051196002,0.0222931446655162
10.320000000000007,0.2741158161208023,-1.1428828554415114,0.022196793486693
10.329999999999998,0.2854831580665813,-1.209720775824238,0.0186601891398536
10.340000000000003,0.2961910510768474,-1.272191374488507,0.010653008668337
10.350000000000009,0.3151681067656249,-1.3439814055818964,0.0195714581532572
10.36,0.3241650395349054,-1.412369371681124,0.0302005299201562
10.370000000000005,0.3370981735804153,-1.486555111210634,0.0421721515925881
10.38000000000001,0.3440619540065702,-1.5612500450919324,0.0614745008663776
10.39,0.3448213903755666,-1.6245873281147711,0.0745440407828449
10.400000000000006,0.3398936594520679,-1.6995443343304646,0.0822584122105298
10.41000000000001,0.3158754126979773,-1.776113496136743,0.0894425658547339
10.420000000000002,0.3064260799666031,-1.845121205527829,0.0770006501942452
10.430000000000009,0.3066827658347952,-1.9126979331934235,0.0611495596232089
10.439999999999998,0.3047794151891666,-1.96914930586927,0.0371168064076956
10.450000000000005,0.3000342874591142,-2.021702243174069,0.0147970473467416
10.460000000000008,0.2806722942806284,-2.083081300458531,0.0159051126492249
10.47,0.2596344504204968,-2.153414683834599,0.027926097406089
10.480000000000004,0.2192335796343707,-2.213818789322425,0.0522390040194189
10.490000000000007,0.1641935364990296,-2.238254194801568,0.0607995193208118
10.5,0.1127946943925079,-2.2685365483107165,0.055141743272905
10.510000000000003,0.0566942646758467,-2.2867065819140797,0.037644982223188
10.52000000000001,0.001719310608585,-2.3063949520538443,0.0078913770372236
10.53,-0.0383653396033642,-2.334546685044528,-0.018024370664942
10.540000000000006,-0.0616274195632256,-2.365683544840102,-0.0300561165330685
10.549999999999995,-0.0686657767902778,-2.406241804725844,-0.0353930433519606
10.560000000000002,-0.082635440059291,-2.4463754112012985,-0.0353817376503132
10.570000000000007,-0.0860759449923242,-2.4727550469974267,-0.0372243170536034
10.579999999999998,-0.0957502960176824,-2.49744030052645,-0.0564001510873519
10.590000000000003,-0.0827571897677329,-2.5142555141821874,-0.0843801004278366
10.600000000000009,-0.0741383776359112,-2.5184064757093694,-0.1087363530418328
10.61,-0.0772097509626011,-2.523710418347324,-0.1412681913988922
10.620000000000005,-0.0934433418191645,-2.518484299257251,-0.1500535984113184
10.63000000000001,-0.1085374655749519,-2.520500766745945,-0.1553944137120238
10.64,-0.1314159649332294,-2.519738210604761,-0.1607311149257178
10.650000000000006,-0.1524929050939703,-2.510757407527236,-0.1789900474205528
10.66000000000001,-0.1779280342424751,-2.5009055774533238,-0.1785918465572723
10.670000000000002,-0.196565081147803,-2.4963335343411823,-0.1868422530282274
10.680000000000009,-0.1987028972398207,-2.467404837546068,-0.1991807076499296
10.689999999999998,-0.1914899489965499,-2.415419034959519,-0.2095126387351508
10.700000000000005,-0.1680936707094716,-2.374613473777288,-0.2359423594754489
10.710000000000008,-0.1259520376955184,-2.337002714150186,-0.2379098943811394
10.72,-0.0818047158953831,-2.293970932950655,-0.248787187242389
10.730000000000004,-0.044192023474344,-2.2505503791198773,-0.244532529330131
10.740000000000007,-0.013893243564041,-2.2157785126268656,-0.2275076172910162
10.75,0.0178807931272587,-2.1761182479828785,-0.1907136771421204
10.760000000000003,0.0421678094538224,-2.1334906154203184,-0.1533195432479994
10.77000000000001,0.0550397713676971,-2.087387169943367,-0.1405578188091372
10.78,0.0794219214395216,-2.0380128824066115,-0.1300659047455618
10.790000000000006,0.0747493614994648,-1.99227661959616,-0.1318737386399014
10.799999999999995,0.087326870590151,-1.9477096114044268,-0.1300248875759508
10.810000000000002,0.0955222510888966,-1.9220059276423824,-0.1224049377621254
10.820000000000007,0.0952196419152932,-1.8872274000026772,-0.1088024122543748
10.829999999999998,0.0976715159290304,-1.857674977058675,-0.071235624260968
10.840000000000003,0.09498139798946,-1.8337625856127369,-0.0381357572328008
10.850000000000009,0.0841555422296535,-1.8056961243868388,-0.0014326524207333
10.86,0.0741950383948484,-1.772997205647363,0.0279593866420618
10.870000000000005,0.0431457433292584,-1.7421340258278128,0.0348039590712767
10.88000000000001,0.0193939541464209,-1.713601022892301,0.0464881554881584
10.89,-0.0077201152295979,-1.7035563307143609,0.044426352784587
10.900000000000006,-0.024490321345359,-1.6943383196615192,0.0247468065492458
10.91000000000001,-0.0074300033022781,-1.6926805401369542,0.0114805053443724
10.920000000000002,0.0146959349719515,-1.6929633479672634,0.0217822413579104
10.930000000000009,0.0589353279160351,-1.6968649376993394,0.0433081081204297
10.939999999999998,0.091213187244653,-1.7006537418528584,0.0675448004204793
10.950000000000005,0.1314812070330052,-1.7006212146134656,0.0854897003442856
10.960000000000008,0.1559543302663369,-1.6987021763436352,0.0878187427852109
10.97,0.187367818483474,-1.7097553436291029,0.0871597069760742
10.980000000000004,0.2076990648454526,-1.7126463251820103,0.0781452619857925
10.990000000000007,0.2235163178719146,-1.7263361977907548,0.0461171373260904
11.0,0.2364260741855859,-1.733774538260734,0.025941372813572
11.010000000000003,0.2512925208727747,-1.7431378664475383,0.0121472947706265
11.02000000000001,0.2557669178129347,-1.7678042209754,0.0145769400165287
11.03,0.2625341215509131,-1.7880870956147914,0.0092981596916565
11.040000000000006,0.2640085939854927,-1.814817036969083,-0.0067721231163714
11.049999999999995,0.2531778541601581,-1.819090683011901,-0.0134449665498527
11.060000000000002,0.2587113420807293,-1.8113721537856,-0.0139556859221303
11.070000000000007,0.2684386272220527,-1.7965553324092625,-0.0187155753993774
11.079999999999998,0.2658543757593538,-1.7864555775408266,-0.038639788112909
11.090000000000003,0.2755044063753324,-1.770059855320189,-0.0554410510333705
11.100000000000009,0.2564773685141883,-1.7675036227374117,-0.0661826019542066
11.11,0.222318930544088,-1.77892929880965,-0.0729440004455109
11.120000000000005,0.1865783458886274,-1.7810191111408158,-0.0694407827572206
11.13000000000001,0.1380876582705449,-1.7849375112358543,-0.0612011802028199
11.14,0.1045625377458642,-1.795168644831442,-0.0409919903664666
11.150000000000006,0.0731343339384989,-1.7966292261723107,-0.0188689919216967
11.16000000000001,0.0581436231746557,-1.790882265696387,-0.003997675579919
11.170000000000002,0.0598500391482199,-1.7785195296474932,-0.0023259467814714
11.180000000000009,0.0615104068033462,-1.7794493359566896,-0.010799083808771
11.189999999999998,0.0689417529278118,-1.7720180218212385,-0.040660587018866
11.200000000000005,0.0704292397174128,-1.7783318381697664,-0.0609385973008031
11.210000000000008,0.0683800318967965,-1.7999228134754055,-0.078054058219483
11.22,0.0719364985302528,-1.8160468942796693,-0.0948974299120169
11.230000000000004,0.0623276096034638,-1.829720726441799,-0.0958586598501627
11.239999999999997,0.0550694402112979,-1.830056340214821,-0.0943203118392405
11.250000000000014,0.0793134110796356,-1.8209308485047615,-0.1019950783970838
11.260000000000003,0.1006689224123093,-1.794066778189869,-0.0978101007827033
11.269999999999996,0.1287674816384613,-1.7764276865644166,-0.1048384498130956
11.280000000000015,0.1509991725051272,-1.759374949320727,-0.10992867355439
11.290000000000006,0.1752284878598995,-1.764196994540746,-0.1120685736707285
11.299999999999995,0.1776429600876701,-1.7695917058036663,-0.1151645294709175
11.310000000000016,0.1959579009029087,-1.781335142023118,-0.1176689964825377
11.320000000000007,0.2056026904313632,-1.788015323044999,-0.112243664851793
11.329999999999998,0.1947878195238944,-1.7802202683426134,-0.1053730127642848
11.340000000000018,0.171045986367569,-1.765936692712848,-0.0941965042848737
11.350000000000009,0.1491640996001788,-1.7523565337861318,-0.0879559147485395
11.36,0.1116508210234862,-1.7320065847825084,-0.0732583352148732
11.36999999999999,0.0722340241992654,-1.716963101701845,-0.0624485269955577
11.38000000000001,0.020109748663539,-1.6934934038765252,-0.0503119230062269
11.39,-0.0302132600890105,-1.6711624619814394,-0.0365707841708353
11.399999999999991,-0.0781045644244775,-1.6495056097942298,-0.0277539139526466
11.41000000000001,-0.1299172438187645,-1.6274047192623204,-0.0276895767113173
11.420000000000002,-0.1546436473079951,-1.6089346899014074,-0.0262680456072475
11.429999999999993,-0.1636860584773958,-1.6017719448923318,-0.0313955654622929
11.440000000000012,-0.1755064218681463,-1.5978574368615923,-0.0339046138819327
11.450000000000005,-0.1807675822839423,-1.5940798266099112,-0.0271474672043035
11.459999999999994,-0.1779267817419002,-1.5713653312542624,-0.0234580431770864
11.470000000000011,-0.1948694343188997,-1.536817835895463,-0.0126367851619919
11.480000000000004,-0.2196632654972572,-1.500578893507034,-0.0078443008977216
11.489999999999997,-0.2638993731950257,-1.46132911620095,0.0115224877079342
11.500000000000014,-0.2939420439492274,-1.4196905514967768,0.0293416839805418
11.510000000000003,-0.3101035786016458,-1.396147262006725,0.0366194161775927
11.519999999999996,-0.3234741050847135,-1.3673850680538535,0.0585252564954301
11.530000000000015,-0.3050539131938223,-1.3239730153333786,0.0652056691208165
11.540000000000006,-0.2987503734718765,-1.2834346361262463,0.0619808233443211
11.549999999999995,-0.2770848959176715,-1.246815523177315,0.0670249915458588
11.560000000000016,-0.2904405259438629,-1.206205881459347,0.068504348315424
11.570000000000007,-0.3009006218376391,-1.1769223790282566,0.0703071979195407
11.579999999999998,-0.3197065780650243,-1.1563263572702829,0.0662602367859013
11.590000000000018,-0.3334324713724167,-1.1409823397468908,0.0768404240705695
11.600000000000009,-0.3304481556225384,-1.132078480461214,0.0812801966251721
11.61,-0.315086116926614,-1.1179780085492597,0.0799210031386444
11.61999999999999,-0.2926275469552071,-1.084168390792224,0.0817281828906021
11.63000000000001,-0.2504502146569008,-1.0559372791924633,0.0793220823052863
11.64,-0.2129392261409907,-1.0080909572803576,0.0827344745698221
11.649999999999991,-0.1731456111775779,-0.9648945608248644,0.0750653859980608
11.66000000000001,-0.1436026533622723,-0.9213787875790624,0.0810020500037745
11.670000000000002,-0.1295559104550309,-0.881405092224539,0.087036100567207
11.679999999999993,-0.1249621606970024,-0.8535321769159685,0.1010929911891001
11.690000000000012,-0.1345458723053906,-0.8272551896760608,0.1125413772186599
11.700000000000005,-0.1507098265823113,-0.788247106959981,0.1154020771707051
11.709999999999994,-0.1832553199012614,-0.7528439262495514,0.1017080886685601
11.720000000000011,-0.1865353246527229,-0.7019414720393775,0.0902299742181564
11.730000000000004,-0.1859178110844201,-0.6568860935807121,0.0692781886108787
11.739999999999997,-0.1786867999087571,-0.6108948737369166,0.0573458638045379
11.750000000000014,-0.1593394635201399,-0.5711737463031268,0.0475369719238932
11.760000000000003,-0.1404430326630429,-0.5270624936525938,0.0337124994604126
11.769999999999996,-0.1454834496884142,-0.4707119369912364,0.0123288236859847
11.780000000000015,-0.1601139258140791,-0.4169991356056849,-0.0101019163294847
11.790000000000006,-0.1774171875122859,-0.3624587685491703,-0.0310560758381719
11.799999999999995,-0.2004575307154076,-0.308296630762879,-0.0458012529400853
11.810000000000016,-0.2207611194148327,-0.2275822412320184,-0.0600523156450511
11.820000000000007,-0.2340098072467711,-0.1613784430917101,-0.0762726317480225
11.829999999999998,-0.2447880013495356,-0.0962736691601747,-0.0954013153167632
11.840000000000018,-0.2779363117472443,-0.0229318099893888,-0.1174627174956283
11.850000000000009,-0.304690317157342,0.0429657926792027,-0.1267527384556548
11.86,-0.3291577831797782,0.0874576446890217,-0.1323301599667287
11.86999999999999,-0.3523220349946745,0.1474035480215186,-0.1287378175171525
11.88000000000001,-0.3658442303904979,0.2079517257137553,-0.1197373333865933
11.89,-0.3605633894641999,0.2802537530499107,-0.109561689468148
11.899999999999991,-0.3510082602123602,0.3436835382477354,-0.0937522369475488
11.91000000000001,-0.3422496367037265,0.3985197963083386,-0.0778637945169325
11.920000000000002,-0.3267735975633836,0.4461236708153214,-0.0685672055486949
11.929999999999993,-0.3054649526152242,0.4882206392029536,-0.0634700754469114
11.940000000000012,-0.2794272438185647,0.5344114899154032,-0.0526410693049103
11.950000000000005,-0.2443316212198991,0.5809986018155697,-0.0547951467976162
11.959999999999994,-0.193266699920012,0.6241175466958087,-0.0469449697848437
11.970000000000011,-0.1301685404920573,0.6687332639160664,-0.0427029439465536
11.980000000000004,-0.0759486472500706,0.7134235351778292,-0.0348621435760072
11.989999999999997,-0.0327899478714301,0.7573403580076679,-0.0230176710024163
12.000000000000014,0.0071745854001688,0.8006437294920105,-0.0130980555395982
12.010000000000003,0.0152334291361058,0.8445941461035262,-0.0067251351273571
12.019999999999996,0.0258148473572586,0.896722216291475,-0.0126264860581379
12.030000000000015,0.0287883728135911,0.9391649847584608,-0.0134916096321294
12.040000000000006,0.0346289442266196,0.9913861003601796,-0.0135492567773105
12.049999999999995,0.0475895936823983,1.0607084425109603,-0.0091978092195931
12.060000000000016,0.061313312037437,1.1164011563609877,-0.0008993748141619
12.070000000000007,0.0828269792039345,1.1817595064138544,0.0069703888305729
12.079999999999998,0.0844397320359411,1.234693892441594,0.0116420471470034
12.090000000000018,0.0979840030474932,1.287739130165254,0.0167803310176827
12.100000000000009,0.1062852308125704,1.3375070253401355,0.0243234857185752
12.11,0.1106140212131743,1.397482821033088,0.011306261715799
12.11999999999999,0.1003757608706276,1.4625050870390208,-0.0023186479142582
12.13000000000001,0.0853354214103539,1.526152204889392,-0.0008352568839919
12.14,0.0727693958692992,1.5798391520520514,-0.0061109740558515
12.149999999999991,0.0600733267639714,1.6306560280618236,-0.0105648176540907
12.16000000000001,0.0450583157126173,1.6678240392743984,-0.0171669760684341
12.170000000000002,0.0414693562045476,1.706516668889557,-0.0225582540819716
12.179999999999993,0.0201041207803058,1.7425323391357646,-0.0429291495897454
12.190000000000012,0.0130705990064364,1.7791624956483385,-0.0626466870483681
12.200000000000005,-4.2038214492709896e-05,1.8322021822524428,-0.0838587192029215
12.209999999999994,-0.0207644865202007,1.8742685725716188,-0.0894163391423086
12.220000000000011,-0.0365904038718479,1.9176091292200743,-0.0741420116081909
12.230000000000004,-0.0592056414730466,1.96424610818346,-0.0593730078543776
12.239999999999997,-0.074860992731224,2.0049267403258813,-0.0461545672116293
12.250000000000014,-0.1065128523821824,2.040496575629652,-0.0403788270141365
12.260000000000003,-0.1244828814479852,2.059302078429984,-0.0404716867124479
12.269999999999996,-0.1452870778335978,2.073321936553945,-0.0483442173984516
12.280000000000015,-0.1808211433509322,2.072799339649813,-0.0617478599035649
12.290000000000006,-0.2099134878508199,2.077127489147284,-0.0753816680803554
12.299999999999995,-0.2485094786310138,2.073104107407244,-0.0787656185005556
12.310000000000016,-0.2775152500992753,2.087354649811043,-0.0746482337567295
12.320000000000007,-0.3035177103655463,2.1017447806546814,-0.0531314682072647
12.329999999999998,-0.3086264596196791,2.1291995028502755,-0.0487884842053252
12.340000000000018,-0.3101944168722701,2.1540068529656278,-0.0461315834008541
12.350000000000009,-0.3229125910195608,2.1880813135657307,-0.0322245022631546
12.36,-0.3280666859038625,2.2200454586950467,-0.0165129765112445
12.36999999999999,-0.3472067467562138,2.25190138337068,-0.0003497158384342
12.38000000000001,-0.3704459314396093,2.2745137690974087,0.017340753015016
12.39,-0.3858427785062698,2.30533508917824,0.0344342481617038
12.399999999999991,-0.3883109527501406,2.3258847286549797,0.0691145535858155
12.41000000000001,-0.3700142128611378,2.352739078247807,0.1001367328149801
12.420000000000002,-0.3433117335074395,2.379594703919066,0.126039459050781
12.429999999999993,-0.3073595988329988,2.4050173511672432,0.1650655401525691
12.440000000000012,-0.2981295055046551,2.432176922527962,0.1996066057082274
12.450000000000005,-0.2814924542623491,2.4572853881761816,0.2169042655041637
12.459999999999994,-0.2722805741509888,2.4809549564668,0.2313146308204881
12.470000000000011,-0.2701869804733207,2.5054596908810183,0.2395632734128302
12.480000000000004,-0.266717834154217,2.529284100778596,0.2498234470626852
12.489999999999997,-0.2477126420759281,2.5429875595052085,0.2661177071780997
12.500000000000014,-0.2427630814392548,2.569995599569995,0.2841021235648819
12.510000000000003,-0.2276460506546578,2.576783757258195,0.3008413613015596
12.519999999999996,-0.2198195636772569,2.5823589636582023,0.3240871950913858
12.530000000000015,-0.2260593157969919,2.576973939168208,0.349828285785147
12.540000000000006,-0.2316680788539999,2.554558681865897,0.3731171892517192
12.549999999999995,-0.2213464137057028,2.533987516155736,0.3878865407347381
12.560000000000016,-0.2122841326435739,2.511117874302018,0.4067224057700229
12.570000000000007,-0.1749594039523613,2.504039138027707,0.4179221827996167
12.579999999999998,-0.144265079821016,2.498319218370234,0.4268256661766736
12.590000000000018,-0.1416731003758349,2.481477601649999,0.4306029681894351
12.600000000000009,-0.1557160537666374,2.456247225489031,0.4449131708594788
12.61,-0.1978198185858115,2.3970880245176254,0.4771796695206125
12.61999999999999,-0.2445156851472152,2.335471045375019,0.5094861284884173
12.63000000000001,-0.2604038334722925,2.274652625464732,0.5431490560832295
12.64,-0.2437092703808605,2.2192463613159794,0.5549722373604005
12.649999999999991,-0.2023644211260972,2.162706078500129,0.5426919703824328
12.66000000000001,-0.1400834265888844,2.1035595337767234,0.5306320987982837
12.670000000000002,-0.0929975865033941,2.0533358200433964,0.5054957191639664
12.679999999999993,-0.0463647472338739,1.99824036761653,0.4692890211809626
12.690000000000012,-0.0032079792601996,1.9637900679298996,0.457778238019021
12.700000000000005,0.027308759095248,1.9360320326789215,0.446511353069645
12.709999999999994,0.0620627708763351,1.916285498949568,0.4512047171446542
12.720000000000011,0.0796712299750967,1.8933484594114989,0.4577257339216444
12.730000000000004,0.0675451047269726,1.8612429659954175,0.4433123191373224
12.739999999999997,0.0536221507035116,1.8158123637671584,0.4238277153662157
12.750000000000014,0.0342915255558914,1.7741821419325112,0.3979971977215509
12.760000000000003,0.013626357425505,1.7386937752685625,0.374211909794003
12.769999999999996,-0.0050542539577451,1.712557873075067,0.3540352049128077
12.780000000000015,-0.0021930715787707,1.7117170242695574,0.3484283123181455
12.790000000000006,-0.0058896199378231,1.7145415895144371,0.3280842831990299
12.799999999999995,0.0092371338140189,1.7231576373487585,0.3168182595192259
12.810000000000016,0.0106941551335765,1.7442244876111497,0.2999360184871328
12.820000000000007,-0.0018491433631382,1.743131259579079,0.2781891548301661
12.829999999999998,-0.0177082067469575,1.7308845716909165,0.2595443459680262
12.840000000000018,-0.031668234900733,1.7329577415342472,0.2256577233722667
12.850000000000009,-0.0428754455974968,1.742511689409063,0.1990877516906468
12.86,-0.0559197236736253,1.7570521062138336,0.1714425825924334
12.86999999999999,-0.070822090614957,1.76982634397104,0.137736306219974
12.88000000000001,-0.0897242435449235,1.7886118599835723,0.1169722219349547
12.89,-0.1081638741529293,1.790575183224651,0.0984892766840866
12.899999999999991,-0.1303353788868061,1.7903719808896628,0.0965479904753823
12.91000000000001,-0.1511413334040018,1.7766995672917012,0.0911365570484716
12.920000000000002,-0.1626091125199217,1.7854782823207584,0.0831010791394285
12.929999999999993,-0.177999001616724,1.7845634954719305,0.083097609186905
12.940000000000012,-0.1894919943511337,1.772113658416287,0.0708656761095827
12.950000000000005,-0.2027613240192275,1.759009722765833,0.060981183637365
12.959999999999994,-0.2090454914472569,1.7487880562703089,0.0314788358170021
12.970000000000011,-0.2237440556283911,1.728858844217851,0.0142791527360733
12.980000000000004,-0.2381338603231171,1.7082372208280596,0.014771622131382
12.989999999999997,-0.2464089866505155,1.6889457788012787,0.0080656678880547
13.000000000000014,-0.2421857597629267,1.6805053640675924,0.0016976444779172
13.010000000000003,-0.2292056391885671,1.6604462917152931,0.0033776768336222
13.019999999999996,-0.2086062916135461,1.631746534955176,-0.0014153442827713
13.030000000000015,-0.170982056900582,1.5929359623339767,0.0026748605202099
13.040000000000006,-0.1279683618882471,1.5535099629406557,0.0072641524877037
13.049999999999995,-0.0887334434937934,1.5034298052552868,0.0019153425950537
13.060000000000016,-0.059169191922874,1.4753670856342866,-0.0136632494953561
13.070000000000007,-0.0356804155634285,1.4499472013521688,-0.0466256891771977
13.079999999999998,-0.0439321112696028,1.4113154490648858,-0.0791701172805228
13.090000000000018,-0.0049588015909221,1.3380965931691906,-0.1183115828066051
13.100000000000009,0.1242815996072526,1.277771151312756,-0.1618253078368349
13.11,0.2075531010721707,1.2548039615533224,-0.1864919905277023
13.11999999999999,0.2480584721449177,1.2499383608163264,-0.1927195181172072
13.13000000000001,0.2624906967823632,1.2816626768729698,-0.1890321167239185
13.14,0.2437031131893832,1.318152643564531,-0.1790608188719617
13.149999999999991,0.2052854189481152,1.353166603005327,-0.1665081538670363
13.16000000000001,0.1615733769724406,1.3655823126635944,-0.1527607834835768
13.170000000000002,0.1251020295737212,1.358685601615686,-0.1460227295996634
13.179999999999993,0.0865305249806096,1.3513466191677947,-0.1340414494671002
13.190000000000012,0.0351674751495534,1.351922824068625,-0.119681578951581
13.200000000000005,-0.0145209543890125,1.3516337315604945,-0.1168570464332063
13.209999999999994,-0.0470403761532463,1.3542951913858543,-0.1144298024383122
13.220000000000011,-0.0548409006610126,1.3455086474407298,-0.1229572149945705
13.230000000000004,-0.0084755730332452,1.3250007559507122,-0.1288704771478857
13.239999999999997,0.0095423177493075,1.310633010167901,-0.1324120385915337
13.250000000000014,0.0363299504821144,1.2812236674732265,-0.1194386581148004
13.260000000000003,0.0671968599335685,1.247785887986158,-0.1029298571296578
13.269999999999996,0.0767160947626156,1.2322083398022028,-0.0785956359757615
13.280000000000015,0.0682047599378436,1.2144390698473109,-0.0429786419120961
13.290000000000006,0.0553585649646501,1.2042122210986894,-0.0117146841727274
13.299999999999995,0.035613685847304,1.1908201812904775,0.0036792426457485
13.310000000000016,0.0151176389631911,1.162547925477931,-0.0006809763338394
13.320000000000007,0.0171993625005351,1.113739447658947,-0.0059292279178243
13.329999999999998,0.0265935444707375,1.053795087246134,-0.0209022061855094
13.340000000000018,0.027351629023206,1.0061567503786946,-0.0394910150849631
13.350000000000009,0.0006028607515014,0.9539355290314256,-0.036919753998172
13.36,-0.0581147967565484,0.903894896883518,-0.0249516397578769
13.36999999999999,-0.1334130395030973,0.8378577981169951,-0.0220504471875692
13.38000000000001,-0.1995406924115566,0.7757770922134499,-0.0052415349802234
13.39,-0.2373253262452236,0.7119102535683779,0.0102942201512854
13.399999999999991,-0.2469920734911785,0.638181674532056,0.0285126743960705
13.41000000000001,-0.2333822084370315,0.5615326971814121,0.0381673917164139
13.420000000000002,-0.2047015208153788,0.4872022406735375,0.0348528916831526
13.429999999999993,-0.1888184707356565,0.4062879388623808,0.0340719662905395
13.440000000000012,-0.1859620153143912,0.3224967750984894,0.0321954795565563
13.450000000000005,-0.1794495761026642,0.2384844241078684,0.0284228264873383
13.459999999999994,-0.1876424463442449,0.1510494371282425,0.0277057688037405
13.470000000000011,-0.1784341730332217,0.0615046326888881,0.0111735082001709
13.480000000000004,-0.1485066584125824,-0.0284289024518045,0.0046791800575176
13.489999999999997,-0.1019575904339823,-0.1197502463330105,0.0041270297698324
13.500000000000014,-0.0473595231002126,-0.195401640127641,0.0073117119354092
13.510000000000003,0.0115493675309949,-0.2745337112065985,0.0169090045398055
13.519999999999996,0.0611426552878343,-0.345725449306053,0.0257078135066593
13.530000000000015,0.0828627950871881,-0.4299559173548141,0.0242142361882289
13.540000000000006,0.1099606627650956,-0.519864402919081,0.0190115569553809
13.549999999999995,0.1244688172416715,-0.6069518456934858,0.0020288958064604
13.560000000000016,0.1275001402731979,-0.7075752452224543,-0.0138447333884447
13.570000000000007,0.1285994690155365,-0.7946426596366126,-0.0277200419272982
13.579999999999998,0.1189688304600422,-0.880035840097023,-0.0398437818903175
13.590000000000018,0.1170060411659536,-0.9613442931137548,-0.0422323680445234
13.600000000000009,0.1162603266399677,-1.0331557974185326,-0.0416428236445543
13.61,0.122030548661302,-1.101638268524891,-0.0459488352011054
13.61999999999999,0.1326818662991515,-1.1656735607707085,-0.0495060360985446
13.63000000000001,0.1626674182177347,-1.230085133284717,-0.0502298042620541
13.64,0.1808061010029163,-1.31160744626084,-0.0422711120094425
13.649999999999991,0.1998390080567975,-1.3825809880740976,-0.0317492210114879
13.66000000000001,0.2083725512438616,-1.4466919744393307,-0.0154694494511369
13.670000000000002,0.2151826023484483,-1.5145171945855305,0.0014267853377474
13.679999999999993,0.2311408630918496,-1.5804267136509562,0.0124344687533636
13.690000000000012,0.2314991862513844,-1.6438720752553984,0.0286727449636921
13.700000000000005,0.2359020233257069,-1.7064992331868023,0.0391339864205999
13.709999999999994,0.2430756168523776,-1.7505050378827005,0.0448761236029661
13.720000000000011,0.2498199707075162,-1.804047160585113,0.0400199355877268
13.730000000000004,0.2533922044807031,-1.860308174294526,0.030247701843369
13.739999999999997,0.2516890083744759,-1.914927401652752,0.0230576030364749
13.750000000000014,0.2453405138092864,-1.9642655393905315,0.0262432467381771
13.760000000000003,0.2157016889215577,-2.025304377338794,0.0321755767245487
13.769999999999996,0.1935014612314501,-2.071053020482838,0.0410704530359539
13.780000000000015,0.1606696978312413,-2.106156778157117,0.0378193304336276
13.790000000000006,0.1129043688841388,-2.134759476578881,0.026027685312817
13.799999999999995,0.0918524947706841,-2.171202165636179,0.000111429791175
13.810000000000016,0.077915551495487,-2.204097062716226,-0.0232650404750405
13.820000000000007,0.0980877610040311,-2.237939521616044,-0.0423714086465923
13.829999999999998,0.1595961525263511,-2.2626552260997155,-0.0736842144822206
13.840000000000018,0.2237769381842443,-2.289944459154728,-0.0889964900873271
13.850000000000009,0.2841813773415739,-2.3152174421800904,-0.0984328676726449
13.86,0.3183667551173547,-2.3407351082634347,-0.1041398733797666
13.86999999999999,0.3331865639824515,-2.3655596382766397,-0.1129978653168077
13.88000000000001,0.3191243286986529,-2.385860188658824,-0.1273598421561531
13.89,0.2822600788113176,-2.4184240721741164,-0.1227151564672451
13.899999999999991,0.2274215315626346,-2.451546179376708,-0.1159215563815165
13.91000000000001,0.1623140963186313,-2.467646861605985,-0.0980197993366748
13.920000000000002,0.0971440385452127,-2.494459443096736,-0.0876360642700839
13.929999999999993,0.0673091451014866,-2.4967631114910414,-0.0836450217336552
13.940000000000012,0.0831254275443579,-2.48086210603715,-0.1059391842277255
13.950000000000005,0.1282479766542658,-2.465450112639467,-0.1383194305122687
13.959999999999994,0.1864731001960471,-2.4393120012498377,-0.1617176251852317
13.970000000000011,0.2298715144167256,-2.428494479352629,-0.1868603375360549
13.980000000000004,0.2496018666532695,-2.406478739836315,-0.2138190856891774
13.989999999999997,0.2492742632309235,-2.3906982521394053,-0.2195878197768202
14.000000000000014,0.217990918685709,-2.3855484631444144,-0.2115829102693376
14.010000000000003,0.181946902097426,-2.393294783335677,-0.2097743959240189
14.019999999999996,0.1604836333624753,-2.3970947387237294,-0.2100971079830347
14.030000000000015,0.1262978686046751,-2.400346480591589,-0.2023544015947348
14.040000000000006,0.1020436621709413,-2.390576867948625,-0.1985421210650121
14.049999999999995,0.0760469738051706,-2.373516914406929,-0.1878763409837176
14.060000000000016,0.0343707748817413,-2.346345283267611,-0.1723082764330971
14.070000000000007,-0.0113788629825586,-2.32630725283965,-0.154049380509641
14.079999999999998,-0.0613321716821284,-2.3200356410102057,-0.1484952965791388
14.090000000000018,-0.1020135331343033,-2.311776854002957,-0.1309563371513903
14.100000000000009,-0.1196427674966382,-2.300242783403781,-0.1190183505247502
14.11,-0.1074896844722459,-2.2875957151997275,-0.1144157040075834
14.11999999999999,-0.0733301321089088,-2.279605062325009,-0.1016047092388374
14.13000000000001,-0.0233310999125503,-2.2567982980085284,-0.0790388764041119
14.14,0.0405718437199138,-2.225593880125931,-0.0674462870365997
14.149999999999991,0.0862076557882925,-2.207682271779685,-0.0712664301900659
14.16000000000001,0.1103567931026911,-2.1868091663130897,-0.0794909992824241
14.170000000000002,0.1217281560427348,-2.1794756111996403,-0.0703875037146587
14.179999999999993,0.0961215759332631,-2.1773374371239744,-0.0697869961976427
14.190000000000012,0.0769025332124661,-2.170772231464436,-0.078184448432026
14.200000000000005,0.0712713920638547,-2.1606829075563394,-0.080991484160651
14.209999999999994,0.0770287234060735,-2.147222404658354,-0.071762666374961
14.220000000000011,0.0989445760675864,-2.142657650507522,-0.0743987648161625
14.230000000000004,0.1247517221357776,-2.125451029019652,-0.0896498225383525
14.239999999999997,0.1488153217520814,-2.1088191962017917,-0.1126895153293936
14.250000000000014,0.1693974550052389,-2.0900909767406297,-0.1274428314743693
14.260000000000003,0.1582782482878887,-2.0780582381408883,-0.1399460961991349
14.269999999999996,0.142889782316038,-2.0761287323764943,-0.1469273193264618
14.280000000000015,0.141821804290059,-2.0804238129770627,-0.1495150127538022
14.290000000000006,0.1657043842898092,-2.0805607030578157,-0.1592727160785297
14.299999999999995,0.1970323787908357,-2.075649884107521,-0.1736214689804626
14.310000000000016,0.2151789832220835,-2.0681333042354875,-0.1849462920683711
14.320000000000007,0.2237904006919372,-2.0459243981614064,-0.1877060746719983
14.329999999999998,0.2092752745434782,-2.0283009640303438,-0.186311415237794
14.340000000000018,0.1843082504388556,-2.0028069893678664,-0.1703684498502635
14.350000000000009,0.1574966505889171,-1.985668998847306,-0.151010632885535
14.36,0.1284396855798087,-1.9717328949130128,-0.135071244660796
14.36999999999999,0.1184897371879645,-1.9691883160288652,-0.1236130719551982
14.38000000000001,0.1262372990605601,-1.9392723342672904,-0.1162068995997977
14.39,0.1539353882573962,-1.915399378251059,-0.1211758081020873
14.399999999999991,0.1753126857759277,-1.8893677082356557,-0.1342473175945228
14.41000000000001,0.1780625644038862,-1.844668223393416,-0.1448320181348334
14.420000000000002,0.1620560935755424,-1.7918653201651369,-0.1425453559788628
14.429999999999993,0.1303023819419126,-1.7573855476768443,-0.1430478574668476
14.440000000000012,0.1073312550532422,-1.7371787412680146,-0.1406505476718815
14.450000000000005,0.0924157650717274,-1.7314402458589722,-0.1356569873271782
14.459999999999994,0.0932616982005217,-1.7354572045172287,-0.1357806526967168
14.470000000000011,0.0973683655781329,-1.7350839086054746,-0.1410075105685035
14.480000000000004,0.1003473436913233,-1.7342961700107418,-0.1436530298606895
14.489999999999997,0.0827106456285495,-1.7238980906151136,-0.1441004156423424
14.500000000000014,0.0462773737026186,-1.708420092273344,-0.1430192523462994
14.510000000000003,0.0074028315714243,-1.690125910725616,-0.1446315187438821
14.519999999999996,-0.0400100641606809,-1.679768885969514,-0.1423862528150526
14.530000000000015,-0.054729518938223,-1.68182032726822,-0.1440139231386342
14.540000000000006,-0.0781645812366164,-1.686458909099456,-0.1408420691406091
14.549999999999995,-0.0888246214545595,-1.681442355595694,-0.1366552022848695
14.560000000000016,-0.0852536382915065,-1.6628905056020058,-0.1267527735495068
14.570000000000007,-0.0783736365870807,-1.6479371621844805,-0.1137882399540191
14.579999999999998,-0.0793607094506661,-1.6252215715384826,-0.093130004138291
14.590000000000018,-0.0672049076266916,-1.5984727991805858,-0.0742691688756404
14.600000000000009,-0.0521189897386135,-1.5778878979226691,-0.0603771063868242
14.61,-0.0357201739312419,-1.5676922165563905,-0.0439610130782368
14.61999999999999,-0.0212621958751363,-1.574113438591609,-0.0276780990987764
14.63000000000001,-0.0250870710858527,-1.5691964831134904,-0.0090337683701839
14.64,-0.0220159161913049,-1.555415073270835,0.0050676748635921
14.649999999999991,-0.0130808692711994,-1.5273788593196798,0.0136866557455383
14.66000000000001,-0.0048777713790715,-1.4953310550302557,0.0178394827413176
14.670000000000002,-0.0117556919741629,-1.4673580121083425,0.0246908286168598
14.679999999999993,-0.0129356064694399,-1.4471811364496403,0.0305531567172582
14.690000000000012,-0.0048685253580183,-1.42818679693003,0.0332989584795539
14.700000000000005,-0.0047993711436103,-1.419474566194082,0.0409020185251794
14.709999999999994,-0.0069308511747001,-1.407667533949961,0.0517940708161192
14.720000000000011,-0.0165616635478173,-1.398620443685823,0.0627749875310305
14.730000000000004,-0.0184808785695706,-1.3953145253882866,0.0653634286777639
14.739999999999997,-0.0337401497858822,-1.3764213408843924,0.0695131584317308
14.750000000000014,-0.0426318260427975,-1.361620650498985,0.0773203305026515
14.760000000000003,-0.038423686098103,-1.342554833875007,0.0800912695764802
14.769999999999996,-0.0194758770031062,-1.3268670598448786,0.0831878258350993
14.780000000000015,0.0062787999114605,-1.3082316669841196,0.0905184503315987
14.790000000000006,0.0396697808409928,-1.282976311201503,0.1015863715703846
14.799999999999995,0.0892768184267932,-1.254131464325268,0.1102864852277102
14.810000000000016,0.1105536257162523,-1.2277036070732648,0.1015537446980471
14.820000000000007,0.1156895036256698,-1.2151554971998078,0.0980429407510917
14.829999999999998,0.1009824425710594,-1.20680018258619,0.0860736367646406
14.840000000000018,0.0867253216320063,-1.1996043942010577,0.0792689232440137
14.850000000000009,0.0833109736768435,-1.1870258369179585,0.0797606948749888
14.86,0.0822757196831029,-1.175371756339054,0.0688787407396013
14.86999999999999,0.0762453962393276,-1.152600468145384,0.0657224028924077
14.88000000000001,0.0769928259961663,-1.1158669057943251,0.0573680930372422
14.89,0.0676238973383097,-1.0732720655414207,0.0494688765825596
14.899999999999991,0.0623204306452592,-1.0227262662399292,0.0516179641316628
14.91000000000001,0.0692786586116383,-0.9917225951476776,0.0568983621090166
14.920000000000002,0.0918753870717949,-0.9522497645376242,0.0558398350095836
14.929999999999993,0.1179078337361547,-0.9243799668898794,0.0529004644130526
14.940000000000012,0.1535361420340484,-0.8883264857748553,0.0594417675424991
14.950000000000005,0.1968809913349303,-0.8306175294475937,0.0453381082735049
14.959999999999994,0.2331403290491497,-0.7582351855451357,0.0308987166989675
14.970000000000011,0.2522174969671522,-0.6907259192721421,0.0305127336846299
14.980000000000004,0.2398950733476482,-0.6347251574794304,0.023905305783915
14.989999999999997,0.2161376074907467,-0.5694681551079465,0.027938759103172
15.000000000000014,0.183700061263878,-0.5242369522244273,0.0311612411878179
15.010000000000003,0.1309783128452936,-0.473965431290312,0.0359357824013212
15.019999999999996,0.0854927036256552,-0.4229967649141252,0.0324093536201762
15.030000000000015,0.0561695608354898,-0.3512756897546641,0.0320770175790682
15.040000000000006,0.0358391443414659,-0.289138509070331,0.0154691208442409
15.049999999999995,0.0274914086507021,-0.224592672633835,-0.0068323214350757
15.060000000000016,0.0167298192601793,-0.1560927181299628,-0.0073191151294225
15.070000000000007,0.0016326043869966,-0.1079776092071482,-0.0091150704254388
15.079999999999998,-0.0180319904156113,-0.0511460658056147,-0.0102160694493928
15.090000000000018,-0.0312898443577032,0.0085798524697876,0.0059745713189452
15.100000000000009,-0.0487328177749777,0.0608161943212706,0.014164885882248
15.11,-0.0619685231673093,0.1151004426482851,0.0158021415660687
15.11999999999999,-0.0634171063463951,0.1697780181278201,0.015874835498644
15.13000000000001,-0.0576120568583371,0.2206331304012678,0.0056752274224571
15.14,-0.0644143893850642,0.270737003811081,-0.0061225707725714
15.149999999999991,-0.0817050792408888,0.3224705530022858,-0.0044785903025216
15.16000000000001,-0.1022865853508999,0.3709026216964853,-0.0028679628550702
15.170000000000002,-0.1226559959433102,0.4375228916424872,-0.0046367088832988
15.179999999999993,-0.1302490537502391,0.5169563458328386,-0.0182464553077745
15.190000000000012,-0.1339719183722673,0.5913443551503553,-0.0241385017918358
15.200000000000005,-0.130591877866163,0.6610173480860274,-0.0396244671756781
15.209999999999994,-0.1353311294547422,0.739460504527538,-0.0448780186865748
15.220000000000011,-0.1523213056400602,0.812939177355095,-0.0453317888237025
15.230000000000004,-0.1670113936977976,0.8845107376976322,-0.0448762780917191
15.239999999999997,-0.1761332947431909,0.9629006792011552,-0.0302385423606907
15.250000000000014,-0.1786162928560889,1.0412770421588426,-0.0196186455192314
15.260000000000003,-0.1859877561569356,1.123808556987293,-0.0144465234659768
15.269999999999996,-0.204489364058618,1.2104184625959482,-0.0020974725688521
15.280000000000015,-0.237279672498353,1.2852569502477489,-2.2242545012178063e-05
15.290000000000006,-0.2689907133719207,1.3439980777230287,0.0021053849909725
15.299999999999995,-0.2867276077853388,1.401503345962825,0.0071993888703221
15.310000000000016,-0.2985386478124979,1.4508633653860463,0.0006853872951634
15.320000000000007,-0.2922045004142049,1.4994426764657718,0.0001167689155109
15.329999999999998,-0.2643983255166362,1.5467674374348572,-0.0067374550037216
15.340000000000018,-0.2286324940077029,1.5876317562042024,-0.0106997494287412
15.350000000000009,-0.1946034778510819,1.6264251290835805,-0.0110600707616681
15.36,-0.1637511739681191,1.6696395439981384,-0.0093686813474306
15.36999999999999,-0.134806576582759,1.7059801946996722,-0.0118550437690894
15.38000000000001,-0.1062193400180649,1.7448531971358372,-0.0239848023981242
15.39,-0.0861517806403286,1.7953641415039134,-0.0414900514885725
15.399999999999991,-0.0623759036733936,1.8362754849516283,-0.0536652680826994
15.41000000000001,-0.0504650434881887,1.8768360639614587,-0.0680081194216511
15.420000000000002,-0.0443709086512055,1.8966151144668408,-0.0657234255945336
15.429999999999993,-0.0423661904062422,1.9151483747862528,-0.0620375886956274
15.440000000000012,-0.035728507965503,1.918296951754384,-0.0573224307910817
15.450000000000005,-0.0121250511324741,1.932271323994173,-0.0478611592847142
15.459999999999994,0.0233972979672778,1.944468419700401,-0.0586484677289367
15.470000000000011,0.0601575849507884,1.9469288102246003,-0.0592737185450788
15.480000000000004,0.0954622078952679,1.9595742029413048,-0.0650324861980668
15.489999999999997,0.1179640228900069,1.9639423083402527,-0.0661256487947436
15.500000000000014,0.1222042819313218,1.97912434857921,-0.0535814237688735
15.510000000000003,0.1258415901527614,1.9857128592485715,-0.0332984994519425
15.519999999999996,0.1282773140526392,2.012830615220917,0.001240476970027
15.530000000000015,0.1428859683138456,2.03764893416452,0.0345700940022326
15.540000000000006,0.1654668212605079,2.052682737405001,0.0655597494961225
15.549999999999995,0.2013563189763794,2.0671476350997686,0.0785174306896972
15.560000000000016,0.2287273941294725,2.0643979097631755,0.0734411928772735
15.570000000000007,0.254095120678011,2.068230192327205,0.0635843635330811
15.579999999999998,0.2460442520671662,2.0915093034016423,0.0336119872187642
15.590000000000018,0.2327806408280556,2.117524958528568,0.0173683556501409
15.600000000000009,0.2107050001588188,2.148701506939888,0.0069192890516322
15.61,0.1749543709198231,2.170920539502349,0.0082331022734868
15.61999999999999,0.1462457079932139,2.1883967150161148,0.0276786979480728
15.63000000000001,0.1136686376376817,2.195129651262848,0.0443008640929372
15.64,0.1049749440193948,2.199970841961652,0.0645942085038938
15.649999999999991,0.0958235077533696,2.1959444095269465,0.0781517953969299
15.66000000000001,0.0827405367156558,2.195831396439444,0.0864406683057467
15.670000000000002,0.082934037710126,2.2028157793389256,0.0910801678665736
15.679999999999993,0.081514483789857,2.2087008874434018,0.1000640043681966
15.690000000000012,0.0583783603819102,2.233874542894444,0.1052067841634984
15.700000000000005,0.0467053769739285,2.248163759627796,0.1236671464887961
15.709999999999994,0.0259849031007764,2.263212096920372,0.132421787975921
15.720000000000011,0.0051066318011532,2.2920583982071925,0.139931974917135
15.730000000000004,-0.0266455105647319,2.308217135934182,0.1506847979019671
15.739999999999997,-0.0447837644760946,2.3256836878260563,0.1552558947610315
15.750000000000014,-0.056528968723403,2.335776708725151,0.1626527540793792
15.760000000000003,-0.0666042352640358,2.352105568822833,0.1773714668061021
15.769999999999996,-0.0596945156548395,2.364613222193182,0.1936881827265378
15.780000000000015,-0.0437996143525521,2.3826907281547958,0.2165039494629061
15.790000000000006,-0.0350136013982015,2.4070762402457304,0.2394598052252227
15.799999999999995,-0.0225646705684954,2.417655690918585,0.250060697371831
15.810000000000016,-0.0197098204570349,2.4166869382922407,0.2608216940947707
15.820000000000007,-0.035273572633256,2.412865325932219,0.2663589579551154
15.829999999999998,-0.0434611496528587,2.401958539388508,0.2700150872218848
15.840000000000018,-0.0553281643945694,2.3931972866634594,0.2777061871178902
15.850000000000009,-0.0502111405892949,2.3749544847056705,0.2842115627005195
15.86,-0.0403287356419452,2.363313643287704,0.2987587598804777
15.86999999999999,-0.028661701620335,2.353033855329376,0.3157496105925556
15.88000000000001,-0.0139683263797169,2.33034345577442,0.3155720215566463
15.89,0.0056016517028834,2.3059467448807704,0.3121522576881845
