time,Gyr_X,Gyr_Y,Gyr_Z
0.0,0.0042603487041181,0.0042603487041181,-0.0053267448770866
0.003499999999974,0.002131047016685,0.0053267448770866,-0.002131047016685
0.0069999999999765,0.0042603487041181,-5.217422403749877e-19,-0.0042603487041181
0.010499999999979,0.002131047016685,0.0042603487041181,-0.002131047016685
0.0139999999999815,0.0031956978604016,0.002131047016685,-0.002131047016685
0.017499999999984,0.0031956978604016,0.0031956978604016,-0.002131047016685
0.0209999999999865,3.913601155782886e-19,0.0031956978604016,-0.0031956978604016
0.024499999999989,0.0010646508437165,0.002131047016685,-0.0053267448770866
0.0279999999999915,0.002131047016685,0.0010646508437165,-0.0010646508437165
0.031499999999994,0.0010646508437165,0.002131047016685,-0.0053267448770866
0.0349999999999965,0.002131047016685,0.002131047016685,-0.0063913957208032
0.038499999999999,0.002131047016685,0.0010646508437165,-0.0031956978604016
0.0419999999999731,0.0031956978604016,0.002131047016685,-0.0031956978604016
0.0454999999999756,0.0010646508437165,0.0010646508437165,-0.002131047016685
0.0489999999999781,0.002131047016685,0.0010646508437165,-0.0031956978604016
0.0524999999999806,0.0010646508437165,0.002131047016685,-0.0010646508437165
0.0559999999999831,0.0042603487041181,0.0010646508437165,-0.0031956978604016
0.0594999999999856,0.0010646508437165,0.0042603487041181,-0.0063913957208032
0.0629999999999881,0.002131047016685,0.002131047016685,-0.002131047016685
0.0664999999999906,0.002131047016685,0.002131047016685,-0.0053267448770866
0.0699999999999931,6.523381063598781e-19,0.0053267448770866,-0.0031956978604016
0.0734999999999956,0.0063913957208032,0.0010646508437165,-0.0053267448770866
0.0769999999999981,0.002131047016685,0.002131047016685,-0.0053267448770866
0.0805000000000006,0.0031956978604016,0.0031956978604016,-0.002131047016685
0.0839999999999747,0.002131047016685,0.0010646508437165,0.0
0.0874999999999772,0.0031956978604016,0.0010646508437165,-0.002131047016685
0.0909999999999797,0.002131047016685,-2.6097799078158957e-19,-0.0053267448770866
0.0944999999999822,0.002131047016685,0.002131047016685,-0.0042603487041181
0.0979999999999847,0.0063913957208032,0.0042603487041181,-0.0053267448770866
0.1014999999999872,0.0031956978604016,0.002131047016685,-0.0042603487041181
0.1049999999999897,0.002131047016685,0.0010646508437165,-0.0042603487041181
0.1084999999999922,0.002131047016685,0.0010646508437165,-0.002131047016685
0.1119999999999947,0.0031956978604016,0.0010646508437165,-0.0042603487041181
0.1154999999999972,0.002131047016685,0.0042603487041181,-0.0031956978604016
0.1189999999999997,0.0031956978604016,0.0031956978604016,-0.0010646508437165
0.1224999999999738,0.0053267448770866,-6.523381063598781e-19,-0.0042603487041181
0.1259999999999763,0.0010646508437165,-1.3038212479669908e-19,-0.0053267448770866
0.1294999999999788,0.0010646508437165,0.0010646508437165,-0.0010646508437165
0.1329999999999813,0.0031956978604016,0.0010646508437165,-0.0053267448770866
0.1364999999999838,0.0010646508437165,0.0010646508437165,-0.002131047016685
0.1399999999999863,2.6097799078158957e-19,0.002131047016685,-0.002131047016685
0.1434999999999888,0.0042603487041181,0.002131047016685,-0.002131047016685
0.1469999999999913,3.913601155782886e-19,0.0031956978604016,-0.0031956978604016
0.1504999999999938,2.6097799078158957e-19,0.002131047016685,-0.0053267448770866
0.1539999999999963,0.0010646508437165,0.002131047016685,-0.0031956978604016
0.1574999999999988,1.3038212479669908e-19,0.0010646508437165,-0.0031956978604016
0.1609999999999729,0.0031956978604016,0.002131047016685,-0.0053267448770866
0.1644999999999754,0.0010646508437165,0.002131047016685,-0.0053267448770866
0.1679999999999779,0.002131047016685,0.0010646508437165,-0.0053267448770866
0.1714999999999804,0.002131047016685,0.0031956978604016,-0.0031956978604016
0.1749999999999829,0.002131047016685,0.002131047016685,-0.0031956978604016
0.1784999999999854,3.913601155782886e-19,0.0031956978604016,-0.0010646508437165
0.1819999999999879,0.0042603487041181,-5.217422403749877e-19,-0.0042603487041181
0.1854999999999904,0.0042603487041181,0.0031956978604016,-0.0074577918937717
0.1889999999999929,0.0010646508437165,0.0042603487041181,-0.0042603487041181
0.1924999999999954,0.0042603487041181,0.0010646508437165,-0.0042603487041181
0.1959999999999979,0.0042603487041181,0.0031956978604016,-0.0053267448770866
0.1995000000000004,0.0010646508437165,0.002131047016685,-0.0031956978604016
0.2029999999999745,0.0010646508437165,0.0053267448770866,-0.0053267448770866
0.206499999999977,0.0031956978604016,0.0010646508437165,-0.0042603487041181
0.2099999999999795,0.002131047016685,0.0010646508437165,-0.0053267448770866
0.213499999999982,3.913601155782886e-19,0.0031956978604016,-0.0053267448770866
0.2169999999999845,0.0042603487041181,-5.217422403749877e-19,-0.0042603487041181
0.220499999999987,0.0010646508437165,0.0031956978604016,-0.0031956978604016
0.2239999999999895,0.002131047016685,-2.6097799078158957e-19,-0.0042603487041181
0.227499999999992,0.0031956978604016,0.002131047016685,-0.0053267448770866
0.2309999999999945,0.0031956978604016,0.002131047016685,-0.0042603487041181
0.234499999999997,0.002131047016685,-2.6097799078158957e-19,-0.002131047016685
0.2379999999999995,0.0031956978604016,0.0031956978604016,-0.0042603487041181
0.2414999999999736,0.0042603487041181,0.0042603487041181,-0.0042603487041181
0.2449999999999761,0.0031956978604016,0.002131047016685,-0.002131047016685
0.2484999999999786,0.0031956978604016,0.002131047016685,-0.002131047016685
0.2519999999999811,0.0010646508437165,0.0042603487041181,-0.002131047016685
0.2554999999999836,0.002131047016685,0.0010646508437165,0.0
0.2589999999999861,0.0010646508437165,0.0031956978604016,-0.0031956978604016
0.2624999999999886,0.0031956978604016,-3.913601155782886e-19,-0.0053267448770866
0.2659999999999911,2.6097799078158957e-19,0.002131047016685,-0.0042603487041181
0.2694999999999936,0.0042603487041181,0.002131047016685,-0.0063913957208032
0.2729999999999961,0.002131047016685,0.0010646508437165,-0.0053267448770866
0.2764999999999986,0.0063913957208032,0.002131047016685,-0.0074577918937717
0.2799999999999727,0.0042603487041181,0.002131047016685,-0.0031956978604016
0.2834999999999752,0.0031956978604016,0.0010646508437165,-0.0031956978604016
0.2869999999999777,0.0031956978604016,-3.913601155782886e-19,-0.0074577918937717
0.2904999999999802,0.0010646508437165,0.0031956978604016,-0.0042603487041181
0.2939999999999827,0.0010646508437165,0.0053267448770866,-0.0031956978604016
0.2974999999999852,0.0042603487041181,0.0042603487041181,-0.0063913957208032
0.3009999999999877,0.0042603487041181,0.002131047016685,-0.0010646508437165
0.3044999999999902,0.0031956978604016,0.0010646508437165,0.0
0.3079999999999927,0.0042603487041181,-5.217422403749877e-19,-0.0042603487041181
0.3114999999999952,0.0010646508437165,0.0010646508437165,-0.0031956978604016
0.3149999999999977,0.0053267448770866,0.002131047016685,-0.0042603487041181
0.3185000000000002,0.0031956978604016,0.0010646508437165,-0.0042603487041181
0.3219999999999743,3.913601155782886e-19,0.0031956978604016,-0.0063913957208032
0.3254999999999768,0.0042603487041181,0.002131047016685,-0.0063913957208032
0.3289999999999793,3.913601155782886e-19,0.0031956978604016,-0.0031956978604016
0.3324999999999818,0.0053267448770866,0.0010646508437165,-0.0031956978604016
0.3359999999999843,0.0063913957208032,-7.827202311565772e-19,-0.002131047016685
0.3394999999999868,0.0010646508437165,0.0010646508437165,-0.0031956978604016
0.3429999999999893,0.0053267448770866,0.0010646508437165,-0.0042603487041181
0.3464999999999918,0.0053267448770866,-6.523381063598781e-19,-0.0031956978604016
0.3499999999999943,0.0010646508437165,0.0031956978604016,-0.0042603487041181
0.3534999999999968,0.002131047016685,0.002131047016685,-0.0063913957208032
0.3569999999999993,0.0042603487041181,0.002131047016685,-0.0031956978604016
0.3604999999999734,0.0042603487041181,0.0031956978604016,-0.0074577918937717
0.3639999999999759,0.002131047016685,0.0010646508437165,-0.0031956978604016
0.3674999999999784,0.0031956978604016,0.0031956978604016,-0.002131047016685
0.3709999999999809,0.0031956978604016,0.002131047016685,-0.0053267448770866
0.3744999999999834,0.0042603487041181,0.0010646508437165,-0.002131047016685
0.3779999999999859,0.0010646508437165,-1.3038212479669908e-19,-0.0010646508437165
0.3814999999999884,3.913601155782886e-19,0.0031956978604016,-0.0042603487041181
0.3849999999999909,0.0042603487041181,-5.217422403749877e-19,-0.002131047016685
0.3884999999999934,0.0010646508437165,0.0010646508437165,-0.0063913957208032
0.3919999999999959,0.0031956978604016,0.0010646508437165,-0.0074577918937717
0.3954999999999984,3.913601155782886e-19,0.0031956978604016,-0.0042603487041181
0.3990000000000009,3.913601155782886e-19,0.0031956978604016,-0.0074577918937717
0.402499999999975,0.002131047016685,0.0042603487041181,0.0
0.4059999999999775,0.0042603487041181,0.0010646508437165,-0.002131047016685
0.40949999999998,0.002131047016685,0.0010646508437165,-0.0031956978604016
0.4129999999999825,5.217422403749877e-19,0.0042603487041181,-0.0053267448770866
0.416499999999985,0.0031956978604016,0.0010646508437165,-0.0053267448770866
0.4199999999999875,1.3038212479669908e-19,0.0010646508437165,-0.0010646508437165
0.42349999999999,0.0031956978604016,0.002131047016685,-0.002131047016685
0.4269999999999925,0.002131047016685,0.0053267448770866,-0.0042603487041181
0.430499999999995,0.0063913957208032,0.0010646508437165,-0.002131047016685
0.4339999999999975,0.0042603487041181,0.0010646508437165,-0.0063913957208032
0.4375,0.002131047016685,0.002131047016685,-0.0042603487041181
0.4409999999999741,0.0053267448770866,-6.523381063598781e-19,-0.002131047016685
0.4444999999999766,0.0010646508437165,-1.3038212479669908e-19,0.0
0.4479999999999791,0.0031956978604016,0.002131047016685,-0.0031956978604016
0.4514999999999816,0.0042603487041181,0.002131047016685,-0.0042603487041181
0.4549999999999841,0.0010646508437165,0.0042603487041181,-0.0053267448770866
0.4584999999999866,0.0010646508437165,0.002131047016685,-0.0074577918937717
0.4619999999999891,0.0010646508437165,0.0031956978604016,-0.0042603487041181
0.4654999999999916,0.0042603487041181,-5.217422403749877e-19,-0.002131047016685
0.4689999999999941,0.0031956978604016,0.0010646508437165,-0.002131047016685
0.4724999999999966,0.0042603487041181,0.002131047016685,-0.0042603487041181
0.4759999999999991,0.002131047016685,0.002131047016685,-0.002131047016685
0.4794999999999731,0.0031956978604016,0.002131047016685,-0.0031956978604016
0.4829999999999756,0.0010646508437165,0.0031956978604016,-0.0010646508437165
0.4864999999999781,0.0053267448770866,0.0042603487041181,-0.0063913957208032
0.4899999999999807,0.002131047016685,-2.6097799078158957e-19,-0.002131047016685
0.4934999999999832,0.0031956978604016,0.0010646508437165,-0.0031956978604016
0.4969999999999857,0.0031956978604016,-0.0010646508437165,-0.0010646508437165
0.5004999999999882,0.0053267448770866,0.0042603487041181,-0.0010646508437165
0.5039999999999907,0.002131047016685,-2.6097799078158957e-19,-0.002131047016685
0.5074999999999932,5.217422403749877e-19,0.0042603487041181,-0.002131047016685
0.5109999999999957,0.0042603487041181,0.002131047016685,-0.0042603487041181
0.5144999999999982,0.0010646508437165,0.0053267448770866,-0.0042603487041181
0.5180000000000007,0.0031956978604016,-3.913601155782886e-19,-0.0010646508437165
0.5214999999999748,0.0063913957208032,0.002131047016685,-0.0053267448770866
0.5249999999999773,0.0053267448770866,0.0031956978604016,-0.0031956978604016
0.5284999999999798,0.0010646508437165,0.0010646508437165,-0.002131047016685
0.5319999999999823,0.002131047016685,0.0053267448770866,0.0
0.5354999999999848,0.0042603487041181,0.002131047016685,-0.0031956978604016
0.5389999999999873,2.6097799078158957e-19,0.002131047016685,-0.0053267448770866
0.5424999999999898,0.0031956978604016,0.002131047016685,-0.0053267448770866
0.5459999999999923,0.002131047016685,0.0031956978604016,-0.0053267448770866
0.5494999999999948,0.0010646508437165,0.0042603487041181,-0.0042603487041181
0.5529999999999973,0.002131047016685,0.0010646508437165,-0.0042603487041181
0.5564999999999998,0.0031956978604016,0.0031956978604016,-0.0042603487041181
0.5599999999999739,0.0031956978604016,0.0031956978604016,-0.0063913957208032
0.5634999999999764,0.0010646508437165,0.002131047016685,-0.0042603487041181
0.5669999999999789,0.0010646508437165,0.002131047016685,-0.002131047016685
0.5704999999999814,0.0031956978604016,0.0031956978604016,-0.0031956978604016
0.5739999999999839,0.0042603487041181,0.0031956978604016,-0.002131047016685
0.5774999999999864,0.0010646508437165,0.002131047016685,-0.0042603487041181
0.5809999999999889,0.0010646508437165,0.0053267448770866,-0.0053267448770866
0.5844999999999914,0.002131047016685,0.002131047016685,-0.002131047016685
0.5879999999999939,0.0010646508437165,0.0031956978604016,-0.0053267448770866
0.5914999999999964,0.0031956978604016,0.0042603487041181,-0.0042603487041181
0.5949999999999989,1.3038212479669908e-19,0.0010646508437165,-0.0042603487041181
0.5984999999999729,0.002131047016685,0.0010646508437165,-0.0042603487041181
0.6019999999999754,0.0042603487041181,0.0031956978604016,-0.0010646508437165
0.605499999999978,0.002131047016685,0.0031956978604016,0.0
0.6089999999999804,0.0010646508437165,0.0031956978604016,-0.0053267448770866
0.612499999999983,0.0010646508437165,0.0010646508437165,-0.0042603487041181
0.6159999999999854,0.0031956978604016,0.0031956978604016,-0.0053267448770866
0.619499999999988,0.0010646508437165,0.0010646508437165,-0.0031956978604016
0.6229999999999905,0.0031956978604016,0.0010646508437165,-0.002131047016685
0.626499999999993,0.0042603487041181,0.0031956978604016,-0.0031956978604016
0.6299999999999955,0.0042603487041181,0.0031956978604016,-0.0042603487041181
0.633499999999998,0.0031956978604016,0.0010646508437165,-0.0010646508437165
0.6370000000000005,0.0031956978604016,0.0010646508437165,-0.0042603487041181
0.6404999999999745,0.0010646508437165,0.0031956978604016,-0.0042603487041181
0.643999999999977,0.0042603487041181,-5.217422403749877e-19,-0.0031956978604016
0.6474999999999795,0.0010646508437165,0.0042603487041181,-0.0042603487041181
0.650999999999982,0.0010646508437165,0.002131047016685,-0.0063913957208032
0.6544999999999845,0.002131047016685,-2.6097799078158957e-19,-0.0010646508437165
0.657999999999987,0.002131047016685,0.0053267448770866,-0.0053267448770866
0.6614999999999895,0.0042603487041181,0.0010646508437165,0.0
0.664999999999992,0.0053267448770866,0.002131047016685,-0.0053267448770866
0.6684999999999945,0.0063913957208032,-0.0010646508437165,-0.0031956978604016
0.671999999999997,2.6097799078158957e-19,0.002131047016685,-0.0053267448770866
0.6754999999999995,0.0031956978604016,0.0031956978604016,-0.0042603487041181
0.6789999999999736,0.0010646508437165,0.0031956978604016,0.0
0.6824999999999761,0.0010646508437165,0.0042603487041181,-0.0042603487041181
0.6859999999999786,0.0042603487041181,0.002131047016685,-0.0053267448770866
0.6894999999999811,0.0042603487041181,-5.217422403749877e-19,-0.0042603487041181
0.6929999999999836,0.002131047016685,-2.6097799078158957e-19,-0.0031956978604016
0.6964999999999861,0.0031956978604016,0.0010646508437165,-0.0042603487041181
0.6999999999999886,0.0031956978604016,0.002131047016685,-0.0053267448770866
0.7034999999999911,0.002131047016685,-2.6097799078158957e-19,-0.0031956978604016
0.7069999999999936,0.002131047016685,0.002131047016685,-0.0042603487041181
0.7104999999999961,0.0031956978604016,0.0010646508437165,-0.002131047016685
0.7139999999999986,0.0031956978604016,0.0042603487041181,-0.002131047016685
0.7174999999999727,-0.124639197872671,-0.0713752397603081,-0.0351544217936697
0.7209999999999752,-0.1214435000122694,-0.0649838440395048,-0.013849187614575
0.7244999999999777,-0.029827676916583,-0.0010646508437165,0.0245026773687483
0.7279999999999802,0.0213052341790947,-0.0010646508437165,0.0095870935812048
0.7314999999999827,0.055395005129048,0.0223716303520633,-0.0255673282124649
0.7349999999999852,0.0735062867769932,0.0671131457269379,0.0
0.7384999999999877,0.0585907029894496,0.0809623333415129,0.0245026773687483
0.7419999999999902,0.0490036094082447,0.069244192743623,-0.0095870935812048
0.7454999999999927,0.0330233747769847,0.0245026773687483,-0.0287630260728665
0.7489999999999952,0.0394165158270399,-0.0170448854749766,-0.0117181405978899
0.7524999999999977,0.0383501196540713,-0.0521993072686464,0.0117181405978899
0.7560000000000002,0.0255673282124649,-0.0671131457269379,0.0
0.7594999999999743,-0.0031956978604016,-0.0543303542853314,-0.0106534897541733
0.7629999999999768,-0.0404811666707564,-0.0106534897541733,0.0
0.7664999999999793,-0.0713752397603081,0.0372854688103548,0.0010646508437165
0.7699999999999818,-0.0639174478665363,0.0607217500061347,-0.0031956978604016
0.7734999999999843,-0.0255673282124649,0.0521993072686464,-0.0127827914416064
0.7769999999999868,0.0127827914416064,0.029827676916583,-0.0053267448770866
0.7804999999999893,0.0394165158270399,-0.0095870935812048,0.0053267448770866
0.7839999999999918,0.0383501196540713,-0.029827676916583,-0.0031956978604016
0.7874999999999943,0.0351544217936697,-0.0383501196540714,-0.0117181405978899
0.7909999999999968,0.0266319790561814,-0.0308940730895516,-0.0010646508437165
0.7944999999999993,0.0308940730895516,-0.0063913957208032,-0.002131047016685
0.7979999999999734,0.02769837522915,0.0149138384582915,-0.0053267448770866
0.8014999999999759,0.0127827914416064,0.0383501196540714,-0.0010646508437165
0.8049999999999784,-0.0042603487041181,0.0394165158270399,-0.0010646508437165
0.8084999999999809,-0.0330233747769847,0.0287630260728665,0.0
0.8119999999999834,-0.0479389585645282,0.0053267448770867,-0.0042603487041181
0.8154999999999859,-0.0394165158270399,-0.0287630260728665,-0.0053267448770866
0.8189999999999884,-0.0234362811957798,-0.0436768645311581,0.0
0.8224999999999909,-0.0042603487041181,-0.0468725623915597,-0.0010646508437165
0.8259999999999934,-0.0085224427374883,-0.0511346564249298,-0.013849187614575
0.8294999999999959,-0.1480754790684509,-0.1193124529955843,-0.0607217500061347
0.8329999999999984,-0.1427504795206162,-0.0852244273748831,-0.0372854688103548
0.8365000000000009,-0.0671131457269379,-0.0255673282124649,0.0010646508437165
0.839999999999975,-0.0245026773687483,-0.02769837522915,-0.0063913957208032
0.8434999999999775,0.029827676916583,-0.0053267448770866,-0.0319587239332681
0.84699999999998,0.0660484948832214,0.0245026773687483,-0.0085224427374883
0.8504999999999825,0.0671131457269379,0.0287630260728665,-0.002131047016685
0.853999999999985,0.0511346564249298,0.0138491876145749,-0.0085224427374883
0.8574999999999875,0.0564614013020165,-0.0266319790561814,-0.01598023463126
0.86099999999999,0.0756355884644262,-0.0607217500061347,-0.0117181405978899
0.8644999999999925,0.1065296615539778,-0.0809623333415129,-0.0106534897541733
0.867999999999995,0.1161167551351827,-0.0703088435873395,-0.0149138384582915
0.8714999999999975,0.0905494269227178,-0.0394165158270399,-0.0106534897541733
0.875,0.0628527970228197,-0.0245026773687483,-0.0042603487041181
0.8784999999999741,0.013849187614575,-0.0053267448770866,-0.0063913957208032
0.8819999999999766,-0.0223716303520633,0.0031956978604016,-0.0085224427374883
0.8854999999999791,-0.0575260521457331,0.0042603487041181,-0.0127827914416064
0.8889999999999816,-0.0628527970228197,0.0074577918937717,-0.0149138384582915
0.8924999999999841,-0.0575260521457331,0.013849187614575,-0.01598023463126
0.8959999999999866,-0.0383501196540714,0.02769837522915,-0.0170448854749766
0.8994999999999891,-0.0181095363186931,0.0362208179666383,-0.0127827914416064
0.9029999999999916,-0.0053267448770866,0.0372854688103548,-0.0042603487041181
0.906499999999994,-0.0063913957208032,0.0191759324916617,0.0
0.9099999999999966,-0.0287630260728665,3.5224547813927895e-18,-0.002131047016685
0.9134999999999992,-0.0500682602519613,-0.0170448854749766,0.0
0.9169999999999732,-0.0521993072686464,-0.01598023463126,0.0074577918937717
0.9204999999999756,-0.0351544217936697,-0.0095870935812048,0.0074577918937717
0.9239999999999782,-0.01598023463126,0.0042603487041181,0.0074577918937717
0.9274999999999808,0.0106534897541733,0.0234362811957798,0.0031956978604016
0.9309999999999832,0.0234362811957798,0.0330233747769847,0.0
0.9344999999999856,0.0319587239332681,0.0340897709499532,0.0
0.9379999999999882,0.0362208179666383,0.029827676916583,-0.0010646508437165
0.9414999999999908,0.0383501196540714,0.0223716303520633,-0.0010646508437165
0.9449999999999932,0.0458079115478431,0.01598023463126,0.0
0.9484999999999956,0.0479389585645282,0.0181095363186931,0.0010646508437165
0.9519999999999982,0.0447432607041266,0.0234362811957798,0.0053267448770866
0.9555000000000008,0.0223716303520633,0.01598023463126,0.0053267448770866
0.9589999999999748,1.3046762127197565e-18,0.0106534897541733,0.0074577918937717
0.9624999999999772,-0.0202405833353782,-0.0042603487041181,0.0053267448770866
0.9659999999999798,-0.0287630260728665,-0.0170448854749766,0.002131047016685
0.9694999999999824,-0.029827676916583,-0.0362208179666383,0.002131047016685
0.9729999999999848,-0.0223716303520633,-0.0383501196540714,0.002131047016685
0.9764999999999872,-0.0149138384582915,-0.0266319790561814,0.0
0.9799999999999898,-0.0127827914416064,-0.0223716303520633,-0.0010646508437165
0.9834999999999924,-0.0095870935812048,-0.0063913957208032,-0.0031956978604016
0.9869999999999948,-0.0074577918937717,-0.0031956978604016,-0.0042603487041181
0.9904999999999972,0.002131047016685,-0.0074577918937717,-0.0031956978604016
0.9939999999999998,0.0117181405978899,-0.0106534897541733,-0.002131047016685
0.997499999999974,0.0266319790561814,-0.0149138384582915,-0.0074577918937717
1.0009999999999764,0.0287630260728665,-0.0181095363186931,-0.0085224427374883
1.0044999999999789,0.02769837522915,-0.0074577918937717,-0.0053267448770866
1.0079999999999814,0.02769837522915,-0.0010646508437165,-0.0063913957208032
1.011499999999984,0.0255673282124649,0.0106534897541733,-0.0074577918937717
1.0149999999999864,0.0234362811957798,0.0255673282124649,-0.0031956978604016
1.0184999999999889,0.013849187614575,0.0372854688103548,-0.002131047016685
1.0219999999999914,0.0053267448770867,0.0394165158270399,0.0010646508437165
1.025499999999994,-0.0063913957208032,0.0383501196540714,-0.002131047016685
1.0289999999999964,-0.0223716303520633,0.0362208179666383,-0.002131047016685
1.0324999999999989,-0.0234362811957798,0.0372854688103548,0.002131047016685
1.035999999999973,-0.0234362811957798,0.0362208179666383,-0.0042603487041181
1.0394999999999754,-0.0330233747769847,0.0319587239332681,-0.0010646508437165
1.042999999999978,-0.0383501196540713,0.029827676916583,0.0
1.0464999999999804,-0.0330233747769847,0.0287630260728665,0.0
1.049999999999983,-0.02769837522915,0.0287630260728665,-0.0042603487041181
1.0534999999999854,-0.0181095363186931,0.0223716303520633,-0.0063913957208032
1.056999999999988,-0.0085224427374883,0.0213052341790947,-0.0031956978604016
1.0604999999999905,-0.0031956978604016,0.0181095363186931,-0.0053267448770866
1.063999999999993,0.0010646508437165,0.0202405833353782,-0.0042603487041181
1.0674999999999957,0.0074577918937717,0.0170448854749766,-0.0063913957208032
1.070999999999998,0.0117181405978899,0.0127827914416064,-0.0010646508437165
1.0745000000000005,0.0127827914416064,0.0063913957208032,0.0031956978604016
1.0779999999999743,0.0106534897541733,-0.0074577918937717,0.0031956978604016
1.081499999999977,0.013849187614575,-0.0170448854749766,0.0
1.0849999999999795,0.013849187614575,-0.029827676916583,0.0
1.088499999999982,0.02769837522915,-0.0468725623915597,0.0
1.0919999999999843,0.0330233747769847,-0.0660484948832214,-0.0042603487041181
1.095499999999987,0.0255673282124649,-0.0926804739394028,-0.0106534897541733
1.0989999999999895,0.0213052341790947,-0.1043986145372928,-0.0117181405978899
1.102499999999992,0.0181095363186931,-0.1075943123976944,-0.0095870935812048
1.1059999999999943,0.0223716303520633,-0.0980072188164895,-0.013849187614575
1.109499999999997,0.029827676916583,-0.0777666354811113,-0.0117181405978899
1.1129999999999995,0.0330233747769847,-0.055395005129048,-0.0106534897541733
1.1164999999999736,0.0404811666707564,-0.0394165158270399,-0.0063913957208032
1.119999999999976,0.0479389585645282,-0.0319587239332681,-0.0010646508437165
1.1234999999999786,0.0543303542853314,-0.0330233747769847,-0.0042603487041181
1.1269999999999811,0.0511346564249298,-0.0245026773687483,-0.002131047016685
1.1304999999999836,0.0458079115478431,-0.0042603487041181,-0.0074577918937717
1.133999999999986,0.0308940730895516,0.0266319790561814,-0.0031956978604016
1.1374999999999886,0.0127827914416064,0.0490036094082447,0.002131047016685
1.1409999999999911,-0.0031956978604016,0.0628527970228197,0.0
1.1444999999999936,-0.0170448854749766,0.069244192743623,0.002131047016685
1.147999999999996,-0.0245026773687483,0.0617864008498512,0.0053267448770866
1.1514999999999986,-0.0340897709499532,0.0511346564249298,0.0053267448770866
1.1549999999999727,-0.0447432607041266,0.0521993072686464,0.0010646508437165
1.1584999999999752,-0.057526052145733,0.0585907029894496,0.0053267448770866
1.1619999999999775,-0.0564614013020165,0.0575260521457331,0.0053267448770866
1.1654999999999802,-0.043676864531158,0.0447432607041266,0.0031956978604016
1.1689999999999827,-0.0234362811957798,0.0447432607041266,0.0031956978604016
1.1724999999999852,-0.0031956978604016,0.0394165158270399,-0.002131047016685
1.1759999999999875,0.0085224427374883,0.0340897709499532,-0.0106534897541733
1.1794999999999902,0.01598023463126,0.0330233747769847,-0.0095870935812048
1.1829999999999927,0.0287630260728665,0.0319587239332681,-0.0031956978604016
1.1864999999999952,0.0351544217936697,0.0330233747769847,-0.002131047016685
1.1899999999999975,0.0394165158270399,0.0170448854749766,-0.0010646508437165
1.1935000000000002,0.0383501196540714,0.0042603487041181,0.0010646508437165
1.1969999999999743,0.0404811666707564,-0.0170448854749766,-0.002131047016685
1.2004999999999768,0.0330233747769847,-0.0287630260728665,-0.0063913957208032
1.2039999999999793,0.0213052341790947,-0.0426122136874415,-0.0063913957208032
1.2074999999999818,0.0085224427374883,-0.0351544217936697,-0.0063913957208032
1.2109999999999843,-4.9575131189092434e-18,-0.0404811666707564,-0.0042603487041181
1.2144999999999868,-0.002131047016685,-0.0458079115478431,-0.0095870935812048
1.217999999999989,0.0042603487041181,-0.0575260521457331,-0.0085224427374883
1.2214999999999918,0.0074577918937717,-0.069244192743623,-0.0149138384582915
1.2249999999999943,0.0149138384582915,-0.0884201252352847,-0.0202405833353782
1.2284999999999968,0.0191759324916616,-0.0926804739394028,-0.0202405833353782
1.231999999999999,0.0351544217936697,-0.1129210572747811,-0.0223716303520633
1.2354999999999734,0.0532657034416149,-0.1193124529955843,-0.0149138384582915
1.238999999999976,0.0735062867769931,-0.1342280367831279,-0.0181095363186931
1.2424999999999784,0.0937468701123714,-0.1342280367831279,-0.0181095363186931
1.245999999999981,0.1139874534477496,-0.1267702448893561,-0.0095870935812048
1.2494999999999834,0.1203788491685528,-0.1161167551351827,-0.013849187614575
1.252999999999986,0.1342280367831279,-0.0958761717998045,-0.0106534897541733
1.2564999999999884,0.1406194325039311,-0.0713752397603081,0.0
1.259999999999991,0.1480754790684509,-0.0426122136874415,0.0010646508437165
1.2634999999999934,0.1534022239455376,-0.0159802346312601,-0.002131047016685
1.266999999999996,0.136357338470561,0.0138491876145749,-0.0063913957208032
1.2704999999999984,0.1203788491685528,0.0458079115478431,-0.0191759324916617
1.274000000000001,0.0948115209560879,0.0841580312019145,-0.0170448854749766
1.277499999999975,0.0703088435873395,0.1065296615539778,-0.0074577918937717
1.2809999999999775,0.0298276769165831,0.1278348957330726,0.0
1.28449999999998,0.002131047016685,0.136357338470561,0.0031956978604016
1.2879999999999825,-0.0255673282124649,0.1267702448893561,0.0202405833353782
1.291499999999985,-0.0511346564249298,0.1075943123976944,0.0106534897541733
1.2949999999999875,-0.0756355884644262,0.0756355884644262,0.0042603487041181
1.29849999999999,-0.0884201252352847,0.0490036094082448,0.0010646508437165
1.3019999999999925,-0.0948115209560879,0.0117181405978899,-0.0053267448770866
1.305499999999995,-0.1054650107102613,-0.0010646508437165,0.0191759324916617
1.3089999999999975,-0.1161167551351827,-0.0276983752291499,0.0170448854749766
1.3125,-0.152337573101821,-0.0308940730895516,0.0010646508437165
1.315999999999974,-0.2141239739516723,-0.0415458175144729,-0.0031956978604016
1.3194999999999766,-0.2141239739516723,-0.0468725623915596,-0.002131047016685
1.322999999999979,-0.1747092034538843,-0.041545817514473,0.0
1.3264999999999816,-0.1427504795206162,-0.0372854688103548,0.0085224427374883
1.329999999999984,-0.0511346564249298,-0.0319587239332681,-0.0106534897541733
1.3334999999999866,0.013849187614575,-0.0330233747769847,-0.0170448854749766
1.336999999999989,0.0660484948832214,-0.0447432607041266,-0.0127827914416064
1.3404999999999916,0.0905494269227178,-0.0788312863248279,-0.01598023463126
1.343999999999994,0.0841580312019145,-0.1139874534477496,0.0
1.3474999999999966,0.083093380358198,-0.1161167551351827,0.0010646508437165
1.350999999999999,0.0852244273748831,-0.1022693128498597,-0.0149138384582915
1.3544999999999732,0.0926804739394028,-0.069244192743623,-0.01598023463126
1.3579999999999757,0.0980072188164895,-0.0085224427374883,-0.0308940730895516
1.3614999999999782,0.0745709376207097,0.0340897709499532,-0.041545817514473
1.364999999999981,0.0394165158270399,0.0767019846373948,-0.0330233747769847
1.3684999999999832,-0.0255673282124649,0.0937468701123714,-0.0191759324916617
1.3719999999999857,-0.0884201252352847,0.0905494269227178,0.0031956978604016
1.3754999999999882,-0.1150521042914661,0.0809623333415129,0.0234362811957798
1.378999999999991,-0.1342280367831279,0.0660484948832214,0.0
1.3824999999999932,-0.1150521042914661,0.0575260521457331,-0.055395005129048
1.3859999999999957,-0.0916158230956863,0.055395005129048,-0.1289012919060412
1.3894999999999982,-0.0894847760790012,0.0394165158270399,-0.166186760716396
1.393000000000001,-0.0628527970228197,0.0010646508437165,-0.1448797812080492
1.3964999999999748,-0.0521993072686464,-0.0095870935812048,-0.0958761717998045
1.3999999999999773,-0.0436768645311581,-0.01598023463126,-0.041545817514473
1.4034999999999798,-0.0095870935812048,-0.01598023463126,-0.0074577918937717
1.4069999999999825,0.0127827914416064,-0.002131047016685,0.0170448854749766
1.4104999999999848,0.0234362811957798,0.0042603487041181,0.013849187614575
1.4139999999999873,0.0639174478665363,0.0010646508437165,0.029827676916583
1.4174999999999898,0.0724398906040246,-0.002131047016685,0.0511346564249298
1.4209999999999925,0.0820287295144815,-0.0127827914416064,0.041545817514473
1.4244999999999948,0.0980072188164895,-0.0245026773687484,0.0394165158270399
1.4279999999999973,0.0841580312019145,-0.0362208179666383,0.0340897709499532
1.4314999999999998,0.0756355884644262,-0.0543303542853314,0.0255673282124649
1.434999999999974,0.0585907029894496,-0.0628527970228198,0.029827676916583
1.4384999999999764,0.0351544217936697,-0.0521993072686464,0.0308940730895516
1.4419999999999789,0.0106534897541733,-0.0521993072686464,0.0255673282124649
1.4454999999999814,0.0063913957208032,-0.0479389585645282,0.0245026773687483
1.448999999999984,-0.0053267448770867,-0.041545817514473,0.0213052341790947
1.4524999999999864,-0.002131047016685,-0.041545817514473,0.0042603487041181
1.4559999999999889,-0.0191759324916617,-0.0372854688103548,0.0031956978604016
1.4594999999999914,-0.0436768645311581,-0.0202405833353782,0.0010646508437165
1.462999999999994,-0.0436768645311581,0.0063913957208032,-0.0010646508437165
1.4664999999999964,-0.0319587239332681,0.0362208179666383,0.01598023463126
1.4699999999999989,-0.0127827914416064,0.0671131457269379,0.0149138384582915
1.473499999999973,0.0127827914416064,0.0724398906040246,0.0010646508437165
1.4769999999999754,0.0298276769165831,0.0937468701123714,-0.0031956978604016
1.480499999999978,0.0095870935812048,0.0937468701123714,-0.0106534897541733
1.4839999999999804,0.0117181405978899,0.1054650107102613,-0.0127827914416064
1.487499999999983,0.0042603487041181,0.1033339636935762,0.0063913957208032
1.4909999999999854,-0.0010646508437165,0.0884201252352847,0.0095870935812048
1.494499999999988,0.0127827914416064,0.0713752397603081,-0.0010646508437165
1.4979999999999905,0.0074577918937717,0.0532657034416149,-0.0074577918937717
1.501499999999993,-0.0053267448770866,0.0404811666707564,-0.0213052341790947
1.5049999999999957,-0.0117181405978899,0.0245026773687483,-0.0202405833353782
1.508499999999998,-0.0181095363186931,0.0266319790561814,-0.0106534897541733
1.5120000000000005,-0.01598023463126,0.0127827914416064,-0.0074577918937717
1.5154999999999743,1.3038212479669908e-19,0.0010646508437165,-0.0074577918937717
1.518999999999977,0.0042603487041181,-0.0010646508437165,-0.0074577918937717
1.5224999999999795,-0.0042603487041181,-0.0031956978604016,-0.0181095363186931
1.525999999999982,-0.0074577918937717,9.133160971414677e-19,-0.013849187614575
1.5294999999999843,-0.0181095363186931,0.0085224427374883,0.0031956978604016
1.532999999999987,-0.0085224427374883,0.0031956978604016,0.013849187614575
1.5364999999999895,0.0117181405978899,-0.0074577918937717,0.0245026773687483
1.539999999999992,0.0223716303520633,-0.02769837522915,0.0234362811957798
1.5434999999999943,0.0266319790561814,-0.0468725623915597,0.0106534897541733
1.546999999999997,0.0255673282124649,-0.069244192743623,0.0117181405978899
1.5504999999999995,0.0127827914416064,-0.0788312863248278,0.0181095363186931
1.5539999999999736,0.0149138384582915,-0.0980072188164895,0.02769837522915
1.557499999999976,0.0319587239332681,-0.1043986145372928,0.0340897709499532
1.5609999999999786,0.0426122136874415,-0.1193124529955843,0.029827676916583
1.5644999999999811,0.0639174478665363,-0.1278348957330726,0.0042603487041181
1.5679999999999836,0.069244192743623,-0.1193124529955843,-0.0042603487041181
1.571499999999986,0.0479389585645282,-0.0905494269227178,-0.0063913957208032
1.5749999999999886,0.0479389585645282,-0.055395005129048,-0.0053267448770866
1.5784999999999911,0.0500682602519613,-0.0181095363186931,0.0063913957208032
1.5819999999999936,0.0500682602519613,0.0351544217936697,0.0010646508437165
1.585499999999996,0.0564614013020165,0.0617864008498512,-0.0127827914416064
1.5889999999999986,0.0340897709499532,0.0980072188164895,-0.0170448854749766
1.5924999999999727,-0.0085224427374882,0.1182478021518678,-0.0234362811957798
1.5959999999999752,-0.0319587239332681,0.1225098961852379,-0.0266319790561814
1.5994999999999775,-0.043676864531158,0.1225098961852379,-0.0117181405978899
1.6029999999999802,-0.0628527970228197,0.1022693128498597,-0.0106534897541733
1.6064999999999827,-0.043676864531158,0.0767019846373948,-0.0234362811957798
1.6099999999999852,-0.0458079115478431,0.0511346564249298,-0.0234362811957798
1.6134999999999875,-0.0607217500061347,0.0362208179666383,-0.0330233747769847
1.6169999999999902,-0.0564614013020165,0.0245026773687483,-0.02769837522915
1.6204999999999927,-0.0490036094082447,0.0202405833353782,-0.0117181405978899
1.6239999999999952,-0.0330233747769847,0.0149138384582915,-0.0010646508437165
1.6274999999999975,-1.3046762127197565e-18,-0.0106534897541733,-0.0042603487041181
1.6310000000000002,0.0234362811957798,-0.029827676916583,-0.002131047016685
1.6344999999999743,0.0170448854749766,-0.0383501196540714,-0.0149138384582915
1.6379999999999768,0.0340897709499532,-0.0447432607041266,-0.0095870935812048
1.6414999999999793,0.02769837522915,-0.0372854688103548,0.0074577918937717
1.6449999999999818,0.0351544217936697,-0.0319587239332681,0.0191759324916617
1.6484999999999843,0.0628527970228197,-0.0234362811957798,0.0287630260728665
1.6519999999999868,0.0628527970228197,-0.0202405833353782,0.0255673282124649
1.655499999999989,0.0521993072686464,-0.0127827914416064,0.0127827914416064
1.6589999999999918,0.0287630260728665,-0.0095870935812048,0.0085224427374883
1.6624999999999943,0.0031956978604016,-0.002131047016685,0.0170448854749766
1.6659999999999968,-0.013849187614575,-0.01598023463126,0.0106534897541733
1.669499999999999,-0.002131047016685,-0.02769837522915,0.0106534897541733
1.6729999999999734,-0.0074577918937717,-0.0447432607041266,0.0031956978604016
1.676499999999976,-0.0117181405978899,-0.0660484948832214,-0.0127827914416064
1.6799999999999784,-0.0127827914416064,-0.0788312863248278,-0.01598023463126
1.683499999999981,-0.0362208179666383,-0.0756355884644262,-0.0085224427374883
1.6869999999999834,-0.0308940730895516,-0.0788312863248278,-0.002131047016685
1.690499999999986,-0.0063913957208032,-0.0767019846373948,0.0127827914416064
1.6939999999999884,0.0106534897541733,-0.0575260521457331,0.0106534897541733
1.697499999999991,0.0351544217936697,-0.0511346564249298,-0.0095870935812048
1.7009999999999934,0.0458079115478431,-0.0308940730895516,-0.0149138384582915
1.704499999999996,0.0213052341790947,-0.0063913957208032,-0.0234362811957798
1.7079999999999984,0.02769837522915,0.0191759324916616,-0.0191759324916617
1.711500000000001,0.0181095363186931,0.0394165158270399,-0.0010646508437165
1.714999999999975,0.0106534897541733,0.0564614013020165,0.0010646508437165
1.7184999999999775,0.0223716303520633,0.0468725623915597,-0.0127827914416064
1.72199999999998,0.0042603487041181,0.0372854688103548,-0.0149138384582915
1.7254999999999825,-0.0330233747769847,0.029827676916583,-0.0223716303520633
1.728999999999985,-0.0500682602519613,0.0095870935812048,-0.0181095363186931
1.7324999999999875,-0.0564614013020165,0.0074577918937717,0.0010646508437165
1.73599999999999,-0.0617864008498512,-0.0106534897541733,0.0042603487041181
1.7394999999999925,-0.0319587239332681,-0.0319587239332681,0.0010646508437165
1.742999999999995,-0.0245026773687483,-0.0362208179666383,0.0
1.7464999999999975,-0.0255673282124649,-0.0351544217936697,-0.013849187614575
1.75,-0.0106534897541733,-0.0287630260728665,-0.0095870935812048
1.753499999999974,-1.4350583375164553e-18,-0.0117181405978899,0.0127827914416064
1.7569999999999766,0.0255673282124649,0.0063913957208032,0.0127827914416064
1.760499999999979,0.0649838440395048,0.0074577918937717,0.0127827914416064
1.7639999999999816,0.0756355884644262,0.0223716303520633,0.0095870935812048
1.767499999999984,0.0681795418999064,0.0234362811957798,-0.0085224427374883
1.7709999999999866,0.0564614013020165,0.02769837522915,-0.0074577918937717
1.774499999999989,0.0351544217936697,0.0372854688103548,0.0074577918937717
1.7779999999999916,0.0149138384582915,0.0245026773687483,0.0095870935812048
1.781499999999994,0.0223716303520633,0.0095870935812048,0.0106534897541733
1.7849999999999966,0.0106534897541733,-0.0031956978604016,0.0053267448770866
1.788499999999999,-0.0042603487041181,-0.013849187614575,-0.013849187614575
1.7919999999999732,-0.0202405833353782,-0.0234362811957798,-0.0191759324916617
1.7954999999999757,-0.0404811666707564,-0.0170448854749766,-0.0042603487041181
1.7989999999999782,-0.0490036094082447,-0.0149138384582915,-0.0085224427374883
1.802499999999981,-0.0213052341790947,-0.01598023463126,0.0010646508437165
1.8059999999999832,-0.0117181405978899,-0.0053267448770866,-0.0010646508437165
1.8094999999999857,0.0031956978604016,-0.0053267448770866,-0.0234362811957798
1.812999999999988,0.0074577918937717,0.0031956978604016,-0.0245026773687483
1.816499999999991,-0.0042603487041181,0.0213052341790947,-0.0202405833353782
1.8199999999999927,0.0010646508437165,0.02769837522915,-0.0181095363186931
1.823499999999996,0.0181095363186931,0.029827676916583,0.0010646508437165
1.8269999999999984,0.0181095363186931,0.0266319790561814,0.0
1.830500000000001,0.0308940730895516,0.0085224427374883,-0.01598023463126
1.8339999999999748,0.0255673282124649,-0.002131047016685,-0.013849187614575
1.8374999999999773,-0.0031956978604016,-0.0053267448770866,-0.0149138384582915
1.84099999999998,-0.0117181405978899,-0.0085224427374883,-0.0106534897541733
1.8444999999999825,-0.0127827914416064,-0.0085224427374883,0.0085224427374883
1.8479999999999848,-0.0117181405978899,-0.0117181405978899,0.013849187614575
1.8514999999999875,0.0095870935812048,-0.0213052341790947,0.0
1.8549999999999895,0.0117181405978899,-0.0170448854749766,-0.0053267448770866
1.8584999999999925,-0.0042603487041181,-0.0085224427374883,-0.0127827914416064
1.8619999999999948,3.913601155782886e-19,0.0031956978604016,-0.0042603487041181
1.8654999999999973,0.002131047016685,0.01598023463126,0.0117181405978899
1.869,0.0127827914416064,0.0266319790561814,0.01598023463126
1.8724999999999736,0.0394165158270399,0.0234362811957798,0.0053267448770866
1.8759999999999764,0.0447432607041266,0.0213052341790947,0.0053267448770866
1.8794999999999789,0.0287630260728665,0.0213052341790947,-0.0095870935812048
1.8829999999999811,0.0213052341790947,0.013849187614575,-0.0117181405978899
1.886499999999984,0.0053267448770866,0.0191759324916617,0.0042603487041181
1.8899999999999864,-0.0031956978604016,0.0053267448770866,0.0063913957208032
1.8934999999999889,0.0202405833353782,-0.0063913957208032,0.0
1.8969999999999916,0.0095870935812048,-0.013849187614575,-0.002131047016685
1.9004999999999936,-0.002131047016685,-0.0255673282124649,-0.0223716303520633
1.9039999999999964,-0.0106534897541733,-0.0223716303520633,-0.0245026773687483
1.9074999999999989,-0.0351544217936697,-0.0117181405978899,-0.0042603487041181
1.910999999999973,-0.029827676916583,-0.0031956978604016,-0.0063913957208032
1.9144999999999757,-0.0063913957208032,7.827202311565772e-19,-0.0010646508437165
1.917999999999978,2.6097799078158957e-19,0.002131047016685,-0.0010646508437165
1.9214999999999804,1.3038212479669908e-19,0.0010646508437165,-0.0213052341790947
1.924999999999983,1.1740803467348658e-18,0.0095870935812048,-0.0245026773687483
1.9284999999999852,-0.0170448854749766,0.0245026773687483,-0.0095870935812048
1.931999999999988,-0.0170448854749766,0.0255673282124649,-0.0085224427374883
1.9354999999999905,0.002131047016685,0.0223716303520633,0.0042603487041181
1.938999999999993,0.0053267448770866,0.0127827914416064,0.0053267448770866
1.9424999999999957,0.0181095363186931,-0.0010646508437165,-0.0127827914416064
1.945999999999998,0.013849187614575,-0.0095870935812048,-0.0127827914416064
1.9495000000000005,-0.0127827914416064,-0.0063913957208032,-0.0042603487041181
1.9529999999999743,-0.0127827914416064,-0.0074577918937717,0.0
1.956499999999977,-0.0010646508437165,-0.0085224427374883,0.0149138384582915
1.9599999999999795,0.0063913957208032,-0.0085224427374883,0.0170448854749766
1.963499999999982,0.0234362811957798,-0.01598023463126,-0.002131047016685
1.9669999999999843,0.02769837522915,-0.0117181405978899,-0.0053267448770866
1.970499999999987,0.0074577918937717,-9.133160971414677e-19,-0.0042603487041181
1.973999999999989,0.0010646508437165,0.0095870935812048,0.0
1.977499999999992,0.0095870935812048,0.0181095363186931,0.0181095363186931
1.9809999999999943,0.0074577918937717,0.0245026773687483,0.013849187614575
1.984499999999997,0.0308940730895516,0.013849187614575,-0.002131047016685
1.9879999999999995,0.0255673282124649,0.0106534897541733,-0.0063913957208032
1.9914999999999736,-0.0010646508437165,0.0117181405978899,-0.0127827914416064
1.994999999999976,-0.0117181405978899,0.002131047016685,-0.013849187614575
1.9984999999999784,-0.0213052341790947,0.0095870935812048,0.0074577918937717
2.001999999999981,-0.0191759324916617,2.348374434657923e-18,0.0031956978604016
2.005499999999984,0.0042603487041181,-0.0106534897541733,-0.0031956978604016
2.008999999999986,0.0031956978604016,-0.01598023463126,-0.0074577918937717
2.0124999999999886,-0.0127827914416064,-0.01598023463126,-0.0223716303520633
2.015999999999991,-0.013849187614575,-0.0127827914416064,-0.0223716303520633
2.0194999999999936,-0.0202405833353782,2.4787565594546217e-18,-0.0031956978604016
2.022999999999996,-0.0202405833353782,0.0031956978604016,0.0
2.026499999999998,0.0117181405978899,-0.0010646508437165,-0.0031956978604016
2.0299999999999727,0.0181095363186931,0.002131047016685,-0.0063913957208032
2.033499999999975,0.0085224427374883,0.0031956978604016,-0.0234362811957798
2.0369999999999777,0.0031956978604016,0.0053267448770866,-0.0202405833353782
2.04049999999998,-0.0095870935812048,0.0191759324916617,0.0
2.0439999999999827,-0.0117181405978899,0.0340897709499532,0.0010646508437165
2.047499999999985,0.0053267448770867,0.0394165158270399,0.0042603487041181
2.050999999999988,0.0053267448770867,0.0703088435873395,0.0031956978604016
2.0544999999999902,-0.0042603487041181,0.0958761717998045,-0.0149138384582915
2.0579999999999927,-0.0181095363186931,0.1587289688226243,-0.0149138384582915
2.0614999999999952,-0.0500682602519613,0.2066679273871525,0.0031956978604016
2.0649999999999977,-0.0745709376207097,0.2546051406224288,0.0042603487041181
2.0685,-0.071375239760308,0.260998281672484,0.01598023463126
2.0719999999999743,-0.0777666354811113,0.2364956043037356,0.0181095363186931
2.075499999999977,-0.0745709376207097,0.1736428072809158,0.0
2.0789999999999798,-0.0596570991624181,0.0767019846373948,-0.002131047016685
2.082499999999982,-0.0585907029894496,0.0010646508437165,0.0042603487041181
2.0859999999999843,-0.0170448854749766,-0.1012029166768912,0.0
2.089499999999987,0.0287630260728665,-0.1629910628559944,0.0063913957208032
2.0929999999999893,0.0660484948832213,-0.2215817658454441,0.0127827914416064
2.096499999999992,0.1001382658331746,-0.247149094057909,-0.0031956978604016
2.0999999999999943,0.1139874534477496,-0.2375620004767042,-0.0031956978604016
2.103499999999997,0.1033339636935762,-0.2077325782308691,-0.0074577918937717
2.1069999999999998,0.1161167551351827,-0.1672514115601126,-0.0074577918937717
2.1104999999999734,0.1235745470289545,-0.1171831513081513,0.0042603487041181
2.113999999999976,0.1278348957330726,-0.0703088435873395,-0.0010646508437165
2.1174999999999784,0.1470108282247343,-0.0468725623915597,-0.01598023463126
2.120999999999981,0.1225098961852379,-0.0074577918937717,-0.0223716303520633
2.1244999999999834,0.0681795418999064,0.0170448854749766,-0.029827676916583
2.127999999999986,0.0191759324916617,0.0404811666707564,-0.0223716303520633
2.1314999999999884,-0.0234362811957798,0.0639174478665363,0.0
2.134999999999991,-0.0671131457269379,0.0841580312019145,0.002131047016685
2.1384999999999934,-0.0660484948832214,0.1022693128498597,-0.0095870935812048
2.141999999999996,-0.0937468701123714,0.1320969897664428,-0.0170448854749766
2.1454999999999984,-0.1193124529955843,0.1352926876268444,-0.0351544217936697
2.149000000000001,-0.1374237346435295,0.1161167551351827,-0.0330233747769847
2.152499999999975,-0.1470108282247343,0.0862890782185996,-0.0053267448770866
2.155999999999977,-0.1278348957330726,0.0127827914416064,0.0085224427374883
2.15949999999998,-0.0756355884644262,-0.0447432607041266,0.0106534897541733
2.1629999999999825,-0.0234362811957798,-0.1012029166768912,0.0127827914416064
2.166499999999985,0.0127827914416064,-0.1267702448893561,-0.0063913957208032
2.1699999999999875,0.0628527970228197,-0.1235745470289545,-0.0053267448770866
2.17349999999999,0.0724398906040246,-0.0980072188164895,0.0063913957208032
2.1769999999999925,0.1054650107102613,-0.0511346564249298,0.01598023463126
2.180499999999995,0.1438151303643327,-0.0181095363186931,0.0266319790561814
2.183999999999997,0.1587289688226243,0.029827676916583,0.013849187614575
2.1875,0.1544686201185061,0.0511346564249298,-0.0127827914416064
2.190999999999974,0.136357338470561,0.0798976824977964,-0.01598023463126
2.1944999999999766,0.0894847760790013,0.1033339636935762,-0.0095870935812048
2.197999999999979,0.0436768645311581,0.1171831513081512,-0.0106534897541733
2.2014999999999816,0.0202405833353782,0.1278348957330726,0.0
2.204999999999984,-0.0255673282124649,0.1320969897664428,-0.0074577918937717
2.2084999999999866,-0.0532657034416149,0.1150521042914662,-0.0319587239332681
2.211999999999989,-0.096942567972773,0.1054650107102613,-0.0330233747769847
2.215499999999992,-0.150206526085136,0.0990718696602061,-0.02769837522915
2.218999999999994,-0.1651203645434275,0.0820287295144815,-0.0234362811957798
2.2224999999999966,-0.1565979218059392,0.0649838440395048,-0.0085224427374883
2.225999999999999,-0.138488385487246,0.0394165158270399,-0.0074577918937717
2.229499999999973,-0.0926804739394028,0.0031956978604016,-0.0202405833353782
2.232999999999976,-0.055395005129048,-0.0191759324916616,-0.0127827914416064
2.236499999999978,-0.0490036094082447,-0.0308940730895516,-0.013849187614575
2.2399999999999807,-0.002131047016685,-0.0223716303520633,-0.0149138384582915
2.243499999999983,0.0234362811957798,-0.0053267448770866,0.0010646508437165
2.2469999999999857,0.0585907029894496,0.0117181405978899,0.0
2.250499999999988,0.0916158230956863,0.0170448854749766,-0.0085224427374883
2.2539999999999907,0.1001382658331746,0.0213052341790947,-0.0095870935812048
2.257499999999993,0.0681795418999064,0.0213052341790947,-0.0117181405978899
2.260999999999996,0.0500682602519613,0.0031956978604016,-0.0010646508437165
2.264499999999998,0.0319587239332681,-0.0031956978604016,0.0202405833353782
2.2680000000000007,-4.696535128127654e-18,-0.0383501196540714,0.0245026773687483
2.2714999999999748,0.0127827914416064,-0.0703088435873395,0.0245026773687483
2.2749999999999773,-0.0127827914416064,-0.1043986145372928,0.0234362811957798
2.27849999999998,-0.0340897709499532,-0.1267702448893561,0.0106534897541733
2.2819999999999823,-0.041545817514473,-0.1427504795206162,0.0117181405978899
2.2854999999999848,-0.0532657034416149,-0.1289012919060412,0.0266319790561814
2.2889999999999877,-0.0298276769165831,-0.1139874534477496,0.02769837522915
2.2924999999999898,0.0181095363186931,-0.1054650107102613,0.0255673282124649
2.2959999999999923,0.0532657034416149,-0.083093380358198,0.0117181405978899
2.2994999999999948,0.0745709376207097,-0.0713752397603081,-0.0117181405978899
2.3029999999999973,0.0873537290623162,-0.0372854688103548,-0.0149138384582915
2.3065,0.069244192743623,-0.0063913957208032,0.0010646508437165
2.309999999999974,0.0703088435873395,0.0138491876145749,-0.0031956978604016
2.3134999999999764,0.069244192743623,0.0287630260728665,0.0031956978604016
2.316999999999979,0.0607217500061347,0.0468725623915597,-0.0063913957208032
2.3204999999999814,0.0458079115478431,0.069244192743623,-0.0394165158270399
2.323999999999984,0.0063913957208032,0.1171831513081512,-0.041545817514473
2.3274999999999864,-0.0426122136874415,0.1576643179789077,-0.0362208179666383
2.330999999999989,-0.1043986145372928,0.1811005991746876,-0.0340897709499532
2.334499999999992,-0.1257055940456395,0.1874919948954908,-0.0074577918937717
2.337999999999994,-0.1555332709622226,0.1661867607163961,0.0053267448770866
2.3414999999999964,-0.1448797812080492,0.1065296615539779,-0.0085224427374883
2.344999999999999,-0.1278348957330726,0.0095870935812048,-0.0202405833353782
2.348499999999973,-0.1225098961852379,-0.0458079115478431,-0.0255673282124649
2.3519999999999754,-0.0660484948832214,-0.0926804739394028,-0.0234362811957798
2.355499999999978,-0.0223716303520633,-0.110790010258096,0.0
2.3589999999999804,0.0255673282124649,-0.1171831513081512,0.0170448854749766
2.362499999999983,0.0756355884644262,-0.1129210572747811,0.0063913957208032
2.365999999999985,0.1129210572747811,-0.0937468701123714,0.0170448854749766
2.369499999999988,0.1086607085706629,-0.0767019846373948,0.01598023463126
2.3729999999999905,0.1406194325039311,-0.0681795418999065,0.0106534897541733
2.376499999999993,0.1597953649955928,-0.0564614013020165,0.0223716303520633
2.3799999999999955,0.1651203645434275,-0.0649838440395048,0.0191759324916617
2.383499999999998,0.1874919948954908,-0.0767019846373948,0.0
2.3870000000000005,0.1629910628559944,-0.0703088435873395,-0.0042603487041181
2.3904999999999745,0.1182478021518678,-0.0490036094082448,-0.0202405833353782
2.393999999999977,0.0756355884644262,-0.0042603487041181,-0.01598023463126
2.3974999999999795,0.0255673282124649,0.0319587239332681,0.0149138384582915
2.400999999999982,-0.02769837522915,0.0521993072686464,0.0127827914416064
2.4044999999999845,-0.0394165158270399,0.0351544217936697,0.002131047016685
2.407999999999987,-0.0841580312019145,0.0330233747769847,-0.0063913957208032
2.411499999999989,-0.1129210572747811,0.02769837522915,-0.0319587239332681
2.414999999999992,-0.1278348957330726,0.0394165158270399,-0.0447432607041266
2.4184999999999945,-0.138488385487246,0.0575260521457331,-0.0234362811957798
2.421999999999997,-0.1214435000122694,0.0703088435873395,-0.0106534897541733
2.4254999999999995,-0.0809623333415129,0.0735062867769932,-0.0063913957208032
2.4289999999999736,-0.0458079115478431,0.0617864008498512,0.0010646508437165
2.432499999999976,-0.02769837522915,0.0351544217936697,-0.0170448854749766
2.435999999999978,-3.913601155782886e-19,-0.0031956978604016,-0.0170448854749766
2.439499999999981,0.0031956978604016,-0.0213052341790947,-0.002131047016685
2.442999999999984,0.0245026773687483,-0.0585907029894496,-0.0063913957208032
2.446499999999986,0.0617864008498512,-0.0788312863248279,0.0010646508437165
2.4499999999999886,0.069244192743623,-0.1022693128498597,0.0063913957208032
2.453499999999991,0.0745709376207097,-0.1118564064310646,-0.0095870935812048
2.4569999999999936,0.0724398906040246,-0.1065296615539779,-0.002131047016685
2.460499999999996,0.0458079115478431,-0.0916158230956863,0.0149138384582915
2.463999999999998,0.041545817514473,-0.0724398906040246,0.0223716303520633
2.4674999999999727,0.0521993072686464,-0.055395005129048,0.0308940730895516
2.470999999999975,0.0447432607041266,-0.0266319790561814,0.0266319790561814
2.4744999999999777,0.0521993072686464,-0.01598023463126,0.0010646508437165
2.47799999999998,0.0308940730895516,0.0095870935812048,-0.0031956978604016
2.4814999999999827,-0.0074577918937717,0.0394165158270399,-0.0031956978604016
2.484999999999985,-0.0223716303520633,0.0617864008498512,-0.002131047016685
2.488499999999988,-0.0245026773687483,0.0713752397603081,0.013849187614575
2.4919999999999902,-0.0223716303520633,0.0607217500061347,0.0074577918937717
2.4954999999999927,-0.0074577918937717,0.0436768645311581,-0.0127827914416064
2.4989999999999952,-0.013849187614575,0.0223716303520633,-0.0191759324916617
2.5024999999999977,-0.0351544217936697,0.0170448854749766,-0.0149138384582915
2.506,-0.0351544217936697,-0.0085224427374883,-0.013849187614575
2.5094999999999743,-0.0319587239332681,-0.0191759324916616,0.0053267448770866
2.512999999999977,-0.0234362811957798,-0.0308940730895516,0.0
2.5164999999999798,0.002131047016685,-0.0490036094082447,-0.0127827914416064
2.519999999999982,0.0127827914416064,-0.0511346564249298,-0.0181095363186931
2.5234999999999843,-0.0053267448770866,-0.0351544217936697,-0.0245026773687483
2.526999999999987,0.0042603487041181,-0.013849187614575,-0.0234362811957798
2.5304999999999893,0.0085224427374883,0.0170448854749766,-0.0010646508437165
2.533999999999992,0.0170448854749766,0.0511346564249298,0.0
2.5374999999999943,0.0490036094082447,0.0607217500061347,-0.013849187614575
2.540999999999997,0.0426122136874415,0.0788312863248278,-0.0106534897541733
2.5444999999999998,0.0127827914416064,0.0862890782185996,-0.0191759324916617
2.5479999999999734,-0.0042603487041181,0.0809623333415129,-0.0127827914416064
2.551499999999976,-0.0255673282124649,0.0894847760790012,0.0127827914416064
2.5549999999999784,-0.0383501196540713,0.0777666354811113,0.013849187614575
2.558499999999981,-0.0138491876145749,0.0585907029894496,0.0085224427374883
2.5619999999999834,-0.0117181405978899,0.0458079115478431,0.002131047016685
2.565499999999986,-0.0181095363186931,0.0308940730895516,-0.0170448854749766
2.5689999999999884,-0.0149138384582915,0.0255673282124649,-0.0181095363186931
2.572499999999991,-0.02769837522915,0.0383501196540714,0.0063913957208032
2.5759999999999934,-0.0117181405978899,0.0458079115478431,0.0117181405978899
2.579499999999996,0.0245026773687483,0.0479389585645282,0.01598023463126
2.5829999999999984,0.0468725623915597,0.0639174478665363,0.0117181405978899
2.586500000000001,0.0532657034416149,0.0681795418999064,-0.0031956978604016
2.589999999999975,0.0617864008498512,0.0852244273748831,-0.0074577918937717
2.593499999999977,0.0479389585645282,0.0980072188164895,0.0053267448770866
2.59699999999998,0.0426122136874415,0.0873537290623162,0.0085224427374883
2.6004999999999825,0.0543303542853314,0.0628527970228197,0.0127827914416064
2.603999999999985,0.0447432607041266,0.0383501196540713,0.0074577918937717
2.6074999999999875,0.0394165158270399,0.0085224427374883,-0.01598023463126
2.61099999999999,0.01598023463126,-0.0074577918937717,-0.01598023463126
2.6144999999999925,-0.0202405833353782,-0.01598023463126,-0.0010646508437165
2.617999999999995,-0.0340897709499532,-0.029827676916583,0.0042603487041181
2.621499999999997,-0.0308940730895516,-0.0383501196540713,0.0181095363186931
2.625,-0.0330233747769847,-0.0511346564249298,0.0223716303520633
2.628499999999974,-0.0106534897541733,-0.0681795418999064,0.0
2.6319999999999766,-0.0095870935812048,-0.0703088435873395,-0.0010646508437165
2.635499999999979,-0.0298276769165831,-0.0660484948832214,0.0042603487041181
2.6389999999999816,-0.0234362811957798,-0.0543303542853314,0.0042603487041181
2.642499999999984,-0.0042603487041181,-0.0319587239332681,0.0266319790561814
2.6459999999999866,0.0245026773687483,-3.000712541017801e-18,0.0191759324916617
2.649499999999989,0.0649838440395048,0.0085224427374883,-0.0042603487041181
2.652999999999992,0.0820287295144815,0.055395005129048,-0.0181095363186931
2.656499999999994,0.0596570991624181,0.0894847760790012,-0.0202405833353782
2.6599999999999966,0.0479389585645282,0.1299659427497577,-0.0181095363186931
2.663499999999999,0.0404811666707565,0.152337573101821,0.0053267448770866
2.666999999999973,0.0351544217936698,0.1608600158393093,0.0095870935812048
2.670499999999976,0.0628527970228198,0.1395530363309626,0.002131047016685
2.673999999999978,0.0596570991624181,0.110790010258096,-0.0010646508437165
2.6774999999999807,0.0330233747769847,0.0873537290623162,-0.0181095363186931
2.680999999999983,0.0202405833353782,0.0521993072686464,-0.01598023463126
2.6844999999999857,-0.0031956978604016,0.0362208179666383,0.0074577918937717
2.687999999999988,-0.0191759324916617,0.0074577918937717,0.013849187614575
2.6914999999999907,-3.000712541017801e-18,-0.0245026773687483,0.0063913957208032
2.694999999999993,-0.002131047016685,-0.0521993072686464,0.0053267448770866
2.698499999999996,-0.0191759324916617,-0.0703088435873395,-0.0127827914416064
2.701999999999998,-0.0191759324916617,-0.0756355884644262,-0.01598023463126
2.7055000000000007,-0.0298276769165831,-0.0671131457269379,0.0
2.7089999999999748,-0.0245026773687483,-0.0490036094082447,0.0042603487041181
2.7124999999999773,0.0031956978604016,-0.041545817514473,0.0074577918937717
2.71599999999998,0.002131047016685,-0.0191759324916617,0.0
2.7194999999999823,0.0031956978604016,-0.0106534897541733,-0.0181095363186931
2.7229999999999848,0.0010646508437165,-1.3038212479669908e-19,-0.0213052341790947
2.7264999999999877,-0.0245026773687483,0.0074577918937717,-0.0095870935812048
2.7299999999999898,-0.02769837522915,0.0010646508437165,-0.0053267448770866
2.7334999999999923,-0.013849187614575,-0.0149138384582915,0.0085224427374883
2.7369999999999948,-0.0085224427374883,-0.0362208179666383,0.0106534897541733
2.7404999999999973,-0.0031956978604016,-0.055395005129048,-0.0106534897541733
2.744,-0.0053267448770867,-0.0724398906040246,-0.0042603487041181
2.747499999999974,-0.0287630260728665,-0.0671131457269379,0.0010646508437165
2.7509999999999764,-0.0234362811957798,-0.0735062867769931,0.0
2.754499999999979,-0.0095870935812048,-0.0671131457269379,0.01598023463126
2.7579999999999814,0.0010646508437165,-0.0596570991624181,0.0149138384582915
2.761499999999984,0.01598023463126,-0.0596570991624181,-0.0031956978604016
2.7649999999999864,0.0127827914416064,-0.0426122136874415,-0.0074577918937717
2.768499999999989,-0.0127827914416064,-0.0213052341790947,-0.0042603487041181
2.771999999999992,-0.0063913957208032,-0.0127827914416064,-0.0127827914416064
2.775499999999994,-0.0042603487041181,-0.01598023463126,0.0063913957208032
2.7789999999999964,-0.0095870935812048,-0.0351544217936697,0.0042603487041181
2.782499999999999,0.0053267448770866,-0.069244192743623,-0.0127827914416064
2.785999999999973,-0.0106534897541734,-0.0905494269227178,-0.0149138384582915
2.7894999999999754,-0.0468725623915597,-0.096942567972773,-0.0170448854749766
2.792999999999978,-0.0521993072686464,-0.0990718696602061,-0.01598023463126
2.7964999999999804,-0.0532657034416149,-0.0852244273748831,0.0042603487041181
2.799999999999983,-0.0426122136874415,-0.0713752397603081,0.002131047016685
2.803499999999985,-0.0095870935812048,-0.0660484948832214,-0.013849187614575
2.806999999999988,0.0074577918937717,-0.0372854688103548,-0.0223716303520633
2.8104999999999905,-0.0106534897541733,-0.0170448854749766,-0.0330233747769847
2.813999999999993,-0.0053267448770866,0.0117181405978899,-0.029827676916583
2.8174999999999955,-0.0074577918937717,0.0372854688103548,-0.0042603487041181
2.820999999999998,-0.0063913957208032,0.041545817514473,-0.002131047016685
2.8245000000000005,0.0287630260728665,0.0372854688103548,-0.0063913957208032
2.8279999999999745,0.0319587239332681,0.0351544217936697,-0.0074577918937717
2.831499999999977,0.0106534897541733,0.0287630260728665,-0.0234362811957798
2.8349999999999795,4.0441970217677765e-18,0.0330233747769847,-0.0202405833353782
2.838499999999982,-0.0213052341790947,0.0458079115478431,0.0
2.8419999999999845,-0.013849187614575,0.0170448854749766,0.0
2.845499999999987,0.0266319790561814,-0.0063913957208032,-0.0106534897541733
2.848999999999989,0.0266319790561814,0.0127827914416064,-0.0170448854749766
2.852499999999992,0.0234362811957798,0.0447432607041266,-0.0308940730895516
2.8559999999999945,0.0181095363186931,0.1065296615539778,-0.0095870935812048
2.859499999999997,-0.0010646508437165,0.1725781564371993,0.0255673282124649
2.8629999999999995,0.0245026773687484,0.2343645572870505,0.0362208179666383
2.8664999999999736,0.0639174478665363,0.2631275833599171,0.0266319790561814
2.869999999999976,0.069244192743623,0.2759121201307756,0.0031956978604016
2.873499999999978,0.0585907029894496,0.2524758389349957,-0.0213052341790947
2.876999999999981,0.013849187614575,0.1938833906162941,-0.0234362811957798
2.880499999999984,-0.0426122136874415,0.1565979218059392,0.0117181405978899
2.883999999999986,-0.0703088435873395,0.0884201252352847,0.0234362811957798
2.8874999999999886,-0.0543303542853314,0.0500682602519613,0.0340897709499532
2.890999999999991,-0.0394165158270399,4.8271309941125444e-18,0.0245026773687483
2.8944999999999936,-0.0213052341790947,-0.0436768645311581,-0.0042603487041181
2.897999999999996,-0.0149138384582915,-0.0841580312019145,-0.0106534897541733
2.901499999999998,-0.0383501196540714,-0.0884201252352847,0.002131047016685
2.9049999999999727,-0.0362208179666383,-0.1086607085706629,0.0010646508437165
2.908499999999975,-0.0010646508437165,-0.1193124529955843,0.0
2.9119999999999777,0.0191759324916616,-0.1022693128498597,-0.0117181405978899
2.91549999999998,0.0351544217936697,-0.0948115209560879,-0.0490036094082447
2.9189999999999827,0.0447432607041266,-0.069244192743623,-0.0479389585645282
2.922499999999985,0.0149138384582915,-0.0362208179666383,-0.02769837522915
2.925999999999988,0.0010646508437165,-0.0010646508437165,-0.0191759324916617
2.9294999999999902,0.0202405833353782,0.01598023463126,-0.0234362811957798
2.9329999999999927,0.0031956978604016,0.0458079115478431,-0.0223716303520633
2.9364999999999952,-0.0106534897541733,0.0575260521457331,-0.055395005129048
2.9399999999999977,-0.0383501196540713,0.0798976824977964,-0.0628527970228197
2.9435,-0.0884201252352847,0.0926804739394029,-0.0340897709499532
2.9469999999999743,-0.0937468701123714,0.0798976824977964,-0.0245026773687483
2.950499999999977,-0.0745709376207097,0.0521993072686464,-0.0202405833353782
2.9539999999999798,-0.0532657034416149,0.0170448854749766,-0.0127827914416064
2.957499999999982,-0.0479389585645282,-0.0074577918937717,-0.0287630260728665
2.9609999999999843,-0.0202405833353782,-0.02769837522915,-0.01598023463126
2.964499999999987,-0.0223716303520633,-0.0362208179666383,0.0202405833353782
2.9679999999999893,0.01598023463126,-0.0532657034416149,0.0383501196540714
2.971499999999992,0.0745709376207097,-0.0756355884644262,0.0436768645311581
2.9749999999999943,0.1065296615539778,-0.1043986145372928,0.0521993072686464
2.978499999999997,0.1182478021518678,-0.1235745470289545,0.0436768645311581
2.9819999999999998,0.1416840833476476,-0.1171831513081513,0.0639174478665363
2.9854999999999734,0.1342280367831279,-0.083093380358198,0.1065296615539778
2.988999999999976,0.1640557136997109,-0.0330233747769847,0.1278348957330726
2.9924999999999784,0.2119946722642392,0.002131047016685,0.1235745470289545
2.995999999999981,0.2354309534600191,0.0735062867769931,0.110790010258096
2.9994999999999834,0.2364956043037356,0.1225098961852379,0.0724398906040246
3.002999999999986,0.2290395577392159,0.1608600158393093,0.0351544217936697
3.0064999999999884,0.1928187397725775,0.1842962970350892,0.0404811666707564
3.009999999999991,0.1544686201185061,0.1821652500184041,0.0074577918937717
3.0134999999999934,0.1427504795206162,0.1704471094205142,-0.0255673282124649
3.016999999999996,0.0990718696602061,0.1704471094205142,-0.0383501196540714
3.0204999999999984,0.0383501196540714,0.1757738542976009,-0.0426122136874415
3.024000000000001,-0.0085224427374882,0.1789695521580025,-0.0308940730895516
3.027499999999975,-0.0362208179666383,0.1874919948954908,0.0117181405978899
3.030999999999977,-0.057526052145733,0.1640557136997109,0.0255673282124649
3.03449999999998,-0.0330233747769846,0.1310323389227262,0.0042603487041181
3.0379999999999825,-0.0330233747769846,0.1171831513081512,-0.0223716303520633
3.041499999999985,-0.043676864531158,0.1214435000122694,-0.0404811666707564
3.0449999999999875,-0.043676864531158,0.1150521042914662,-0.0585907029894496
3.04849999999999,-0.0362208179666383,0.1214435000122694,-0.0394165158270399
3.0519999999999925,-0.0468725623915597,0.1278348957330726,-0.0468725623915597
3.055499999999995,-0.0383501196540713,0.1203788491685528,-0.0777666354811113
3.058999999999997,-0.055395005129048,0.1289012919060412,-0.0820287295144815
3.0625,-0.0905494269227178,0.1406194325039311,-0.0639174478665363
3.065999999999974,-0.0990718696602061,0.1374237346435295,-0.0404811666707564
3.0694999999999766,-0.0862890782185996,0.122509896185238,-0.0053267448770866
3.072999999999979,-0.0564614013020165,0.096942567972773,0.0
3.0764999999999816,-0.0223716303520633,0.0639174478665363,-0.029827676916583
3.079999999999984,-0.0181095363186931,0.0607217500061347,-0.029827676916583
3.0834999999999866,-0.0458079115478431,0.0788312863248278,-0.0117181405978899
3.086999999999989,-0.0351544217936697,0.1022693128498597,0.0074577918937717
3.090499999999992,0.0031956978604016,0.1203788491685528,0.02769837522915
3.093999999999994,0.0607217500061347,0.1257055940456395,0.029827676916583
3.0974999999999966,0.1182478021518678,0.1075943123976944,0.0010646508437165
3.100999999999999,0.1651203645434275,0.096942567972773,-0.0031956978604016
3.104499999999973,0.1534022239455376,0.1001382658331746,0.013849187614575
3.107999999999976,0.1597953649955928,0.1043986145372928,0.0362208179666383
3.111499999999978,0.1565979218059392,0.096942567972773,0.0223716303520633
3.1149999999999807,0.1278348957330726,0.0980072188164895,0.0127827914416064
3.118499999999983,0.1193124529955843,0.083093380358198,-0.0149138384582915
3.1219999999999857,0.0873537290623162,0.0894847760790012,-0.0117181405978899
3.125499999999988,0.0319587239332681,0.1086607085706629,0.0181095363186931
3.1289999999999907,-0.0031956978604016,0.1150521042914662,0.0351544217936697
3.132499999999993,-0.0063913957208032,0.1097253594143795,0.0468725623915597
3.135999999999996,-0.0234362811957798,0.0916158230956863,0.0372854688103548
3.139499999999998,-0.0213052341790947,0.0767019846373948,0.0
3.1430000000000007,-0.069244192743623,0.0948115209560879,0.0106534897541733
3.1464999999999748,-0.0820287295144815,0.0948115209560879,0.0095870935812048
3.1499999999999773,-0.1001382658331746,0.1150521042914662,0.0181095363186931
3.15349999999998,-0.0916158230956863,0.1193124529955843,0.0234362811957798
3.1569999999999823,-0.0905494269227178,0.136357338470561,0.0266319790561814
3.1604999999999848,-0.0585907029894496,0.1406194325039311,0.0
3.1639999999999877,-0.0660484948832214,0.1683160624038291,0.0170448854749766
3.1674999999999898,-0.0138491876145749,0.1811005991746876,0.0181095363186931
3.1709999999999923,0.0511346564249298,0.1874919948954908,0.0127827914416064
3.1744999999999948,0.1139874534477496,0.1874919948954908,0.0031956978604016
3.1779999999999973,0.1661867607163961,0.1981454846496642,-0.013849187614575
3.1815,0.1949497867892626,0.1970790884766956,-0.0458079115478431
3.184999999999974,0.1938833906162941,0.2173214171413258,-0.0287630260728665
3.1884999999999764,0.2002765316663493,0.2013411825100658,-0.0266319790561814
3.191999999999979,0.2034722295267509,0.1672514115601125,-0.0266319790561814
3.1954999999999814,0.2226464166891606,0.1161167551351827,-0.0255673282124649
3.198999999999984,0.2237128128621291,0.0660484948832213,-0.0340897709499532
3.2024999999999864,0.2258421145495622,0.0276983752291499,-0.0607217500061347
3.205999999999989,0.1992101354933808,0.0266319790561814,-0.0383501196540714
3.209499999999992,0.2045368803704674,0.0053267448770866,-0.029827676916583
3.212999999999994,0.2258421145495622,-0.0266319790561815,-0.0202405833353782
3.2164999999999964,0.2450180470412239,-0.0649838440395049,-0.013849187614575
3.219999999999999,0.2652586303766022,-0.0990718696602061,-0.0362208179666383
3.223499999999973,0.288694911572382,-0.122509896185238,-0.0340897709499532
3.2269999999999754,0.2982837504828389,-0.1043986145372928,-0.0074577918937717
3.230499999999978,0.3472873598910836,-0.1075943123976944,0.0074577918937717
3.2339999999999804,0.4282496932325966,-0.122509896185238,0.013849187614575
3.237499999999983,0.4868403962220463,-0.1470108282247344,0.0053267448770866
3.240999999999985,0.519865516328283,-0.1864273440517743,-0.0255673282124649
3.244499999999988,0.5401060996636612,-0.2290395577392159,-0.0436768645311581
3.2479999999999905,0.5390397034906926,-0.2364956043037357,-0.0330233747769847
3.251499999999993,0.5539552872782363,-0.2631275833599171,-0.0351544217936697
3.2549999999999955,0.5859140112115044,-0.286565609884949,-0.0319587239332681
3.258499999999998,0.6061545945468827,-0.2886949115723821,-0.0404811666707564
3.2620000000000005,0.6114795940947174,-0.2780431671474607,-0.0639174478665363
3.2654999999999745,0.6125459902676859,-0.2471490940579091,-0.0628527970228197
3.268999999999977,0.5912390107593392,-0.2087989744038377,-0.0383501196540714
3.2724999999999795,0.5816519171781342,-0.203472229526751,-0.02769837522915
3.275999999999982,0.5923054069323076,-0.2215817658454442,-0.0223716303520633
3.2794999999999845,0.5699337765802444,-0.2237128128621292,-0.0266319790561814
3.282999999999987,0.5709984274239609,-0.217321417141326,-0.0543303542853314
3.286499999999989,0.5443664483677794,-0.1992101354933808,-0.0564614013020165
3.289999999999992,0.4985585368199362,-0.1651203645434275,-0.0234362811957798
3.2934999999999945,0.4953628389595346,-0.1395530363309626,-0.0149138384582915
3.296999999999997,0.5262569120490862,-0.1374237346435295,-0.0095870935812048
3.3004999999999995,0.5390397034906926,-0.1395530363309626,-0.0170448854749766
3.3039999999999736,0.5390397034906926,-0.1565979218059393,-0.0490036094082447
3.307499999999976,0.5464974953844645,-0.1747092034538844,-0.055395005129048
3.310999999999978,0.5422354013510943,-0.164055713699711,-0.0458079115478431
3.314499999999981,0.5709984274239609,-0.1800359483309711,-0.0521993072686464
3.317999999999984,0.6136106411114024,-0.1992101354933808,-0.0436768645311581
3.321499999999986,0.628524479569694,-0.2258421145495623,-0.0458079115478431
3.3249999999999886,0.6338512244467807,-0.2535404897787123,-0.0703088435873395
3.328499999999991,0.6125459902676859,-0.2578025838120825,-0.0703088435873395
3.3319999999999936,0.5805872663344177,-0.2364956043037357,-0.0532657034416149
3.335499999999996,0.5528888911052677,-0.231168859426649,-0.0436768645311581
3.338999999999998,0.5433017975240628,-0.2301042085829324,-0.0351544217936697
3.3424999999999727,0.5156034222949128,-0.219450718828759,-0.0458079115478431
3.345999999999975,0.4495549274116914,-0.2226464166891607,-0.0703088435873395
3.3494999999999777,0.341960615013997,-0.2151903701246409,-0.0649838440395048
3.35299999999998,0.2183860679850424,-0.1874919948954908,-0.0394165158270399
3.3564999999999827,0.0639174478665363,-0.1544686201185061,-0.0340897709499532
3.359999999999985,-0.0298276769165831,-0.1257055940456395,-0.0266319790561814
3.363499999999988,-0.152337573101821,-0.0713752397603081,-0.0458079115478431
3.3669999999999902,-0.2556715367953973,-0.043676864531158,-0.0841580312019145
3.3704999999999927,-0.3632658491930918,0.0085224427374883,-0.1001382658331746
3.3739999999999952,-0.4367721359700849,0.0660484948832214,-0.0916158230956863
3.3774999999999977,-0.4932317919428495,0.1054650107102614,-0.0745709376207097
3.381,-0.4634041150262664,0.1310323389227263,-0.0543303542853314
3.3844999999999743,-0.4218582975117934,0.1523375731018211,-0.0479389585645282
3.387999999999977,-0.3898978282492732,0.1470108282247344,-0.0639174478665363
3.3914999999999798,-0.300413052170272,0.1661867607163961,-0.0703088435873395
3.394999999999982,-0.2556715367953973,0.1928187397725775,-0.0735062867769931
3.3984999999999843,-0.1597953649955928,0.2077325782308691,-0.0926804739394028
3.401999999999987,-0.0916158230956863,0.1832316461913727,-0.0798976824977964
3.4054999999999893,1.3698459009992866e-17,0.1118564064310645,-0.0681795418999064
3.408999999999992,0.0649838440395048,0.0500682602519613,-0.0660484948832214
3.4124999999999943,0.1512729222581045,-0.0042603487041181,-0.0649838440395048
3.415999999999997,0.2087989744038376,-0.0372854688103548,-0.0735062867769931
3.4194999999999998,0.3281114273994219,-0.096942567972773,-0.1054650107102613
3.4229999999999734,0.4325100419367148,-0.1257055940456396,-0.1054650107102613
3.426499999999976,0.5486285424011496,-0.1629910628559945,-0.1161167551351827
3.4299999999999784,0.6093502924072843,-0.2162550209683574,-0.1171831513081512
3.433499999999981,0.6082838962343158,-0.2908259585890672,-0.0713752397603081
3.4369999999999834,0.517734469311598,-0.3195889846619337,-0.0404811666707564
3.440499999999986,0.4591437663221482,-0.3376985209806269,-0.0223716303520633
3.4439999999999884,0.4506213235846599,-0.3451563128743987,-0.0149138384582915
3.447499999999991,0.413335854774305,-0.3824417816847535,-0.029827676916583
3.4509999999999934,0.39948666715973,-0.4261186462159116,-0.0490036094082447
3.454499999999996,0.3590055004889735,-0.4932317919428496,-0.0617864008498512
3.4579999999999984,0.2844345628682638,-0.5401060996636612,-0.0724398906040246
3.461500000000001,0.2705853752536888,-0.5763251723010476,-0.0713752397603081
3.464999999999975,0.2695207244099722,-0.5486285424011496,-0.0330233747769847
3.468499999999977,0.1555332709622226,-0.5401060996636612,0.0127827914416064
3.47199999999998,0.166186760716396,-0.5486285424011496,0.0266319790561814
3.4754999999999825,0.0223716303520632,-0.5582156359823544,0.0426122136874415
3.478999999999985,-0.0649838440395049,-0.5720648235969293,0.0330233747769847
3.4824999999999875,-0.0777666354811114,-0.5859140112115044,0.0149138384582915
3.48599999999999,-0.0894847760790013,-0.5773915684740161,0.0149138384582915
3.4894999999999925,-0.041545817514473,-0.5795208701614492,-0.0202405833353782
3.492999999999995,0.0213052341790947,-0.5912390107593392,-0.0490036094082447
3.496499999999997,0.0426122136874414,-0.5720648235969293,-0.0713752397603081
3.5,0.0649838440395048,-0.5550199381219528,-0.0980072188164895
3.503499999999974,0.1214435000122693,-0.5326483077698895,-0.1182478021518678
3.5069999999999766,0.1587289688226242,-0.5209301671719996,-0.1043986145372928
3.510499999999979,0.2546051406224287,-0.4964292351325032,-0.1512729222581045
3.5139999999999816,0.3653968962097768,-0.492167141099133,-0.1821652500184041
3.517499999999984,0.4570127193054631,-0.4623394641825499,-0.219450718828759
3.5209999999999866,0.5006895838366213,-0.4420988808471717,-0.247149094057909
3.524499999999989,0.586978662055221,-0.4207919013388249,-0.2567361876391139
3.527999999999992,0.6413090163405525,-0.3845728287014386,-0.2428870000245388
3.531499999999994,0.7180110009779472,-0.3707236410868637,-0.2460844432141925
3.5349999999999966,0.7723396099340267,-0.3717882919305802,-0.2386266513204207
3.538499999999999,0.780862052671515,-0.3526141047681704,-0.233299906443334
3.541999999999973,0.7478386778945303,-0.3462209637181153,-0.2396913021641372
3.545499999999976,0.6892479749050807,-0.3142622397848471,-0.2173214171413259
3.548999999999978,0.6178727351447726,-0.2716500260974054,-0.1853609478788057
3.5524999999999807,0.4964292351325031,-0.2332999064433341,-0.1448797812080492
3.555999999999983,0.4144005056180216,-0.2130593231079558,-0.1097253594143795
3.5594999999999857,0.2737810731140905,-0.1874919948954908,-0.0649838440395048
3.562999999999988,0.1555332709622226,-0.1789695521580026,-0.0447432607041266
3.5664999999999907,0.0213052341790947,-0.1587289688226243,0.0095870935812048
3.569999999999993,-0.0596570991624181,-0.1193124529955843,0.0617864008498512
3.573499999999996,-0.1278348957330726,-0.0948115209560879,0.110790010258096
3.576999999999998,-0.124639197872671,-0.0873537290623161,0.1512729222581045
3.5805000000000007,-0.1257055940456395,-0.0905494269227178,0.1715135055934827
3.5839999999999748,-0.1342280367831279,-0.1118564064310645,0.1565979218059392
3.5874999999999773,-0.124639197872671,-0.1459461773810178,0.1597953649955928
3.59099999999998,-0.1235745470289545,-0.1715135055934827,0.1619246666830259
3.5944999999999823,-0.1118564064310646,-0.2375620004767041,0.1544686201185061
3.5979999999999848,-0.0820287295144815,-0.2950880526224372,0.1565979218059392
3.6014999999999877,-0.0681795418999065,-0.3579391043160051,0.1320969897664428
3.6049999999999898,-0.0841580312019146,-0.4058780628805333,0.0862890782185996
3.608499999999992,-0.0884201252352847,-0.452750625272093,0.0340897709499532
3.6119999999999943,-0.1203788491685529,-0.4751222556241564,-0.0095870935812048
3.615499999999997,-0.1619246666830259,-0.5092120265741096,-0.0628527970228197
3.619,-0.1725781564371993,-0.5230612141886847,-0.0852244273748831
3.622499999999974,-0.2301042085829324,-0.5454328445407479,-0.1438151303643327
3.625999999999976,-0.2823035158515788,-0.5741958706136145,-0.1992101354933808
3.629499999999979,-0.3568744534722886,-0.5901743599156226,-0.2663250265495707
3.632999999999981,-0.4357057397971164,-0.586978662055221,-0.3100018910807288
3.636499999999984,-0.4996249329929048,-0.5784562193177325,-0.3462209637181151
3.6399999999999855,-0.5187991201553146,-0.5624759846864724,-0.3440916620306821
3.643499999999989,-0.545432844540748,-0.5401060996636611,-0.3622011983493752
3.646999999999992,-0.5379750526469762,-0.5241258650324011,-0.3760503859639502
3.650499999999994,-0.5390397034906927,-0.4751222556241563,-0.3824417816847534
3.653999999999997,-0.5773915684740161,-0.4303807402492816,-0.3803107346680683
3.657499999999999,-0.605088198373914,-0.3622011983493752,-0.3334381722765087
3.660999999999973,-0.626395177882261,-0.2823035158515787,-0.2684543282370038
3.664499999999976,-0.6615495996759307,-0.1597953649955927,-0.1938833906162941
3.667999999999978,-0.6455693650446706,-0.0681795418999064,-0.1342280367831279
3.671499999999981,-0.6508961099217573,0.067113145726938,-0.0596570991624181
3.674999999999983,-0.6722030894301041,0.1725781564371994,-0.0255673282124649
3.6784999999999854,-0.6402426201675839,0.3430252658577136,0.0436768645311581
3.681999999999988,-0.6168063389718039,0.4857757453783298,0.1203788491685528
3.6854999999999913,-0.5656734278761261,0.6508961099217574,0.2162550209683574
3.688999999999993,-0.4889714432387312,0.7542300736153337,0.286565609884949
3.692499999999996,-0.4101401569139034,0.8810003185046897,0.3483520107348002
3.695999999999998,-0.3685925940701783,0.9481134642316276,0.3590055004889736
3.699500000000001,-0.304675146203642,1.0109662612544474,0.3845728287014385
3.702999999999975,-0.2897613077453504,1.0716880112605822,0.3888331774055567
3.706499999999977,-0.2705853752536887,1.1430632510208902,0.3707236410868635
3.70999999999998,-0.2290395577392157,1.1771530219708437,0.3600701513326901
3.713499999999982,-0.2407576983371056,1.22935232923949,0.3408942188410284
3.716999999999985,-0.2737810731140903,1.2485282617311515,0.2940216564494687
3.720499999999987,-0.2599318854995153,1.2698334959102464,0.2620629325162006
3.7239999999999895,-0.265258630376602,1.2911404754185931,0.2290395577392158
3.727499999999992,-0.2418223491808221,1.2996629181560817,0.1768385051413174
3.7309999999999945,-0.1896230419121757,1.289009428401908,0.1491418752414194
3.734499999999997,-0.1736428072809157,1.2623774493457267,0.083093380358198
3.738,-0.1629910628559943,1.21017814207708,0.0031956978604016
3.7414999999999736,-0.1182478021518676,1.122822667685512,-0.083093380358198
3.744999999999976,-0.1182478021518677,1.051447427925204,-0.1587289688226243
3.748499999999978,-0.0958761717998043,0.9342660219463046,-0.2940216564494687
3.751999999999981,-0.0308940730895515,0.8288010112360433,-0.3749839897909817
3.755499999999984,0.0298276769165831,0.6477004120613556,-0.4836446983616446
3.758999999999986,0.0681795418999065,0.4879067923950148,-0.5560845889656694
3.7624999999999886,0.1097253594143795,0.2897613077453506,-0.6136106411114024
3.765999999999991,0.1065296615539779,0.1438151303643327,-0.6370469223071823
3.7694999999999936,0.1320969897664428,-0.0330233747769847,-0.6498314590780407
3.772999999999996,0.1725781564371993,-0.1384883854872461,-0.6338512244467807
3.776499999999999,0.1885583910684593,-0.2833681666952953,-0.6242641308655758
3.7799999999999727,0.1811005991746875,-0.3877685265618402,-0.6274598287259775
3.783499999999975,0.1470108282247343,-0.4996249329929048,-0.6391779693238674
3.7869999999999777,0.0788312863248278,-0.5784562193177326,-0.6594185526592456
3.79049999999998,0.0234362811957797,-0.6508961099217573,-0.6817901830113089
3.793999999999983,-8.310385641591047e-17,-0.6785944851509074,-0.6775280889779387
3.797499999999985,-0.0703088435873396,-0.713748906944577,-0.6945729744529154
3.800999999999988,-0.1118564064310646,-0.723336000525782,-0.709488558240459
3.8044999999999902,-0.1949497867892627,-0.7169446048049787,-0.7265316983861836
3.8079999999999927,-0.3004130521702721,-0.713748906944577,-0.753165422771617
3.8114999999999952,-0.3898978282492733,-0.6785944851509074,-0.7659482142132235
3.8149999999999977,-0.45062132358466,-0.616806338971804,-0.7584921676487036
3.8185,-0.5401060996636613,-0.5464974953844643,-0.7382515843133254
3.8219999999999743,-0.5678027295635594,-0.4836446983616446,-0.713748906944577
3.825499999999977,-0.6477004120613556,-0.3984202709867615,-0.6615495996759307
3.8289999999999793,-0.7148135577882937,-0.3483520107348001,-0.6327865736030641
3.832499999999982,-0.753165422771617,-0.2663250265495706,-0.5699337765802444
3.835999999999984,-0.7734060061069953,-0.207732578230869,-0.5102766774178261
3.839499999999987,-0.7371851881403569,-0.1693824585767976,-0.4463592295512898
3.842999999999989,-0.6785944851509074,-0.1651203645434274,-0.3984202709867616
3.846499999999992,-0.6136106411114024,-0.1874919948954907,-0.3526141047681703
3.8499999999999934,-0.5795208701614492,-0.2322352555996174,-0.3355692192931938
3.853499999999997,-0.5187991201553145,-0.2823035158515787,-0.2940216564494687
3.8569999999999993,-0.4815136513449596,-0.3121311927681618,-0.2578025838120824
3.860499999999973,-0.4048134120368168,-0.37178829193058,-0.205601531214184
3.863999999999976,-0.3302424744161071,-0.4186608543221397,-0.1587289688226243
3.8674999999999775,-0.2641939795328857,-0.4964292351325031,-0.0884201252352847
3.870999999999981,-0.2492801410745942,-0.5741958706136145,-0.055395005129048
3.874499999999984,-0.2215817658454442,-0.6679409953967339,0.0010646508437165
3.877999999999986,-0.231168859426649,-0.7361205372966404,0.0404811666707564
3.881499999999989,-0.2418223491808224,-0.8277363603923268,0.0884201252352847
3.884999999999991,-0.2237128128621293,-0.8735442719401699,0.1278348957330726
3.8884999999999934,-0.2546051406224289,-0.9481134642316276,0.1459461773810178
3.891999999999996,-0.2929570056057523,-1.0088369595670144,0.1512729222581045
3.8954999999999984,-0.3632658491930919,-1.067427662556464,0.1597953649955928
3.899000000000001,-0.4665998128866682,-1.0855371988751572,0.1629910628559944
3.902499999999975,-0.5784562193177327,-1.0908639437522438,0.1832316461913727
3.9059999999999775,-0.6498314590780409,-1.0525138240981724,0.2226464166891606
3.90949999999998,-0.8000379851631768,-1.0035102146899275,0.2727164222703739
3.9129999999999834,-0.912959042437958,-0.9555712561253992,0.314262239784847
3.916499999999985,-1.092994990768929,-0.8564993864651932,0.3952245731263599
3.919999999999988,-1.2645067510331598,-0.7680792612299084,0.4623394641825499
3.92349999999999,-1.453065142101619,-0.6221330838488905,0.5731294744406459
3.926999999999993,-1.5659861993764004,-0.4942981881158179,0.6764634381342222
3.930499999999995,-1.7129970276011346,-0.3526141047681701,0.7915155424256883
3.9339999999999975,-1.7705230797468676,-0.2748474692870588,0.8543683394485082
3.9375,-1.8536164601050655,-0.1853609478788055,0.9204168343317296
3.940999999999974,-1.922860652848689,-0.1555332709622224,0.9395927668233912
3.9444999999999766,-1.9399055383236647,-0.1363573384705607,0.9598333501587696
3.947999999999979,-1.9494926319048704,-0.1235745470289542,0.9768764903044942
3.9514999999999816,-1.931383095586177,-0.1459461773810176,0.9758118394607777
3.954999999999984,-1.8823794861779324,-0.170447109420514,0.9640936988628878
3.9584999999999866,-1.8557475071217504,-0.2034722295267507,0.956635906969116
3.961999999999989,-1.874923439613413,-0.239691302164137,0.9395927668233912
3.965499999999992,-1.860007855825869,-0.2609982816724838,0.9385263706504228
3.968999999999994,-1.8791837883175309,-0.2524758389349955,0.958766953985801
3.9724999999999966,-1.871725996423759,-0.2524758389349955,0.9811385843378644
3.975999999999999,-1.850420762244664,-0.2492801410745939,1.007770563394046
3.979499999999973,-1.8408336686634592,-0.2332999064433338,1.0344025424502272
3.982999999999976,-1.8610742519988372,-0.2354309534600188,1.0333378916065108
3.986499999999978,-1.8632035536862703,-0.2162550209683571,1.0418603343439992
3.9899999999999807,-1.873857043440444,-0.1938833906162938,1.053578474941889
3.993499999999983,-1.8589432049821528,-0.1768385051413172,1.0578405689752592
3.9969999999999857,-1.8046128506968209,-0.1523375731018208,1.0748854544502358
4.000499999999988,-1.7737187776072691,-0.1342280367831276,1.0855371988751572
4.003999999999991,-1.7481531947240565,-0.1267702448893559,1.083406151858472
4.007499999999993,-1.6895607464053546,-0.0926804739394026,1.1025820843501335
4.010999999999996,-1.6757115587907798,-0.0564614013020163,1.1174959228084254
4.014499999999998,-1.584095735695093,-0.0191759324916615,1.1462589488812918
4.018000000000001,-1.4754367724536823,0.0085224427374884,1.17821767281456
4.021499999999975,-1.3454708297039246,0.0127827914416066,1.1995246523229068
4.024999999999977,-1.2229609335186866,-0.0074577918937716,1.2069806988874263
4.02849999999998,-1.055709521958574,-0.0255673282124648,1.2176341886416
4.031999999999982,-0.9630290480191712,-0.0468725623915596,1.2250919805353715
4.035500000000013,-0.7787327509840819,-0.0777666354811112,1.2410704698373798
4.038999999999987,-0.6295908757426625,-0.0841580312019145,1.2634421001894431
4.042499999999961,-0.4506213235846599,-0.1161167551351826,1.2666377980498449
4.045999999999992,-0.300413052170272,-0.1502065260851359,1.2559843082956712
4.049499999999966,-0.1331616406101594,-0.1842962970350892,1.2368101211332618
4.052999999999997,-0.0490036094082448,-0.219450718828759,1.208047095060395
4.056499999999971,0.096942567972773,-0.2492801410745941,1.1803487198312452
4.060000000000002,0.1992101354933807,-0.2578025838120824,1.1803487198312452
4.063499999999976,0.3291760782431384,-0.2801724688348938,1.1622391835125518
4.067000000000007,0.4484902765679748,-0.2950880526224373,1.1462589488812918
4.070499999999981,0.5507578440885826,-0.2929570056057523,1.1270847617188822
4.074000000000012,0.5923054069323076,-0.2950880526224373,1.1015174335064173
4.077499999999986,0.6690056462404504,-0.2791078179911772,1.0780811523106375
4.08099999999996,0.7052264642070888,-0.2354309534600192,1.0748854544502358
4.084499999999991,0.7734060061069953,-0.1992101354933808,1.0493181262377709
4.087999999999965,0.8469105475547365,-0.175773854297601,1.0312068445898257
4.091499999999996,0.8863270633817765,-0.1512729222581046,0.9949877719524394
4.09499999999997,0.8991098548233829,-0.1416840833476478,0.9577023031420844
4.098500000000001,0.9225478813484148,-0.1171831513081513,0.9353306727900212
4.101999999999975,0.9257435792088164,-0.0852244273748832,0.9310703240859032
4.105500000000006,0.9768764903044942,-0.0660484948832215,0.9204168343317296
4.1089999999999804,1.0482517300648024,-0.0713752397603082,0.9225478813484148
4.112500000000011,1.1132355741043072,-0.0990718696602062,0.933199625773336
4.1159999999999854,1.1569124386354652,-0.1523375731018212,0.9246771830358478
4.11949999999996,1.219765235658285,-0.2332999064433341,0.9513109074212812
4.122999999999991,1.247461865558183,-0.2940216564494689,0.9832696313545496
4.1264999999999645,1.3081853608935698,-0.3941599222826435,1.007770563394046
4.129999999999996,1.3721028087601062,-0.4697955107470698,1.0205551001649042
4.1334999999999695,1.4061925797100594,-0.5592802868260712,1.014161959114849
4.1370000000000005,1.3859519963746811,-0.6253287817092925,0.9779428864774626
4.140499999999975,1.342273386514271,-0.6604849488322143,0.9321349749296196
4.1440000000000055,1.2783559386477348,-0.6477004120613558,0.9044365997004696
4.14749999999998,1.1899375587417018,-0.6242641308655759,0.8415838026776498
4.1510000000000105,1.1430632510208902,-0.5880433128989376,0.7979069381464917
4.1544999999999845,1.0130973082711323,-0.5251905158761179,0.7307937924195538
4.157999999999959,0.8841960163650912,-0.4783179534845581,0.6722030894301041
4.1614999999999895,0.7030954171904037,-0.381377130841037,0.6242641308655758
4.164999999999964,0.5283879590657713,-0.2823035158515788,0.6157416881280875
4.1684999999999945,0.3217200316786187,-0.1523375731018211,0.5912390107593392
4.171999999999969,0.1992101354933808,-0.0617864008498512,0.5805872663344177
4.1755,-0.0063913957208032,0.0703088435873395,0.5678027295635593
4.178999999999974,-0.1544686201185061,0.1587289688226243,0.5454328445407479
4.1825000000000045,-0.3376985209806268,0.2897613077453506,0.5624759846864725
4.185999999999979,-0.482580047517928,0.3962909692993285,0.6040235475301975
4.1895000000000095,-0.6082838962343157,0.4974938859762197,0.6381133184801508
4.192999999999984,-0.6413090163405524,0.5475621462281811,0.6732677402738206
4.196500000000015,-0.6988350684862854,0.5773915684740162,0.7212066988383489
4.199999999999989,-0.7169446048049786,0.5592802868260711,0.7520990265986485
4.203499999999963,-0.7222713496820653,0.5177344693115981,0.8224096155152401
4.206999999999994,-0.7339894902799552,0.4804490005012432,0.9086986937338396
4.210499999999968,-0.6881815787321122,0.3867021303888717,1.0045748655336442
4.213999999999999,-0.6253287817092923,0.302544099186957,1.0770147561376688
4.217499999999973,-0.5752605214573311,0.1938833906162941,1.173957324110442
4.221000000000004,-0.5486285424011496,0.1033339636935763,1.2208298865020015
4.224499999999978,-0.5305172607532044,0.0074577918937718,1.3017922198435146
4.228000000000009,-0.5358440056302911,-0.0426122136874414,1.3710364125871377
4.231499999999983,-0.5315836569261729,-0.1320969897664427,1.4157796732912642
4.235000000000014,-0.4942981881158181,-0.2056015312141839,1.4296288609058392
4.238499999999988,-0.4964292351325032,-0.2961527034661537,1.4264331630454377
4.241999999999962,-0.5251905158761178,-0.3707236410868635,1.3848856002017127
4.245499999999993,-0.561411333842756,-0.4410324846742031,1.3507958292517597
4.248999999999967,-0.6114795940947175,-0.4634041150262664,1.3390776886538696
4.252499999999998,-0.6690056462404506,-0.5049499325407394,1.2858137305415065
4.255999999999972,-0.6668763445530175,-0.5273215628928026,1.2400058189936634
4.259500000000003,-0.7435765838611603,-0.5401060996636611,1.1803487198312452
4.262999999999977,-0.7893844954090035,-0.5464974953844643,1.1217580168417955
4.266500000000008,-0.8703468287505164,-0.535844005630291,1.0844725480314406
4.269999999999982,-0.9470488133879112,-0.5060163287137078,1.1015174335064173
4.273500000000013,-0.9992481206565575,-0.468730859903353,1.1025820843501335
4.276999999999987,-1.0035102146899275,-0.441032484674203,1.1153666211209925
4.280499999999961,-1.021619751008621,-0.3909642244222417,1.132411506595969
4.283999999999992,-1.022684401852337,-0.3590055004889735,1.1430632510208902
4.287499999999966,-1.014161959114849,-0.3153286359578154,1.20591604804371
4.290999999999997,-1.016293006131534,-0.2844345628682638,1.2996629181560817
4.294499999999971,-0.9619626518462028,-0.2727164222703738,1.3966037407996024
4.298000000000002,-0.8671511308901148,-0.276976770974492,1.4754367724536823
4.301499999999976,-0.7712749590903102,-0.2844345628682638,1.569181897236802
4.305000000000007,-0.6924436727654824,-0.3014794483432403,1.6192519028180152
4.308499999999981,-0.5880433128989375,-0.3025440991869569,1.6970185382991263
4.312000000000012,-0.5347793547865746,-0.2940216564494687,1.7737187776072691
4.315499999999986,-0.4218582975117935,-0.2854992137119804,1.8301801789092855
4.31899999999996,-0.3100018910807289,-0.2780431671474606,1.852551809261349
4.322499999999991,-0.2034722295267509,-0.2705853752536888,1.860007855825869
4.325999999999965,-0.1214435000122694,-0.2705853752536888,1.8301801789092855
4.329499999999996,-0.0500682602519613,-0.247149094057909,1.8099395955739075
4.33299999999997,-0.0234362811957798,-0.2162550209683574,1.8173973874676796
4.336500000000001,0.0351544217936697,-0.1896230419121759,1.7875679652218444
4.339999999999975,0.1129210572747811,-0.1704471094205142,1.7588049391489775
4.343500000000006,0.1640557136997109,-0.1544686201185061,1.7098013297407328
4.34699999999998,0.2066679273871525,-0.1470108282247344,1.6576020224720869
4.350500000000011,0.2514094427620272,-0.1278348957330727,1.6224476006784168
4.353999999999985,0.2535404897787122,-0.1129210572747811,1.6139251579409286
4.357499999999959,0.3100018910807288,-0.1012029166768912,1.5723775950972034
4.36099999999999,0.3867021303888716,-0.1097253594143795,1.534027475443132
4.364499999999964,0.464468765869983,-0.1171831513081513,1.4754367724536823
4.367999999999995,0.4996249329929048,-0.1384883854872461,1.397670136972571
4.371499999999969,0.5667380787198427,-0.1523375731018211,1.3358819907934678
4.375,0.5795208701614492,-0.1587289688226243,1.3230991993518617
4.378499999999974,0.6274598287259775,-0.1874919948954909,1.2943361732789946
4.382000000000005,0.7062911150508053,-0.2098636252475542,1.2783559386477348
4.385499999999979,0.753165422771617,-0.2546051406224289,1.275160240787333
4.38900000000001,0.80642938088398,-0.2854992137119805,1.247461865558183
4.392499999999984,0.8266699642193582,-0.3057397970473588,1.273029193770648
4.396000000000015,0.820278568498555,-0.2950880526224373,1.3156414074580896
4.399499999999989,0.84584589671102,-0.2876302607286656,1.3454708297039246
4.402999999999963,0.8778046206442881,-0.2748474692870591,1.3646450168663344
4.406499999999994,0.8927184591025796,-0.2460844432141926,1.3529268762684443
4.409999999999968,0.8884581103984615,-0.2269085107225309,1.310314662581003
4.413499999999999,0.8586286881526264,-0.1906876927558925,1.275160240787333
4.416999999999973,0.80642938088398,-0.1512729222581046,1.2655731472061282
4.420500000000004,0.7691439120736251,-0.1129210572747812,1.2261566313790884
4.423999999999978,0.7627525163528219,-0.0937468701123715,1.1941979074458202
4.427500000000009,0.7286627454028686,-0.0756355884644263,1.145194298037575
4.430999999999983,0.6807255321675924,-0.0756355884644263,1.0844725480314406
4.434500000000014,0.6381133184801508,-0.0585907029894497,1.035468938623196
4.437999999999988,0.5433017975240628,-0.0362208179666383,1.021619751008621
4.441499999999962,0.4729912086074713,-0.0234362811957799,0.970485094583691
4.444999999999993,0.4697955107470696,-0.0245026773687484,0.9385263706504228
4.448499999999967,0.4165315526347067,-0.0394165158270399,0.8884581103984615
4.451999999999998,0.4133358547743051,-0.0703088435873396,0.81069147491735
4.455499999999972,0.3622011983493752,-0.0873537290623162,0.7467722817215618
4.459000000000003,0.3249157295390203,-0.0905494269227178,0.7201403026653803
4.462499999999977,0.3270467765557054,-0.1097253594143795,0.6636806466926157
4.466000000000008,0.3622011983493752,-0.1129210572747811,0.630655526586379
4.469499999999982,0.4048134120368167,-0.122509896185238,0.5731294744406459
4.473000000000013,0.4538170214450616,-0.1395530363309626,0.5028206308533064
4.476499999999987,0.4719265577637547,-0.1587289688226243,0.4570127193054631
4.479999999999961,0.4761869064678729,-0.1597953649955928,0.4538170214450616
4.483499999999992,0.492167141099133,-0.1757738542976009,0.4346410889533998
4.486999999999966,0.5219948180157161,-0.1832316461913727,0.4293143440763132
4.490499999999997,0.533712958613606,-0.1896230419121759,0.4080091098972184
4.493999999999971,0.5166698184678814,-0.2077325782308691,0.3685925940701784
4.497500000000002,0.4953628389595346,-0.2098636252475542,0.3675279432264619
4.500999999999976,0.4165315526347067,-0.2066679273871526,0.3952245731263599
4.504500000000007,0.3685925940701784,-0.2077325782308691,0.4186608543221398
4.507999999999981,0.3536787556118869,-0.2119946722642393,0.4442281825346047
4.511500000000012,0.2982837504828389,-0.2087989744038376,0.4687308599033531
4.514999999999986,0.2556715367953973,-0.2183860679850425,0.4516859744283765
4.51849999999996,0.1992101354933807,-0.2013411825100658,0.4687308599033531
4.521999999999991,0.1043986145372928,-0.177904901314286,0.5028206308533064
4.525499999999965,0.0564614013020165,-0.1597953649955928,0.5060163287137079
4.528999999999996,0.0532657034416149,-0.1427504795206162,0.517734469311598
4.53249999999997,0.0724398906040246,-0.1320969897664428,0.503885281697023
4.536000000000001,0.1992101354933807,-0.2269085107225308,0.4420988808471717
4.539499999999975,0.3622011983493752,-0.4175962034784233,0.3685925940701784
4.543000000000006,0.4719265577637547,-0.5092120265741097,0.3259803803827369
4.5464999999999804,0.6381133184801507,-0.6029588966864811,0.2482137449016255
4.550000000000011,0.7616878655091053,-0.638113318480151,0.191754088928861
4.5534999999999854,0.907632297560871,-0.681790183011309,0.0916158230956863
4.55699999999996,0.9875299800586674,-0.6998997193300022,-0.0074577918937717
4.560499999999991,1.014161959114849,-0.6924436727654825,-0.0958761717998045
4.5639999999999645,0.9971170736398725,-0.6668763445530175,-0.1289012919060412
4.567499999999996,0.9715514907566594,-0.6327865736030642,-0.1768385051413174
4.5709999999999695,0.9640936988628876,-0.6061545945468828,-0.1970790884766957
4.5745000000000005,0.9268082300525328,-0.5784562193177327,-0.2322352555996175
4.577999999999975,0.8852624125380598,-0.5560845889656695,-0.2716500260974054
4.5815000000000055,0.8277363603923267,-0.5230612141886848,-0.2769767709744921
4.58499999999998,0.7233360005257818,-0.4942981881158182,-0.2482137449016255
4.5885000000000105,0.6413090163405524,-0.4602084171658648,-0.2226464166891606
4.5919999999999845,0.6040235475301975,-0.4410324846742032,-0.1768385051413174
4.595499999999959,0.5411707505073777,-0.4282496932325967,-0.138488385487246
4.5989999999999895,0.5124077244345112,-0.4271832970596281,-0.1320969897664428
4.602499999999964,0.4623394641825498,-0.4261186462159116,-0.0703088435873395
4.6059999999999945,0.3962909692993284,-0.4133358547743052,0.0074577918937717
4.609499999999969,0.3813771308410368,-0.4122694586013366,0.0788312863248278
4.613,0.3920288752659582,-0.4144005056180217,0.1416840833476476
4.616499999999974,0.4175962034784232,-0.4122694586013366,0.1981454846496642
4.6200000000000045,0.4516859744283764,-0.4165315526347068,0.205601531214184
4.623499999999979,0.4793843496575264,-0.39522457312636,0.2567361876391139
4.6270000000000095,0.4357057397971163,-0.3504830577514853,0.316393286801532
4.630499999999984,0.3941599222826433,-0.2705853752536889,0.3611348021764067
4.634000000000015,0.38350643252847,-0.2077325782308691,0.3984202709867616
4.637499999999989,0.3536787556118869,-0.1214435000122694,0.4101401569139035
4.640999999999963,0.3643322453660603,-0.0713752397603081,0.3643322453660603
4.644499999999994,0.2982837504828389,0.0042603487041181,0.3366338701369103
4.647999999999968,0.2024058333537824,0.0671131457269379,0.3323735214327921
4.651499999999999,0.1278348957330727,0.1342280367831278,0.2982837504828389
4.654999999999973,0.0788312863248279,0.1853609478788057,0.2769767709744921
4.658500000000004,0.0159802346312601,0.2311688594266489,0.2258421145495622
4.661999999999978,-0.0127827914416064,0.2524758389349957,0.1480754790684509
4.665500000000009,-0.0905494269227178,0.2812388650078622,0.0948115209560879
4.668999999999983,-0.1565979218059392,0.2972173543098703,0.0777666354811113
4.672500000000014,-0.2002765316663493,0.2823035158515788,0.0436768645311581
4.675999999999988,-0.2034722295267509,0.2492801410745941,0.0330233747769847
4.679499999999962,-0.1928187397725775,0.177904901314286,-0.0010646508437165
4.682999999999993,-0.1693824585767977,0.1065296615539779,-0.0511346564249298
4.686499999999967,-0.1512729222581045,0.0191759324916617,-0.0585907029894496
4.689999999999998,-0.1715135055934827,-0.0213052341790947,-0.0223716303520633
4.693499999999972,-0.1491418752414194,-0.0905494269227178,0.0181095363186931
4.697000000000003,-0.1161167551351827,-0.1406194325039311,0.0767019846373948
4.700499999999977,-0.0628527970228198,-0.1864273440517743,0.1395530363309626
4.704000000000008,-0.0010646508437165,-0.2258421145495622,0.166186760716396
4.707499999999982,0.0564614013020165,-0.2503447919183106,0.2641939795328856
4.711000000000013,0.0671131457269379,-0.2450180470412239,0.3600701513326901
4.714499999999987,0.124639197872671,-0.2556715367953973,0.4751222556241564
4.717999999999961,0.1811005991746876,-0.2705853752536888,0.5731294744406459
4.721499999999992,0.2546051406224287,-0.2791078179911772,0.6594185526592456
4.724999999999966,0.3291760782431384,-0.3057397970473587,0.6849858808717105
4.728499999999997,0.4037470158638482,-0.3238510786953039,0.7414472821737271
4.731999999999971,0.4144005056180216,-0.3238510786953039,0.7861887975486017
4.735500000000002,0.5092120265741096,-0.3632658491930918,0.780862052671515
4.738999999999976,0.5134723752782278,-0.3590055004889737,0.8170828706381533
4.742500000000007,0.5464974953844645,-0.367527943226462,0.7776663548111135
4.745999999999981,0.600827849669796,-0.3984202709867616,0.6913772765925138
4.749500000000012,0.6221330838488908,-0.4431635316908883,0.5955011047927092
4.752999999999986,0.5997614534968273,-0.4974938859762197,0.5315836569261729
4.75649999999996,0.6061545945468826,-0.573129474440646,0.4154651564617382
4.759999999999991,0.6018925005135124,-0.6231994800218593,0.3355692192931938
4.763499999999965,0.6082838962343157,-0.693508323609199,0.1928187397725775
4.766999999999996,0.632786573603064,-0.7712749590903103,0.0340897709499532
4.77049999999997,0.6306555265863789,-0.8618243860130281,-0.1203788491685528
4.774000000000001,0.618937385988489,-0.924677183035848,-0.2151903701246408
4.777499999999975,0.618937385988489,-1.0280111467294242,-0.3579391043160051
4.781000000000006,0.6423736671842689,-1.1100398762439057,-0.4452945787075733
4.78449999999998,0.676463438134222,-1.2304187254124583,-0.5795208701614492
4.788000000000011,0.7180110009779471,-1.3348173399497512,-0.7041618133633722
4.791499999999985,0.7457076308778451,-1.448803048068249,-0.81069147491735
4.794999999999959,0.7318584432632701,-1.5105911942473522,-0.8543683394485082
4.79849999999999,0.7286627454028684,-1.5809000378346918,-0.9161547402983594
4.801999999999964,0.7222713496820652,-1.6160562049576137,-0.9310703240859032
4.805499999999995,0.6871169278883953,-1.648014928890882,-0.9651583497066044
4.808999999999969,0.6711366932571353,-1.6757115587907798,-1.0088369595670144
4.8125,0.5997614534968272,-1.6703848139136932,-1.0130973082711323
4.815999999999974,0.5049499325407393,-1.6469485327179132,-0.9811385843378644
4.819500000000005,0.4346410889533996,-1.6075337622201251,-0.9651583497066044
4.822999999999979,0.3792460838243516,-1.571312944253487,-0.9236125321921312
4.82650000000001,0.3302424744161069,-1.502068751509864,-0.8980452039796664
4.829999999999984,0.3057397970473585,-1.4594565378224222,-0.8969805531359498
4.833500000000015,0.2823035158515786,-1.3571889703018147,-0.8575640373089098
4.836999999999989,0.2386266513204205,-1.267704194222813,-0.80642938088398
4.840499999999963,0.2396913021641371,-1.17821767281456,-0.7446429800341288
4.843999999999994,0.263127583359917,-1.1238890638584804,-0.6924436727654824
4.847499999999968,0.2876302607286654,-1.0621009176793774,-0.6338512244467807
4.850999999999999,0.330242474416107,-1.0386646364835974,-0.6157416881280875
4.854499999999973,0.3526141047681702,-0.9949877719524394,-0.5496931932448661
4.858000000000004,0.3398295679973118,-0.944917766371226,-0.4761869064678729
4.861499999999978,0.346220963718115,-0.8863270633817765,-0.3994866671597301
4.865000000000009,0.36007015133269,-0.8447812458673034,-0.3376985209806268
4.868499999999983,0.3771150368076666,-0.7872551937215703,-0.274847469287059
4.872000000000014,0.4090737607409348,-0.7595568184924202,-0.258867234655799
4.875499999999988,0.4484902765679748,-0.6967040214696004,-0.2087989744038376
4.878999999999962,0.4559463231324946,-0.6274598287259776,-0.1427504795206162
4.882499999999993,0.5038852816970228,-0.5560845889656695,-0.0809623333415129
4.885999999999967,0.5539552872782362,-0.4985585368199363,-0.02769837522915
4.889499999999998,0.6242641308655758,-0.4410324846742032,0.0181095363186931
4.892999999999972,0.6956393706258839,-0.4154651564617383,0.0191759324916617
4.896500000000003,0.7691439120736251,-0.3483520107348003,0.0575260521457331
4.899999999999977,0.8032336830235783,-0.2940216564494688,0.1097253594143795
4.903500000000008,0.863955433029713,-0.2269085107225309,0.1491418752414194
4.906999999999982,0.9118943915942412,-0.1725781564371994,0.1864273440517743
4.910500000000013,0.9438531155275096,-0.106529661553978,0.2215817658454441
4.913999999999987,0.9672893967232892,-0.0692441927436231,0.2087989744038376
4.917499999999961,0.9502445112483128,0.0053267448770865,0.2301042085829324
4.920999999999992,0.8948495061192646,0.0745709376207096,0.2673896773932873
4.924499999999966,0.8181475214818699,0.1512729222581044,0.2950880526224372
4.927999999999997,0.753165422771617,0.2034722295267508,0.3249157295390203
4.931499999999971,0.6487650629050722,0.2535404897787122,0.3313071252598236
4.935000000000002,0.5678027295635593,0.260998281672484,0.2929570056057522
4.938499999999976,0.42292294835551,0.2854992137119804,0.286565609884949
4.942000000000007,0.2833681666952954,0.3089354949077602,0.2950880526224372
4.945499999999981,0.108660708570663,0.3185243338182171,0.2791078179911772
4.949000000000012,-0.0223716303520632,0.3408942188410284,0.2684543282370038
4.952499999999986,-0.2045368803704674,0.3600701513326901,0.219450718828759
4.95599999999996,-0.316393286801532,0.3717882919305801,0.1352926876268444
4.959499999999991,-0.5006895838366213,0.4239875991992266,0.0532657034416149
4.962999999999965,-0.6295908757426624,0.4825800475179281,0.0053267448770866
4.966499999999996,-0.7499697249112153,0.5539552872782364,-0.0617864008498512
4.96999999999997,-0.8106914749173499,0.5997614534968275,-0.0873537290623162
4.973500000000001,-0.82240961551524,0.6285244795696941,-0.1395530363309626
4.976999999999975,-0.8053647300402633,0.6061545945468828,-0.2013411825100658
4.980500000000006,-0.7457076308778452,0.6040235475301976,-0.2173214171413259
4.9839999999999804,-0.7212066988383488,0.6114795940947175,-0.2109282760912707
4.987500000000011,-0.6370469223071822,0.6082838962343159,-0.1949497867892626
4.9909999999999854,-0.5731294744406458,0.6242641308655759,-0.1587289688226243
4.99449999999996,-0.4900360940824478,0.6370469223071824,-0.1331616406101593
4.997999999999991,-0.39948666715973,0.6242641308655758,-0.1534022239455376
5.0014999999999645,-0.3259803803827368,0.6370469223071823,-0.1150521042914662
5.004999999999996,-0.2844345628682638,0.6540918077821589,-0.0756355884644262
5.0084999999999695,-0.2226464166891605,0.6381133184801508,-0.01598023463126
5.0120000000000005,-0.1768385051413173,0.6551582039551274,0.0426122136874415
5.015499999999975,-0.1289012919060411,0.628524479569694,0.0894847760790012
5.0190000000000055,-0.0607217500061346,0.5933700577760241,0.0809623333415129
5.02249999999998,-0.0351544217936697,0.5678027295635593,0.1129210572747811
5.0260000000000105,-0.0394165158270398,0.5539552872782363,0.1395530363309626
5.0294999999999845,-0.0521993072686463,0.5422354013510943,0.1693824585767977
5.032999999999959,-0.0820287295144814,0.5433017975240628,0.2087989744038376
5.0364999999999895,-0.1161167551351826,0.5315836569261729,0.2151903701246408
5.039999999999964,-0.1491418752414194,0.5049499325407395,0.1885583910684593
5.0434999999999945,-0.2162550209683573,0.5060163287137079,0.1864273440517743
5.046999999999969,-0.3025440991869569,0.5273215628928027,0.1896230419121759
5.0505,-0.4005513180034465,0.5486285424011496,0.205601531214184
5.053999999999974,-0.4580773701491796,0.5827165680218509,0.2301042085829324
5.0575000000000045,-0.5294526099094877,0.5816519171781344,0.2386266513204207
5.060999999999979,-0.5198655163282829,0.545432844540748,0.2024058333537824
5.0645000000000095,-0.5283879590657712,0.506016328713708,0.1981454846496642
5.067999999999984,-0.5251905158761176,0.4697955107470697,0.1992101354933808
5.071500000000015,-0.482580047517928,0.4261186462159116,0.2077325782308691
5.074999999999989,-0.4506213235846599,0.3984202709867616,0.2439533961975074
5.078499999999963,-0.3590055004889735,0.3483520107348002,0.2439533961975074
5.081999999999994,-0.2705853752536888,0.2833681666952954,0.2130593231079557
5.085499999999968,-0.1928187397725775,0.2386266513204207,0.2024058333537824
5.088999999999999,-0.083093380358198,0.1906876927558924,0.1981454846496642
5.092499999999973,0.0213052341790947,0.1416840833476476,0.1885583910684593
5.096000000000004,0.0948115209560879,0.1203788491685528,0.2034722295267509
5.099499999999978,0.1853609478788057,0.0628527970228197,0.1768385051413174
5.103000000000009,0.2812388650078622,-0.0010646508437165,0.1150521042914662
5.106499999999983,0.3259803803827369,-0.0500682602519613,0.0788312863248278
5.110000000000014,0.3909642244222418,-0.1065296615539779,0.0447432607041266
5.113499999999988,0.4346410889533998,-0.1715135055934828,0.0106534897541733
5.116999999999962,0.4623394641825499,-0.205601531214184,0.0095870935812048
5.120499999999993,0.503885281697023,-0.300413052170272,-0.029827676916583
5.123999999999967,0.559280286826071,-0.3930952714389269,-0.0809623333415129
5.127499999999998,0.579520870161449,-0.4964292351325032,-0.110790010258096
5.130999999999972,0.5837829641948192,-0.5571509851386379,-0.1267702448893561
5.134500000000003,0.5614113338427559,-0.6189373859884892,-0.1267702448893561
5.137999999999977,0.5113430735907946,-0.640242620167584,-0.0873537290623162
5.141500000000008,0.454881672288778,-0.6594185526592458,-0.0767019846373948
5.144999999999982,0.4026823650201316,-0.6807255321675924,-0.0798976824977964
5.148500000000013,0.3238510786953038,-0.6626142505196473,-0.0713752397603081
5.151999999999987,0.1747092034538843,-0.630655526586379,-0.0255673282124649
5.155499999999961,0.0511346564249298,-0.5752605214573311,0.0490036094082447
5.158999999999992,-0.0905494269227178,-0.5411707505073777,0.1012029166768912
5.162499999999966,-0.1629910628559945,-0.5273215628928027,0.1289012919060412
5.165999999999997,-0.2737810731140905,-0.5347793547865746,0.1672514115601126
5.169499999999971,-0.3259803803827369,-0.5464974953844645,0.1683160624038291
5.173000000000002,-0.3888331774055568,-0.5688691257365278,0.1949497867892626
5.176499999999976,-0.4325100419367148,-0.5816519171781342,0.247149094057909
5.180000000000007,-0.4452945787075733,-0.616806338971804,0.2492801410745941
5.183499999999981,-0.4282496932325967,-0.6583539018155291,0.2524758389349957
5.187000000000012,-0.3984202709867617,-0.7073575112237738,0.2567361876391139
5.190499999999986,-0.3824417816847535,-0.7371851881403569,0.2428870000245388
5.19399999999996,-0.3526141047681704,-0.7116178599278921,0.2695207244099723
5.197499999999991,-0.3781796876513834,-0.6626142505196473,0.3238510786953038
5.200999999999965,-0.3749839897909817,-0.5528888911052677,0.3632658491930918
5.204499999999996,-0.3653968962097769,-0.4634041150262664,0.3749839897909817
5.20799999999997,-0.3611348021764067,-0.3142622397848469,0.3994866671597301
5.211500000000001,-0.3217200316786187,-0.2173214171413258,0.3898978282492732
5.214999999999975,-0.2727164222703739,-0.069244192743623,0.4197272504951083
5.218500000000006,-0.2322352555996175,0.0521993072686464,0.4687308599033531
5.22199999999998,-0.1406194325039311,0.1842962970350892,0.4985585368199362
5.225500000000011,-0.0351544217936697,0.2759121201307756,0.5049499325407395
5.228999999999985,0.0820287295144815,0.3813771308410369,0.4974938859762197
5.232499999999959,0.1960144376329792,0.4357057397971164,0.4538170214450616
5.23599999999999,0.3068061932203272,0.5113430735907947,0.4261186462159115
5.239499999999964,0.3430252658577136,0.5688691257365278,0.42292294835551
5.242999999999995,0.4303807402492817,0.6242641308655758,0.3494166615785167
5.246499999999969,0.4985585368199363,0.6306555265863789,0.2812388650078622
5.25,0.5720648235969295,0.6274598287259774,0.1608600158393093
5.253499999999974,0.6210684330051743,0.5976321518093942,0.01598023463126
5.257000000000005,0.6711366932571357,0.5688691257365277,-0.1257055940456395
5.260499999999979,0.6487650629050723,0.5454328445407478,-0.205601531214184
5.26400000000001,0.6487650629050723,0.5145387714511962,-0.3536787556118869
5.267499999999984,0.6370469223071824,0.4857757453783297,-0.4452945787075733
5.271000000000015,0.5837829641948193,0.4420988808471716,-0.5731294744406459
5.274499999999989,0.5507578440885826,0.397355620143045,-0.6817901830113089
5.277999999999963,0.4559463231324947,0.3483520107348001,-0.7563611206320187
5.281499999999994,0.369657244913895,0.3270467765557053,-0.7691439120736251
5.284999999999968,0.2673896773932873,0.2940216564494687,-0.7787327509840819
5.288499999999999,0.1949497867892626,0.2716500260974054,-0.7467722817215618
5.291999999999973,0.1267702448893561,0.2492801410745941,-0.7244023966987505
5.295500000000004,0.1054650107102613,0.2279731615662473,-0.727598094559152
5.298999999999978,0.0617864008498512,0.2215817658454441,-0.6828548338550254
5.302500000000009,0.0223716303520633,0.2396913021641372,-0.6370469223071823
5.305999999999983,-0.0042603487041181,0.2492801410745941,-0.5795208701614492
5.309500000000014,-0.0117181405978898,0.2716500260974054,-0.5230612141886847
5.312999999999988,-0.0287630260728665,0.2950880526224372,-0.4932317919428495
5.316499999999962,3.678998827624104e-17,0.300413052170272,-0.517734469311598
5.319999999999993,-0.0031956978604015,0.3366338701369103,-0.5294526099094878
5.323499999999967,-0.0223716303520632,0.3728546881035486,-0.5496931932448661
5.326999999999998,-0.0276983752291499,0.41120480775762,-0.5891097090719061
5.330499999999972,-0.0330233747769846,0.4463592295512898,-0.5997614534968274
5.334000000000003,-0.0095870935812047,0.4825800475179281,-0.6785944851509074
5.337499999999977,0.0298276769165831,0.508147375730393,-0.7744706569507118
5.341000000000008,0.0287630260728666,0.5358440056302911,-0.8841960163650913
5.344499999999982,0.0181095363186932,0.5688691257365278,-0.972616141600376
5.348000000000013,-0.0394165158270398,0.5986968026531109,-1.0610362668356608
5.351499999999987,-0.0980072188164895,0.626395177882261,-1.0897992929085274
5.354999999999961,-0.1693824585767976,0.6338512244467807,-1.1494546467416935
5.358499999999992,-0.2098636252475541,0.628524479569694,-1.2005893031666235
5.361999999999966,-0.2844345628682638,0.6253287817092923,-1.2368101211332618
5.365499999999997,-0.3451563128743986,0.6125459902676859,-1.2634421001894431
5.368999999999971,-0.3877685265618401,0.5923054069323076,-1.2772912878040183
5.372500000000002,-0.4357057397971163,0.5837829641948193,-1.2389411681499467
5.375999999999976,-0.4420988808471716,0.5464974953844645,-1.24533256387075
5.379500000000007,-0.4144005056180216,0.5124077244345112,-1.253855006608238
5.382999999999981,-0.3984202709867615,0.4772533026408415,-1.2666377980498449
5.386500000000012,-0.3845728287014385,0.4346410889533999,-1.2996629181560817
5.389999999999986,-0.3867021303888716,0.3973556201430451,-1.2996629181560817
5.39349999999996,-0.413335854774305,0.3824417816847535,-1.2708998920832149
5.396999999999991,-0.4367721359700849,0.3451563128743987,-1.2740955899436164
5.400499999999965,-0.4538170214450615,0.3174579376452486,-1.28048698566442
5.403999999999996,-0.4974938859762196,0.2886949115723821,-1.3039232668601997
5.40749999999997,-0.5358440056302911,0.2620629325162006,-1.3497311784080428
5.411000000000001,-0.6200020368322057,0.2386266513204208,-1.3816899023413112
5.414499999999975,-0.7212066988383489,0.2332999064433341,-1.3880812980621142
5.418000000000006,-0.8447812458673034,0.2205171150017277,-1.4221710690120672
5.4214999999999804,-0.9513109074212812,0.2109282760912708,-1.4370849074703589
5.425000000000011,-1.106844178383504,0.2130593231079559,-1.4701100275765957
5.4284999999999854,-1.2123074437645132,0.2205171150017277,-1.520178287828557
5.43199999999996,-1.3880812980621142,0.256736187639114,-1.531896428426447
5.435499999999991,-1.5191136369848404,0.2993484013265556,-1.5095265434036358
5.4389999999999645,-1.6469485327179132,0.3430252658577137,-1.4892859600682575
5.442499999999996,-1.7161927254615363,0.3749839897909819,-1.439215954487044
5.4459999999999695,-1.769458428903151,0.3973556201430452,-1.397670136972571
5.4495000000000005,-1.7556092412885762,0.4026823650201319,-1.395539089955886
5.452999999999975,-1.7545445904448598,0.404813412036817,-1.3507958292517597
5.4565000000000055,-1.7460221477073712,0.416531552634707,-1.3156414074580896
5.45999999999998,-1.721519470338623,0.4080091098972186,-1.2666377980498449
5.4635000000000105,-1.7034099340199298,0.4144005056180219,-1.203785001027025
5.4669999999999845,-1.6895607464053546,0.3984202709867618,-1.1558477877917488
5.470499999999959,-1.6618641165054566,0.3803107346680686,-1.1505210429146622
5.4739999999999895,-1.6714512100866616,0.3643322453660605,-1.1174959228084254
5.477499999999964,-1.6884960955616382,0.3504830577514855,-1.1164312719647087
5.4809999999999945,-1.739630751986568,0.3408942188410286,-1.106844178383504
5.484499999999969,-1.7939593609426474,0.349416661578517,-1.083406151858472
5.488,-1.866400996875924,0.3590055004889738,-1.1174959228084254
5.491499999999974,-1.9079468143903973,0.3675279432264621,-1.1686305792333551
5.4950000000000045,-2.003822986190201,0.404813412036817,-1.2463972147144666
5.498499999999979,-2.0762646221234786,0.4346410889534001,-1.3316216420893496
5.5020000000000095,-2.174271840939968,0.487906792395015,-1.4147150224475475
5.505499999999984,-2.271212663583489,0.5262569120490865,-1.4360202566266425
5.509000000000015,-2.348979299064601,0.5656734278761265,-1.486088516878604
5.512499999999989,-2.382004419170837,0.5848476150385362,-1.5084601472306671
5.515999999999963,-2.3969182576291286,0.5912390107593395,-1.5159179391244388
5.519499999999994,-2.3670905807125457,0.5731294744406462,-1.5468120122139906
5.522999999999968,-2.317020575131332,0.5486285424011499,-1.5297671267390138
5.526499999999999,-2.2808015024939454,0.5241258650324016,-1.4775660741411154
5.529999999999973,-2.190250330241976,0.4687308599033534,-1.4306935117495558
