time,Gyr_X,Gyr_Y,Gyr_Z
0.0,-0.001267,-0.000532,-0.00117
0.0024999999999977,-1.3e-05,0.004987,0.001495
0.0049999999999954,0.004131,-0.001684,0.001941
0.0074999999999931,0.003202,0.00088,-0.001194
0.0099999999999909,-0.000855,-0.000295,0.004337
0.0124999999999886,0.002075,-0.000367,0.00144
0.0149999999999863,9.8e-05,0.000445,0.004783
0.017499999999984,0.0007,-1.9e-05,0.002686
0.0199999999999818,0.002717,0.000661,0.000823
0.0224999999999795,0.000697,0.002631,-0.000118
0.0249999999999772,-0.002469,0.000387,0.002971
0.0274999999999749,-0.002538,0.000193,0.002282
0.0299999999999727,0.001238,6.9e-05,0.002363
0.0324999999999704,0.001679,-0.001702,0.000321
0.0349999999999681,-0.00291,0.001056,-0.000933
0.0374999999999658,0.003233,0.00085,0.001705
0.0399999999999636,0.003523,-0.001635,0.001148
0.0424999999999613,0.003799,0.002133,-0.000128
0.044999999999959,0.004137,-0.001404,-0.00046
0.0474999999999568,-0.002275,-0.000648,0.000685
0.0499999999999545,0.000548,-0.000608,0.000622
0.052500000000009,-0.003202,0.000716,0.003309
0.0550000000000068,-0.001346,-0.000636,-0.000843
0.0575000000000045,0.00026,0.001421,-0.000319
0.0600000000000022,0.002316,0.000986,0.002224
0.0625,-0.000431,0.004169,-0.000352
0.0649999999999977,-0.001626,0.003024,0.002948
0.0674999999999954,-0.00107,0.002807,0.000788
0.0699999999999931,0.001068,0.002532,0.002383
0.0724999999999909,-0.000215,-0.000937,-0.000665
0.0749999999999886,0.002071,0.002343,0.000175
0.0774999999999863,0.001355,0.000259,0.001893
0.079999999999984,0.000852,-0.000305,0.001865
0.0824999999999818,-0.000471,0.000977,0.000379
0.0849999999999795,-0.000452,0.002811,0.001376
0.0874999999999772,-0.001113,0.002023,0.001153
0.0899999999999749,0.002465,-0.001228,0.001595
0.0924999999999727,-0.001144,0.000884,-0.000912
0.0949999999999704,-0.000557,0.003006,0.002118
0.0974999999999681,-0.001037,-0.00198,0.001688
0.0999999999999659,0.003258,-0.001624,0.001583
0.1024999999999636,-0.003076,0.004681,0.00216
0.1049999999999613,-0.000107,-0.004306,-5.8e-05
0.107499999999959,-9.8e-05,0.000957,0.00157
0.1099999999999568,0.001652,-0.003995,-0.001092
0.1124999999999545,0.001387,0.002737,0.001643
0.1150000000000091,0.000937,0.001503,0.002105
0.1175000000000068,0.000938,0.004839,0.002521
0.1200000000000045,-0.000454,-0.0018,-0.002322
0.1225000000000022,0.000408,-4e-05,-0.000522
0.125,-0.000624,0.000633,0.001492
0.1274999999999977,-0.002305,0.001707,0.003562
0.1299999999999954,0.000922,0.003932,0.001826
0.1324999999999931,0.00115,0.000862,0.002437
0.1349999999999909,-0.000195,-0.001797,0.002346
0.1374999999999886,-0.000498,0.000276,7.5e-05
0.1399999999999863,-0.002737,0.000403,3.8e-05
0.142499999999984,-0.000472,-0.003384,0.001567
0.1449999999999818,-0.001289,0.000293,0.002039
0.1474999999999795,0.001741,-0.002089,0.000318
0.1499999999999772,0.002684,0.0006,0.000469
0.152499999999975,-0.000325,0.001731,0.00222
0.1549999999999727,-0.002846,0.004951,-0.003032
0.1574999999999704,0.001097,-0.000748,0.000296
0.1599999999999681,-0.000224,0.001108,-0.002268
0.1624999999999659,0.00229,-0.003147,-0.001043
0.1649999999999636,-0.002129,0.003561,-0.002514
0.1674999999999613,-0.001352,0.002166,-0.001381
0.169999999999959,0.0021,0.004309,0.002501
0.1724999999999568,0.00167,0.002911,0.000715
0.1749999999999545,0.001157,0.003295,-0.000277
0.1775000000000091,-0.003858,0.005569,0.006497
0.1800000000000068,-0.001664,0.0062,0.002185
0.1825000000000045,0.001741,0.00084,0.00177
0.1850000000000022,-0.001623,-0.003439,-0.000629
0.1875,-0.001036,0.003139,0.002228
0.1899999999999977,-0.000937,0.00233,-0.000183
0.1924999999999954,-0.000417,0.002746,0.001458
0.1949999999999931,-0.000535,-0.002325,0.003057
0.1974999999999909,-0.001316,0.001603,0.003851
0.1999999999999886,-0.001138,-0.000277,-0.000611
0.2024999999999863,-0.001617,0.000625,0.002759
0.204999999999984,-0.001146,-0.001842,0.000272
0.2074999999999818,0.001257,-0.000241,0.005499
0.2099999999999795,0.003388,0.004209,0.001233
0.2124999999999772,-0.002098,-0.001551,0.000516
0.214999999999975,0.000981,0.001395,0.000469
0.2174999999999727,-0.0037,-0.000922,-0.001089
0.2199999999999704,0.001902,0.003245,-0.003259
0.2224999999999681,-0.002371,0.003485,0.001317
0.2249999999999659,0.001679,-0.001056,0.001699
0.2274999999999636,-0.002769,0.002589,0.000537
0.2299999999999613,-0.000359,0.000565,-0.000118
0.232499999999959,-0.000726,-0.002648,0.000403
0.2349999999999568,-0.000297,-0.004324,0.002424
0.2374999999999545,-0.001419,-0.001214,0.001844
0.2400000000000091,0.000118,-0.000887,0.003137
0.2425000000000068,0.000738,-0.001474,-0.001417
0.2450000000000045,-7.6e-05,-2.8e-05,-0.000717
0.2475000000000022,0.000865,0.002076,-0.002074
0.25,0.001518,0.001002,0.001498
0.2524999999999977,0.000522,0.003756,-0.000145
0.2549999999999954,0.001196,-0.001861,0.004181
0.2574999999999932,-0.000957,0.001564,-0.001986
0.2599999999999909,-0.003244,0.002154,0.001956
0.2624999999999886,-0.000615,0.001758,-0.000297
0.2649999999999863,0.000972,-0.001027,-0.0002
0.2674999999999841,0.007068,-0.001191,0.001612
0.2699999999999818,-0.0011,0.000853,0.000509
0.2724999999999795,0.000184,0.000527,7.8e-05
0.2749999999999772,-0.004102,0.00101,0.002735
0.277499999999975,-0.00201,-0.002752,0.002661
0.2799999999999727,-0.000395,-0.001606,-0.00231
0.2824999999999704,0.000728,0.002258,-0.000562
0.2849999999999681,-0.002472,-0.001408,0.002753
0.2874999999999659,0.001603,0.000536,-0.001726
0.2899999999999636,0.001071,-0.000857,0.000414
0.2924999999999613,0.001591,0.000503,0.003258
0.2949999999999591,0.000126,0.003145,0.002965
0.2974999999999568,0.004346,-0.000896,-0.001229
0.2999999999999545,-3e-06,-0.003903,0.000439
0.3025000000000091,-0.000259,0.000804,0.000162
0.3050000000000068,-0.000992,0.00213,-0.000305
0.3075000000000045,-0.001448,-0.001644,0.001749
0.3100000000000023,-0.001299,0.002762,3.2e-05
0.3125,-0.001046,-0.000931,0.001403
0.3149999999999977,-0.001243,0.004139,0.003134
0.3174999999999954,0.002604,0.003158,-0.001048
0.3199999999999932,-0.003135,0.001874,0.000872
0.3224999999999909,-0.002715,0.000214,-0.00098
0.3249999999999886,-0.002171,0.00082,9.3e-05
0.3274999999999863,-0.002359,-0.001711,-1.3e-05
0.3299999999999841,9.9e-05,0.001814,-0.001004
0.3324999999999818,0.001162,-0.000846,-0.000764
0.3349999999999795,0.001428,0.002977,0.001275
0.3374999999999772,-0.003816,0.000699,0.002576
0.339999999999975,-0.003625,0.000124,0.002097
0.3424999999999727,-0.001298,-5.1e-05,0.001343
0.3449999999999704,-0.001182,-0.001737,0.000314
0.3474999999999681,-0.000784,-0.000593,0.001714
0.3499999999999659,0.001181,0.001547,0.005191
0.3524999999999636,-0.001252,-0.000608,0.000463
0.3549999999999613,-0.002441,0.003315,0.001495
0.3574999999999591,-0.001249,-0.000781,0.004477
0.3599999999999568,-0.000983,0.000683,0.000178
0.3624999999999545,-0.001098,0.00507,-0.000295
0.3650000000000091,0.007211,0.001713,0.001889
0.3675000000000068,0.000187,0.00148,0.000607
0.3700000000000045,0.00119,0.002942,0.000793
0.3725000000000023,0.002813,-5.4e-05,-0.000541
0.375,0.00117,-0.002283,0.001477
0.3774999999999977,0.0021,-0.001734,0.00303
0.3799999999999954,-0.00104,-0.001702,0.000698
0.3824999999999932,-0.001709,-0.003034,-0.001371
0.3849999999999909,0.003741,-0.002083,0.001638
0.3874999999999886,0.000668,0.001241,0.001868
0.3899999999999863,-0.00312,0.003298,-0.005262
0.3924999999999841,0.002282,0.004976,0.001606
0.3949999999999818,-0.000393,0.003248,-0.000907
0.3974999999999795,0.000548,-0.004008,0.000111
0.3999999999999772,-0.002788,0.001774,-0.000484
0.402499999999975,6.6e-05,-0.00127,0.003681
0.4049999999999727,0.001418,-0.000219,0.001933
0.4074999999999704,0.001807,0.002157,0.001623
0.4099999999999681,-0.000539,0.000172,0.005957
0.4124999999999659,0.002969,0.002239,-0.001502
0.4149999999999636,0.001315,0.000269,0.002929
0.4174999999999613,0.002261,-0.003234,-0.001284
0.4199999999999591,0.000277,0.002733,0.000259
0.4224999999999568,0.000309,0.002135,-0.000408
0.4249999999999545,-0.001267,0.001023,0.001421
0.4275000000000091,-0.000544,-0.000265,0.00305
0.4300000000000068,0.001592,0.001172,0.002182
0.4325000000000045,0.002728,-0.001366,0.000633
0.4350000000000023,0.000825,-0.004406,-0.00025
0.4375,-0.001474,-0.001003,0.002433
0.4399999999999977,-0.000679,0.001533,0.002443
0.4424999999999954,-1.2e-05,0.004015,0.001737
0.4449999999999932,0.002704,-0.000758,0.002191
0.4474999999999909,0.002224,0.003635,0.001746
0.4499999999999886,0.000835,0.002285,0.003304
0.4524999999999863,0.000616,-0.000216,0.003455
0.4549999999999841,0.00144,-0.004771,-0.00159
0.4574999999999818,0.000796,3.1e-05,0.001939
0.4599999999999795,-0.001848,0.001105,0.001354
0.4624999999999772,-0.00204,0.002145,0.002471
0.464999999999975,-0.002976,-0.001299,0.002841
0.4674999999999727,-0.000639,0.001419,0.001139
0.4699999999999704,0.000168,0.000861,0.001138
0.4724999999999681,-0.001544,0.002513,0.002449
0.4749999999999659,-0.001697,0.004407,0.001974
0.4774999999999636,-0.001192,0.003716,0.000154
0.4799999999999613,0.001486,0.00143,-0.000179
0.4824999999999591,0.002275,0.001485,0.001077
0.4849999999999568,0.001223,0.000475,-0.000891
0.4874999999999545,-0.00045,0.001922,0.002231
0.4900000000000091,0.0033,0.002403,0.002339
0.4925000000000068,0.001518,0.004476,-0.003855
0.4950000000000045,0.004438,0.000162,0.000753
0.4975000000000023,0.004245,0.002237,-0.000508
0.5,0.003808,0.004246,0.001027
0.5024999999999977,0.002977,0.005304,-0.00046
0.5049999999999955,0.006626,-0.000361,0.000504
0.5074999999999932,0.004665,-0.002806,0.001083
0.5099999999999909,0.009672,0.001992,0.000306
0.5124999999999886,0.010518,-0.001857,-0.001743
0.5149999999999864,0.009356,-0.002195,0.0023
0.5174999999999841,0.011923,0.000874,0.001872
0.5199999999999818,0.017495,-0.000967,0.003196
0.5224999999999795,0.017343,-3e-05,-0.001861
0.5249999999999773,0.015507,-0.000322,0.002284
0.527499999999975,0.02292,-0.000559,0.000987
0.5299999999999727,0.02199,0.001863,0.001635
0.5324999999999704,0.023074,-0.000685,-0.000493
0.5349999999999682,0.020004,-0.001919,0.001297
0.5374999999999659,0.026574,0.004689,0.002419
0.5399999999999636,0.026786,0.004067,0.003634
0.5424999999999613,0.030359,-0.000645,0.001328
0.5449999999999591,0.031111,0.000393,0.003412
0.5474999999999568,0.030755,0.000145,0.000448
0.5499999999999545,0.034056,0.000132,0.002763
0.5525000000000091,0.037432,0.001649,0.003574
0.5550000000000068,0.037465,-0.001933,0.001351
0.5575000000000045,0.036771,-0.003827,0.003957
0.5600000000000023,0.041147,0.000411,0.002529
0.5625,0.043976,0.002437,0.003057
0.5649999999999977,0.044743,0.000536,0.002641
0.5674999999999955,0.048233,0.001357,0.001273
0.5699999999999932,0.047778,0.002047,0.00217
0.5724999999999909,0.052162,0.008259,0.000768
0.5749999999999886,0.056819,-0.002256,-0.000647
0.5774999999999864,0.056177,-0.001836,0.002509
0.5799999999999841,0.055838,0.001847,-0.002874
0.5824999999999818,0.063401,-0.002749,-0.001107
0.5849999999999795,0.061176,0.001844,-0.000298
0.5874999999999773,0.063477,0.000357,0.003653
0.589999999999975,0.067338,0.000565,0.001698
0.5924999999999727,0.07135,-0.000806,0.002044
0.5949999999999704,0.071777,-0.002797,0.00108
0.5974999999999682,0.071829,-0.000979,0.000138
0.5999999999999659,0.071687,0.003866,0.002634
0.6024999999999636,0.074997,0.000588,0.001486
0.6049999999999613,0.077168,0.001282,-0.000598
0.6074999999999591,0.07529,0.002431,0.000831
0.6099999999999568,0.080799,0.002141,0.00281
0.6124999999999545,0.080099,0.000369,0.000555
0.6150000000000091,0.080634,0.000856,0.001522
0.6175000000000068,0.083717,-0.004901,-0.000583
0.6200000000000045,0.083018,-0.000778,0.00189
0.6225000000000023,0.08376,-0.005029,0.000492
0.625,0.086024,0.00074,-0.001299
0.6274999999999977,0.088438,-0.001366,0.000557
0.6299999999999955,0.087971,-0.003216,-0.000608
0.6324999999999932,0.086298,-0.003146,0.00306
0.6349999999999909,0.085709,-0.003272,-0.001141
0.6374999999999886,0.081819,0.001673,0.002109
0.6399999999999864,0.078978,-0.000481,0.002073
0.6424999999999841,0.077145,-0.00423,0.002997
0.6449999999999818,0.077318,-0.003855,0.003202
0.6474999999999795,0.070792,0.001154,-0.000785
0.6499999999999773,0.068489,-0.001718,-0.001304
0.652499999999975,0.062043,0.00499,-0.001182
0.6549999999999727,0.056773,-0.002615,0.000421
0.6574999999999704,0.05145,0.002243,0.001525
0.6599999999999682,0.046479,-0.000376,-0.000556
0.6624999999999659,0.03706,0.000525,0.000577
0.6649999999999636,0.033598,-0.000276,-0.002831
0.6674999999999613,0.024159,-0.00347,0.003701
0.6699999999999591,0.014807,7.5e-05,0.000647
0.6724999999999568,0.009035,-0.003852,0.001395
0.6749999999999545,-0.001265,-0.002468,0.000637
0.6775000000000091,-0.010234,-0.001964,0.004985
0.6800000000000068,-0.019436,-0.0001,0.00186
0.6825000000000045,-0.031003,-0.001656,-0.001486
0.6850000000000023,-0.042126,-0.003748,0.003476
0.6875,-0.058168,-0.002572,-0.001909
0.6899999999999977,-0.068429,0.000126,-0.000444
0.6924999999999955,-0.082804,-0.002927,0.001166
0.6949999999999932,-0.095822,-0.000124,0.002413
0.6974999999999909,-0.112017,0.000682,0.003816
0.6999999999999886,-0.125602,-0.000583,0.001606
0.7024999999999864,-0.137651,-0.002575,4.1e-05
0.7049999999999841,-0.159454,-0.003868,0.001142
0.7074999999999818,-0.173776,-0.00259,0.003103
0.7099999999999795,-0.191095,-0.001743,0.002205
0.7124999999999773,-0.208677,-0.00201,0.00334
0.714999999999975,-0.227368,-0.004473,0.001346
0.7174999999999727,-0.24396,-0.004694,0.00589
0.7199999999999704,-0.263397,-0.004543,0.000832
0.7224999999999682,-0.278431,-0.000864,0.000606
0.7249999999999659,-0.293596,-0.000708,0.004538
0.7274999999999636,-0.314505,-0.000523,0.000382
0.7299999999999613,-0.327632,0.00023,0.001612
0.7324999999999591,-0.343549,0.001886,9.9e-05
0.7349999999999568,-0.358698,2.9e-05,-0.003999
0.7374999999999545,-0.373103,-0.001705,-0.002496
0.7400000000000091,-0.388204,0.001474,-0.002535
0.7425000000000068,-0.400844,0.000175,-0.001732
0.7450000000000045,-0.411975,-0.001335,-0.001636
0.7475000000000023,-0.421868,-0.003441,-0.003114
0.75,-0.431108,-0.00262,-0.001761
0.7524999999999977,-0.438345,0.003474,-0.005127
0.7549999999999955,-0.448427,0.001592,-0.00786
0.7574999999999932,-0.455198,0.002929,-0.002037
0.7599999999999909,-0.455171,0.003048,-0.003766
0.7624999999999886,-0.457655,0.007633,-0.004232
0.7649999999999864,-0.457963,0.009228,-0.007744
0.7674999999999841,-0.456268,0.00849,-0.006466
0.7699999999999818,-0.455739,0.010598,-0.006349
0.7724999999999795,-0.451344,0.006465,-0.007342
0.7749999999999773,-0.445145,0.006036,-0.0072
0.777499999999975,-0.440967,0.007246,-0.009407
0.7799999999999727,-0.43571,0.011819,-0.009972
0.7824999999999704,-0.428347,0.013892,-0.011799
0.7849999999999682,-0.421016,0.012531,-0.015523
0.7874999999999659,-0.41206,0.015615,-0.016536
0.7899999999999636,-0.402805,0.017054,-0.020389
0.7924999999999613,-0.389911,0.019564,-0.020403
0.7949999999999591,-0.381984,0.017721,-0.025325
0.7974999999999568,-0.371288,0.015251,-0.025985
0.7999999999999545,-0.360854,0.019074,-0.026827
0.8025000000000091,-0.349094,0.01433,-0.029449
0.8050000000000068,-0.340837,0.014967,-0.030118
0.8075000000000045,-0.330508,0.014792,-0.035694
0.8100000000000023,-0.317977,0.010737,-0.03832
0.8125,-0.308928,0.011959,-0.037691
0.8149999999999977,-0.302501,0.011366,-0.040838
0.8174999999999955,-0.295378,0.00597,-0.041652
0.8199999999999932,-0.284155,0.000703,-0.046533
0.8224999999999909,-0.281234,-0.001347,-0.044818
0.8249999999999886,-0.273578,-0.004612,-0.049898
0.8274999999999864,-0.269592,-0.007418,-0.04842
0.8299999999999841,-0.264621,-0.009492,-0.048983
0.8324999999999818,-0.26058,-0.01152,-0.047733
0.8349999999999795,-0.259167,-0.009903,-0.050427
0.8374999999999773,-0.254908,-0.013791,-0.049254
0.839999999999975,-0.254172,-0.015093,-0.048241
0.8424999999999727,-0.25562,-0.020899,-0.046663
0.8449999999999704,-0.254866,-0.021912,-0.04532
0.8474999999999682,-0.254796,-0.021385,-0.047038
0.8499999999999659,-0.252561,-0.020492,-0.045656
0.8524999999999636,-0.259531,-0.018477,-0.041342
0.8549999999999613,-0.256944,-0.022742,-0.039971
0.8574999999999591,-0.265366,-0.020166,-0.038747
0.8599999999999568,-0.267904,-0.018479,-0.034916
0.8624999999999545,-0.271654,-0.02443,-0.033253
0.8650000000000091,-0.27393,-0.023544,-0.031468
0.8675000000000068,-0.282133,-0.024435,-0.030346
0.8700000000000045,-0.287007,-0.025603,-0.032067
0.8725000000000023,-0.291118,-0.026694,-0.030692
0.875,-0.301121,-0.030114,-0.031687
0.8774999999999977,-0.305951,-0.030324,-0.030902
0.8799999999999955,-0.31696,-0.031699,-0.031067
0.8824999999999932,-0.324413,-0.033969,-0.032218
0.8849999999999909,-0.334363,-0.036,-0.031604
0.8874999999999886,-0.341019,-0.040351,-0.031482
0.8899999999999864,-0.353618,-0.038075,-0.032063
0.8924999999999841,-0.366852,-0.048362,-0.031331
0.8949999999999818,-0.378543,-0.048259,-0.033319
0.8974999999999795,-0.387545,-0.052014,-0.030775
0.8999999999999773,-0.402825,-0.048524,-0.031421
0.902499999999975,-0.409737,-0.057393,-0.029586
0.9049999999999728,-0.424698,-0.057696,-0.030646
0.9074999999999704,-0.430846,-0.055198,-0.029345
0.9099999999999682,-0.446865,-0.051311,-0.027001
0.912499999999966,-0.45505,-0.051738,-0.024319
0.9149999999999636,-0.470297,-0.050999,-0.019899
0.9174999999999612,-0.479239,-0.05355,-0.018007
0.9199999999999592,-0.494982,-0.046816,-0.017186
0.9224999999999568,-0.506301,-0.046124,-0.015257
0.9249999999999544,-0.515843,-0.043845,-0.011699
0.9275000000000092,-0.53011,-0.039092,-0.011468
0.9300000000000068,-0.53919,-0.040247,-0.009744
0.9325000000000044,-0.548834,-0.037172,-0.005192
0.9350000000000024,-0.559295,-0.040925,-0.00656
0.9375,-0.572567,-0.037521,-0.004797
0.9399999999999976,-0.577737,-0.03543,-0.003229
0.9424999999999956,-0.589164,-0.029294,-0.001816
0.9449999999999932,-0.599352,-0.033782,-0.00381
0.9474999999999908,-0.609249,-0.032483,-0.004154
0.9499999999999886,-0.616102,-0.03383,-0.007281
0.9524999999999864,-0.622597,-0.03069,-0.008219
0.954999999999984,-0.630231,-0.034949,-0.010383
0.9574999999999818,-0.639035,-0.034803,-0.01414
0.9599999999999796,-0.64334,-0.032723,-0.017031
0.9624999999999772,-0.654847,-0.035182,-0.020237
0.964999999999975,-0.656825,-0.036338,-0.024627
0.9674999999999728,-0.667074,-0.038324,-0.027005
0.9699999999999704,-0.671601,-0.034292,-0.030036
0.9724999999999682,-0.676945,-0.032666,-0.033896
0.974999999999966,-0.676386,-0.035369,-0.034367
0.9774999999999636,-0.682248,-0.034757,-0.040877
0.9799999999999612,-0.68055,-0.026481,-0.041683
0.9824999999999592,-0.688264,-0.030117,-0.043467
0.9849999999999568,-0.688861,-0.02526,-0.046043
0.9874999999999544,-0.693089,-0.022,-0.05146
0.9900000000000092,-0.694557,-0.017692,-0.052208
0.9925000000000068,-0.693864,-0.01771,-0.051746
0.9950000000000044,-0.695676,-0.013082,-0.054353
0.9975000000000024,-0.695509,-0.006276,-0.057642
1.0,-0.695178,-0.002889,-0.057377
1.0024999999999975,-0.694898,-0.000472,-0.057942
1.0049999999999957,-0.693259,0.009312,-0.059193
1.0074999999999932,-0.690502,0.01175,-0.059652
1.009999999999991,-0.690028,0.020287,-0.059755
1.0124999999999886,-0.687324,0.019351,-0.060409
1.0149999999999864,-0.682271,0.022244,-0.061247
1.017499999999984,-0.679466,0.028545,-0.061439
1.0199999999999818,-0.678513,0.031547,-0.05971
1.0224999999999795,-0.67115,0.028533,-0.064662
1.0249999999999773,-0.665011,0.029545,-0.067075
1.027499999999975,-0.663059,0.032829,-0.065501
1.0299999999999727,-0.655444,0.031743,-0.064671
1.0324999999999704,-0.653859,0.036258,-0.066999
1.0349999999999682,-0.649803,0.03435,-0.06673
1.037499999999966,-0.645657,0.027946,-0.06441
1.0399999999999636,-0.639996,0.027703,-0.067444
1.0424999999999611,-0.635941,0.030416,-0.067893
1.044999999999959,-0.631867,0.026996,-0.068292
1.0474999999999568,-0.626186,0.030949,-0.065871
1.0499999999999543,-0.619906,0.019459,-0.067343
1.052500000000009,-0.614125,0.019836,-0.066765
1.0550000000000068,-0.61412,0.025017,-0.061463
1.0575000000000043,-0.611104,0.024431,-0.061598
1.0600000000000025,-0.608318,0.022552,-0.059259
1.0625,-0.605318,0.021573,-0.05976
1.0649999999999975,-0.601934,0.020812,-0.05731
1.0674999999999957,-0.601103,0.019086,-0.052577
1.0699999999999932,-0.605019,0.017822,-0.049859
1.072499999999991,-0.601322,0.020801,-0.047195
1.0749999999999886,-0.603221,0.016785,-0.046544
1.0774999999999864,-0.604887,0.016404,-0.040062
1.079999999999984,-0.606544,0.015777,-0.039449
1.0824999999999818,-0.607927,0.014419,-0.037776
1.0849999999999795,-0.611275,0.016103,-0.028992
1.0874999999999773,-0.615838,0.016803,-0.026152
1.089999999999975,-0.615148,0.017873,-0.022146
1.0924999999999727,-0.619009,0.015598,-0.021155
1.0949999999999704,-0.623651,0.016467,-0.017865
1.0974999999999682,-0.625624,0.013832,-0.019683
1.099999999999966,-0.629993,0.014931,-0.009711
1.1024999999999636,-0.634594,0.014112,-0.00546
1.1049999999999611,-0.638819,0.007582,-0.005221
1.107499999999959,-0.641339,0.007579,-0.001454
1.1099999999999568,-0.645146,0.00725,-3.3e-05
1.1124999999999543,-0.649513,0.003941,-0.000966
1.115000000000009,-0.65407,0.002164,0.005519
1.1175000000000068,-0.660338,0.001203,0.005218
1.1200000000000043,-0.663646,0.004505,0.009062
1.1225000000000025,-0.673664,0.008349,0.010541
1.125,-0.672669,0.000942,0.008161
1.1274999999999975,-0.680076,-0.000964,0.010698
1.1299999999999957,-0.682813,0.001458,0.011336
1.1324999999999932,-0.687434,-0.004259,0.009862
1.134999999999991,-0.693771,-0.003289,0.008176
1.1374999999999886,-0.698778,-0.005428,0.008822
1.1399999999999864,-0.704253,-0.005689,0.006407
1.142499999999984,-0.710403,-0.006473,0.011066
1.1449999999999818,-0.717884,-0.003639,0.010075
1.1474999999999795,-0.720859,-0.001478,0.005653
1.1499999999999773,-0.726418,-0.009406,0.003333
1.152499999999975,-0.731062,-0.005296,0.001682
1.1549999999999727,-0.738402,-0.0072,0.002436
1.1574999999999704,-0.744592,-0.008883,-0.001572
1.1599999999999682,-0.75302,-0.011447,-0.001512
1.162499999999966,-0.756289,-0.009279,-0.00824
1.1649999999999636,-0.765219,-0.01104,-0.007519
1.1674999999999611,-0.771371,-0.010905,-0.01137
1.169999999999959,-0.778872,-0.00588,-0.012273
1.1724999999999568,-0.783201,-0.00769,-0.013483
1.1749999999999543,-0.790781,-0.01062,-0.017558
1.177500000000009,-0.798309,-0.006124,-0.01968
1.1800000000000068,-0.805383,-0.005235,-0.022376
1.1825000000000043,-0.808649,-0.005706,-0.024007
1.1850000000000025,-0.817371,-0.004531,-0.022659
1.1875,-0.820376,-0.004138,-0.026521
1.1899999999999975,-0.832615,-0.006349,-0.026372
1.1924999999999957,-0.838535,-0.005506,-0.029212
1.1949999999999932,-0.843595,0.001752,-0.030968
1.197499999999991,-0.849024,-0.003944,-0.033098
1.1999999999999886,-0.856742,0.001685,-0.034566
1.2024999999999864,-0.861632,0.004081,-0.031726
1.204999999999984,-0.867516,0.004879,-0.030234
1.2074999999999818,-0.8753,0.008573,-0.033864
1.2099999999999795,-0.882486,0.007885,-0.03691
1.2124999999999773,-0.888628,0.017603,-0.03859
1.214999999999975,-0.893255,0.018571,-0.037172
1.2174999999999727,-0.90245,0.017229,-0.036797
1.2199999999999704,-0.906535,0.018432,-0.038359
1.2224999999999682,-0.914177,0.021436,-0.036527
1.224999999999966,-0.920084,0.024355,-0.038065
1.2274999999999636,-0.924073,0.024765,-0.035143
1.2299999999999611,-0.929909,0.024909,-0.039215
1.232499999999959,-0.937578,0.029641,-0.039183
1.2349999999999568,-0.942687,0.029259,-0.038372
1.2374999999999543,-0.950155,0.029778,-0.038908
1.240000000000009,-0.953649,0.029526,-0.037907
1.2425000000000068,-0.959312,0.029711,-0.039038
1.2450000000000043,-0.961133,0.028308,-0.036962
1.2475000000000025,-0.969716,0.02689,-0.038306
1.25,-0.972267,0.033233,-0.034826
1.2524999999999975,-0.975572,0.02827,-0.037226
1.2549999999999957,-0.983152,0.025716,-0.034118
1.2574999999999932,-0.984776,0.027116,-0.036296
1.259999999999991,-0.987982,0.026251,-0.034501
1.2624999999999886,-0.98905,0.027672,-0.032309
1.2649999999999864,-0.995159,0.025605,-0.031985
1.267499999999984,-0.995633,0.02554,-0.028668
1.2699999999999818,-0.995741,0.022417,-0.032429
1.2724999999999795,-1.000221,0.022965,-0.031835
1.2749999999999773,-1.001606,0.024458,-0.024945
1.277499999999975,-1.004222,0.020669,-0.023624
1.2799999999999727,-1.005246,0.022388,-0.02548
1.2824999999999704,-1.0069,0.021067,-0.023696
1.2849999999999682,-1.006466,0.020427,-0.024773
1.287499999999966,-1.010102,0.019825,-0.024718
1.2899999999999636,-1.00976,0.019939,-0.021203
1.2924999999999611,-1.011771,0.020375,-0.025971
1.294999999999959,-1.013908,0.018776,-0.023226
1.2974999999999568,-1.013233,0.022555,-0.021045
1.2999999999999543,-1.014385,0.014784,-0.022987
1.302500000000009,-1.015175,0.01863,-0.023811
1.3050000000000068,-1.017887,0.018785,-0.021146
1.3075000000000043,-1.020265,0.016721,-0.021392
1.3100000000000025,-1.020244,0.019269,-0.020826
1.3125,-1.022663,0.014908,-0.023076
1.3149999999999975,-1.021897,0.017907,-0.020426
1.3174999999999957,-1.020217,0.013242,-0.017543
1.3199999999999932,-1.021053,0.017139,-0.01927
1.322499999999991,-1.024773,0.012531,-0.016199
1.3249999999999886,-1.02713,0.013284,-0.013974
1.3274999999999864,-1.022058,0.011758,-0.01322
1.329999999999984,-1.020976,0.009746,-0.008808
1.3324999999999818,-1.016543,0.008286,-0.005867
1.3349999999999795,-1.014015,0.00554,0.000485
1.3374999999999773,-1.007386,0.001911,0.007702
1.339999999999975,-1.007308,-0.002225,0.010764
1.3424999999999727,-1.001717,-0.005667,0.020327
1.3449999999999704,-0.992099,-0.005305,0.029513
1.3474999999999682,-0.982698,-0.01087,0.039465
1.349999999999966,-0.976462,-0.020193,0.050098
1.3524999999999636,-0.96519,-0.021887,0.062626
1.3549999999999611,-0.957863,-0.027488,0.070831
1.357499999999959,-0.950164,-0.036187,0.08976
1.3599999999999568,-0.937705,-0.048487,0.099439
1.3624999999999543,-0.925363,-0.05428,0.114805
1.365000000000009,-0.913896,-0.063531,0.128274
1.3675000000000068,-0.905358,-0.072226,0.144941
1.3700000000000043,-0.892392,-0.092098,0.153167
1.3725000000000025,-0.882918,-0.095226,0.167425
1.375,-0.874286,-0.110081,0.177384
1.3774999999999975,-0.862491,-0.12272,0.186592
1.3799999999999957,-0.850791,-0.136223,0.195124
1.3824999999999932,-0.841718,-0.155248,0.203668
1.384999999999991,-0.830312,-0.165045,0.213202
1.3874999999999886,-0.817229,-0.180292,0.215185
1.3899999999999864,-0.806923,-0.189912,0.22487
1.392499999999984,-0.797621,-0.202626,0.230851
1.3949999999999818,-0.783993,-0.208148,0.233678
1.3974999999999795,-0.769508,-0.216883,0.23909
1.3999999999999773,-0.756648,-0.218794,0.242043
1.402499999999975,-0.745502,-0.221166,0.241453
1.4049999999999727,-0.732707,-0.217241,0.238741
1.4074999999999704,-0.71895,-0.215291,0.236204
1.4099999999999682,-0.70508,-0.204909,0.230489
1.412499999999966,-0.686912,-0.198595,0.221508
1.4149999999999636,-0.672619,-0.192426,0.206997
1.4174999999999611,-0.660285,-0.17743,0.188211
1.419999999999959,-0.636876,-0.165154,0.168698
1.4224999999999568,-0.615321,-0.149871,0.147529
1.4249999999999543,-0.594615,-0.135219,0.121655
1.427500000000009,-0.574327,-0.117737,0.095543
1.4300000000000068,-0.552049,-0.10304,0.066379
1.4325000000000043,-0.53186,-0.085795,0.040594
1.4350000000000025,-0.514373,-0.06941,0.01884
1.4375,-0.494874,-0.053373,0.001333
1.4399999999999975,-0.474152,-0.033879,-0.011979
1.4424999999999957,-0.450411,-0.022686,-0.023271
1.4449999999999932,-0.42728,-0.009445,-0.032594
1.447499999999991,-0.405231,0.005622,-0.033402
1.4499999999999886,-0.384799,0.011905,-0.037919
1.4524999999999864,-0.364834,0.032324,-0.037569
1.454999999999984,-0.344086,0.038893,-0.036258
1.4574999999999818,-0.321671,0.042484,-0.03368
1.4599999999999795,-0.301607,0.046063,-0.031252
1.4624999999999773,-0.282332,0.045698,-0.026043
1.464999999999975,-0.267005,0.044654,-0.027101
1.4674999999999727,-0.249817,0.041346,-0.022358
1.4699999999999704,-0.232358,0.034361,-0.018454
1.4724999999999682,-0.217013,0.028627,-0.014427
1.474999999999966,-0.204518,0.023618,-0.013612
1.4774999999999636,-0.186828,0.014477,-0.011469
1.4799999999999611,-0.179029,0.007927,-0.007789
1.482499999999959,-0.167342,0.000175,-0.004837
1.4849999999999568,-0.155573,-0.006819,-0.003338
1.4874999999999543,-0.143475,-0.01061,0.002441
1.490000000000009,-0.13611,-0.010015,0.005458
1.4925000000000068,-0.125243,-0.010401,0.002215
1.4950000000000043,-0.116351,-0.010665,0.003997
1.4975000000000025,-0.110194,-0.014243,0.004766
1.5,-0.103188,-0.007661,0.0026
1.5024999999999975,-0.096877,-0.008716,0.003072
1.5049999999999957,-0.092047,-0.0056,-0.001563
1.5074999999999932,-0.092594,-0.001101,-0.002469
1.509999999999991,-0.087874,0.001165,-0.003228
1.5124999999999886,-0.083238,-0.000384,-0.004613
1.5149999999999864,-0.078133,0.00307,-0.006402
1.517499999999984,-0.077662,0.003635,-0.006574
1.5199999999999818,-0.078049,0.005979,-0.005656
1.5224999999999795,-0.07534,0.006433,-0.004673
1.5249999999999773,-0.072519,0.006709,-0.00505
1.527499999999975,-0.078754,0.0062,-0.00312
1.5299999999999727,-0.075553,0.002766,-0.007607
1.5324999999999704,-0.080995,-0.00173,-0.003743
1.5349999999999682,-0.083847,-0.000966,-2.3e-05
1.537499999999966,-0.086597,-0.000551,-0.003551
1.5399999999999636,-0.092345,-0.004937,-0.003295
1.5424999999999611,-0.094981,-0.001646,-0.000518
1.544999999999959,-0.104365,-0.00035,-0.003369
1.5474999999999568,-0.104406,-0.004947,-0.002727
1.5499999999999543,-0.108235,-0.005938,0.000932
1.552500000000009,-0.115202,-0.003414,-0.003685
1.5550000000000068,-0.120643,-0.002936,-0.001848
1.5575000000000043,-0.12608,-0.003535,-0.00512
1.5600000000000025,-0.135386,-0.003044,-0.005868
1.5625,-0.139564,-0.004439,-0.003421
1.5649999999999975,-0.146867,-0.003384,-0.005494
1.5674999999999957,-0.151421,-0.000577,-0.005795
1.5699999999999932,-0.155211,-0.002456,-0.004929
1.572499999999991,-0.161873,-0.004874,-0.003694
1.5749999999999886,-0.167388,0.0,-0.002441
1.5774999999999864,-0.172104,-0.003974,-0.005284
1.579999999999984,-0.177766,-0.003086,-0.00274
1.5824999999999818,-0.182891,-0.004405,-0.002518
1.5849999999999795,-0.187451,-0.005484,-0.003684
1.5874999999999773,-0.19182,-0.005196,-0.003546
1.589999999999975,-0.197096,-0.006393,0.000598
1.5924999999999727,-0.201099,-0.005428,0.000367
1.5949999999999704,-0.205953,-0.006363,-0.001666
1.5974999999999682,-0.21009,-0.005279,-0.000729
1.599999999999966,-0.214967,-0.006588,-0.002201
1.6024999999999636,-0.214221,-0.00852,-0.001125
1.6049999999999611,-0.221412,-0.004077,-0.002129
1.607499999999959,-0.218122,-0.005436,-0.003138
1.6099999999999568,-0.222419,-0.003555,-0.003393
1.6124999999999543,-0.221851,-0.004931,-0.002377
1.615000000000009,-0.222157,-0.005519,-0.003849
1.6175000000000068,-0.225899,-0.006515,-0.002064
1.6200000000000043,-0.225832,-0.001927,-0.005773
1.6225000000000025,-0.228627,-0.000894,-0.001265
1.625,-0.228736,-0.003888,-0.004765
1.6274999999999975,-0.231636,-0.002576,-0.003117
1.6299999999999957,-0.231677,-0.001679,-0.002836
1.6324999999999932,-0.233682,0.001077,-0.001748
1.634999999999991,-0.237745,0.003981,-0.003302
1.6374999999999886,-0.239317,0.004631,-0.003816
1.6399999999999864,-0.238852,0.003097,-0.002567
1.642499999999984,-0.241128,0.00621,-0.003199
1.6449999999999818,-0.245506,0.004529,-0.003739
1.6474999999999795,-0.247982,0.002281,-0.00274
1.6499999999999773,-0.25252,-0.001931,-0.00456
1.652499999999975,-0.254826,0.004381,-0.000903
1.6549999999999727,-0.257428,0.005149,-0.001831
1.6574999999999704,-0.261982,0.000959,-0.001457
1.6599999999999682,-0.269239,0.002379,-0.00248
1.662499999999966,-0.27331,0.005598,-1.8e-05
1.6649999999999636,-0.278369,-0.000428,0.001491
1.6674999999999611,-0.283846,0.002394,-0.000127
1.669999999999959,-0.285924,0.00096,-5.1e-05
1.6724999999999568,-0.29275,0.004909,-0.00027
1.6749999999999543,-0.298245,0.007275,0.001615
1.677500000000009,-0.30483,0.0032,0.002531
1.6800000000000068,-0.311384,-0.001742,0.00071
1.6825000000000043,-0.316592,-0.000168,0.003249
1.6850000000000025,-0.322089,-0.0003,0.002504
1.6875,-0.334604,0.000744,0.002468
1.6899999999999975,-0.337566,0.000852,0.002769
1.6924999999999957,-0.344802,0.003008,-0.0009
1.6949999999999932,-0.349312,-0.001892,0.002547
1.697499999999991,-0.361179,-0.000963,0.000916
1.6999999999999886,-0.362065,-0.002314,0.002312
1.7024999999999864,-0.371222,0.003695,0.003088
1.704999999999984,-0.37265,0.003273,0.001919
1.7074999999999818,-0.38006,-0.00107,0.00324
1.7099999999999795,-0.384282,0.000951,0.002889
1.7124999999999773,-0.391901,0.000481,0.001857
1.714999999999975,-0.399551,0.004984,0.003571
1.7174999999999727,-0.402536,0.003309,0.003041
1.7199999999999704,-0.407615,0.001603,0.005073
1.7224999999999682,-0.417192,0.000844,0.00357
1.724999999999966,-0.420335,0.001542,4.8e-05
1.7274999999999636,-0.425129,0.00065,0.004961
1.7299999999999611,-0.434244,0.001068,2.8e-05
1.732499999999959,-0.437531,0.001725,0.001644
1.7349999999999568,-0.443549,0.001527,0.000548
1.7374999999999543,-0.449894,0.002638,0.001381
1.740000000000009,-0.453366,0.004538,0.001927
1.7425000000000068,-0.461766,0.001427,0.000312
1.7450000000000043,-0.465773,0.004541,0.001932
1.7475000000000025,-0.472137,0.007749,0.001147
1.75,-0.48009,0.006809,0.00071
1.7524999999999975,-0.487745,0.004732,0.003255
1.7549999999999957,-0.49355,0.007258,-0.000532
1.7574999999999932,-0.498496,0.007499,0.001747
1.759999999999991,-0.507419,0.006161,0.004093
1.7624999999999886,-0.51129,0.006575,0.003318
1.7649999999999864,-0.521368,0.008222,0.004783
1.767499999999984,-0.527449,0.004681,0.005385
1.7699999999999818,-0.536676,0.009232,0.004611
1.7724999999999795,-0.546688,0.005504,-0.000247
1.7749999999999773,-0.554744,0.006709,0.001799
1.777499999999975,-0.559819,0.004297,0.001922
1.7799999999999727,-0.569731,0.00434,0.004109
1.7824999999999704,-0.576186,0.003732,0.006326
1.7849999999999682,-0.58649,0.006858,0.007319
1.787499999999966,-0.596684,0.007241,0.002333
1.7899999999999636,-0.604671,0.002389,0.004602
1.7924999999999611,-0.610128,0.004256,0.006527
1.794999999999959,-0.625511,0.003181,0.002382
1.7974999999999568,-0.633925,0.00065,0.002671
1.7999999999999543,-0.641105,0.002504,0.005024
1.802500000000009,-0.653738,0.00313,0.002577
1.8050000000000068,-0.661923,0.001576,0.001856
1.8075000000000043,-0.673094,-0.001608,0.005373
1.8100000000000025,-0.680924,0.000932,0.003075
1.8125,-0.694643,-0.000682,-0.001277
1.8149999999999975,-0.702647,0.006051,0.002328
1.8174999999999957,-0.711046,0.000647,0.00171
1.8199999999999927,-0.721266,0.003467,0.000345
1.822499999999991,-0.731987,-0.002035,-0.001985
1.8249999999999889,-0.74195,0.000974,0.002138
1.8274999999999864,-0.752953,-1.3e-05,0.002334
1.829999999999984,-0.762877,0.000294,0.000624
1.8324999999999816,-0.771836,0.003437,0.001083
1.8349999999999795,-0.783631,0.00072,0.002959
1.8374999999999773,-0.793433,0.000671,-0.001778
1.839999999999975,-0.803207,0.002996,0.001087
1.8424999999999727,-0.815232,0.003139,-0.002132
1.8449999999999704,-0.824684,0.000251,0.003961
1.847499999999968,-0.834219,0.004076,-0.000346
1.849999999999966,-0.846146,0.001892,-0.000304
1.852499999999964,-0.858744,0.001778,-0.001489
1.8549999999999611,-0.866564,0.001924,0.00058
1.857499999999959,-0.875499,0.00132,0.00014
1.8599999999999568,-0.886591,0.000971,-0.000693
1.8624999999999543,-0.89961,0.003652,-0.001317
1.865000000000009,-0.908444,0.004105,0.00043
1.8675000000000068,-0.918795,0.000492,0.001317
1.8700000000000043,-0.926873,-0.000778,4.2e-05
1.8725000000000025,-0.936607,0.003717,0.000162
1.875,-0.945077,0.004033,-0.001568
1.8774999999999975,-0.95558,0.005599,-0.000207
1.8799999999999957,-0.964077,0.001255,-0.000101
1.8824999999999927,-0.973516,0.002096,-0.000185
1.884999999999991,-0.980896,0.00447,-0.001237
1.8874999999999889,-0.990959,0.004905,-0.002529
1.8899999999999864,-0.998813,0.00831,-0.002362
1.892499999999984,-1.006086,0.002193,-0.000888
1.8949999999999816,-1.01461,0.004075,-0.003819
1.8974999999999795,-1.025147,0.010652,0.000472
1.8999999999999773,-1.032103,0.008416,-0.002071
1.902499999999975,-1.035616,0.008946,-0.003669
1.9049999999999727,-1.047777,0.007395,-0.002627
1.9074999999999704,-1.056542,0.008511,-0.002654
1.909999999999968,-1.064314,0.008381,-0.003164
1.912499999999966,-1.067958,0.008104,-0.00471
1.914999999999964,-1.076731,0.008685,0.001074
1.9174999999999611,-1.084862,0.011574,-0.002097
1.919999999999959,-1.092714,0.01371,-0.004013
1.9224999999999568,-1.09551,0.00701,-0.001863
1.9249999999999543,-1.106261,0.009317,-0.002691
1.927500000000009,-1.107839,0.009973,-0.006138
1.9300000000000068,-1.112286,0.009992,-0.002718
1.9325000000000043,-1.117835,0.011795,-0.006104
1.9350000000000025,-1.127895,0.006903,0.003079
1.9375,-1.1272,0.006758,-8.5e-05
1.9399999999999975,-1.134885,0.010718,1.9e-05
1.9424999999999957,-1.13941,0.011336,0.001412
1.9449999999999927,-1.142046,0.007472,0.002655
1.947499999999991,-1.146216,0.008684,0.004295
1.9499999999999889,-1.151598,0.00808,0.001068
1.9524999999999864,-1.152203,0.007936,0.003894
1.954999999999984,-1.155247,0.009962,0.003231
1.9574999999999816,-1.157953,0.008077,0.005532
1.9599999999999795,-1.156977,0.006316,0.005382
1.9624999999999773,-1.157594,0.007378,0.005528
1.964999999999975,-1.158619,0.006854,0.001559
1.9674999999999727,-1.158144,0.004407,0.00531
1.9699999999999704,-1.156883,0.00831,0.005015
1.972499999999968,-1.152832,0.008678,0.005116
1.974999999999966,-1.15114,0.009128,0.007846
1.977499999999964,-1.151936,0.008611,0.002741
1.9799999999999611,-1.148886,0.007065,0.006672
1.982499999999959,-1.145193,0.00738,0.005638
1.9849999999999568,-1.142687,0.010269,0.006508
1.9874999999999543,-1.136861,0.014661,0.003993
1.990000000000009,-1.129826,0.011692,0.004449
1.9925000000000068,-1.128178,0.007766,0.006298
1.9950000000000043,-1.122019,0.005109,0.004417
1.9975000000000025,-1.115996,0.003364,0.004517
2.0,-1.106245,0.010917,0.004204
2.0024999999999977,-1.097523,0.001874,0.002774
2.0049999999999955,-1.090652,-0.000954,0.001355
2.007499999999993,-1.084491,0.001395,-0.00122
2.009999999999991,-1.075265,0.000729,0.002555
2.0124999999999886,-1.066047,0.00815,-0.000624
2.0149999999999864,-1.056812,0.003412,0.004567
2.017499999999984,-1.050791,0.003418,0.002512
2.019999999999982,-1.038736,-8.5e-05,-0.00053
2.0224999999999795,-1.027573,0.002126,0.002076
2.0249999999999773,-1.017104,0.006311,0.003228
2.027499999999975,-1.014468,0.006866,0.003523
2.0299999999999727,-1.000321,0.003432,0.002732
2.0324999999999704,-0.988232,0.005459,0.003196
2.034999999999968,-0.981315,0.008874,0.002971
2.037499999999966,-0.970656,0.007734,0.003079
2.039999999999964,-0.961334,0.007976,0.008696
2.0424999999999613,-0.951609,0.007536,0.003683
2.044999999999959,-0.93796,0.008177,0.002519
2.047499999999957,-0.93104,0.009627,-0.000705
2.0499999999999545,-0.922789,0.006244,9.3e-05
2.052500000000009,-0.913775,0.003944,0.000135
2.055000000000007,-0.903236,0.007705,0.000653
2.0575000000000045,-0.889301,0.009572,0.002947
2.0600000000000023,-0.88189,0.006432,-0.000851
2.0625,-0.874682,0.008257,0.000478
2.0649999999999977,-0.863131,0.007997,-0.001751
2.0674999999999955,-0.857626,0.004249,-0.00672
2.069999999999993,-0.847171,0.002395,0.000723
2.072499999999991,-0.84109,0.003821,-0.00111
2.0749999999999886,-0.829034,0.010452,-0.002499
2.0774999999999864,-0.821734,0.013145,-0.0038
2.079999999999984,-0.81272,0.004091,-0.002113
2.082499999999982,-0.801653,0.005575,-0.001171
2.0849999999999795,-0.79706,0.005611,-0.001836
2.0874999999999773,-0.785281,0.005957,-0.001523
2.089999999999975,-0.781274,0.0049,-0.001436
2.0924999999999727,-0.773417,0.002002,-0.004761
2.0949999999999704,-0.764984,0.002005,-0.004366
2.097499999999968,-0.755561,0.007124,-0.002089
2.099999999999966,-0.74945,0.006127,-0.004196
2.102499999999964,-0.740522,0.00388,-0.000508
2.1049999999999613,-0.73134,0.007371,-0.003445
2.107499999999959,-0.72598,0.007718,-0.000878
2.109999999999957,-0.718619,0.007807,-0.001846
2.1124999999999545,-0.708811,0.006094,-0.003269
2.115000000000009,-0.702988,0.006533,-0.000925
2.117500000000007,-0.695801,0.00883,-0.003746
2.1200000000000045,-0.690502,0.008916,-0.003082
2.1225000000000023,-0.684914,0.007624,-0.003356
2.125,-0.681184,0.006036,-0.00238
2.1274999999999977,-0.672045,0.007562,-0.002995
2.1299999999999955,-0.664498,0.008386,-0.002097
2.132499999999993,-0.660032,0.006438,-0.00207
2.134999999999991,-0.651509,0.00557,0.003131
2.1374999999999886,-0.644574,0.000819,-0.003348
2.1399999999999864,-0.641722,0.004951,-0.00035
2.142499999999984,-0.632973,0.005571,-0.000182
2.144999999999982,-0.628176,0.005417,-0.003396
2.1474999999999795,-0.623709,0.00522,-0.00297
2.1499999999999773,-0.614724,0.006814,-0.001712
2.152499999999975,-0.610128,0.007001,-0.000584
2.1549999999999727,-0.603437,0.008511,0.002692
2.1574999999999704,-0.599799,0.005183,0.002008
2.159999999999968,-0.59655,0.012887,0.002804
2.162499999999966,-0.59209,0.004815,0.001866
2.164999999999964,-0.588858,0.003625,-0.000606
2.1674999999999613,-0.585972,0.004465,-0.001112
2.169999999999959,-0.580697,0.006409,0.00156
2.172499999999957,-0.574537,0.007416,-0.000615
2.1749999999999545,-0.573556,0.005373,-0.000732
2.177500000000009,-0.573966,0.007538,0.000779
2.180000000000007,-0.565293,0.004938,0.0003
2.1825000000000045,-0.56749,0.010405,-0.003262
2.1850000000000023,-0.564742,0.003832,0.000421
2.1875,-0.563717,0.009011,0.000281
2.1899999999999977,-0.560722,0.002667,0.000576
2.1924999999999955,-0.558591,0.004495,-0.001267
2.194999999999993,-0.555895,0.009247,-0.001647
2.197499999999991,-0.556542,0.003374,0.00155
2.1999999999999886,-0.555342,0.006486,0.001433
2.2024999999999864,-0.557076,0.005723,0.000853
2.204999999999984,-0.561786,0.006266,-0.000809
2.207499999999982,-0.555621,0.005793,-0.001341
2.2099999999999795,-0.554492,0.008284,0.00072
2.2124999999999773,-0.556977,0.003655,0.000276
2.214999999999975,-0.559834,0.004661,0.001684
2.2174999999999727,-0.55982,0.007816,0.002399
2.2199999999999704,-0.561586,0.006356,-0.000742
2.222499999999968,-0.563432,0.004954,0.00219
2.224999999999966,-0.562844,0.005846,0.002144
2.227499999999964,-0.560211,0.004796,0.002328
2.2299999999999613,-0.563148,0.008254,-0.000869
2.232499999999959,-0.570391,0.007226,0.001078
2.234999999999957,-0.573935,0.009074,-0.000641
2.2374999999999545,-0.569476,0.006393,0.000233
2.240000000000009,-0.576063,0.004708,0.003947
2.242500000000007,-0.573599,0.005174,0.001217
2.2450000000000045,-0.576401,0.008484,-0.000112
2.2475000000000023,-0.581665,0.004918,0.001144
2.25,-0.586516,0.001387,0.002991
2.2524999999999977,-0.587905,0.004818,0.001148
2.2549999999999955,-0.589082,0.004152,-0.000507
2.257499999999993,-0.591926,0.002763,0.001132
2.259999999999991,-0.596891,0.004614,0.001144
2.2624999999999886,-0.600809,0.006068,0.004875
2.2649999999999864,-0.602919,0.002284,0.003762
2.267499999999984,-0.604643,0.00143,0.002838
2.269999999999982,-0.605789,0.003267,0.001913
2.2724999999999795,-0.611357,0.005201,0.002018
2.2749999999999773,-0.617734,0.005111,0.00011
2.277499999999975,-0.613213,0.007857,0.002977
2.2799999999999727,-0.620833,0.007018,0.003562
2.2824999999999704,-0.619209,0.0039,0.001801
2.284999999999968,-0.62059,0.005149,0.002164
2.287499999999966,-0.62238,0.007928,0.000831
2.289999999999964,-0.625508,0.007521,-0.000747
2.2924999999999613,-0.629827,0.005447,0.003646
2.294999999999959,-0.627732,0.005976,0.002437
2.297499999999957,-0.630431,0.008305,0.001621
2.2999999999999545,-0.630245,0.007496,0.000521
2.302500000000009,-0.638117,0.008338,-0.000657
2.305000000000007,-0.6355,0.002069,0.002512
2.3075000000000045,-0.635629,0.005151,-0.001208
2.3100000000000023,-0.639975,0.008187,0.004483
2.3125,-0.639622,0.005405,7.4e-05
2.3149999999999977,-0.641517,0.003723,-0.002164
2.3174999999999955,-0.646141,0.00681,-0.001341
2.319999999999993,-0.641179,0.006781,0.000855
2.322499999999991,-0.646134,0.005392,-0.00166
2.3249999999999886,-0.650309,0.00473,-0.002109
2.3274999999999864,-0.648826,0.001816,-0.001241
2.329999999999984,-0.649159,0.002383,-0.001031
2.332499999999982,-0.652935,0.008755,-0.003792
2.3349999999999795,-0.652491,0.00328,-0.001284
2.3374999999999773,-0.652877,0.006929,-0.002552
2.339999999999975,-0.654097,0.002887,0.000653
2.3424999999999727,-0.655447,0.006089,-0.003445
2.3449999999999704,-0.656313,0.006699,-0.003441
2.347499999999968,-0.657158,0.001428,-0.004616
2.349999999999966,-0.65688,0.000657,-0.003957
2.352499999999964,-0.659511,0.005315,-0.005375
2.3549999999999613,-0.661501,0.00265,-0.004905
2.357499999999959,-0.665422,0.010876,-0.005618
2.359999999999957,-0.663263,0.001826,-0.007123
2.3624999999999545,-0.659932,0.00245,-0.006028
2.365000000000009,-0.663439,0.006051,-0.007927
2.367500000000007,-0.662121,0.00423,-0.008772
2.3700000000000045,-0.662665,0.005058,-0.007309
2.3725000000000023,-0.662205,0.004751,-0.005598
2.375,-0.663582,0.00272,-0.005677
2.3774999999999977,-0.66295,0.002437,-0.006714
2.3799999999999955,-0.664032,0.004151,-0.011915
2.382499999999993,-0.662619,0.002984,-0.009406
2.384999999999991,-0.661115,-0.000112,-0.012431
2.3874999999999886,-0.662191,0.002394,-0.013693
2.3899999999999864,-0.661355,0.00457,-0.014077
2.392499999999984,-0.656588,0.004397,-0.007968
2.394999999999982,-0.659393,0.007317,-0.009593
2.3974999999999795,-0.659561,0.005793,-0.007051
2.3999999999999773,-0.65752,0.005152,-0.012112
2.402499999999975,-0.658205,0.005312,-0.009935
2.4049999999999727,-0.657883,0.002759,-0.01251
2.4074999999999704,-0.656864,0.010108,-0.009057
2.409999999999968,-0.654645,0.006218,-0.009988
2.412499999999966,-0.654283,0.009381,-0.007139
2.414999999999964,-0.646967,0.008053,-0.006415
2.4174999999999613,-0.650682,0.003941,-0.006548
2.419999999999959,-0.646941,0.008073,-0.008973
2.422499999999957,-0.645399,0.006597,-0.006658
2.4249999999999545,-0.641346,0.00296,-0.006317
2.427500000000009,-0.642674,0.003246,-0.003162
2.430000000000007,-0.643762,0.006614,-0.00879
2.4325000000000045,-0.644185,0.006444,-0.010148
2.4350000000000023,-0.642885,0.006037,-0.010331
2.4375,-0.643094,0.005133,-0.00852
2.4399999999999977,-0.63591,0.004999,-0.005963
2.4424999999999955,-0.637852,0.001165,-0.005704
2.444999999999993,-0.632835,0.00343,-0.005175
2.447499999999991,-0.636485,0.007372,-0.006784
2.4499999999999886,-0.632012,0.006198,-0.005601
2.4524999999999864,-0.629193,0.005304,-0.004335
2.454999999999984,-0.630377,0.006323,-0.003569
2.457499999999982,-0.628999,0.00721,-0.006305
2.4599999999999795,-0.627652,0.00918,-0.004554
2.4624999999999773,-0.629306,0.008527,-0.001961
2.464999999999975,-0.624727,0.006022,-0.004174
2.4674999999999727,-0.627715,0.006091,-0.001401
2.4699999999999704,-0.625022,0.005121,-0.002132
2.472499999999968,-0.6256,0.004666,-0.002559
2.474999999999966,-0.62881,0.002862,0.00136
2.477499999999964,-0.627184,0.008374,-0.000352
2.4799999999999613,-0.625001,0.010049,0.001436
2.482499999999959,-0.623132,0.004498,-0.001819
2.484999999999957,-0.627412,0.0032,0.004392
2.4874999999999545,-0.624572,0.006125,-0.000359
2.490000000000009,-0.627734,0.005081,-0.000475
2.492500000000007,-0.624038,0.003367,0.000348
2.4950000000000045,-0.624356,0.004255,0.002848
2.4975000000000023,-0.623222,0.005736,-0.000444
2.5,-0.624217,0.003918,-0.000533
2.5024999999999977,-0.624181,0.001486,-0.002056
2.5049999999999955,-0.628375,0.003674,0.000303
2.507499999999993,-0.624669,0.003421,-0.001238
2.509999999999991,-0.626478,0.006605,0.000609
2.5124999999999886,-0.628892,0.0048,0.000524
2.5149999999999864,-0.630386,0.004988,0.003114
2.517499999999984,-0.628926,0.004338,-0.002854
2.519999999999982,-0.634281,0.007666,-4.8e-05
2.5224999999999795,-0.633186,0.003601,0.00288
2.5249999999999773,-0.638928,0.007074,-0.001031
2.527499999999975,-0.635521,0.004171,-0.002936
2.5299999999999727,-0.637429,0.010532,-0.001094
2.5324999999999704,-0.63955,0.006468,-0.00148
2.534999999999968,-0.641306,0.009062,-0.001122
2.537499999999966,-0.64159,0.007727,0.000607
2.539999999999964,-0.644148,0.005732,-0.002548
2.5424999999999613,-0.645655,0.012652,-0.002797
2.544999999999959,-0.647235,0.009004,-0.000392
2.547499999999957,-0.647001,0.004823,-0.002018
2.5499999999999545,-0.646439,0.007822,-0.004652
2.552500000000009,-0.651164,0.00627,-0.003175
2.555000000000007,-0.649177,0.009858,-0.002664
2.5575000000000045,-0.647749,0.008021,-0.004753
2.5600000000000023,-0.649647,0.009663,-0.00435
2.5625,-0.652528,0.009399,-0.002439
2.5649999999999977,-0.655052,0.009003,-0.000848
2.5674999999999955,-0.65418,0.01029,-0.002581
2.569999999999993,-0.655073,0.010889,-0.002845
2.572499999999991,-0.657925,0.010615,-0.001557
2.5749999999999886,-0.660047,0.008663,4.7e-05
2.5774999999999864,-0.661269,0.007135,-0.004132
2.579999999999984,-0.664871,0.007043,-5.7e-05
2.582499999999982,-0.665367,0.011639,-0.000836
2.5849999999999795,-0.666431,0.011869,-0.000198
2.5874999999999773,-0.664684,0.006227,-0.004549
2.589999999999975,-0.66957,0.007281,-0.001539
2.5924999999999727,-0.668056,0.00492,-0.000799
2.5949999999999704,-0.669427,0.005339,0.001307
2.597499999999968,-0.669251,0.006845,-0.005551
2.599999999999966,-0.673038,0.008719,0.000808
2.602499999999964,-0.673275,0.005717,0.000737
2.6049999999999613,-0.672011,0.010385,0.000498
2.607499999999959,-0.676438,0.008335,0.001755
2.609999999999957,-0.673479,0.005677,0.001559
2.6124999999999545,-0.669994,0.009174,-0.002113
2.615000000000009,-0.676671,0.006749,0.000795
2.617500000000007,-0.676,0.006055,0.002254
2.6200000000000045,-0.676502,0.005921,0.000297
2.6225000000000023,-0.677239,0.006399,-0.000209
2.625,-0.676561,0.009515,0.002932
2.6274999999999977,-0.675336,0.009071,0.002112
2.6299999999999955,-0.676963,0.006628,0.002714
2.632499999999993,-0.677459,0.006252,0.003163
2.634999999999991,-0.682871,0.005157,1.4e-05
2.6374999999999886,-0.67865,0.007942,0.001705
2.6399999999999864,-0.680901,0.004079,-7e-05
2.642499999999984,-0.680608,0.009061,0.000314
2.644999999999982,-0.681955,0.006985,0.000442
2.6474999999999795,-0.683622,0.007128,0.00241
2.6499999999999773,-0.68325,0.014421,0.003339
2.652499999999975,-0.685106,0.009234,0.00366
2.6549999999999727,-0.684886,0.011382,0.0031
2.6574999999999704,-0.684257,0.013123,0.006436
2.659999999999968,-0.683554,0.011567,0.005407
2.662499999999966,-0.682709,0.013418,0.00639
2.664999999999964,-0.680402,0.016408,0.004794
2.6674999999999613,-0.680339,0.011448,0.001726
2.669999999999959,-0.683186,0.014745,0.002549
2.672499999999957,-0.682266,0.012191,0.003628
2.6749999999999545,-0.680639,0.015372,-0.000373
2.677500000000009,-0.67883,0.010955,-0.00138
2.680000000000007,-0.680837,0.013549,0.000644
2.6825000000000045,-0.678127,0.010947,0.000583
2.6850000000000023,-0.674403,0.00703,0.001939
2.6875,-0.670563,0.007624,0.002656
2.6899999999999977,-0.673214,0.008231,-0.001512
2.6924999999999955,-0.671257,0.012407,0.003476
2.694999999999993,-0.669612,0.010165,0.001063
2.697499999999991,-0.662778,0.012492,0.001899
2.6999999999999886,-0.66264,0.00772,0.004999
2.7024999999999864,-0.665529,0.008009,0.003087
2.704999999999984,-0.657246,0.01074,0.004908
2.707499999999982,-0.657448,0.012597,0.003047
2.7099999999999795,-0.660038,0.011378,0.003075
2.7124999999999773,-0.652766,0.011895,0.003272
2.714999999999975,-0.653036,0.012866,0.003584
2.7174999999999727,-0.651679,0.010673,0.001919
2.7199999999999704,-0.650112,0.009567,0.000574
2.722499999999968,-0.648211,0.010343,0.002694
2.724999999999966,-0.645538,0.012257,0.001895
2.727499999999964,-0.64597,0.008408,0.000378
2.7299999999999613,-0.642879,0.01105,0.002476
2.732499999999959,-0.643754,0.007849,0.002543
2.734999999999957,-0.640287,0.008566,0.000549
2.7374999999999545,-0.639185,0.012342,0.000644
2.740000000000009,-0.640936,0.006805,0.001412
2.742500000000007,-0.632757,0.008162,0.002863
2.7450000000000045,-0.633287,0.006986,0.003474
2.7475000000000023,-0.63531,0.008673,0.003145
2.75,-0.629041,0.007225,0.003653
2.7524999999999977,-0.629982,0.012193,0.00452
2.7549999999999955,-0.629741,0.011072,0.003824
2.757499999999993,-0.625961,0.006307,0.003055
2.759999999999991,-0.62393,0.011996,0.003148
2.7624999999999886,-0.61906,0.007676,0.000987
2.7649999999999864,-0.618701,0.006958,0.000476
2.767499999999984,-0.620383,0.009052,0.001235
2.769999999999982,-0.615147,0.006612,0.000744
2.7724999999999795,-0.615381,0.007655,0.003537
2.7749999999999773,-0.612877,0.00589,0.000713
2.777499999999975,-0.610244,0.008213,0.001202
2.7799999999999727,-0.61134,0.0087,0.000783
2.7824999999999704,-0.60765,0.004693,0.000522
2.784999999999968,-0.606318,0.010475,0.001708
2.787499999999966,-0.603457,0.009451,0.002757
2.789999999999964,-0.60143,0.008113,0.001837
2.7924999999999613,-0.601089,0.007001,-0.000769
2.794999999999959,-0.595035,0.006572,0.000282
2.797499999999957,-0.595561,0.009058,-0.001667
2.7999999999999545,-0.59794,0.00842,0.001375
2.802500000000009,-0.592749,0.00926,0.002756
2.805000000000007,-0.592727,0.00947,-0.000647
2.8075000000000045,-0.589109,0.006024,0.000709
2.8100000000000023,-0.585043,0.012156,0.002075
2.8125,-0.585879,0.012828,-0.003953
2.8149999999999977,-0.582881,0.007609,-0.000766
2.8174999999999955,-0.583421,0.011977,0.002149
2.819999999999993,-0.580736,0.006963,0.002778
2.822499999999991,-0.575216,0.011852,-0.000113
2.8249999999999886,-0.57582,0.010436,0.00153
2.8274999999999864,-0.575031,0.010418,-0.001204
2.829999999999984,-0.576995,0.011406,0.002203
2.832499999999982,-0.572713,0.011218,0.002535
2.8349999999999795,-0.570607,0.009149,0.005259
2.8374999999999773,-0.568025,0.010792,-0.000302
2.839999999999975,-0.565626,0.006867,0.006976
2.8424999999999727,-0.562856,0.007569,0.002044
2.8449999999999704,-0.561622,0.007696,1.3e-05
2.847499999999968,-0.560005,0.008243,0.002936
2.849999999999966,-0.555848,0.007377,0.004166
2.852499999999964,-0.557973,0.006495,0.003964
2.8549999999999613,-0.55635,0.004863,0.003149
2.857499999999959,-0.552508,0.006767,-0.000453
2.859999999999957,-0.552413,0.007812,-0.000131
2.8624999999999545,-0.548104,0.008192,-8.3e-05
2.865000000000009,-0.550579,0.007316,-0.000797
2.867500000000007,-0.546177,0.007302,-0.001498
2.8700000000000045,-0.544147,0.009045,-0.000207
2.8725000000000023,-0.539741,0.008763,0.001485
2.875,-0.538352,0.010584,-0.002261
2.8774999999999977,-0.538285,0.005635,-0.00113
2.8799999999999955,-0.538868,0.007512,-0.000641
2.882499999999993,-0.533904,0.007888,-0.000523
2.884999999999991,-0.525482,0.007085,-0.000179
2.8874999999999886,-0.529273,0.006569,0.001792
2.8899999999999864,-0.524206,0.008904,0.005088
2.892499999999984,-0.522579,0.005434,-0.000966
2.894999999999982,-0.518487,0.010303,-0.001948
2.8974999999999795,-0.516099,0.012764,0.000503
2.8999999999999773,-0.514348,0.009329,-0.001216
2.902499999999975,-0.512539,0.009551,-0.002153
2.9049999999999727,-0.504985,0.007453,0.000156
2.9074999999999704,-0.504373,0.007118,-0.00045
2.909999999999968,-0.496721,0.003377,-0.00086
2.912499999999966,-0.49843,0.005925,-0.001584
2.914999999999964,-0.493117,0.003935,-0.001059
2.9174999999999613,-0.489502,0.007122,-0.002509
2.919999999999959,-0.487198,0.009226,-0.001791
2.922499999999957,-0.480527,0.006943,-0.001191
2.9249999999999545,-0.483207,0.010449,-0.000975
2.927500000000009,-0.477807,0.006784,-0.002405
2.930000000000007,-0.478347,0.00708,-0.002281
2.9325000000000045,-0.472403,0.003505,-0.00625
2.9350000000000023,-0.47219,0.001355,-0.001776
2.9375,-0.467999,0.005295,0.002147
2.9399999999999977,-0.462565,0.005957,-0.000824
2.9424999999999955,-0.463671,0.002975,-0.001973
2.944999999999993,-0.464231,0.005105,0.000219
2.947499999999991,-0.458592,0.002349,-0.002263
2.9499999999999886,-0.457595,-0.001141,-0.0003
2.9524999999999864,-0.458452,0.003283,0.000864
2.954999999999984,-0.449827,0.003158,-0.000218
2.957499999999982,-0.445262,-0.000438,-0.000228
2.9599999999999795,-0.4354,-0.005938,-0.001106
2.9624999999999773,-0.420888,-0.004107,-0.005217
2.964999999999975,-0.400859,-0.01,-0.011103
2.9674999999999727,-0.367637,-0.012633,-0.014627
2.9699999999999704,-0.332207,-0.012888,-0.01854
2.972499999999968,-0.277789,-0.015365,-0.025529
2.974999999999966,-0.228815,-0.02111,-0.033759
2.977499999999964,-0.172108,-0.0163,-0.038755
2.9799999999999613,-0.126325,-0.015163,-0.042158
2.982499999999959,-0.078745,-0.01131,-0.040299
2.984999999999957,-0.042284,-0.009242,-0.041138
2.9874999999999545,-0.009435,-0.00753,-0.039409
2.990000000000009,0.014579,-0.003619,-0.036459
2.992500000000007,0.035421,-0.001216,-0.027452
2.9950000000000045,0.058293,0.000448,-0.013596
2.9975000000000023,0.080534,0.001382,-0.004183
3.0,0.100652,0.004788,0.006036
3.0024999999999977,0.111907,0.003266,0.010445
3.0049999999999955,0.12121,0.005714,0.01832
3.007499999999993,0.122792,0.005411,0.01562
3.009999999999991,0.121714,0.000122,0.019465
3.0124999999999886,0.116781,0.002656,0.020071
3.0149999999999864,0.121451,0.002868,0.019901
3.017499999999984,0.118741,-0.00048,0.021669
3.019999999999982,0.113072,-0.001258,0.017036
3.0224999999999795,0.10679,-0.002514,0.021244
3.0249999999999773,0.093775,-0.004984,0.019801
3.027499999999975,0.085337,-0.004075,0.020472
3.0299999999999727,0.073648,-0.003842,0.019601
3.0324999999999704,0.05917,-0.004546,0.017779
3.034999999999968,0.048799,-0.002204,0.019511
3.037499999999966,0.031964,-0.005379,0.01596
3.039999999999964,0.012822,-0.005515,0.016453
3.0424999999999613,0.008837,-0.003065,0.019141
3.044999999999959,-0.006595,-0.005154,0.01284
3.047499999999957,-0.01746,-0.002579,0.007866
3.0499999999999545,-0.025539,-0.003423,0.007412
3.052500000000009,-0.039266,-0.003873,0.003282
3.055000000000007,-0.044219,-0.000834,-1.9e-05
3.0575000000000045,-0.050212,-0.001734,-0.002304
3.0600000000000023,-0.0588,-0.001799,-0.007996
3.0625,-0.062914,-0.000997,-0.005209
3.0649999999999977,-0.064562,-4e-06,-0.010896
3.0674999999999955,-0.066879,0.000165,-0.00519
3.069999999999993,-0.068378,0.005121,-0.008208
3.072499999999991,-0.065635,0.003461,-0.007148
3.0749999999999886,-0.062151,0.000348,-0.007185
3.0774999999999864,-0.060163,-0.000292,-0.006402
3.079999999999984,-0.05374,0.001545,-0.009036
3.082499999999982,-0.043048,-0.001152,-0.009392
3.0849999999999795,-0.036176,-0.00256,-0.006467
3.0874999999999773,-0.029065,-0.002325,-0.007801
3.089999999999975,-0.021927,-0.003564,-0.007333
3.0924999999999727,-0.017291,-0.003952,-0.00435
3.0949999999999704,-0.012062,-0.00421,-0.000314
3.097499999999968,-0.005841,-0.003499,-0.001584
3.099999999999966,-0.000542,-0.003116,0.001559
3.102499999999964,0.005131,0.001525,0.001571
3.1049999999999613,0.007124,0.000826,0.002777
3.107499999999959,0.00759,8.4e-05,0.001364
3.109999999999957,0.00898,-0.004254,0.00404
3.1124999999999545,0.005346,-0.003757,0.005526
3.115000000000009,0.00375,-0.001235,-0.000285
3.117500000000007,0.004549,-0.005098,-0.001246
3.1200000000000045,0.000902,-0.005692,-0.000948
3.1225000000000023,-0.007759,-0.000484,-0.000106
3.125,-0.008631,-0.003101,-0.001025
3.1274999999999977,-0.012806,-0.002842,-0.000697
3.1299999999999955,-0.016811,-0.004466,0.000998
3.132499999999993,-0.015193,-0.006185,-0.000761
3.134999999999991,-0.017501,-0.002895,0.000565
3.1374999999999886,-0.020449,0.003301,-0.000465
3.1399999999999864,-0.024001,-0.001046,0.000737
3.142499999999984,-0.02448,-0.001149,0.000542
3.144999999999982,-0.03394,-0.00131,-0.001308
3.1474999999999795,-0.032569,-0.00346,0.003161
3.1499999999999773,-0.031388,-0.003719,0.002129
3.152499999999975,-0.031132,0.000889,0.001215
3.1549999999999727,-0.031924,-0.00253,0.000992
3.1574999999999704,-0.030428,-0.003701,-0.001357
3.159999999999968,-0.031948,-0.003694,0.000665
3.162499999999966,-0.031778,-0.004615,0.003203
3.164999999999964,-0.027782,-0.001617,0.002195
3.1674999999999613,-0.025754,0.00269,0.000309
3.169999999999959,-0.02408,0.002988,0.000415
3.172499999999957,-0.026111,0.005024,0.004942
3.1749999999999545,-0.023487,0.001757,0.000305
3.177500000000009,-0.023045,0.001235,-0.003709
3.180000000000007,-0.021194,0.001233,-0.002044
3.1825000000000045,-0.023995,0.000725,-0.000869
3.1850000000000023,-0.020331,0.002956,0.001373
3.1875,-0.017947,0.002166,-0.000505
3.1899999999999977,-0.012775,0.004952,-0.002642
3.1924999999999955,-0.010608,0.00316,0.003215
3.194999999999993,-0.011653,0.000736,-0.002715
3.197499999999991,-0.007269,0.002331,-0.000353
3.1999999999999886,-0.011055,-0.001366,0.00158
3.2024999999999864,-0.012854,-0.003077,-0.00048
3.204999999999984,-0.011538,-0.00197,-0.003916
3.207499999999982,-0.008164,0.001218,-0.000168
3.2099999999999795,-0.011633,-0.00236,-0.000189
3.2124999999999773,-0.012255,-0.003162,0.001861
3.214999999999975,-0.011699,-0.001371,0.002339
3.2174999999999727,-0.012797,-0.000314,-1e-05
3.2199999999999704,-0.011171,-0.000407,-0.000781
3.222499999999968,-0.010978,-0.00113,-0.002451
3.224999999999966,-0.01232,-0.001407,0.001138
3.227499999999964,-0.010093,0.000355,0.000232
3.2299999999999613,-0.011434,-5.4e-05,0.000679
3.232499999999959,-0.010999,-0.004187,0.001491
3.234999999999957,-0.01276,0.001516,0.002464
3.2374999999999545,-0.008756,-0.001477,-0.000641
3.240000000000009,-0.008719,-0.002649,-0.000384
3.242500000000007,-0.008398,-0.002638,-0.000922
3.2450000000000045,-0.011325,0.002288,-0.001995
3.2475000000000023,-0.011238,0.000328,0.000323
3.25,-0.011319,0.003151,0.001616
3.2524999999999977,-0.010879,-0.004676,0.003562
3.2549999999999955,-0.008273,7.1e-05,-0.002202
3.257499999999993,-0.008325,0.001117,-0.001325
3.259999999999991,-0.009283,-0.006077,0.000375
3.2624999999999886,-0.009857,-0.002423,0.000893
3.2649999999999864,-0.008753,0.001546,-0.002952
3.267499999999984,-0.008208,2.9e-05,-0.0016
3.269999999999982,-0.007646,0.000559,-0.001851
3.2724999999999795,-0.00907,0.001081,0.000482
3.2749999999999773,-0.010227,0.000995,-0.000957
3.277499999999975,-0.009228,0.002915,-1.9e-05
3.2799999999999727,-0.005269,-0.000158,-0.00167
3.2824999999999704,-0.009528,-0.002004,0.001807
3.284999999999968,-0.006555,0.001394,0.000703
3.287499999999966,-0.006621,3.5e-05,-0.00062
3.289999999999964,-0.008665,0.001416,-0.001143
3.2924999999999613,-0.003813,0.000394,-0.000948
3.294999999999959,-0.000602,0.000965,-0.004667
3.297499999999957,-0.005803,-0.003336,-0.001776
3.2999999999999545,-0.003377,0.001158,0.001377
3.302500000000009,-0.001532,0.003884,0.00341
3.305000000000007,-0.001359,0.000656,-0.003369
3.3075000000000045,-0.002952,-0.000185,-0.001366
3.3100000000000023,-0.004742,-0.000103,-0.000669
3.3125,-0.003742,-0.000528,0.001164
3.3149999999999977,-0.002632,-0.001,-0.000726
3.3174999999999955,-0.0021,0.002357,0.003361
3.319999999999993,-0.002016,-0.001995,0.001595
3.322499999999991,-0.00311,0.002477,0.001007
3.3249999999999886,-0.006105,0.002087,-0.00208
3.3274999999999864,-0.002673,0.002658,-0.002454
3.329999999999984,-0.004043,-0.000855,0.001419
3.332499999999982,-0.001033,0.003969,-0.000334
3.3349999999999795,-0.006537,-0.000532,0.000522
3.3374999999999773,-0.003076,-0.002228,0.000354
3.339999999999975,-0.004146,0.001981,-0.001498
3.3424999999999727,-0.003874,-0.002132,-0.00179
3.3449999999999704,-0.000505,-0.00034,0.000537
3.347499999999968,-0.003892,0.001829,0.001695
3.349999999999966,0.000686,0.00018,-0.000136
3.352499999999964,0.0011,0.002477,0.000752
3.3549999999999613,0.002149,-0.002626,-0.001614
3.357499999999959,-0.001517,-0.00087,0.00077
3.359999999999957,0.00106,0.001165,-0.000791
3.3624999999999545,-0.001168,0.002136,-0.000596
3.365000000000009,-0.001036,0.002184,0.000436
3.367500000000007,-0.003861,0.006627,0.001813
3.3700000000000045,-0.00315,0.000338,-0.00117
3.3725000000000023,-0.000159,0.001528,-0.001137
3.375,0.000464,-0.002196,0.002696
3.3774999999999977,0.001451,0.00198,-0.000338
3.3799999999999955,0.000127,-0.002468,-0.001422
3.382499999999993,-0.00235,0.000223,0.00105
3.384999999999991,-0.005934,-0.000162,0.003927
3.3874999999999886,-0.004205,0.001185,0.001342
3.3899999999999864,-0.00228,-2.2e-05,0.001796
3.392499999999984,-0.000389,-7.6e-05,0.004966
3.394999999999982,-0.001769,-4.2e-05,4e-06
3.3974999999999795,-0.002915,-0.000888,0.002984
3.3999999999999773,-0.000383,0.001422,-0.000371
3.402499999999975,0.001112,0.001863,-0.000298
3.4049999999999727,-0.001231,0.003239,-0.002992
3.4074999999999704,0.002359,-0.001591,0.000335
3.409999999999968,-0.000374,-0.000226,-0.000553
3.412499999999966,1e-05,0.00174,0.001261
3.414999999999964,0.001221,-0.000191,-0.000687
3.4174999999999613,0.002388,-0.001749,0.002294
3.419999999999959,-0.001562,0.003948,0.001896
3.422499999999957,-0.00646,0.001219,0.002663
3.4249999999999545,-0.001691,-0.003737,-0.001948
3.427500000000009,0.000712,0.000577,0.001069
3.430000000000007,-0.001076,-0.00155,0.002743
3.4325000000000045,-0.00101,0.000662,-0.000104
3.4350000000000023,-0.000638,0.000872,0.001315
3.4375,-0.002013,-0.000241,0.000973
3.4399999999999977,-0.000966,0.000127,0.000247
3.4424999999999955,0.001278,0.002608,0.00203
3.444999999999993,-0.000706,-0.001004,0.002669
3.447499999999991,-0.002907,0.000643,0.003236
3.4499999999999886,-0.002687,-0.001077,0.002057
3.4524999999999864,-0.00048,0.001756,0.00099
3.454999999999984,-0.002791,0.003123,-0.0021
3.457499999999982,-0.002049,-0.000653,0.003352
3.4599999999999795,-0.000261,-0.001298,0.002726
3.4624999999999773,-0.004965,0.001039,-0.00104
3.464999999999975,-0.001496,0.001729,-0.000444
3.4674999999999727,-0.002603,0.002462,0.004452
3.4699999999999704,-0.002646,-0.001423,0.001215
3.472499999999968,-0.003633,-0.000405,0.002535
3.474999999999966,-0.003915,0.000597,0.001811
3.477499999999964,-0.001796,0.00139,-0.001021
3.4799999999999613,0.000887,0.002853,0.002395
3.482499999999959,0.002425,0.002924,0.002836
3.484999999999957,-0.002292,-0.002179,0.001623
3.4874999999999545,-0.001311,-0.001757,0.000725
3.490000000000009,-0.000377,0.001168,0.001404
3.492500000000007,-0.00025,-0.000286,-7.5e-05
3.4950000000000045,0.000738,0.000823,-0.000662
3.4975000000000023,-0.00139,-0.001377,-0.000972
3.5,0.000992,0.001732,5e-06
3.5024999999999977,-0.001429,0.003753,0.000786
3.5049999999999955,-0.000396,-0.000863,3.7e-05
3.507499999999993,-0.003646,-0.000331,0.001466
3.509999999999991,3.8e-05,0.001954,-0.00055
3.5124999999999886,-0.002307,0.00153,0.000107
3.5149999999999864,0.000165,0.002991,0.000567
3.517499999999984,-0.001183,0.004058,0.001333
3.519999999999982,-0.001469,-0.002356,-0.000316
3.5224999999999795,-0.003959,-0.001861,-0.001529
3.5249999999999773,-0.000814,-0.00031,0.000928
3.527499999999975,0.00192,-0.000998,-0.001805
3.5299999999999727,-0.003518,0.002148,-0.002584
3.5324999999999704,0.00061,-0.00052,-0.002253
3.534999999999968,-0.001496,0.001929,1.7e-05
3.537499999999966,-0.00138,0.001404,0.000504
3.539999999999964,-0.004524,0.00195,-0.001809
3.5424999999999613,-0.000136,-0.003001,-0.002319
3.544999999999959,0.00188,0.002589,0.002729
3.547499999999957,0.002565,0.00122,-0.00096
3.5499999999999545,0.001282,0.002023,0.001214
3.552500000000009,9e-05,0.000494,0.001257
3.555000000000007,0.00063,1.4e-05,0.001181
3.5575000000000045,-0.001183,0.000121,0.001093
3.5600000000000023,-0.001527,0.001772,-0.000992
3.5625,-0.000875,-0.000601,7.5e-05
3.5649999999999977,-0.001591,0.000619,-0.001056
3.5674999999999955,0.000716,2.5e-05,-0.002328
3.569999999999993,0.001042,0.003695,0.002069
3.572499999999991,-0.000143,0.00179,0.003522
3.5749999999999886,-0.001252,-0.002643,0.000104
3.5774999999999864,0.000521,-0.000843,0.000104
3.579999999999984,-0.001271,0.001848,-2.2e-05
3.582499999999982,-0.000341,-0.001715,0.001148
3.5849999999999795,-0.002645,-0.005034,-6e-06
3.5874999999999773,0.002186,0.000738,0.000744
3.589999999999975,-0.001703,0.001568,-0.000522
3.5924999999999727,-0.00253,-0.002532,-0.001089
3.5949999999999704,0.00179,0.000565,-0.00075
3.597499999999968,0.000208,-0.000834,-0.000234
3.599999999999966,-0.00488,0.001887,0.000425
3.602499999999964,6.6e-05,0.003355,0.002178
3.604999999999961,0.000515,-0.002071,-0.00295
3.607499999999959,0.002008,0.002094,0.001853
3.609999999999957,0.001777,-0.001566,8.6e-05
3.6124999999999545,-0.001121,0.002868,0.002863
3.615000000000009,-0.000292,-0.000209,-0.001311
3.617500000000007,-0.002263,0.003441,0.001276
3.620000000000005,0.0004,-0.003161,0.001126
3.6225000000000014,0.000975,0.000929,0.003497
3.625,-0.000179,-0.001246,0.000908
3.6274999999999977,-0.004633,0.002245,0.000966
3.629999999999996,0.000445,0.001978,0.00022
3.632499999999993,-0.001904,0.001735,0.000229
3.634999999999991,-0.001013,-0.001258,0.000673
3.6374999999999886,-0.003652,0.00305,-0.001644
3.6399999999999855,0.003441,0.002688,-0.001976
3.642499999999984,-0.00129,-0.002266,0.000816
3.644999999999982,-0.001208,0.002911,0.001089
3.64749999999998,-0.003487,-0.002797,-0.002213
3.649999999999977,0.001604,0.003388,-0.000302
3.652499999999975,-0.0028,0.001007,0.002996
3.6549999999999727,-0.000493,-0.002216,0.00397
3.6574999999999696,-0.000425,0.002081,-0.000243
3.659999999999968,-0.002111,0.00217,0.000281
3.662499999999966,-0.000745,-0.00152,0.001427
3.664999999999964,0.000717,-4.3e-05,-4.2e-05
3.667499999999961,-0.000758,0.000913,-0.000998
3.669999999999959,0.00101,0.002164,0.003428
3.672499999999957,0.000266,0.003505,-0.001518
3.6749999999999545,0.000317,0.002655,0.001276
3.677500000000009,-0.002787,0.003286,-0.000905
3.680000000000007,0.000667,0.001029,-0.001524
3.682500000000005,-0.001125,-0.002877,-0.002602
3.6850000000000014,-0.001313,-0.00024,0.00117
3.6875,0.000604,0.000136,0.00098
3.6899999999999977,-0.000371,0.002242,-0.00076
3.692499999999996,-0.0002,0.001296,-0.001386
