time,Gyr_X,Gyr_Y,Gyr_Z
0.0,-0.000545,-0.001149,0.002619
0.0024999999999977,-8.6e-05,0.001139,-0.001429
0.0049999999999954,0.002506,0.004221,-0.001004
0.0074999999999931,-0.000377,0.001986,0.002433
0.0099999999999909,-7e-06,8.1e-05,0.00178
0.012500000000017,-0.001,0.002555,0.000318
0.0150000000000147,0.000761,-0.000569,-0.001037
0.0175000000000125,-0.000319,0.001108,0.002807
0.0200000000000102,0.000281,0.002287,0.001072
0.0225000000000079,0.004145,0.001491,-0.002082
0.0250000000000056,0.001978,0.00177,-0.000656
0.0275000000000034,0.004052,0.001595,0.001887
0.0300000000000011,0.004717,0.001327,0.001473
0.0324999999999988,0.002446,-0.003456,0.002565
0.0349999999999965,0.008497,-0.002007,0.000332
0.0374999999999943,0.000473,-0.000423,0.001227
0.039999999999992,0.00653,0.000399,0.002209
0.0424999999999897,0.005934,0.006486,0.000115
0.0450000000000159,0.003556,0.003072,0.001837
0.0475000000000136,0.002734,-0.001922,-0.002961
0.0500000000000113,0.005246,-0.001493,0.001838
0.052500000000009,0.00577,-0.002854,0.00213
0.0550000000000068,0.005221,0.002287,0.000659
0.0575000000000045,0.004084,0.001844,-0.00025
0.0600000000000022,0.005961,-0.000921,0.002559
0.0625,0.00326,-0.000218,0.000524
0.0649999999999977,0.002868,0.002062,0.001775
0.0674999999999954,0.004055,0.001108,-0.000694
0.0699999999999931,0.004429,-0.00041,0.000384
0.0724999999999909,0.007012,0.000633,-0.000601
0.075000000000017,0.007998,0.000455,0.003574
0.0775000000000147,0.006803,-0.000921,0.000115
0.0800000000000125,0.006553,-0.000691,0.003501
0.0825000000000102,0.00762,-0.002649,0.005231
0.0850000000000079,0.008503,0.002802,0.000996
0.0875000000000056,0.011037,-0.002266,-0.001571
0.0900000000000034,0.01161,-0.004596,0.004239
0.0925000000000011,0.012169,-0.001037,0.000144
0.0949999999999988,0.011057,0.000358,0.000384
0.0974999999999965,0.012123,0.001157,0.001023
0.0999999999999943,0.010196,0.00433,0.000819
0.102499999999992,0.011291,0.000346,0.000637
0.1049999999999897,0.009518,0.001317,0.003087
0.1075000000000159,0.011315,-0.004619,0.001328
0.1100000000000136,0.008354,-0.004426,0.003687
0.1125000000000113,0.009925,0.002452,9.3e-05
0.1150000000000091,0.012476,0.00217,0.002746
0.1175000000000068,0.015145,-0.001965,0.000822
0.1200000000000045,0.010554,0.001828,0.004607
0.1225000000000022,0.008535,0.000443,0.001969
0.125,0.011041,0.005517,0.005849
0.1274999999999977,0.010664,0.001613,0.00328
0.1299999999999954,0.009627,-0.003871,0.002963
0.1324999999999931,0.011706,0.000628,0.003915
0.1349999999999909,0.010694,-0.001293,0.003342
0.137500000000017,0.0124,0.000217,0.00248
0.1400000000000147,0.011253,0.002278,0.002193
0.1425000000000125,0.01285,0.000425,-0.002705
0.1450000000000102,0.008874,-0.004375,-0.001521
0.1475000000000079,0.013342,0.001184,0.001352
0.1500000000000056,0.011823,0.004088,0.001133
0.1525000000000034,0.011282,0.002075,-0.001092
0.1550000000000011,0.003072,0.000138,0.001036
0.1574999999999988,0.005076,3.4e-05,0.002105
0.1599999999999966,0.006378,0.000332,0.000622
0.1624999999999943,0.004812,-0.001074,0.002215
0.164999999999992,-0.00156,0.001767,0.001191
0.1674999999999897,-0.00196,-0.002138,0.00191
0.1700000000000159,-0.003934,0.00071,-0.000411
0.1725000000000136,-0.004201,0.001117,0.001285
0.1750000000000113,-0.010097,0.001707,0.001749
0.1775000000000091,-0.010018,0.000923,0.00229
0.1800000000000068,-0.012991,-0.001296,0.001854
0.1825000000000045,-0.015695,0.004084,-0.000356
0.1850000000000022,-0.017554,0.002141,-0.001273
0.1875,-0.015225,-0.000598,0.000247
0.1899999999999977,-0.019939,0.002079,-0.002213
0.1924999999999954,-0.017309,0.000443,0.000233
0.1949999999999931,-0.020495,-0.003569,-0.00148
0.1974999999999909,-0.020336,-0.002237,-0.000608
0.200000000000017,-0.020956,0.001497,0.000428
0.2025000000000147,-0.022367,-0.00122,-0.00176
0.2050000000000125,-0.02031,-0.003436,0.000886
0.2075000000000102,-0.01924,-0.002407,-0.000875
0.2100000000000079,-0.017229,0.00213,-0.002505
0.2125000000000056,-0.019246,-0.000826,-0.002423
0.2150000000000034,-0.016721,-0.002208,-0.00153
0.2175000000000011,-0.015958,-0.000916,0.000832
0.2199999999999988,-0.012234,-0.004844,2.5e-05
0.2224999999999966,-0.0127,0.002455,0.001124
0.2249999999999943,-0.012882,0.001246,-0.000937
0.227499999999992,-0.011705,-0.001666,0.001242
0.2299999999999897,-0.009492,-0.00325,0.001938
0.2325000000000159,-0.00713,-0.001414,0.001795
0.2350000000000136,-0.004584,-0.00183,0.002211
0.2375000000000113,-0.002407,-0.000848,0.004395
0.2400000000000091,-0.000556,0.004178,0.004501
0.2425000000000068,-0.001216,8.6e-05,0.002373
0.2450000000000045,0.001419,0.006316,-0.002342
0.2475000000000022,-3.4e-05,0.003564,0.004549
0.25,0.002702,0.001272,0.003905
0.2524999999999977,0.001159,0.001685,0.003534
0.2549999999999954,0.008053,0.002951,0.003471
0.2574999999999932,0.006441,-0.000766,0.002301
0.2599999999999909,0.006083,-0.002009,0.003108
0.262500000000017,0.010597,-0.000784,0.003985
0.2650000000000148,0.007416,-0.002076,0.002613
0.2675000000000125,0.011475,-0.00108,0.004566
0.2700000000000102,0.012041,0.001746,0.002902
0.2725000000000079,0.011081,0.002267,0.003625
0.2750000000000057,0.013224,0.000364,0.003285
0.2775000000000034,0.014343,-0.000222,0.004645
0.2800000000000011,0.017279,0.002179,0.004037
0.2824999999999988,0.019702,-0.001119,0.003708
0.2849999999999966,0.021013,0.005785,0.006946
0.2874999999999943,0.016489,0.007544,0.008037
0.289999999999992,0.011099,0.002121,0.009342
0.2924999999999897,0.009479,-0.000663,0.005024
0.2950000000000159,0.002075,-0.003488,0.003087
0.2975000000000136,0.004621,-0.002144,0.005309
0.3000000000000113,0.001121,-0.001302,0.002823
0.3025000000000091,0.001887,0.003422,0.004629
0.3050000000000068,-0.000484,0.006884,0.001807
0.3075000000000045,-0.000602,0.004198,0.002738
0.3100000000000023,-0.003523,0.001692,0.001902
0.3125,-0.002968,0.000324,-0.000285
0.3149999999999977,-0.004077,0.001728,0.002886
0.3174999999999954,-0.007884,-0.002392,0.00164
0.3199999999999932,-0.006376,0.000758,-0.000922
0.3224999999999909,-0.009529,0.003049,-0.002097
0.325000000000017,-0.006919,-0.000323,-0.001308
0.3275000000000148,-0.0126,-0.001208,-0.003701
0.3300000000000125,-0.014652,-0.003812,-0.004658
0.3325000000000102,-0.015765,-0.00398,-0.004199
0.3350000000000079,-0.01615,-8.5e-05,-0.00494
0.3375000000000057,-0.019968,-0.001003,-0.007369
0.3400000000000034,-0.021215,0.002814,-0.004603
0.3425000000000011,-0.022063,0.004181,-0.00058
0.3449999999999988,-0.027551,0.002878,-0.000528
0.3474999999999966,-0.027268,0.00042,0.001867
0.3499999999999943,-0.030005,0.002302,0.003038
0.352499999999992,-0.031926,0.00105,0.004765
0.3549999999999897,-0.030778,0.002664,0.003017
0.3575000000000159,-0.031526,0.004197,0.007582
0.3600000000000136,-0.034082,0.002871,0.005701
0.3625000000000113,-0.03368,0.006649,0.005692
0.3650000000000091,-0.038095,0.004464,0.006167
0.3675000000000068,-0.037609,0.00049,0.005514
0.3700000000000045,-0.036721,-0.00136,0.002164
0.3725000000000023,-0.038531,0.003447,0.003175
0.375,-0.038283,0.001801,0.002142
0.3774999999999977,-0.038818,0.001242,0.008317
0.3799999999999954,-0.03587,0.005204,0.00445
0.3824999999999932,-0.037053,0.006216,0.003409
0.3849999999999909,-0.034769,0.007173,0.004344
0.387500000000017,-0.036265,0.001503,0.003805
0.3900000000000148,-0.037543,0.004712,0.005824
0.3925000000000125,-0.036758,0.003997,0.006474
0.3950000000000102,-0.035474,0.00231,0.007538
0.3975000000000079,-0.034092,0.001194,0.008189
0.4000000000000057,-0.032504,-0.000286,0.004282
0.4025000000000034,-0.030762,0.000291,0.005905
0.4050000000000011,-0.02871,-0.00141,0.005593
0.4074999999999988,-0.028849,-0.001977,0.003355
0.4099999999999966,-0.024515,0.004189,0.002892
0.4124999999999943,-0.022055,-0.002694,-0.000837
0.414999999999992,-0.019471,-0.002292,2.3e-05
0.4174999999999897,-0.013591,-0.000551,0.000746
0.4200000000000159,-0.012389,-0.002043,-0.005297
0.4225000000000136,-0.006942,-0.004339,-0.00314
0.4250000000000113,-0.004061,-0.00366,-0.002597
0.4275000000000091,0.002623,-0.004487,-0.000612
0.4300000000000068,0.008553,-0.001551,-0.001897
0.4325000000000045,0.014,-0.00176,-0.002567
0.4350000000000023,0.021877,0.002787,-0.00028
0.4375,0.026611,0.001512,0.002148
0.4399999999999977,0.031,0.001258,0.00309
0.4424999999999954,0.039176,-0.002636,0.004192
0.4449999999999932,0.041045,-0.001521,0.004435
0.4474999999999909,0.049699,-6e-06,0.00684
0.450000000000017,0.056421,0.001238,0.005551
0.4525000000000148,0.062902,0.000124,0.004681
0.4550000000000125,0.065149,0.004097,0.00677
0.4575000000000102,0.073452,0.001723,0.006095
0.4600000000000079,0.076621,0.003316,0.006995
0.4625000000000057,0.07808,-0.001168,0.006124
0.4650000000000034,0.080811,-1.3e-05,0.004552
0.4675000000000011,0.082377,0.001883,0.005501
0.4699999999999988,0.083969,0.0015,0.006791
0.4724999999999966,0.08634,0.004862,0.006338
0.4749999999999943,0.087478,0.002899,0.0098
0.477499999999992,0.085295,0.003082,0.007314
0.4799999999999897,0.084416,-0.001329,0.008821
0.4825000000000159,0.083763,0.00462,0.008713
0.4850000000000136,0.084082,-0.000496,0.006466
0.4875000000000113,0.081045,-0.000761,0.005857
0.4900000000000091,0.078622,-0.002559,0.009692
0.4925000000000068,0.073508,0.000296,0.011686
0.4950000000000045,0.072763,0.000865,0.011135
0.4975000000000023,0.068065,0.001504,0.008669
0.5,0.06694,-0.001028,0.011761
0.5024999999999977,0.062624,-0.000803,0.009654
0.5049999999999955,0.057142,-0.001706,0.010542
0.5074999999999932,0.055154,-0.001092,0.009203
0.5099999999999909,0.049948,0.001713,0.011653
0.512500000000017,0.052992,-0.002024,0.011127
0.5150000000000148,0.046954,-0.00013,0.014574
0.5175000000000125,0.046366,0.001275,0.016045
0.5200000000000102,0.044815,-0.001025,0.012691
0.522500000000008,0.039691,-0.000238,0.014286
0.5250000000000057,0.039963,0.001808,0.014646
0.5275000000000034,0.03631,0.005151,0.013318
0.5300000000000011,0.033923,0.003021,0.015972
0.5324999999999989,0.031947,0.004771,0.01648
0.5349999999999966,0.03195,0.001887,0.013954
0.5374999999999943,0.029256,0.002433,0.017624
0.539999999999992,0.029065,0.001579,0.014003
0.5424999999999898,0.025476,0.004066,0.011628
0.5450000000000159,0.024156,0.003751,0.014291
0.5475000000000136,0.022138,0.00091,0.008214
0.5500000000000114,0.021029,0.002094,0.011455
0.5525000000000091,0.017992,0.003804,0.007718
0.5550000000000068,0.017034,0.003072,0.007529
0.5575000000000045,0.020497,0.004891,0.009709
0.5600000000000023,0.014458,0.002163,0.009821
0.5625,0.018689,-0.000754,0.008672
0.5649999999999977,0.016315,0.003291,0.013015
0.5674999999999955,0.016501,0.002564,0.011887
0.5699999999999932,0.015131,-0.000912,0.011414
0.5724999999999909,0.015371,0.0006,0.01385
0.575000000000017,0.016987,0.001863,0.01188
0.5775000000000148,0.016811,-0.000261,0.013279
0.5800000000000125,0.01364,0.000101,0.014523
0.5825000000000102,0.018349,0.000166,0.011735
0.585000000000008,0.01527,0.001258,0.008399
0.5875000000000057,0.020481,0.002044,0.012585
0.5900000000000034,0.016957,0.006584,0.011202
0.5925000000000011,0.015462,0.001397,0.014844
0.5949999999999989,0.018098,0.001786,0.015446
0.5974999999999966,0.019117,0.002702,0.013632
0.5999999999999943,0.021834,0.000971,0.015878
0.602499999999992,0.0214,0.001896,0.017548
0.6049999999999898,0.020178,0.003415,0.022889
0.6075000000000159,0.024723,0.005572,0.018472
0.6100000000000136,0.021183,0.002066,0.018766
0.6125000000000114,0.024647,-0.00103,0.020986
0.6150000000000091,0.023211,0.002225,0.022127
0.6175000000000068,0.023647,0.001604,0.020599
0.6200000000000045,0.022391,0.002215,0.023904
0.6225000000000023,0.031687,0.001032,0.026687
0.625,0.027866,-0.000593,0.028826
0.6274999999999977,0.031894,0.000357,0.028809
0.6299999999999955,0.032098,0.004943,0.029508
0.6324999999999932,0.035185,0.004437,0.026803
0.6349999999999909,0.038501,0.004984,0.026684
0.637500000000017,0.038744,0.003963,0.02891
0.6400000000000148,0.043009,0.010051,0.030473
0.6425000000000125,0.043475,0.0124,0.030316
0.6450000000000102,0.047461,0.009682,0.032764
0.647500000000008,0.048544,0.012552,0.033439
0.6500000000000057,0.052506,0.012894,0.032908
0.6525000000000034,0.055169,0.010178,0.033633
0.6550000000000011,0.053894,0.017313,0.040049
0.6574999999999989,0.057931,0.017705,0.041733
0.6599999999999966,0.058112,0.016517,0.041022
0.6624999999999943,0.063839,0.019079,0.043339
0.664999999999992,0.063831,0.024512,0.043268
0.6674999999999898,0.066463,0.026082,0.04619
0.6700000000000159,0.069176,0.027881,0.052305
0.6725000000000136,0.070903,0.028145,0.050629
0.6750000000000114,0.073181,0.027514,0.051537
0.6775000000000091,0.070944,0.030646,0.059156
0.6800000000000068,0.070891,0.034949,0.058603
0.6825000000000045,0.069281,0.034667,0.059672
0.6850000000000023,0.068053,0.033877,0.059984
0.6875,0.06946,0.036146,0.066508
0.6899999999999977,0.071426,0.037695,0.063113
0.6924999999999955,0.071936,0.039295,0.06944
0.6949999999999932,0.066825,0.039653,0.070093
0.6974999999999909,0.064839,0.038335,0.071923
0.700000000000017,0.065497,0.042994,0.080662
0.7025000000000148,0.065393,0.044455,0.083428
0.7050000000000125,0.062261,0.041332,0.085273
0.7075000000000102,0.060356,0.045765,0.089443
0.710000000000008,0.05623,0.044396,0.093038
0.7125000000000057,0.054691,0.046582,0.099003
0.7150000000000034,0.053339,0.038349,0.101619
0.7175000000000011,0.045412,0.038178,0.111175
0.7199999999999989,0.044549,0.04022,0.111477
0.7224999999999966,0.044249,0.03742,0.117692
0.7249999999999943,0.037885,0.035007,0.126267
0.727499999999992,0.032208,0.035035,0.131226
0.7299999999999898,0.030162,0.03467,0.138762
0.7325000000000159,0.020706,0.027709,0.14325
0.7350000000000136,0.021409,0.024796,0.147606
0.7375000000000114,0.01296,0.024895,0.156961
0.7400000000000091,0.006735,0.020798,0.164303
0.7425000000000068,0.004955,0.020936,0.17201
0.7450000000000045,-0.003146,0.02333,0.177512
0.7475000000000023,-0.007798,0.013962,0.18341
0.75,-0.010435,0.014284,0.193109
0.7524999999999977,-0.020598,0.010965,0.196636
0.7549999999999955,-0.022568,0.006089,0.206686
0.7574999999999932,-0.029163,0.007143,0.212397
0.7599999999999909,-0.040886,0.008085,0.221992
0.762500000000017,-0.040194,0.002161,0.223889
0.7650000000000148,-0.046894,0.000402,0.233545
0.7675000000000125,-0.053376,0.001062,0.23809
0.7700000000000102,-0.063258,-0.000948,0.247207
0.772500000000008,-0.061324,-0.005549,0.253996
0.7750000000000057,-0.067218,-0.003707,0.260537
0.7775000000000034,-0.074217,-0.00439,0.26603
0.7800000000000011,-0.075682,-0.004283,0.272598
0.7824999999999989,-0.079772,-0.0085,0.280022
0.7849999999999966,-0.088558,-0.000967,0.286397
0.7874999999999943,-0.086333,-0.0008,0.289387
0.789999999999992,-0.090764,-0.003457,0.293935
0.7924999999999898,-0.090905,-0.001192,0.297513
0.7950000000000159,-0.095266,0.002968,0.302199
0.7975000000000136,-0.096518,0.004029,0.310376
0.8000000000000114,-0.098142,0.008585,0.316908
0.8025000000000091,-0.099108,0.008728,0.318712
0.8050000000000068,-0.099306,0.011962,0.324824
0.8075000000000045,-0.098936,0.017908,0.332384
0.8100000000000023,-0.10045,0.018766,0.338609
0.8125,-0.100923,0.023299,0.339315
0.8149999999999977,-0.096294,0.030788,0.347213
0.8174999999999955,-0.101854,0.036726,0.350324
0.8199999999999932,-0.099316,0.039246,0.35413
0.8224999999999909,-0.098778,0.039906,0.356939
0.825000000000017,-0.091341,0.043813,0.359341
0.8275000000000148,-0.095852,0.052876,0.36984
0.8300000000000125,-0.092466,0.055143,0.372649
0.8325000000000102,-0.091256,0.058692,0.376192
0.835000000000008,-0.089242,0.059512,0.377014
0.8375000000000057,-0.0871,0.066704,0.380711
0.8400000000000034,-0.083444,0.074383,0.388093
0.8425000000000011,-0.082996,0.077904,0.387924
0.8449999999999989,-0.074969,0.08254,0.391809
0.8474999999999966,-0.077069,0.08681,0.396501
0.8499999999999943,-0.075026,0.097,0.402827
0.852499999999992,-0.073376,0.100794,0.403317
0.8549999999999898,-0.063398,0.104835,0.407768
0.8575000000000159,-0.064999,0.112177,0.411794
0.8600000000000136,-0.058796,0.111844,0.418068
0.8625000000000114,-0.058341,0.116137,0.420786
0.8650000000000091,-0.048974,0.118708,0.424971
0.8675000000000068,-0.05046,0.128996,0.429294
0.8700000000000045,-0.046276,0.132257,0.432248
0.8725000000000023,-0.04441,0.136653,0.435128
0.875,-0.040492,0.14227,0.439516
0.8774999999999977,-0.037187,0.144684,0.440738
0.8799999999999955,-0.030044,0.152736,0.444198
0.8824999999999932,-0.024904,0.159704,0.445852
0.8849999999999909,-0.021039,0.159282,0.449903
0.887500000000017,-0.019325,0.163772,0.450211
0.8900000000000148,-0.016615,0.166831,0.451369
0.8925000000000125,-0.012451,0.177712,0.454398
0.8950000000000102,-0.009145,0.1734,0.457007
0.897500000000008,-0.003508,0.179026,0.456005
0.9000000000000057,-0.001106,0.182662,0.462762
0.9025000000000034,-0.003508,0.184264,0.466759
0.9050000000000012,0.004541,0.183118,0.463969
0.9074999999999988,0.008055,0.182412,0.466295
0.9099999999999966,0.00604,0.188429,0.469419
0.9124999999999944,0.009563,0.188039,0.471249
0.914999999999992,0.010028,0.186894,0.472155
0.9174999999999898,0.010578,0.192773,0.47508
0.920000000000016,0.007264,0.187088,0.47505
0.9225000000000136,0.010987,0.183379,0.476673
0.9250000000000114,0.008606,0.18153,0.472804
0.9275000000000092,0.008652,0.182947,0.477549
0.9300000000000068,0.008108,0.182218,0.476501
0.9325000000000044,0.009827,0.181819,0.479846
0.9350000000000024,0.002656,0.180226,0.478473
0.9375,0.002877,0.176743,0.479368
0.9399999999999976,0.001045,0.176103,0.482569
0.9424999999999956,-0.004776,0.172681,0.484956
0.9449999999999932,-0.005837,0.175204,0.484993
0.9474999999999908,-0.008853,0.169594,0.488245
0.950000000000017,-0.012492,0.163712,0.484362
0.9525000000000148,-0.01701,0.155049,0.490379
0.9550000000000124,-0.01795,0.157217,0.492551
0.9575000000000102,-0.021335,0.151651,0.490897
0.960000000000008,-0.027198,0.150149,0.490724
0.9625000000000056,-0.028999,0.145254,0.492991
0.9650000000000034,-0.036308,0.139058,0.49829
0.9675000000000012,-0.039126,0.137065,0.498854
0.9699999999999988,-0.047024,0.131425,0.499533
0.9724999999999966,-0.050309,0.124616,0.501771
0.9749999999999944,-0.054173,0.118739,0.504651
0.977499999999992,-0.062546,0.110584,0.508679
0.9799999999999898,-0.067468,0.105492,0.513207
0.982500000000016,-0.077158,0.098915,0.516
0.9850000000000136,-0.080335,0.094969,0.519114
0.9875000000000114,-0.090526,0.085384,0.525834
0.9900000000000092,-0.09831,0.082891,0.529745
0.9925000000000068,-0.10725,0.077578,0.530958
0.9950000000000044,-0.114469,0.072131,0.536854
0.9975000000000024,-0.122871,0.064547,0.542074
1.0,-0.128767,0.061885,0.548638
1.0024999999999975,-0.134699,0.052205,0.550871
1.0049999999999957,-0.140624,0.044846,0.558222
1.0074999999999932,-0.146048,0.042631,0.56272
1.009999999999991,-0.149727,0.038641,0.567589
1.012500000000017,-0.152986,0.034752,0.572702
1.0150000000000148,-0.155926,0.033868,0.577184
1.0175000000000125,-0.166035,0.029118,0.581312
1.0200000000000102,-0.167041,0.031581,0.582241
1.022500000000008,-0.166945,0.026093,0.584591
1.0250000000000057,-0.170979,0.030876,0.585511
1.0275000000000034,-0.169936,0.026623,0.590343
1.0300000000000011,-0.170256,0.029408,0.590964
1.0324999999999989,-0.170997,0.026261,0.595652
1.0349999999999966,-0.167479,0.03162,0.596672
1.0374999999999943,-0.170842,0.032333,0.597205
1.039999999999992,-0.170562,0.034926,0.598618
1.0424999999999898,-0.169483,0.039051,0.597914
1.045000000000016,-0.167839,0.038768,0.596256
1.0475000000000136,-0.166982,0.044597,0.599023
1.0500000000000114,-0.167853,0.047554,0.599888
1.052500000000009,-0.159083,0.047725,0.600607
1.0550000000000068,-0.161747,0.050841,0.602412
1.0575000000000043,-0.162782,0.052514,0.601611
1.0600000000000025,-0.160733,0.053106,0.60285
1.0625,-0.154954,0.060868,0.601002
1.0649999999999975,-0.153837,0.06404,0.604037
1.0674999999999957,-0.148909,0.062161,0.603948
1.0699999999999932,-0.149851,0.065542,0.604544
1.072499999999991,-0.146182,0.071511,0.605147
1.075000000000017,-0.14016,0.066499,0.607845
1.0775000000000148,-0.138529,0.068621,0.607119
1.0800000000000125,-0.132492,0.073222,0.608171
1.0825000000000102,-0.12861,0.078682,0.609084
1.085000000000008,-0.12918,0.077689,0.607564
1.0875000000000057,-0.12677,0.076302,0.609057
1.0900000000000034,-0.121811,0.082003,0.610379
1.0925000000000011,-0.122552,0.082484,0.608586
1.0949999999999989,-0.120693,0.082229,0.609163
1.0974999999999966,-0.120084,0.083468,0.60866
1.0999999999999943,-0.115553,0.083966,0.606033
1.102499999999992,-0.115554,0.08587,0.604963
1.1049999999999898,-0.111952,0.083982,0.605034
1.107500000000016,-0.117105,0.088973,0.604057
1.1100000000000136,-0.11716,0.086483,0.601003
1.1125000000000114,-0.114524,0.08752,0.602324
1.115000000000009,-0.117654,0.085746,0.599016
1.1175000000000068,-0.117077,0.085264,0.599797
1.1200000000000043,-0.116922,0.082634,0.59944
1.1225000000000025,-0.117369,0.082546,0.5984
1.125,-0.120106,0.079494,0.599187
1.1274999999999975,-0.116123,0.081693,0.601786
1.1299999999999957,-0.119826,0.082984,0.602227
1.1324999999999932,-0.120144,0.079291,0.60069
1.134999999999991,-0.120881,0.078788,0.602145
1.137500000000017,-0.122263,0.077377,0.598272
1.1400000000000148,-0.119554,0.078072,0.599799
1.1425000000000125,-0.121625,0.081068,0.60241
1.1450000000000102,-0.124259,0.074386,0.59714
1.147500000000008,-0.121388,0.07677,0.599793
1.1500000000000057,-0.123516,0.077578,0.600489
1.1525000000000034,-0.124741,0.07638,0.598601
1.1550000000000011,-0.124465,0.075118,0.599705
1.1574999999999989,-0.126669,0.074748,0.599384
1.1599999999999966,-0.131297,0.071049,0.597853
1.1624999999999943,-0.127141,0.073069,0.600959
1.164999999999992,-0.125575,0.074232,0.599635
1.1674999999999898,-0.128435,0.07373,0.603571
1.170000000000016,-0.127709,0.072921,0.598315
1.1725000000000136,-0.126275,0.072881,0.601431
1.1750000000000114,-0.126764,0.072163,0.603774
1.177500000000009,-0.126773,0.071544,0.60368
1.1800000000000068,-0.128818,0.07248,0.602084
1.1825000000000043,-0.129746,0.072082,0.602876
1.1850000000000025,-0.12935,0.071009,0.604712
1.1875,-0.128384,0.07283,0.60867
1.1899999999999975,-0.12387,0.072865,0.609
1.1924999999999957,-0.126104,0.071979,0.607715
1.1949999999999932,-0.126506,0.068677,0.613328
1.197499999999991,-0.127101,0.070965,0.611604
1.200000000000017,-0.127055,0.072026,0.612316
1.2025000000000148,-0.129983,0.069628,0.616167
1.2050000000000125,-0.126381,0.06766,0.617312
1.2075000000000102,-0.127362,0.068075,0.618442
1.210000000000008,-0.130048,0.057595,0.622108
1.2125000000000057,-0.127861,0.058693,0.62412
1.2150000000000034,-0.132024,0.059675,0.630195
1.2175000000000011,-0.12952,0.057626,0.636061
1.2199999999999989,-0.129667,0.054064,0.635286
1.2224999999999966,-0.133815,0.052293,0.636373
1.2249999999999943,-0.133102,0.048756,0.64222
1.227499999999992,-0.133993,0.049336,0.646917
1.2299999999999898,-0.130849,0.046838,0.649358
1.232500000000016,-0.132708,0.043776,0.654862
1.2350000000000136,-0.134626,0.043935,0.652825
1.2375000000000114,-0.134684,0.042219,0.658897
1.240000000000009,-0.137651,0.040945,0.660881
1.2425000000000068,-0.140072,0.038821,0.658224
1.2450000000000043,-0.135289,0.039368,0.6644
1.2475000000000025,-0.138402,0.03986,0.662626
1.25,-0.140147,0.036866,0.665105
1.2524999999999975,-0.139436,0.035543,0.666273
1.2549999999999957,-0.139225,0.036789,0.667522
1.2574999999999932,-0.140467,0.032777,0.67322
1.259999999999991,-0.142206,0.034618,0.672884
1.262500000000017,-0.142835,0.034513,0.677041
1.2650000000000148,-0.143282,0.033333,0.680932
1.2675000000000125,-0.145605,0.030752,0.681537
1.2700000000000102,-0.144097,0.034953,0.68498
1.272500000000008,-0.143115,0.033393,0.689644
1.2750000000000057,-0.146078,0.03014,0.686009
1.2775000000000034,-0.14483,0.027392,0.693029
1.2800000000000011,-0.145724,0.027365,0.695238
1.2824999999999989,-0.148387,0.028149,0.698171
1.2849999999999966,-0.150688,0.025035,0.702091
1.2874999999999943,-0.153253,0.022189,0.704355
1.289999999999992,-0.153363,0.020855,0.706134
1.2924999999999898,-0.154415,0.018489,0.707635
1.295000000000016,-0.153726,0.016863,0.711248
1.2975000000000136,-0.15863,0.015531,0.715929
1.3000000000000114,-0.158562,0.010671,0.719088
1.302500000000009,-0.159508,0.01421,0.719171
1.3050000000000068,-0.163089,0.012734,0.721464
1.3075000000000043,-0.164482,0.008484,0.725324
1.3100000000000025,-0.165309,0.009629,0.722899
1.3125,-0.167207,0.008441,0.727611
1.3149999999999975,-0.170442,0.007571,0.728195
1.3174999999999957,-0.17046,0.006812,0.730277
1.3199999999999932,-0.172955,0.00659,0.73211
1.322499999999991,-0.178333,0.005574,0.733476
1.325000000000017,-0.179525,0.00281,0.73416
1.3275000000000148,-0.182223,0.006,0.737097
1.3300000000000125,-0.185056,0.00409,0.738666
1.3325000000000102,-0.186205,0.000887,0.740709
1.335000000000008,-0.187488,0.0022,0.73973
1.3375000000000057,-0.18643,0.004254,0.740925
1.3400000000000034,-0.187311,0.006431,0.741831
1.3425000000000011,-0.19047,0.005477,0.745493
1.3449999999999989,-0.189307,-0.00014,0.749109
1.3474999999999966,-0.193295,0.001112,0.750222
1.3499999999999943,-0.194505,0.005499,0.752811
1.352499999999992,-0.198095,0.003383,0.752609
1.3549999999999898,-0.196503,-0.001216,0.755326
1.357500000000016,-0.195926,0.002881,0.758632
1.3600000000000136,-0.198814,0.002294,0.761887
1.3625000000000114,-0.199346,0.00455,0.759704
1.365000000000009,-0.198437,0.004315,0.762568
1.3675000000000068,-0.199133,0.003944,0.762176
1.3700000000000043,-0.1996,0.004111,0.76408
1.3725000000000025,-0.201578,0.00067,0.763451
1.375,-0.203118,0.003517,0.768865
1.3774999999999975,-0.202291,0.001896,0.771367
1.3799999999999957,-0.201179,0.002972,0.77043
1.3824999999999932,-0.200529,0.007319,0.774463
1.384999999999991,-0.20425,0.006839,0.772957
1.387500000000017,-0.202915,0.008332,0.777201
1.3900000000000148,-0.203271,0.010654,0.774899
1.3925000000000125,-0.20355,0.007675,0.777502
1.3950000000000102,-0.202976,0.012926,0.777909
1.397500000000008,-0.200246,0.011387,0.777597
1.4000000000000057,-0.200051,0.015434,0.779053
1.4025000000000034,-0.200962,0.019275,0.783008
1.4050000000000011,-0.200322,0.020903,0.783127
1.4074999999999989,-0.198405,0.021829,0.78344
1.4099999999999966,-0.193402,0.02568,0.784699
1.4124999999999943,-0.194153,0.025863,0.785784
1.414999999999992,-0.196974,0.027285,0.78755
1.4174999999999898,-0.190896,0.032004,0.787584
1.420000000000016,-0.191052,0.030807,0.787813
1.4225000000000136,-0.188889,0.035949,0.793244
1.4250000000000114,-0.181532,0.037316,0.792734
1.427500000000009,-0.185148,0.039288,0.790299
1.4300000000000068,-0.183941,0.04667,0.793108
1.4325000000000043,-0.182082,0.038891,0.793844
1.4350000000000025,-0.179151,0.047819,0.792658
1.4375,-0.181375,0.04577,0.791478
1.4399999999999975,-0.179799,0.047053,0.79307
1.4424999999999957,-0.178386,0.051057,0.795835
1.4449999999999932,-0.177363,0.05011,0.792284
1.447499999999991,-0.176154,0.051751,0.791041
1.450000000000017,-0.179392,0.050946,0.795106
1.4525000000000148,-0.17135,0.053986,0.79167
1.4550000000000125,-0.177014,0.053603,0.792507
1.4575000000000102,-0.175795,0.050484,0.795729
1.460000000000008,-0.172128,0.053319,0.791442
1.4625000000000057,-0.171971,0.054184,0.791084
1.4650000000000034,-0.175029,0.04961,0.793424
1.4675000000000011,-0.172885,0.05164,0.794666
1.4699999999999989,-0.172553,0.052876,0.796419
1.4724999999999966,-0.171995,0.054362,0.79554
1.4749999999999943,-0.171143,0.05079,0.796489
1.477499999999992,-0.171909,0.049586,0.793968
1.4799999999999898,-0.174794,0.049978,0.797897
1.482500000000016,-0.170784,0.0517,0.796729
1.4850000000000136,-0.171499,0.051085,0.799491
1.4875000000000114,-0.173388,0.048327,0.799935
1.490000000000009,-0.173877,0.049368,0.796221
1.4925000000000068,-0.17584,0.051437,0.797881
1.4950000000000043,-0.17222,0.042786,0.79976
1.4975000000000025,-0.177167,0.045731,0.799335
1.5,-0.176476,0.047097,0.799602
1.5024999999999975,-0.176808,0.046594,0.798548
1.5049999999999957,-0.176686,0.045907,0.797581
1.5074999999999932,-0.17627,0.04364,0.800412
1.509999999999991,-0.175142,0.04632,0.800196
1.512500000000017,-0.178154,0.044446,0.79824
1.5150000000000148,-0.176533,0.037836,0.800775
1.5175000000000125,-0.179289,0.035424,0.798675
1.5200000000000102,-0.182596,0.041559,0.800605
1.522500000000008,-0.179754,0.037693,0.798644
1.5250000000000057,-0.184314,0.038166,0.799384
1.5275000000000034,-0.184095,0.038127,0.804121
1.5300000000000011,-0.184527,0.035386,0.801417
1.5324999999999989,-0.184923,0.038657,0.797463
1.5349999999999966,-0.183463,0.036887,0.799614
1.5374999999999943,-0.187422,0.041289,0.801004
1.539999999999992,-0.187767,0.038797,0.798945
1.5424999999999898,-0.185879,0.038027,0.801093
1.545000000000016,-0.191379,0.040769,0.79912
1.5475000000000136,-0.186372,0.039353,0.802707
1.5500000000000114,-0.187287,0.045268,0.802565
1.552500000000009,-0.188088,0.045598,0.800105
1.5550000000000068,-0.185244,0.043838,0.801142
1.5575000000000043,-0.187206,0.044846,0.803522
1.5600000000000025,-0.186764,0.049079,0.798946
1.5625,-0.185854,0.047493,0.805172
1.5649999999999975,-0.187464,0.05048,0.801814
1.5674999999999957,-0.184561,0.054692,0.799558
1.5699999999999932,-0.183053,0.057933,0.803378
1.572499999999991,-0.182118,0.058267,0.801613
1.575000000000017,-0.179157,0.061228,0.802981
1.5775000000000148,-0.179386,0.064344,0.801384
1.5800000000000125,-0.18055,0.064152,0.802822
1.5825000000000102,-0.179499,0.064483,0.802813
1.585000000000008,-0.174518,0.064205,0.806026
1.5875000000000057,-0.174937,0.068133,0.802102
1.5900000000000034,-0.172161,0.070027,0.807085
1.5925000000000011,-0.16914,0.069376,0.807705
1.5949999999999989,-0.169532,0.078585,0.808037
1.5974999999999966,-0.168145,0.07754,0.806076
1.5999999999999943,-0.164868,0.080927,0.806169
1.602499999999992,-0.16015,0.081866,0.807504
1.6049999999999898,-0.158332,0.086616,0.807683
1.607500000000016,-0.158408,0.09125,0.803123
1.6100000000000136,-0.159222,0.093102,0.808131
1.6125000000000114,-0.154604,0.095838,0.807185
1.615000000000009,-0.153577,0.097565,0.807227
1.6175000000000068,-0.151991,0.101054,0.804152
1.6200000000000043,-0.150484,0.101852,0.807592
1.6225000000000025,-0.149927,0.106256,0.80866
1.625,-0.144817,0.110508,0.808244
1.6274999999999975,-0.142407,0.10685,0.809571
1.6299999999999957,-0.146116,0.114635,0.806317
1.6324999999999932,-0.142336,0.117987,0.807835
1.634999999999991,-0.142486,0.118271,0.808879
1.637500000000017,-0.138223,0.120801,0.803273
1.6400000000000148,-0.141114,0.121103,0.805464
1.6425000000000125,-0.141761,0.1217,0.807134
1.6450000000000102,-0.138938,0.121432,0.803755
1.647500000000008,-0.137381,0.122686,0.801838
1.6500000000000057,-0.136423,0.126577,0.802463
1.6525000000000034,-0.137214,0.129169,0.800584
1.6550000000000011,-0.139812,0.128724,0.797897
1.6574999999999989,-0.138278,0.129507,0.800628
1.6599999999999966,-0.138482,0.126683,0.796395
1.6624999999999943,-0.13582,0.13167,0.797659
1.664999999999992,-0.138135,0.1318,0.797566
1.6674999999999898,-0.138669,0.131419,0.79898
1.670000000000016,-0.138682,0.134044,0.794756
1.6725000000000136,-0.133756,0.131922,0.794081
1.6750000000000114,-0.1361,0.133596,0.794497
1.677500000000009,-0.133221,0.136369,0.79358
1.6800000000000068,-0.131528,0.133232,0.792856
1.6825000000000043,-0.132404,0.138312,0.792074
1.6850000000000025,-0.132103,0.139088,0.793
1.6875,-0.133513,0.141602,0.78791
1.6899999999999975,-0.130317,0.142605,0.787825
1.6924999999999957,-0.130893,0.142851,0.78527
1.6949999999999932,-0.131527,0.147099,0.784775
1.697499999999991,-0.13199,0.150698,0.782705
1.700000000000017,-0.131245,0.151198,0.78271
1.7025000000000148,-0.125155,0.151347,0.781635
1.7050000000000125,-0.127709,0.15984,0.778958
1.7075000000000102,-0.126116,0.157858,0.777499
1.710000000000008,-0.124586,0.161918,0.776508
1.7125000000000057,-0.122812,0.16534,0.775052
1.7150000000000034,-0.121938,0.169091,0.774408
1.7175000000000011,-0.122008,0.175146,0.767356
1.7199999999999989,-0.121899,0.17586,0.765931
1.7224999999999966,-0.11631,0.176673,0.765265
1.7249999999999943,-0.118852,0.185833,0.764213
1.727499999999992,-0.112867,0.191925,0.760622
1.7299999999999898,-0.113863,0.197469,0.756272
1.732500000000016,-0.109899,0.199745,0.757139
1.7350000000000136,-0.110163,0.207494,0.748289
1.7375000000000114,-0.106357,0.207425,0.747889
1.740000000000009,-0.103572,0.21235,0.745673
1.7425000000000068,-0.101534,0.219197,0.744633
1.7450000000000043,-0.099494,0.226004,0.738365
1.7475000000000025,-0.095631,0.228577,0.734245
1.75,-0.091179,0.230006,0.728326
1.7524999999999975,-0.089659,0.237881,0.726336
1.7549999999999957,-0.08473,0.248014,0.720833
1.7574999999999932,-0.0856,0.253416,0.717644
1.759999999999991,-0.081415,0.25015,0.711917
1.762500000000017,-0.076886,0.260331,0.707252
1.7650000000000148,-0.077513,0.262154,0.699841
1.7675000000000125,-0.070812,0.265044,0.699316
1.7700000000000102,-0.063474,0.272227,0.697074
1.772500000000008,-0.064714,0.274376,0.692269
1.7750000000000057,-0.062183,0.276548,0.68466
1.7775000000000034,-0.058866,0.27929,0.678977
1.7800000000000011,-0.054643,0.28128,0.676616
1.7824999999999989,-0.05265,0.284869,0.673482
1.7849999999999966,-0.047481,0.287773,0.667452
1.7874999999999943,-0.043982,0.292341,0.667793
1.789999999999992,-0.040407,0.292604,0.663972
1.7924999999999898,-0.039472,0.297403,0.657348
1.795000000000016,-0.034906,0.300888,0.654578
1.7975000000000136,-0.034098,0.307097,0.652859
1.8000000000000114,-0.026624,0.311571,0.648623
1.802500000000009,-0.02718,0.310757,0.646629
1.8050000000000068,-0.018959,0.317759,0.644819
1.8075000000000043,-0.014189,0.323889,0.641432
1.8100000000000025,-0.013147,0.326248,0.637437
1.8125,-0.013457,0.328528,0.637644
1.8149999999999975,-0.009888,0.334088,0.633108
1.8174999999999957,-0.006284,0.336704,0.629934
1.8199999999999927,-0.002016,0.341456,0.635397
1.822499999999991,-3.4e-05,0.34506,0.632691
1.825000000000017,0.007606,0.348307,0.633858
1.8275000000000148,0.01438,0.35006,0.632807
1.8300000000000125,0.020785,0.353176,0.632457
1.8325000000000105,0.024707,0.354423,0.627524
1.835000000000008,0.034354,0.360482,0.622743
1.8375000000000057,0.042678,0.362361,0.622917
1.8400000000000036,0.048899,0.364601,0.621181
1.8425000000000007,0.056731,0.368797,0.621354
1.8449999999999989,0.069349,0.365356,0.609246
1.8474999999999968,0.080582,0.368217,0.606037
1.8499999999999943,0.090355,0.362811,0.600112
1.852499999999992,0.098067,0.360724,0.590833
1.8549999999999895,0.108794,0.360131,0.580657
1.857500000000016,0.119226,0.352671,0.573561
1.8600000000000136,0.135141,0.347357,0.565701
1.8625000000000116,0.144161,0.338502,0.559751
1.865000000000009,0.154684,0.32379,0.545057
1.8675000000000068,0.168593,0.311749,0.537261
1.8700000000000043,0.176147,0.302219,0.523592
1.8725000000000025,0.190067,0.288227,0.513377
1.875,0.197928,0.27253,0.499719
1.8774999999999975,0.212956,0.256815,0.490897
1.8799999999999957,0.227512,0.238792,0.484561
1.8824999999999927,0.23491,0.226045,0.470199
1.884999999999991,0.241084,0.210749,0.460044
1.887500000000017,0.250504,0.20052,0.448934
1.8900000000000148,0.251266,0.192635,0.43847
1.8925000000000125,0.260776,0.185907,0.423896
1.8950000000000105,0.258938,0.178022,0.407799
1.897500000000008,0.263154,0.171448,0.396112
1.9000000000000057,0.265113,0.165131,0.377861
1.9025000000000036,0.26316,0.15604,0.364626
1.9050000000000007,0.261546,0.144955,0.349455
1.9074999999999989,0.261081,0.134041,0.335854
1.9099999999999968,0.260995,0.126456,0.324487
1.9124999999999943,0.260983,0.11665,0.309513
1.914999999999992,0.255429,0.105349,0.296485
1.9174999999999895,0.248622,0.095794,0.27856
1.920000000000016,0.243133,0.090132,0.268347
1.9225000000000136,0.240841,0.077374,0.24688
1.9250000000000116,0.236162,0.072484,0.233144
1.927500000000009,0.221872,0.062939,0.219516
1.9300000000000068,0.218434,0.052797,0.202956
1.9325000000000043,0.203361,0.043032,0.183672
1.9350000000000025,0.194713,0.040437,0.164632
1.9375,0.1802,0.029248,0.151414
1.9399999999999975,0.168405,0.023564,0.135464
1.9424999999999957,0.158352,0.016097,0.120547
1.9449999999999927,0.145049,4.2e-05,0.118633
1.947499999999991,0.138999,-0.008489,0.111208
1.950000000000017,0.125487,-0.01847,0.108948
1.9525000000000148,0.113911,-0.028335,0.104175
1.9550000000000125,0.10516,-0.039771,0.100995
1.9575000000000105,0.091519,-0.045295,0.091843
1.960000000000008,0.081267,-0.051606,0.087482
1.9625000000000057,0.068956,-0.058527,0.080395
1.9650000000000036,0.059024,-0.062573,0.078251
1.9675000000000007,0.049517,-0.065535,0.074656
1.9699999999999989,0.039306,-0.070645,0.072447
1.9724999999999968,0.034409,-0.07365,0.069814
1.9749999999999943,0.025517,-0.071946,0.068109
1.977499999999992,0.022968,-0.072245,0.0658
1.9799999999999895,0.015255,-0.070708,0.06661
1.982500000000016,0.014103,-0.071135,0.065333
1.9850000000000136,0.008798,-0.06941,0.063405
1.9875000000000116,0.007793,-0.068294,0.06338
1.990000000000009,0.005569,-0.060539,0.063022
1.9925000000000068,0.007056,-0.061701,0.062674
1.9950000000000043,0.003517,-0.057882,0.059342
1.9975000000000025,0.004781,-0.053622,0.060303
2.0,0.001458,-0.052784,0.06116
2.0024999999999977,0.001378,-0.050381,0.058421
2.0049999999999955,0.003494,-0.051062,0.061702
2.007499999999993,0.00507,-0.051691,0.06118
2.009999999999991,0.007135,-0.044702,0.064213
2.012500000000017,0.010213,-0.046203,0.063083
2.015000000000015,0.006782,-0.048472,0.066913
2.0175000000000125,0.008332,-0.047027,0.06834
2.0200000000000102,0.007472,-0.05054,0.071316
2.022500000000008,0.006513,-0.04763,0.074966
2.0250000000000057,0.009251,-0.049388,0.075193
2.0275000000000034,0.007304,-0.050187,0.078263
2.030000000000001,0.012521,-0.051685,0.078183
2.032499999999999,0.010047,-0.050235,0.081847
2.0349999999999966,0.006808,-0.056784,0.08501
2.0374999999999943,0.007799,-0.054079,0.090043
2.039999999999992,0.006493,-0.055018,0.093178
2.0424999999999898,0.008086,-0.056928,0.098372
2.045000000000016,0.002586,-0.059678,0.105757
2.0475000000000136,0.002225,-0.061131,0.110141
2.050000000000012,0.00334,-0.063354,0.113396
2.052500000000009,0.000655,-0.066276,0.113504
2.055000000000007,0.002927,-0.066502,0.126673
2.0575000000000045,0.007344,-0.067598,0.130499
2.0600000000000023,0.005639,-0.073044,0.134077
2.0625,0.005633,-0.076598,0.139708
2.0649999999999977,0.006356,-0.073624,0.147239
2.0674999999999955,0.005988,-0.082062,0.154833
2.069999999999993,0.005921,-0.076698,0.161117
2.072499999999991,0.008176,-0.076954,0.169524
2.075000000000017,0.009616,-0.082521,0.175523
2.077500000000015,0.007726,-0.08284,0.183683
2.0800000000000125,0.007025,-0.083581,0.189231
2.0825000000000102,0.011096,-0.075583,0.199012
2.085000000000008,0.006073,-0.079212,0.209463
2.0875000000000057,0.00815,-0.076975,0.21482
2.0900000000000034,0.009466,-0.07724,0.218142
2.092500000000001,0.010554,-0.074095,0.230645
2.094999999999999,0.011093,-0.071955,0.235423
2.0974999999999966,0.006916,-0.072435,0.242452
2.0999999999999943,0.010719,-0.070609,0.249731
2.102499999999992,0.012856,-0.076677,0.255156
2.1049999999999898,0.009752,-0.075787,0.265852
2.107500000000016,0.013546,-0.073284,0.271163
2.1100000000000136,0.011294,-0.07866,0.278168
2.112500000000012,0.015711,-0.081185,0.285464
2.115000000000009,0.017159,-0.080843,0.290633
2.117500000000007,0.014616,-0.084725,0.296777
2.1200000000000045,0.016055,-0.092253,0.301372
2.1225000000000023,0.017001,-0.091818,0.307944
2.125,0.021433,-0.103568,0.314178
2.1274999999999977,0.016078,-0.101873,0.320991
2.1299999999999955,0.019955,-0.10711,0.32974
2.132499999999993,0.021706,-0.111149,0.334593
2.134999999999991,0.027443,-0.11186,0.341164
2.137500000000017,0.030044,-0.115411,0.345507
2.140000000000015,0.024825,-0.114979,0.353319
2.1425000000000125,0.024394,-0.120929,0.360122
2.1450000000000102,0.025365,-0.118929,0.366993
2.147500000000008,0.026215,-0.127094,0.37244
2.1500000000000057,0.02514,-0.129166,0.378407
2.1525000000000034,0.028201,-0.128171,0.381417
2.155000000000001,0.027613,-0.131436,0.388692
2.157499999999999,0.026751,-0.132324,0.396781
2.1599999999999966,0.031301,-0.136261,0.400329
2.1624999999999943,0.031555,-0.134522,0.404479
2.164999999999992,0.029368,-0.135553,0.413064
2.1674999999999898,0.030971,-0.140575,0.421817
2.170000000000016,0.030761,-0.138971,0.423873
2.1725000000000136,0.031977,-0.141655,0.431795
2.175000000000012,0.032183,-0.144878,0.43299
2.177500000000009,0.03357,-0.148335,0.44006
2.180000000000007,0.035875,-0.147235,0.447121
2.1825000000000045,0.034177,-0.149097,0.450615
2.1850000000000023,0.035845,-0.146981,0.455319
2.1875,0.03695,-0.14766,0.46022
2.1899999999999977,0.036762,-0.152066,0.470421
2.1924999999999955,0.036285,-0.149426,0.473318
2.194999999999993,0.038766,-0.154325,0.477568
2.197499999999991,0.039654,-0.155729,0.48712
2.200000000000017,0.040924,-0.150687,0.488988
2.202500000000015,0.038699,-0.152016,0.497193
2.2050000000000125,0.041281,-0.157902,0.499671
2.2075000000000102,0.038245,-0.157425,0.50411
2.210000000000008,0.040118,-0.160481,0.509226
2.2125000000000057,0.038433,-0.15872,0.512888
2.2150000000000034,0.040571,-0.160018,0.522151
2.217500000000001,0.042184,-0.15935,0.523845
2.219999999999999,0.042444,-0.160362,0.528141
2.2224999999999966,0.04148,-0.165801,0.534519
2.2249999999999943,0.042862,-0.166807,0.537483
2.227499999999992,0.040066,-0.168872,0.540929
2.2299999999999898,0.042642,-0.168526,0.548508
2.232500000000016,0.042684,-0.173432,0.547954
2.2350000000000136,0.042535,-0.175425,0.557271
2.237500000000012,0.044569,-0.173865,0.557687
2.240000000000009,0.045059,-0.175929,0.561234
2.242500000000007,0.046191,-0.174306,0.562956
2.2450000000000045,0.046051,-0.175059,0.567617
2.2475000000000023,0.045747,-0.176917,0.571268
2.25,0.050219,-0.174603,0.574487
2.2524999999999977,0.044086,-0.173265,0.575282
2.2549999999999955,0.048926,-0.174092,0.577633
2.257499999999993,0.048921,-0.174242,0.577123
2.259999999999991,0.049225,-0.175665,0.581706
2.262500000000017,0.046829,-0.177909,0.58483
2.265000000000015,0.046033,-0.175226,0.586177
2.2675000000000125,0.04826,-0.173901,0.586236
2.2700000000000102,0.047404,-0.177418,0.589397
2.272500000000008,0.048696,-0.17833,0.5927
2.2750000000000057,0.049045,-0.176726,0.592352
2.2775000000000034,0.049453,-0.17969,0.592434
2.280000000000001,0.049456,-0.178611,0.594159
2.282499999999999,0.048115,-0.17705,0.593842
2.2849999999999966,0.050823,-0.177081,0.593602
2.2874999999999943,0.051085,-0.177832,0.597584
2.289999999999992,0.051709,-0.18152,0.595633
2.2924999999999898,0.05093,-0.172965,0.598604
2.295000000000016,0.051593,-0.175382,0.596919
2.2975000000000136,0.049096,-0.170116,0.592991
2.300000000000012,0.05027,-0.171538,0.597293
2.302500000000009,0.054035,-0.168683,0.593427
2.305000000000007,0.054442,-0.166875,0.593653
2.3075000000000045,0.052365,-0.16266,0.589863
2.3100000000000023,0.055104,-0.159757,0.586509
2.3125,0.054456,-0.154512,0.584564
2.3149999999999977,0.055022,-0.151931,0.581063
2.3174999999999955,0.059728,-0.149006,0.574198
2.319999999999993,0.060413,-0.144762,0.573476
2.322499999999991,0.060999,-0.135155,0.569182
2.325000000000017,0.065181,-0.122833,0.566132
2.327500000000015,0.06584,-0.12328,0.56041
2.3300000000000125,0.061394,-0.116608,0.551307
2.3325000000000102,0.06726,-0.111625,0.545617
2.335000000000008,0.069343,-0.103447,0.53849
2.3375000000000057,0.074286,-0.096443,0.53115
2.3400000000000034,0.07691,-0.090566,0.521383
2.342500000000001,0.07833,-0.080396,0.511868
2.344999999999999,0.077587,-0.071748,0.502579
2.3474999999999966,0.086975,-0.063245,0.49497
2.3499999999999943,0.088649,-0.053285,0.484502
2.352499999999992,0.09119,-0.047995,0.476667
2.3549999999999898,0.094078,-0.039464,0.460488
2.357500000000016,0.099202,-0.030826,0.450673
2.3600000000000136,0.100922,-0.024627,0.439676
2.362500000000012,0.105054,-0.020471,0.430059
2.365000000000009,0.109261,-0.009072,0.423364
2.367500000000007,0.111135,-0.004448,0.410483
2.3700000000000045,0.116288,0.000352,0.398978
2.3725000000000023,0.123844,0.002452,0.387274
2.375,0.127668,0.013752,0.377084
2.3774999999999977,0.123508,0.018258,0.368538
2.3799999999999955,0.129042,0.02015,0.356963
2.382499999999993,0.134064,0.030673,0.349294
2.384999999999991,0.134351,0.034145,0.338998
2.387500000000017,0.134189,0.042463,0.328156
2.390000000000015,0.136171,0.042825,0.321797
2.3925000000000125,0.137473,0.048409,0.31066
2.3950000000000102,0.141881,0.053106,0.301293
2.397500000000008,0.140075,0.059814,0.294275
2.4000000000000057,0.147799,0.063818,0.285568
2.4025000000000034,0.14394,0.067023,0.279049
2.405000000000001,0.142788,0.069303,0.269356
2.407499999999999,0.142779,0.071826,0.259491
2.4099999999999966,0.141408,0.074115,0.253322
2.4124999999999943,0.143509,0.077314,0.245852
2.414999999999992,0.141012,0.07608,0.237795
2.4174999999999898,0.140292,0.082729,0.232492
2.420000000000016,0.138033,0.084903,0.225946
2.4225000000000136,0.137644,0.081917,0.215862
2.425000000000012,0.137202,0.082488,0.213064
2.427500000000009,0.137506,0.086444,0.206388
2.430000000000007,0.132153,0.085623,0.199773
2.4325000000000045,0.132481,0.089348,0.197435
2.4350000000000023,0.130751,0.087122,0.189636
2.4375,0.126945,0.085136,0.186389
2.4399999999999977,0.12238,0.085009,0.182588
2.4424999999999955,0.121938,0.082759,0.17748
2.444999999999993,0.119644,0.082056,0.172938
2.447499999999991,0.119271,0.085155,0.168892
2.450000000000017,0.114328,0.0813,0.16633
2.452500000000015,0.113914,0.078508,0.165202
2.4550000000000125,0.107633,0.076354,0.160936
2.4575000000000102,0.106799,0.077478,0.159929
2.460000000000008,0.100917,0.07242,0.154463
2.4625000000000057,0.099974,0.067655,0.150994
2.4650000000000034,0.0961,0.066691,0.150829
2.467500000000001,0.097899,0.063153,0.144568
2.469999999999999,0.091072,0.06234,0.140633
2.4724999999999966,0.09227,0.059929,0.137571
2.4749999999999943,0.088822,0.057723,0.138589
2.477499999999992,0.089383,0.058542,0.135972
2.4799999999999898,0.089248,0.05729,0.136166
2.482500000000016,0.088475,0.053611,0.132924
2.4850000000000136,0.087061,0.055272,0.129054
2.487500000000012,0.088928,0.0555,0.127167
2.490000000000009,0.091333,0.052483,0.126643
2.492500000000007,0.092999,0.048474,0.12188
2.4950000000000045,0.084984,0.050233,0.121611
2.4975000000000023,0.090527,0.056943,0.122813
2.5,0.086696,0.052875,0.118978
2.5024999999999977,0.088323,0.047954,0.117318
2.5049999999999955,0.091248,0.046913,0.114942
2.507499999999993,0.090551,0.046737,0.110383
2.509999999999991,0.09227,0.049796,0.112506
2.512500000000017,0.094106,0.046139,0.110284
2.515000000000015,0.095296,0.045843,0.106442
2.5175000000000125,0.09269,0.045071,0.105605
2.5200000000000102,0.091607,0.04513,0.105452
2.522500000000008,0.094765,0.042403,0.104762
2.5250000000000057,0.09722,0.038791,0.10234
2.5275000000000034,0.099678,0.041791,0.099758
2.530000000000001,0.09891,0.037295,0.101504
2.532499999999999,0.096867,0.038239,0.097396
2.5349999999999966,0.099345,0.037093,0.095492
2.5374999999999943,0.097979,0.037549,0.09451
2.539999999999992,0.09884,0.037225,0.093105
2.5424999999999898,0.100473,0.034808,0.093866
2.545000000000016,0.103947,0.037754,0.09393
2.5475000000000136,0.098668,0.036065,0.093849
2.550000000000012,0.101117,0.036655,0.09333
2.552500000000009,0.10271,0.040954,0.089925
2.555000000000007,0.103988,0.039708,0.089148
2.5575000000000045,0.103148,0.038429,0.088828
2.5600000000000023,0.10474,0.040583,0.090057
2.5625,0.103188,0.039975,0.091154
2.5649999999999977,0.103702,0.037872,0.090093
2.5674999999999955,0.106298,0.038175,0.094106
2.569999999999993,0.1043,0.041435,0.092164
2.572499999999991,0.104495,0.041055,0.091454
2.575000000000017,0.108293,0.040488,0.093514
2.577500000000015,0.106806,0.042214,0.092898
2.5800000000000125,0.10787,0.04519,0.097556
2.5825000000000102,0.10694,0.040859,0.095084
2.585000000000008,0.106684,0.045384,0.098089
2.5875000000000057,0.107054,0.041894,0.098298
2.5900000000000034,0.103591,0.046251,0.099451
2.592500000000001,0.10526,0.042944,0.09863
2.594999999999999,0.105239,0.047151,0.100822
2.5974999999999966,0.105093,0.044454,0.100798
2.5999999999999943,0.108165,0.047902,0.100984
2.602499999999992,0.107344,0.048123,0.101363
2.6049999999999898,0.103315,0.049523,0.102133
2.607500000000016,0.107536,0.05073,0.102515
2.6100000000000136,0.109868,0.048308,0.103045
2.612500000000012,0.110441,0.053873,0.102402
2.615000000000009,0.109281,0.05405,0.103412
2.617500000000007,0.109225,0.053991,0.101345
2.6200000000000045,0.108632,0.05657,0.104716
2.6225000000000023,0.112151,0.055867,0.10414
2.625,0.115175,0.05823,0.103339
2.6274999999999977,0.113072,0.058303,0.103114
2.6299999999999955,0.114989,0.058312,0.10427
2.632499999999993,0.117853,0.059614,0.105593
2.634999999999991,0.115461,0.061166,0.106706
2.637500000000017,0.118455,0.061289,0.105209
2.640000000000015,0.122374,0.064907,0.10734
2.6425000000000125,0.121918,0.066883,0.103249
2.6450000000000102,0.123235,0.068609,0.102874
2.647500000000008,0.128137,0.067731,0.105598
2.6500000000000057,0.130091,0.070534,0.104312
2.6525000000000034,0.130741,0.071574,0.101345
2.655000000000001,0.131334,0.06921,0.101642
2.657499999999999,0.133861,0.078719,0.104142
2.6599999999999966,0.133748,0.075505,0.106335
2.6624999999999943,0.139064,0.070671,0.103883
2.664999999999992,0.139672,0.073382,0.102294
2.6674999999999898,0.140188,0.072833,0.099566
2.670000000000016,0.143404,0.075582,0.096729
2.6725000000000136,0.145481,0.074238,0.097508
2.675000000000012,0.149613,0.072221,0.101597
2.677500000000009,0.148395,0.076813,0.098915
2.680000000000007,0.154654,0.072496,0.095419
2.6825000000000045,0.155371,0.071552,0.098426
2.6850000000000023,0.151489,0.068689,0.101871
2.6875,0.156515,0.071324,0.09846
2.6899999999999977,0.155049,0.071282,0.09762
2.6924999999999955,0.154602,0.068084,0.096595
2.694999999999993,0.157399,0.067691,0.098938
2.697499999999991,0.16,0.06564,0.097208
2.700000000000017,0.162419,0.065985,0.098888
2.702500000000015,0.160258,0.062362,0.099391
2.7050000000000125,0.160164,0.061915,0.101731
2.7075000000000102,0.1606,0.059799,0.105105
2.710000000000008,0.160111,0.058343,0.109025
2.7125000000000057,0.15823,0.052878,0.106978
2.7150000000000034,0.158644,0.052857,0.108879
2.717500000000001,0.155098,0.050715,0.110696
2.719999999999999,0.152985,0.046883,0.113601
2.7224999999999966,0.150447,0.045746,0.116345
2.7249999999999943,0.151358,0.042554,0.114248
2.727499999999992,0.148115,0.040051,0.121798
2.7299999999999898,0.149632,0.035324,0.122579
2.732500000000016,0.14359,0.03167,0.125935
2.7350000000000136,0.142782,0.034725,0.130043
2.737500000000012,0.141366,0.024243,0.13077
2.740000000000009,0.137396,0.022011,0.136778
2.742500000000007,0.133329,0.019813,0.140481
2.7450000000000045,0.133786,0.014394,0.140681
2.7475000000000023,0.130282,0.01253,0.147998
2.75,0.127982,0.008541,0.148665
2.7524999999999977,0.128404,0.002699,0.152361
2.7549999999999955,0.121644,0.00243,0.155668
2.757499999999993,0.123134,-0.005126,0.156064
2.759999999999991,0.120608,-0.009584,0.160498
2.762500000000017,0.116196,-0.012234,0.163797
2.765000000000015,0.114729,-0.017387,0.16867
2.7675000000000125,0.113588,-0.020128,0.172245
2.7700000000000102,0.109936,-0.023042,0.171389
2.772500000000008,0.109645,-0.027969,0.174644
2.7750000000000057,0.106349,-0.033723,0.178278
2.7775000000000034,0.109244,-0.037032,0.182226
2.780000000000001,0.105573,-0.041136,0.185814
2.782499999999999,0.106934,-0.046694,0.189138
2.7849999999999966,0.103506,-0.046569,0.189528
2.7874999999999943,0.106854,-0.04847,0.190454
2.789999999999992,0.101919,-0.053738,0.195146
2.7924999999999898,0.108287,-0.055568,0.198754
2.795000000000016,0.10199,-0.058763,0.202344
2.7975000000000136,0.100652,-0.057106,0.205011
2.800000000000012,0.102761,-0.056842,0.208574
2.802500000000009,0.104385,-0.062312,0.210956
2.805000000000007,0.10402,-0.061363,0.213208
2.8075000000000045,0.101928,-0.058453,0.215577
2.8100000000000023,0.10478,-0.063789,0.21529
2.8125,0.096601,-0.060187,0.221037
2.8149999999999977,0.099301,-0.0617,0.221767
2.8174999999999955,0.09947,-0.061888,0.220165
2.819999999999993,0.099785,-0.055039,0.219891
2.822499999999991,0.104678,-0.056243,0.223831
2.825000000000017,0.109424,-0.060499,0.222693
2.827500000000015,0.110292,-0.054449,0.22118
2.8300000000000125,0.111402,-0.053245,0.220232
2.8325000000000102,0.116269,-0.052401,0.222025
2.835000000000008,0.120211,-0.05156,0.219655
2.8375000000000057,0.121871,-0.052637,0.218619
2.8400000000000034,0.128687,-0.046703,0.215434
2.842500000000001,0.127361,-0.042656,0.216535
2.844999999999999,0.128059,-0.039634,0.213945
2.8474999999999966,0.130397,-0.039013,0.212291
2.8499999999999943,0.137802,-0.040226,0.209642
2.852499999999992,0.135466,-0.02989,0.211465
2.8549999999999898,0.139511,-0.033677,0.210694
2.857500000000016,0.138904,-0.028086,0.205809
2.8600000000000136,0.145575,-0.030582,0.202056
2.862500000000012,0.14135,-0.026909,0.199317
2.865000000000009,0.146542,-0.021043,0.195906
2.867500000000007,0.14545,-0.020234,0.198817
2.8700000000000045,0.148439,-0.016497,0.191838
2.8725000000000023,0.149066,-0.011344,0.187729
2.875,0.151005,-0.006586,0.189038
2.8774999999999977,0.149613,-0.009176,0.185924
2.8799999999999955,0.154535,-0.007249,0.188953
2.882499999999993,0.152784,-0.004354,0.182038
2.884999999999991,0.151194,0.001139,0.177861
2.887500000000017,0.151929,0.004395,0.178567
2.890000000000015,0.153875,0.013695,0.171798
2.8925000000000125,0.152696,0.012838,0.170431
2.8950000000000102,0.153966,0.017648,0.16624
2.897500000000008,0.154553,0.021041,0.161327
2.9000000000000057,0.153834,0.022224,0.158598
2.9025000000000034,0.15429,0.022412,0.154505
2.905000000000001,0.15064,0.029951,0.153553
2.907499999999999,0.145791,0.030793,0.150697
2.9099999999999966,0.150215,0.033582,0.146597
2.9124999999999943,0.147962,0.030144,0.143895
2.914999999999992,0.144819,0.032858,0.143171
2.9174999999999898,0.141189,0.033931,0.138991
2.920000000000016,0.140017,0.03616,0.135454
2.9225000000000136,0.134914,0.031479,0.132539
2.925000000000012,0.13235,0.035401,0.125756
2.927500000000009,0.125898,0.033598,0.126714
2.930000000000007,0.127872,0.031028,0.124114
2.9325000000000045,0.123636,0.029913,0.119318
2.9350000000000023,0.114546,0.02382,0.119611
2.9375,0.116738,0.024667,0.115503
2.9399999999999977,0.112151,0.019846,0.118353
2.9424999999999955,0.106738,0.016206,0.117695
2.944999999999993,0.100426,0.012653,0.113095
2.947499999999991,0.094981,0.003614,0.11301
2.950000000000017,0.086982,4.8e-05,0.11191
2.952500000000015,0.08282,-0.001723,0.108174
2.9550000000000125,0.072552,-0.008878,0.108089
2.9575000000000102,0.068013,-0.018238,0.111022
2.960000000000008,0.061228,-0.022018,0.107155
2.9625000000000057,0.055917,-0.029287,0.110921
2.9650000000000034,0.053807,-0.032619,0.107741
2.967500000000001,0.048222,-0.042883,0.105784
2.969999999999999,0.041274,-0.040787,0.109028
2.9724999999999966,0.036334,-0.051875,0.106379
2.9749999999999943,0.029189,-0.05341,0.108632
2.977499999999992,0.026537,-0.068055,0.106112
2.9799999999999898,0.024026,-0.066517,0.107425
2.982500000000016,0.022117,-0.077531,0.10759
2.9850000000000136,0.025094,-0.075081,0.104038
2.987500000000012,0.023971,-0.079216,0.10257
2.990000000000009,0.025313,-0.081541,0.106084
2.992500000000007,0.028581,-0.07897,0.105797
2.9950000000000045,0.031792,-0.080599,0.105525
2.9975000000000023,0.034551,-0.082511,0.108048
3.0,0.038581,-0.077517,0.107224
3.0024999999999977,0.036687,-0.082059,0.109595
3.0049999999999955,0.039542,-0.081103,0.113042
3.007499999999993,0.040957,-0.078318,0.114506
3.009999999999991,0.040285,-0.079295,0.120243
3.012500000000017,0.039152,-0.079022,0.120539
3.015000000000015,0.039672,-0.080977,0.122309
3.0175000000000125,0.038868,-0.084213,0.125101
3.0200000000000102,0.042585,-0.083792,0.12772
3.022500000000008,0.040496,-0.085111,0.131594
3.0250000000000057,0.03731,-0.085267,0.136929
3.0275000000000034,0.039355,-0.091131,0.141453
3.030000000000001,0.038836,-0.090207,0.145382
3.032499999999999,0.037459,-0.090839,0.148865
3.0349999999999966,0.039891,-0.095819,0.155366
3.0374999999999943,0.041129,-0.091578,0.159169
3.039999999999992,0.047427,-0.099562,0.16369
3.0424999999999898,0.044002,-0.100723,0.1676
3.045000000000016,0.048662,-0.102995,0.171755
3.0475000000000136,0.048544,-0.105973,0.177833
3.050000000000012,0.049839,-0.103365,0.179153
3.052500000000009,0.053023,-0.111859,0.185134
3.055000000000007,0.047735,-0.111017,0.189062
3.0575000000000045,0.050359,-0.114368,0.194683
3.0600000000000023,0.053873,-0.117555,0.198323
3.0625,0.055221,-0.120637,0.202554
3.0649999999999977,0.058416,-0.122073,0.205647
3.0674999999999955,0.061255,-0.122036,0.209207
3.069999999999993,0.060243,-0.125919,0.212917
3.072499999999991,0.059181,-0.13157,0.216652
3.075000000000017,0.064276,-0.13317,0.222142
3.077500000000015,0.062632,-0.135779,0.224238
3.0800000000000125,0.066579,-0.138447,0.226624
3.0825000000000102,0.06763,-0.136867,0.229687
3.085000000000008,0.066852,-0.136007,0.234134
3.0875000000000057,0.071836,-0.140437,0.240062
3.0900000000000034,0.06983,-0.135923,0.243117
3.092500000000001,0.072555,-0.138731,0.245686
3.094999999999999,0.072546,-0.14239,0.245992
3.0974999999999966,0.073,-0.139475,0.254583
3.0999999999999943,0.071713,-0.138362,0.254924
3.102499999999992,0.078998,-0.140448,0.256429
3.1049999999999898,0.075678,-0.143826,0.258201
3.107500000000016,0.075262,-0.144021,0.267226
3.1100000000000136,0.075844,-0.146699,0.267176
3.112500000000012,0.080331,-0.15136,0.272081
3.115000000000009,0.084249,-0.151211,0.276052
3.117500000000007,0.083837,-0.152452,0.279409
3.1200000000000045,0.082845,-0.147727,0.281485
3.1225000000000023,0.084475,-0.150989,0.283688
3.125,0.087486,-0.157869,0.293174
3.1274999999999977,0.086407,-0.155668,0.29471
3.1299999999999955,0.088248,-0.156963,0.295956
3.132499999999993,0.089356,-0.160196,0.302374
3.134999999999991,0.08947,-0.16389,0.308021
3.137500000000017,0.093624,-0.164177,0.315289
3.140000000000015,0.094322,-0.166571,0.317229
3.1425000000000125,0.095255,-0.165972,0.322358
3.1450000000000102,0.094756,-0.16444,0.327187
3.147500000000008,0.098047,-0.164655,0.330491
3.1500000000000057,0.098128,-0.171055,0.332046
3.1525000000000034,0.100759,-0.169544,0.339061
3.155000000000001,0.1028,-0.173965,0.340299
3.157499999999999,0.10178,-0.170682,0.343045
3.1599999999999966,0.101415,-0.170615,0.34701
3.1624999999999943,0.102551,-0.173508,0.354857
3.164999999999992,0.106048,-0.172673,0.354833
3.1674999999999898,0.104994,-0.171751,0.360828
3.170000000000016,0.108906,-0.170989,0.364121
3.1725000000000136,0.108799,-0.170396,0.363377
3.175000000000012,0.110527,-0.169238,0.368574
3.177500000000009,0.113126,-0.168905,0.371029
3.180000000000007,0.113224,-0.172919,0.369781
3.1825000000000045,0.113971,-0.173001,0.376367
3.1850000000000023,0.11379,-0.175378,0.377273
3.1875,0.114352,-0.176233,0.381898
3.1899999999999977,0.118536,-0.172468,0.379635
3.1924999999999955,0.116538,-0.173873,0.381845
3.194999999999993,0.117613,-0.174306,0.381858
3.197499999999991,0.117872,-0.176625,0.380232
3.200000000000017,0.117121,-0.174107,0.386455
3.202500000000015,0.116809,-0.173362,0.382812
3.2050000000000125,0.116763,-0.177425,0.382977
3.2075000000000102,0.117204,-0.180741,0.379803
3.210000000000008,0.117969,-0.178616,0.380731
3.2125000000000057,0.11982,-0.177832,0.379423
3.2150000000000034,0.115458,-0.182003,0.376611
3.217500000000001,0.114573,-0.175494,0.379805
3.219999999999999,0.116481,-0.175077,0.373657
3.2224999999999966,0.118821,-0.179918,0.371727
3.2249999999999943,0.115099,-0.180613,0.36928
3.227499999999992,0.11761,-0.178495,0.366562
3.2299999999999898,0.116179,-0.180303,0.362095
3.232500000000016,0.117531,-0.180021,0.359394
3.2350000000000136,0.115604,-0.180663,0.357667
3.237500000000012,0.11478,-0.179379,0.356147
3.240000000000009,0.113153,-0.174515,0.347658
3.242500000000007,0.110202,-0.175406,0.342541
3.2450000000000045,0.110277,-0.176542,0.342303
3.2475000000000023,0.107846,-0.174069,0.333331
3.25,0.108045,-0.172608,0.331741
3.2524999999999977,0.103141,-0.171572,0.327144
3.2549999999999955,0.103421,-0.168622,0.320526
3.257499999999993,0.105207,-0.167459,0.319131
3.259999999999991,0.099348,-0.171703,0.312665
3.262500000000017,0.100573,-0.165643,0.31007
3.265000000000015,0.10021,-0.167212,0.302685
3.2675000000000125,0.096888,-0.162634,0.297006
3.2700000000000102,0.097645,-0.154266,0.291192
3.272500000000008,0.095614,-0.156078,0.285559
3.2750000000000057,0.093526,-0.157715,0.281011
3.2775000000000034,0.090902,-0.156301,0.276932
3.280000000000001,0.090574,-0.150123,0.268169
3.282499999999999,0.089171,-0.142552,0.260528
3.2849999999999966,0.085572,-0.141498,0.258587
3.2874999999999943,0.087438,-0.141606,0.252933
3.289999999999992,0.083195,-0.137191,0.246484
3.2924999999999898,0.082769,-0.127484,0.239839
3.295000000000016,0.078519,-0.127088,0.233618
3.2975000000000136,0.080503,-0.124604,0.227331
3.300000000000012,0.077673,-0.12413,0.220684
3.302500000000009,0.074714,-0.114506,0.214986
3.305000000000007,0.072575,-0.113246,0.208674
3.3075000000000045,0.067618,-0.106528,0.201026
3.3100000000000023,0.069063,-0.105514,0.196306
3.3125,0.064882,-0.101589,0.189967
3.3149999999999977,0.06418,-0.096714,0.181463
3.3174999999999955,0.060523,-0.095619,0.178561
3.319999999999993,0.060657,-0.095204,0.170196
3.322499999999991,0.053708,-0.090413,0.163104
3.325000000000017,0.057992,-0.085869,0.158256
3.327500000000015,0.049145,-0.086644,0.151197
3.3300000000000125,0.050419,-0.082643,0.147863
3.3325000000000102,0.044704,-0.078785,0.140097
3.335000000000008,0.042921,-0.076948,0.133825
3.3375000000000057,0.040985,-0.073333,0.125002
3.3400000000000034,0.041,-0.074913,0.119362
3.342500000000001,0.040039,-0.068884,0.114986
3.344999999999999,0.036009,-0.064789,0.108955
3.3474999999999966,0.034627,-0.065356,0.099116
3.3499999999999943,0.033754,-0.061072,0.093342
3.352499999999992,0.033733,-0.053626,0.089935
3.3549999999999898,0.031251,-0.054614,0.084578
3.357500000000016,0.029901,-0.051959,0.07628
3.3600000000000136,0.029314,-0.047794,0.071175
3.362500000000012,0.025185,-0.044197,0.063006
3.365000000000009,0.025343,-0.03989,0.059671
3.367500000000007,0.021368,-0.03932,0.047172
3.3700000000000045,0.019778,-0.032002,0.045341
3.3725000000000023,0.020055,-0.025536,0.03622
3.375,0.016064,-0.023276,0.032393
3.3774999999999977,0.018128,-0.020982,0.024667
3.3799999999999955,0.015741,-0.011204,0.015352
3.382499999999993,0.014975,-0.009817,0.009004
3.384999999999991,0.010916,-0.00456,0.005277
3.387500000000017,0.008949,0.002956,0.000646
3.390000000000015,0.005706,0.010311,-0.004935
3.3925000000000125,0.002685,0.013793,-0.01241
3.3950000000000102,0.002924,0.019368,-0.016662
3.397500000000008,1e-06,0.021761,-0.026487
3.4000000000000057,-0.008029,0.028165,-0.03076
3.4025000000000034,-0.00903,0.030542,-0.035799
3.405000000000001,-0.017756,0.032178,-0.04313
3.407499999999999,-0.021064,0.042903,-0.050323
3.4099999999999966,-0.022629,0.038322,-0.057191
3.4124999999999943,-0.024943,0.040213,-0.065739
3.414999999999992,-0.028592,0.042243,-0.067931
3.4174999999999898,-0.027126,0.046811,-0.074893
3.420000000000016,-0.028799,0.054016,-0.081715
3.4225000000000136,-0.028333,0.056487,-0.085589
3.425000000000012,-0.028853,0.053933,-0.094385
3.427500000000009,-0.027691,0.060452,-0.098482
3.430000000000007,-0.03058,0.060146,-0.10639
3.4325000000000045,-0.025856,0.060342,-0.110063
3.4350000000000023,-0.033446,0.062706,-0.119682
3.4375,-0.032663,0.070486,-0.122818
3.4399999999999977,-0.035204,0.067871,-0.123982
3.4424999999999955,-0.032431,0.069682,-0.130381
3.444999999999993,-0.037935,0.071536,-0.135511
3.447499999999991,-0.036728,0.073463,-0.138929
3.450000000000017,-0.039527,0.075074,-0.145464
3.452500000000015,-0.040215,0.076907,-0.145622
3.4550000000000125,-0.039853,0.077455,-0.151268
3.4575000000000102,-0.042503,0.076976,-0.154494
3.460000000000008,-0.041547,0.079528,-0.155367
3.4625000000000057,-0.043976,0.080126,-0.157246
3.4650000000000034,-0.043045,0.082522,-0.161174
3.467500000000001,-0.041705,0.088737,-0.162502
3.469999999999999,-0.044341,0.085709,-0.161941
3.4724999999999966,-0.044028,0.088536,-0.1663
3.4749999999999943,-0.043952,0.091702,-0.166464
3.477499999999992,-0.046849,0.09435,-0.16844
3.4799999999999898,-0.043701,0.096687,-0.168096
3.482500000000016,-0.044221,0.100597,-0.16849
3.4850000000000136,-0.043476,0.099302,-0.17072
3.487500000000012,-0.050606,0.09887,-0.172327
3.490000000000009,-0.047795,0.099539,-0.171958
3.492500000000007,-0.049867,0.103297,-0.171922
3.4950000000000045,-0.047697,0.101564,-0.172183
3.4975000000000023,-0.050418,0.102445,-0.170884
3.5,-0.048856,0.101178,-0.171325
3.5024999999999977,-0.047819,0.098977,-0.174449
3.5049999999999955,-0.047182,0.102001,-0.176005
3.507499999999993,-0.046355,0.099043,-0.17157
3.509999999999991,-0.047441,0.098421,-0.174868
3.512500000000017,-0.048885,0.101266,-0.175714
3.515000000000015,-0.045139,0.098591,-0.174448
3.5175000000000125,-0.048372,0.090253,-0.1748
3.5200000000000102,-0.044206,0.091208,-0.175804
3.522500000000008,-0.044317,0.098611,-0.177642
3.5250000000000057,-0.044471,0.095271,-0.178714
3.5275000000000034,-0.044447,0.089026,-0.176065
3.530000000000001,-0.044583,0.092264,-0.176902
3.532499999999999,-0.044116,0.083651,-0.181493
3.5349999999999966,-0.043653,0.085334,-0.175828
3.5374999999999943,-0.040895,0.090116,-0.174676
3.539999999999992,-0.044073,0.083869,-0.178725
3.5424999999999898,-0.042593,0.086912,-0.176753
3.545000000000016,-0.041708,0.084599,-0.177185
3.5475000000000136,-0.04081,0.087003,-0.176959
3.550000000000012,-0.043735,0.093178,-0.177436
3.552500000000009,-0.04054,0.089569,-0.175889
3.555000000000007,-0.039124,0.09275,-0.174861
3.5575000000000045,-0.036976,0.092059,-0.175062
3.5600000000000023,-0.040315,0.092774,-0.173946
3.5625,-0.041443,0.092696,-0.172953
3.5649999999999977,-0.043294,0.095724,-0.171746
3.5674999999999955,-0.039837,0.092847,-0.168376
3.569999999999993,-0.042149,0.096259,-0.166051
3.572499999999991,-0.043945,0.097201,-0.16253
3.575000000000017,-0.043373,0.098812,-0.164254
3.577500000000015,-0.040494,0.09689,-0.158346
3.5800000000000125,-0.04586,0.098207,-0.159107
3.5825000000000102,-0.040321,0.094465,-0.159507
3.585000000000008,-0.042984,0.095253,-0.154866
3.5875000000000057,-0.041668,0.097977,-0.151321
3.5900000000000034,-0.042959,0.097514,-0.149782
3.592500000000001,-0.041859,0.094812,-0.149219
3.594999999999999,-0.042188,0.096904,-0.14718
3.5974999999999966,-0.04217,0.097038,-0.14721
3.5999999999999943,-0.041977,0.093331,-0.146675
3.602499999999992,-0.040122,0.092252,-0.1448
3.6049999999999898,-0.038762,0.088536,-0.144438
3.607500000000016,-0.040939,0.093792,-0.141488
3.6100000000000136,-0.038452,0.096577,-0.140417
3.6125000000000114,-0.035602,0.09419,-0.138035
3.615000000000009,-0.036387,0.091627,-0.139226
3.617500000000007,-0.039324,0.091255,-0.139105
3.620000000000005,-0.039551,0.093389,-0.140217
3.6225000000000014,-0.035451,0.090078,-0.139385
3.625,-0.037095,0.088439,-0.140165
3.6274999999999977,-0.037737,0.090864,-0.137942
3.629999999999996,-0.038822,0.089448,-0.138123
3.632499999999993,-0.036086,0.090649,-0.138542
3.634999999999991,-0.038485,0.087496,-0.140335
3.637500000000017,-0.03676,0.092591,-0.143087
3.640000000000015,-0.037302,0.092498,-0.138021
3.642500000000013,-0.041841,0.088427,-0.137521
3.64500000000001,-0.035997,0.088159,-0.138859
3.647500000000008,-0.035869,0.0878,-0.143357
3.6500000000000057,-0.035435,0.087435,-0.139661
3.6525000000000034,-0.035889,0.086049,-0.142127
3.655000000000001,-0.037836,0.088836,-0.141455
3.657499999999999,-0.03486,0.0847,-0.13874
3.6599999999999966,-0.035943,0.083866,-0.141083
3.6624999999999934,-0.03664,0.082833,-0.141273
3.664999999999992,-0.035086,0.081203,-0.139341
3.6674999999999898,-0.035815,0.07834,-0.139652
3.670000000000016,-0.036138,0.080867,-0.138873
3.6725000000000136,-0.035422,0.080944,-0.138286
3.6750000000000114,-0.03349,0.080324,-0.141117
3.677500000000009,-0.03621,0.078722,-0.137568
3.680000000000007,-0.036788,0.082075,-0.139152
3.682500000000005,-0.036868,0.084207,-0.140366
3.6850000000000014,-0.03655,0.082231,-0.137982
3.6875,-0.032891,0.073101,-0.137827
3.6899999999999977,-0.03487,0.077503,-0.138965
3.692499999999996,-0.036557,0.080342,-0.133501
3.694999999999993,-0.034088,0.080364,-0.135636
3.697499999999991,-0.032626,0.076371,-0.13575
3.700000000000017,-0.035121,0.075946,-0.134671
3.702500000000015,-0.03275,0.081351,-0.13413
3.705000000000013,-0.034001,0.080848,-0.131197
3.70750000000001,-0.033784,0.076667,-0.131197
3.710000000000008,-0.034919,0.075752,-0.131679
3.7125000000000057,-0.034834,0.077792,-0.125606
3.7150000000000034,-0.033557,0.072987,-0.125226
3.717500000000001,-0.029294,0.073218,-0.123599
3.719999999999999,-0.034079,0.071058,-0.124699
3.7224999999999966,-0.032061,0.07202,-0.12413
3.7249999999999934,-0.029576,0.069856,-0.118555
3.727499999999992,-0.02953,0.067217,-0.118151
3.7299999999999898,-0.026928,0.06781,-0.117347
3.732500000000016,-0.030397,0.070439,-0.119303
3.7350000000000136,-0.030087,0.067101,-0.111043
3.7375000000000114,-0.026184,0.069138,-0.113544
3.740000000000009,-0.02764,0.066241,-0.110705
3.742500000000007,-0.029683,0.066815,-0.108187
3.745000000000005,-0.032146,0.067937,-0.106718
3.7475000000000014,-0.027637,0.063654,-0.103225
3.75,-0.02557,0.064125,-0.104672
3.7524999999999977,-0.027958,0.066315,-0.097381
3.754999999999996,-0.023571,0.057869,-0.099322
3.757499999999993,-0.027673,0.058667,-0.097747
3.759999999999991,-0.029199,0.057549,-0.095406
3.762500000000017,-0.029017,0.062131,-0.093548
3.765000000000015,-0.020537,0.058696,-0.092901
3.767500000000013,-0.024909,0.059164,-0.093935
3.77000000000001,-0.024,0.057647,-0.091273
3.772500000000008,-0.028054,0.061987,-0.087675
3.7750000000000057,-0.022417,0.061535,-0.086559
3.7775000000000034,-0.018522,0.057705,-0.083528
3.780000000000001,-0.021408,0.057424,-0.080541
3.782499999999999,-0.020891,0.054085,-0.081889
3.7849999999999966,-0.020021,0.046795,-0.076455
3.7874999999999934,-0.020355,0.046377,-0.077866
3.789999999999992,-0.020409,0.049233,-0.077349
3.7924999999999898,-0.023824,0.047607,-0.070769
3.795000000000016,-0.016801,0.043682,-0.068223
3.7975000000000136,-0.019594,0.042816,-0.065959
3.8000000000000114,-0.017637,0.04303,-0.062528
3.802500000000009,-0.016934,0.041985,-0.063536
3.805000000000007,-0.018857,0.039838,-0.059444
3.807500000000005,-0.015782,0.040447,-0.058101
3.8100000000000014,-0.012609,0.036993,-0.057876
3.8125,-0.012241,0.035969,-0.057493
3.8149999999999977,-0.013997,0.038037,-0.054863
3.817499999999996,-0.015731,0.034123,-0.053908
3.819999999999993,-0.010724,0.034297,-0.051345
3.822499999999991,-0.016089,0.033954,-0.048617
3.825000000000017,-0.012286,0.03095,-0.043739
3.827500000000015,-0.011958,0.030518,-0.046363
3.830000000000013,-0.013113,0.030767,-0.044279
3.83250000000001,-0.012107,0.027763,-0.044009
3.835000000000008,-0.012393,0.028361,-0.040646
3.8375000000000057,-0.010367,0.030661,-0.042656
3.8400000000000034,-0.009835,0.028614,-0.039746
3.842500000000001,-0.012945,0.028452,-0.038025
3.844999999999999,-0.009365,0.027878,-0.036739
3.8474999999999966,-0.009204,0.026485,-0.035211
3.8499999999999934,-0.009429,0.025637,-0.037841
3.852499999999992,-0.009267,0.022765,-0.034459
3.8549999999999898,-0.009365,0.02443,-0.035462
3.857500000000016,-0.00937,0.018509,-0.033475
3.8600000000000136,-0.012463,0.018234,-0.03459
3.8625000000000114,-0.006767,0.019608,-0.030233
3.865000000000009,-0.009216,0.015769,-0.031391
3.867500000000007,-0.008103,0.01656,-0.032343
3.870000000000005,-0.007433,0.0174,-0.031893
3.8725000000000014,-0.009832,0.01452,-0.028183
3.875,-0.007239,0.012239,-0.031115
3.8774999999999977,-0.007537,0.015821,-0.028773
3.879999999999996,-0.004642,0.016644,-0.028497
3.882499999999993,-0.005728,0.009745,-0.02802
3.884999999999991,-0.0075,0.011317,-0.026596
3.887500000000017,-0.00892,0.01061,-0.027545
3.890000000000015,-0.01037,0.011662,-0.026035
3.892500000000013,-0.003791,0.011752,-0.02533
3.89500000000001,-0.007324,0.013701,-0.024919
3.897500000000008,-0.003806,0.012412,-0.026682
3.9000000000000057,-0.005443,0.013303,-0.025024
3.9025000000000034,-0.00715,0.017021,-0.023636
3.905000000000001,-0.007954,0.009493,-0.027931
3.907499999999999,-0.004359,0.010815,-0.024523
3.9099999999999966,-0.005127,0.012968,-0.024556
3.9124999999999934,-0.006686,0.011777,-0.024724
3.914999999999992,-0.007729,0.016459,-0.022848
3.9174999999999898,-0.005971,0.01352,-0.024237
3.920000000000016,-0.003867,0.013491,-0.021638
3.9225000000000136,-0.007308,0.012509,-0.02224
3.9250000000000114,-0.005248,0.016917,-0.021444
3.927500000000009,-0.005403,0.014543,-0.02327
3.930000000000007,-0.004907,0.00959,-0.020079
3.932500000000005,-0.007702,0.011925,-0.018851
3.9350000000000014,-0.006539,0.011168,-0.021617
3.9375,-0.006862,0.010962,-0.02389
3.9399999999999977,-0.005561,0.010324,-0.022507
3.942499999999996,-0.008224,0.010336,-0.019756
3.944999999999993,-0.006032,0.014254,-0.022283
3.947499999999991,-0.006112,0.011729,-0.021379
3.950000000000017,-0.004859,0.015534,-0.021523
3.952500000000015,-0.007693,0.016835,-0.020963
3.955000000000013,-0.01027,0.014477,-0.022219
3.95750000000001,-0.007045,0.011187,-0.016938
3.960000000000008,-0.006162,0.014831,-0.019532
3.9625000000000057,-0.008376,0.014833,-0.020193
3.9650000000000034,-0.006653,0.01374,-0.01971
3.967500000000001,-0.002705,0.013184,-0.021806
3.969999999999999,-0.004877,0.015088,-0.022049
3.9724999999999966,-0.006643,0.013597,-0.020255
3.9749999999999934,-0.007777,0.016636,-0.021613
3.977499999999992,-0.009292,0.015048,-0.023253
3.9799999999999898,-0.008641,0.013041,-0.022011
3.982500000000016,-0.003862,0.014661,-0.024422
3.9850000000000136,-0.006822,0.013918,-0.023082
3.9875000000000114,-0.005393,0.01682,-0.026838
3.990000000000009,-0.005637,0.017876,-0.027089
3.992500000000007,-0.008444,0.016087,-0.028847
3.995000000000005,-0.008205,0.013616,-0.027838
3.9975000000000014,-0.007425,0.019761,-0.028592
4.0,-0.009486,0.017921,-0.029485
4.002499999999998,-0.006542,0.021113,-0.028779
4.004999999999996,-0.010268,0.017502,-0.031506
4.007499999999993,-0.007968,0.018423,-0.02882
4.009999999999991,-0.008744,0.024509,-0.029796
4.012500000000017,-0.007959,0.022458,-0.032149
4.015000000000015,-0.0099,0.022458,-0.03271
4.0175000000000125,-0.010721,0.024889,-0.032902
4.02000000000001,-0.012182,0.025421,-0.033572
4.022500000000008,-0.010036,0.021068,-0.036946
4.025000000000006,-0.010993,0.022844,-0.03752
4.027500000000003,-0.010361,0.022735,-0.035182
4.030000000000001,-0.00983,0.024606,-0.037868
4.032499999999999,-0.010216,0.02458,-0.035928
4.034999999999997,-0.009191,0.023688,-0.040855
4.037499999999994,-0.012311,0.024358,-0.04091
4.039999999999992,-0.010121,0.024553,-0.044733
4.04249999999999,-0.010729,0.029429,-0.044428
4.045000000000016,-0.013761,0.027312,-0.044663
4.047500000000014,-0.012945,0.028291,-0.043692
4.050000000000011,-0.010711,0.03025,-0.045736
4.052500000000009,-0.012219,0.027191,-0.047274
4.055000000000007,-0.013125,0.029159,-0.046884
4.0575000000000045,-0.011623,0.026856,-0.047298
4.060000000000002,-0.010516,0.029927,-0.048415
4.0625,-0.012782,0.031047,-0.05199
4.064999999999998,-0.013576,0.029541,-0.05092
4.067499999999996,-0.01132,0.027452,-0.050713
4.069999999999993,-0.016938,0.033172,-0.052679
4.072499999999991,-0.017238,0.033376,-0.053342
4.075000000000017,-0.013854,0.032974,-0.05549
4.077500000000015,-0.016156,0.036534,-0.058351
4.0800000000000125,-0.012437,0.031332,-0.056185
4.08250000000001,-0.010361,0.033962,-0.057417
4.085000000000008,-0.016128,0.033747,-0.055929
4.087500000000006,-0.014919,0.0326,-0.059298
4.090000000000003,-0.014588,0.03546,-0.057094
4.092500000000001,-0.018401,0.03374,-0.05559
4.094999999999999,-0.016487,0.033968,-0.061092
4.097499999999997,-0.015189,0.033272,-0.062048
4.099999999999994,-0.013958,0.030639,-0.062951
4.102499999999992,-0.013945,0.033667,-0.059661
4.10499999999999,-0.016959,0.034461,-0.062996
4.107500000000016,-0.018319,0.035653,-0.061838
4.110000000000014,-0.016548,0.037017,-0.062871
4.112500000000011,-0.015453,0.036722,-0.062445
4.115000000000009,-0.013459,0.033762,-0.062585
4.117500000000007,-0.015453,0.03402,-0.066018
4.1200000000000045,-0.014932,0.037125,-0.061037
4.122500000000002,-0.017869,0.038088,-0.065562
4.125,-0.018467,0.035387,-0.06109
4.127499999999998,-0.019123,0.040089,-0.064346
4.129999999999996,-0.017971,0.034937,-0.064163
4.132499999999993,-0.015686,0.038352,-0.064123
4.134999999999991,-0.020239,0.036092,-0.06687
4.137500000000017,-0.017227,0.038181,-0.063971
4.140000000000015,-0.018516,0.038163,-0.065619
4.1425000000000125,-0.017101,0.037958,-0.06437
4.14500000000001,-0.021784,0.043841,-0.066918
4.147500000000008,-0.016165,0.039259,-0.068274
4.150000000000006,-0.020169,0.04578,-0.06628
4.152500000000003,-0.01727,0.040767,-0.067428
4.155000000000001,-0.017796,0.039693,-0.066952
4.157499999999999,-0.016899,0.042107,-0.067315
4.159999999999997,-0.016259,0.040364,-0.069572
4.162499999999994,-0.019009,0.03762,-0.069025
4.164999999999992,-0.018887,0.041977,-0.070816
4.16749999999999,-0.018424,0.04218,-0.06772
4.170000000000016,-0.019421,0.040082,-0.066921
4.172500000000014,-0.018023,0.040419,-0.071837
4.175000000000011,-0.018747,0.041594,-0.070357
4.177500000000009,-0.01772,0.038861,-0.068232
4.180000000000007,-0.018829,0.040913,-0.070453
4.1825000000000045,-0.020914,0.040894,-0.06991
4.185000000000002,-0.020479,0.04139,-0.071913
4.1875,-0.016631,0.039653,-0.068974
4.189999999999998,-0.018585,0.040012,-0.067922
4.192499999999996,-0.018403,0.038932,-0.068164
4.194999999999993,-0.018391,0.037559,-0.068784
4.197499999999991,-0.018175,0.037348,-0.071082
4.200000000000017,-0.0174,0.039542,-0.067481
4.202500000000015,-0.017163,0.039341,-0.067511
4.2050000000000125,-0.014503,0.039058,-0.066678
4.20750000000001,-0.018989,0.041144,-0.065528
4.210000000000008,-0.017561,0.040001,-0.065427
4.212500000000006,-0.017886,0.040895,-0.065675
4.215000000000003,-0.01789,0.036832,-0.065057
4.217500000000001,-0.018322,0.038115,-0.065447
4.219999999999999,-0.015187,0.034515,-0.064726
4.222499999999997,-0.016469,0.037637,-0.062191
4.224999999999994,-0.017507,0.035907,-0.064078
4.227499999999992,-0.014414,0.036237,-0.059699
4.22999999999999,-0.010148,0.033223,-0.060995
4.232500000000016,-0.01276,0.037173,-0.059886
4.235000000000014,-0.014642,0.031643,-0.057782
4.237500000000011,-0.011083,0.035051,-0.05424
4.240000000000009,-0.011218,0.030952,-0.054403
4.242500000000007,-0.01128,0.031733,-0.054109
4.2450000000000045,-0.012688,0.033165,-0.055763
4.247500000000002,-0.013576,0.029867,-0.052276
4.25,-0.008859,0.026419,-0.04928
4.252499999999998,-0.01398,0.029904,-0.04645
4.254999999999996,-0.011961,0.024656,-0.046153
4.257499999999993,-0.010753,0.029337,-0.044288
4.259999999999991,-0.006503,0.025988,-0.042836
4.262500000000017,-0.009634,0.025988,-0.037688
4.265000000000015,-0.008693,0.022473,-0.037719
4.2675000000000125,-0.0085,0.021973,-0.04064
4.27000000000001,-0.010349,0.01789,-0.031857
4.272500000000008,-0.007857,0.019798,-0.029749
4.275000000000006,-0.007237,0.015704,-0.026968
4.277500000000003,-0.005184,0.016638,-0.023794
4.280000000000001,-0.004137,0.011399,-0.02512
4.282499999999999,-0.004953,0.010986,-0.02142
4.284999999999997,-0.003003,0.011497,-0.019753
4.287499999999994,-0.00321,0.009341,-0.017165
4.289999999999992,-0.005853,0.010439,-0.014263
4.29249999999999,-0.005281,0.005558,-0.013414
4.295000000000016,-0.003257,0.00613,-0.012758
4.297500000000014,-0.00242,0.005115,-0.002941
4.300000000000011,-0.000384,0.000333,-0.005148
4.302500000000009,-0.000557,-0.000291,-0.000218
4.305000000000007,-0.001436,0.000442,0.002266
4.3075000000000045,-0.002334,0.000592,0.00258
4.310000000000002,-0.001794,-0.003195,0.00648
4.3125,0.001911,-0.005148,0.008794
4.314999999999998,-7.9e-05,-0.004974,0.00916
4.317499999999996,0.002574,-0.00723,0.01315
4.319999999999993,0.003531,-0.007948,0.014976
4.322499999999991,0.005842,-0.007623,0.016481
4.325000000000017,0.004751,-0.007954,0.017632
4.327500000000015,0.004206,-0.010097,0.019003
4.3300000000000125,0.006814,-0.008996,0.020934
4.33250000000001,0.007369,-0.008701,0.02236
4.335000000000008,0.005106,-0.012936,0.027931
4.337500000000006,0.008257,-0.018224,0.027835
4.340000000000003,0.006288,-0.018212,0.030052
4.342500000000001,0.008831,-0.020565,0.030645
4.344999999999999,0.009934,-0.021262,0.035156
4.347499999999997,0.007718,-0.020804,0.033314
4.349999999999994,0.012141,-0.023338,0.035752
4.352499999999992,0.009394,-0.022563,0.037924
4.35499999999999,0.011162,-0.025438,0.040541
4.357500000000016,0.011677,-0.028348,0.039611
4.360000000000014,0.01025,-0.024524,0.040945
4.362500000000011,0.008643,-0.028478,0.043391
4.365000000000009,0.014885,-0.02887,0.04686
4.367500000000007,0.012603,-0.030118,0.048532
4.3700000000000045,0.013714,-0.028695,0.054867
4.372500000000002,0.012369,-0.03296,0.054208
4.375,0.014583,-0.035696,0.053803
4.377499999999998,0.012472,-0.031555,0.055184
4.379999999999996,0.01558,-0.034517,0.056253
4.382499999999993,0.015716,-0.03415,0.061358
4.384999999999991,0.018234,-0.036725,0.062288
4.387500000000017,0.012483,-0.032298,0.065168
4.390000000000015,0.015289,-0.037441,0.065424
4.3925000000000125,0.014881,-0.037983,0.067236
4.39500000000001,0.020713,-0.038406,0.067472
4.397500000000008,0.020098,-0.037782,0.071607
4.400000000000006,0.019399,-0.042723,0.071237
4.402500000000003,0.018588,-0.043401,0.074642
4.405000000000001,0.019941,-0.046091,0.076699
4.407499999999999,0.019867,-0.04468,0.077895
4.409999999999997,0.023822,-0.045459,0.078558
4.412499999999994,0.022072,-0.048992,0.079866
4.414999999999992,0.021978,-0.048101,0.080837
4.41749999999999,0.026201,-0.048107,0.080077
4.420000000000016,0.021645,-0.052838,0.087185
4.422500000000014,0.021932,-0.055484,0.087103
4.425000000000011,0.02582,-0.054955,0.091697
4.427500000000009,0.026796,-0.0545,0.090281
4.430000000000007,0.024789,-0.054808,0.092041
4.4325000000000045,0.025889,-0.054957,0.096867
4.435000000000002,0.024133,-0.058232,0.0987
4.4375,0.025392,-0.056186,0.101665
4.439999999999998,0.025532,-0.059785,0.101226
4.442499999999996,0.027341,-0.059085,0.10213
4.444999999999993,0.027423,-0.053646,0.101829
4.447499999999991,0.026835,-0.058734,0.107487
4.450000000000017,0.024525,-0.058034,0.10768
4.452500000000015,0.032008,-0.063981,0.106021
4.4550000000000125,0.029252,-0.062072,0.110864
4.45750000000001,0.029189,-0.063138,0.112393
4.460000000000008,0.025966,-0.064871,0.114914
4.462500000000006,0.032666,-0.063527,0.110567
4.465000000000003,0.029375,-0.06503,0.115492
4.467500000000001,0.031509,-0.065647,0.115777
4.469999999999999,0.031856,-0.06558,0.115592
4.472499999999997,0.029663,-0.065288,0.120876
4.474999999999994,0.028325,-0.071228,0.120042
4.477499999999992,0.031447,-0.068216,0.123668
4.47999999999999,0.032578,-0.069393,0.120363
4.482500000000016,0.032573,-0.068682,0.124169
4.485000000000014,0.032645,-0.0682,0.125516
4.487500000000011,0.032137,-0.07157,0.124376
4.490000000000009,0.032703,-0.071979,0.123676
4.492500000000007,0.031868,-0.071348,0.129484
4.4950000000000045,0.032149,-0.070018,0.125097
4.497500000000002,0.034656,-0.073382,0.127793
4.5,0.032552,-0.068347,0.130057
4.502499999999998,0.03458,-0.0747,0.126249
4.504999999999996,0.035261,-0.07209,0.129811
4.507499999999993,0.032149,-0.073867,0.129559
4.509999999999991,0.031901,-0.070468,0.129925
4.512500000000017,0.035054,-0.070992,0.132304
4.515000000000015,0.037635,-0.074334,0.127525
4.5175000000000125,0.033832,-0.071031,0.12937
4.52000000000001,0.038088,-0.070669,0.131821
4.522500000000008,0.036175,-0.068834,0.131317
4.525000000000006,0.032151,-0.071737,0.130475
4.527500000000003,0.035425,-0.072872,0.131121
4.530000000000001,0.034214,-0.070162,0.131523
4.532499999999999,0.033564,-0.072609,0.128616
4.534999999999997,0.03456,-0.073287,0.130301
4.537499999999994,0.036857,-0.073606,0.129605
4.539999999999992,0.030942,-0.074509,0.128923
4.54249999999999,0.033845,-0.075789,0.129095
4.545000000000016,0.034141,-0.070925,0.130152
4.547500000000014,0.030916,-0.072014,0.126769
4.550000000000011,0.035693,-0.073954,0.130419
4.552500000000009,0.033782,-0.069962,0.128505
4.555000000000007,0.035531,-0.07685,0.126984
4.5575000000000045,0.032928,-0.071862,0.127088
4.560000000000002,0.036203,-0.072855,0.127011
4.5625,0.034424,-0.071198,0.127462
4.564999999999998,0.028235,-0.072181,0.124594
