time,Gyr_X,Gyr_Y,Gyr_Z
0.0,0.0010646508437165,0.0,-0.0042603487041181
0.0035000000000025,0.0,0.0,0.0
0.007000000000005,0.0,0.0031956978604016,0.0
0.0105000000000003,0.0,0.0,-0.0063913957208032
0.0140000000000028,0.0,0.0031956978604016,0.0
0.0175000000000054,0.0010646508437165,0.0031956978604016,-0.002131047016685
0.0210000000000007,-0.0031956978604016,0.0031956978604016,0.0
0.0245000000000032,0.0,0.002131047016685,0.0
0.0280000000000057,0.0,0.0,0.0
0.0315000000000011,0.002131047016685,-0.002131047016685,-0.0053267448770866
0.0350000000000036,0.0,0.0010646508437165,-0.0031956978604016
0.038499999999999,-0.0010646508437165,0.002131047016685,-0.0063913957208032
0.0420000000000015,-0.0010646508437165,-0.0010646508437165,-0.0063913957208032
0.045500000000004,0.0010646508437165,0.002131047016685,-0.0031956978604016
0.0489999999999994,-0.0031956978604016,0.0,0.0
0.0525000000000019,0.0,0.0,-0.0010646508437165
0.0560000000000044,0.0010646508437165,0.002131047016685,-0.0031956978604016
0.0594999999999998,0.0,0.0,-0.002131047016685
0.0630000000000023,-0.0010646508437165,0.0042603487041181,-0.0010646508437165
0.0665000000000048,-0.002131047016685,0.0031956978604016,-0.0031956978604016
0.0700000000000002,-0.0010646508437165,-0.0010646508437165,-0.0010646508437165
0.0735000000000027,0.0,0.0,-0.0031956978604016
0.0770000000000052,0.0,0.0,-0.002131047016685
0.0805000000000006,0.0010646508437165,0.0010646508437165,0.0
0.0840000000000031,-0.0010646508437165,-0.0010646508437165,-0.0042603487041181
0.0875000000000056,-0.002131047016685,0.0010646508437165,-0.002131047016685
0.091000000000001,0.0010646508437165,0.0,-0.002131047016685
0.0945000000000035,0.0,0.0,-0.002131047016685
0.098000000000006,0.0,0.0010646508437165,-0.002131047016685
0.1015000000000014,-0.002131047016685,0.0010646508437165,0.0
0.1050000000000039,-0.002131047016685,0.0,0.0
0.1084999999999993,0.0,0.002131047016685,-0.002131047016685
0.1120000000000018,0.0,0.0,-0.0010646508437165
0.1155000000000043,0.0,0.002131047016685,-0.002131047016685
0.1189999999999997,0.0,0.0106534897541733,-0.0053267448770866
0.1225000000000022,0.0042603487041181,0.0308940730895516,-0.013849187614575
0.1260000000000047,0.0042603487041181,0.0788312863248278,-0.0266319790561814
0.1295000000000001,0.0031956978604016,0.1139874534477496,-0.0330233747769847
0.1330000000000026,-0.0042603487041181,0.1395530363309626,-0.0521993072686464
0.1365000000000051,-0.0106534897541733,0.1534022239455376,-0.0756355884644262
0.1400000000000005,-0.0255673282124649,0.1725781564371993,-0.096942567972773
0.143500000000003,-0.0447432607041266,0.1725781564371993,-0.0990718696602061
0.1470000000000055,-0.0383501196540714,0.1789695521580025,-0.0894847760790012
0.1505000000000009,-0.0234362811957798,0.1832316461913727,-0.083093380358198
0.1540000000000034,0.0063913957208032,0.1757738542976009,-0.0756355884644262
0.1575000000000059,0.0213052341790947,0.1544686201185061,-0.0628527970228197
0.1610000000000013,0.0213052341790947,0.1235745470289545,-0.0585907029894496
0.1645000000000038,0.0149138384582915,0.1001382658331746,-0.0511346564249298
0.1679999999999992,0.0010646508437165,0.0607217500061347,-0.0234362811957798
0.1715000000000017,-0.0042603487041181,0.0362208179666383,0.0
0.1750000000000042,0.002131047016685,-0.0042603487041181,0.0213052341790947
0.1784999999999996,0.01598023463126,-0.0245026773687483,0.0106534897541733
0.1820000000000021,0.0127827914416064,-0.0234362811957798,-0.0063913957208032
0.1855000000000046,0.0,-0.0181095363186931,0.0
0.189,-0.0010646508437165,-0.0053267448770866,0.0127827914416064
0.1925000000000025,0.0085224427374883,0.01598023463126,0.0106534897541733
0.196000000000005,0.0095870935812048,0.0245026773687483,0.0053267448770866
0.1995000000000004,0.0063913957208032,0.029827676916583,0.0063913957208032
0.2030000000000029,0.0010646508437165,0.0308940730895516,0.0117181405978899
0.2065000000000054,0.0,0.0330233747769847,0.0149138384582915
0.2100000000000008,0.0031956978604016,0.0223716303520633,0.0202405833353782
0.2135000000000033,0.0074577918937717,0.0127827914416064,0.0223716303520633
0.2170000000000058,0.0191759324916617,0.0063913957208032,0.0234362811957798
0.2205000000000012,0.02769837522915,0.0042603487041181,0.0223716303520633
0.2240000000000037,0.02769837522915,-0.0223716303520633,0.0191759324916617
0.2274999999999991,0.0223716303520633,-0.0383501196540714,0.0127827914416064
0.2310000000000016,0.0202405833353782,-0.0660484948832214,0.0063913957208032
0.2345000000000041,0.0095870935812048,-0.0916158230956863,0.0031956978604016
0.2379999999999995,-0.0085224427374883,-0.1395530363309626,0.0
0.241500000000002,-0.0223716303520633,-0.1789695521580025,0.0074577918937717
0.2450000000000045,-0.041545817514473,-0.2183860679850424,0.0234362811957798
0.2484999999999999,-0.041545817514473,-0.2247774637058457,0.0255673282124649
0.2520000000000024,-0.0181095363186931,-0.1906876927558924,0.0266319790561814
0.2555000000000049,0.0149138384582915,-0.1448797812080492,0.029827676916583
0.2590000000000003,0.0521993072686464,-0.0841580312019145,0.0330233747769847
0.2625000000000028,0.0703088435873395,-0.0426122136874415,0.0426122136874415
0.2660000000000053,0.0639174478665363,-0.013849187614575,0.0319587239332681
0.2695000000000007,0.041545817514473,-0.0074577918937717,0.0202405833353782
0.2730000000000032,-0.0063913957208032,-0.0287630260728665,0.0170448854749766
0.2765000000000057,-0.0394165158270399,-0.0543303542853314,0.0234362811957798
0.2800000000000011,-0.0617864008498512,-0.0713752397603081,0.0255673282124649
0.2835000000000036,-0.0639174478665363,-0.0724398906040246,0.0202405833353782
0.2870000000000061,-0.0500682602519613,-0.0511346564249298,0.0085224427374883
0.2905000000000015,-0.0287630260728665,-0.0213052341790947,-0.0053267448770866
0.294000000000004,0.0042603487041181,0.0266319790561814,-0.0245026773687483
0.2974999999999994,0.0181095363186931,0.0585907029894496,-0.029827676916583
0.3010000000000019,0.02769837522915,0.0745709376207097,-0.0255673282124649
0.3045000000000044,0.0202405833353782,0.0735062867769931,-0.0245026773687483
0.3079999999999998,0.0053267448770866,0.0735062867769931,-0.0340897709499532
0.3115000000000023,-0.0149138384582915,0.0852244273748831,-0.0223716303520633
0.3150000000000048,-0.0351544217936697,0.1139874534477496,-0.0095870935812048
0.3185000000000002,-0.0458079115478431,0.1480754790684509,-0.0063913957208032
0.3220000000000027,-0.0372854688103548,0.1629910628559944,-0.0181095363186931
0.3255000000000052,-0.0117181405978899,0.1193124529955843,-0.02769837522915
0.3290000000000006,0.0245026773687483,0.0149138384582915,-0.0287630260728665
0.3325000000000031,0.0383501196540714,-0.0639174478665363,-0.0234362811957798
0.3360000000000056,0.0458079115478431,-0.124639197872671,-0.0063913957208032
0.339500000000001,0.0479389585645282,-0.1182478021518678,0.0117181405978899
0.3430000000000035,0.0628527970228197,-0.0937468701123714,0.0170448854749766
0.346500000000006,0.0745709376207097,-0.0703088435873395,0.0191759324916617
0.3500000000000014,0.0788312863248278,-0.0681795418999064,0.0170448854749766
0.3535000000000039,0.0628527970228197,-0.0767019846373948,0.0149138384582915
0.3569999999999993,0.0308940730895516,-0.0884201252352847,0.0202405833353782
0.3605000000000018,0.0149138384582915,-0.1001382658331746,0.0202405833353782
0.3640000000000043,0.0106534897541733,-0.1054650107102613,0.0181095363186931
0.3674999999999997,0.0181095363186931,-0.0990718696602061,0.0266319790561814
0.3710000000000022,0.0362208179666383,-0.0862890782185996,0.0308940730895516
0.3745000000000047,0.0426122136874415,-0.0735062867769931,0.0330233747769847
0.3780000000000001,0.0447432607041266,-0.0628527970228197,0.0340897709499532
0.3815000000000026,0.0319587239332681,-0.0617864008498512,0.029827676916583
0.3850000000000051,0.0202405833353782,-0.0436768645311581,0.0266319790561814
0.3885000000000005,0.013849187614575,-0.029827676916583,0.0308940730895516
0.392000000000003,0.01598023463126,-0.0095870935812048,0.041545817514473
0.3955000000000055,0.0234362811957798,0.0085224427374883,0.0532657034416149
0.3990000000000009,0.0340897709499532,0.0404811666707564,0.0660484948832214
0.4025000000000034,0.0394165158270399,0.0617864008498512,0.0713752397603081
0.4060000000000059,0.0479389585645282,0.0777666354811113,0.0735062867769931
0.4095000000000013,0.0511346564249298,0.0894847760790012,0.0660484948832214
0.4130000000000038,0.0543303542853314,0.0894847760790012,0.0511346564249298
0.4164999999999992,0.0671131457269379,0.0926804739394028,0.0479389585645282
0.4200000000000017,0.0884201252352847,0.0905494269227178,0.0394165158270399
0.4235000000000042,0.1054650107102613,0.0916158230956863,0.0404811666707564
0.4269999999999996,0.124639197872671,0.0905494269227178,0.0351544217936697
0.4305000000000021,0.1299659427497577,0.0862890782185996,0.0255673282124649
0.4340000000000046,0.1310323389227262,0.0873537290623162,0.013849187614575
0.4375,0.138488385487246,0.083093380358198,0.0010646508437165
0.4410000000000025,0.1438151303643327,0.0777666354811113,-0.0095870935812048
0.444500000000005,0.1470108282247343,0.0841580312019145,-0.0117181405978899
0.4480000000000004,0.1491418752414194,0.083093380358198,-0.013849187614575
0.4515000000000029,0.1459461773810178,0.083093380358198,-0.0117181405978899
0.4550000000000054,0.1587289688226243,0.0862890782185996,-0.0223716303520633
0.4585000000000008,0.1672514115601126,0.0809623333415129,-0.0266319790561814
0.4620000000000033,0.1704471094205142,0.0756355884644262,-0.0330233747769847
0.4655000000000058,0.1725781564371993,0.0745709376207097,-0.0383501196540714
0.4690000000000012,0.166186760716396,0.0703088435873395,-0.041545817514473
0.4725000000000037,0.1565979218059392,0.0703088435873395,-0.0447432607041266
0.4759999999999991,0.1289012919060412,0.069244192743623,-0.0447432607041266
0.4795000000000016,0.1086607085706629,0.0724398906040246,-0.0500682602519613
0.4830000000000041,0.0671131457269379,0.0809623333415129,-0.055395005129048
0.4864999999999995,0.0319587239332681,0.0884201252352847,-0.0575260521457331
0.490000000000002,-0.02769837522915,0.1012029166768912,-0.0575260521457331
0.4935000000000045,-0.0660484948832214,0.1097253594143795,-0.0649838440395048
0.4969999999999999,-0.1225098961852379,0.124639197872671,-0.0681795418999064
0.5005000000000024,-0.1512729222581045,0.1342280367831279,-0.0671131457269379
0.5040000000000049,-0.1864273440517743,0.1448797812080492,-0.069244192743623
0.5075000000000003,-0.2045368803704674,0.1459461773810178,-0.0660484948832214
0.5110000000000028,-0.2258421145495622,0.1374237346435295,-0.0628527970228197
0.5145000000000053,-0.2407576983371057,0.1299659427497577,-0.0617864008498512
0.5180000000000007,-0.2503447919183106,0.1214435000122694,-0.0649838440395048
0.5215000000000032,-0.2418223491808223,0.1139874534477496,-0.0660484948832214
0.5250000000000057,-0.2162550209683574,0.1086607085706629,-0.0681795418999064
0.5285000000000011,-0.1885583910684593,0.1065296615539778,-0.0660484948832214
0.5320000000000036,-0.1352926876268444,0.096942567972773,-0.0596570991624181
0.5355000000000061,-0.0884201252352847,0.0862890782185996,-0.0479389585645282
0.5390000000000015,-0.0245026773687483,0.0649838440395048,-0.02769837522915
0.542500000000004,0.0202405833353782,0.0447432607041266,-0.0170448854749766
0.5459999999999994,0.0724398906040246,0.029827676916583,-0.0106534897541733
0.5495000000000019,0.0937468701123714,0.0181095363186931,-0.0095870935812048
0.5530000000000044,0.1193124529955843,0.0181095363186931,-0.0031956978604016
0.5564999999999998,0.1374237346435295,0.0191759324916617,0.0
0.5600000000000023,0.1544686201185061,0.01598023463126,0.0085224427374883
0.5635000000000048,0.1597953649955928,0.0191759324916617,0.0127827914416064
0.5670000000000002,0.1587289688226243,0.0191759324916617,0.0191759324916617
0.5705000000000027,0.1565979218059392,0.01598023463126,0.0255673282124649
0.5740000000000052,0.1608600158393093,0.01598023463126,0.02769837522915
0.5775000000000006,0.1640557136997109,0.0106534897541733,0.0245026773687483
0.5810000000000031,0.1757738542976009,0.0106534897541733,0.0245026773687483
0.5845000000000056,0.1853609478788057,0.0106534897541733,0.01598023463126
0.588000000000001,0.1992101354933808,0.0042603487041181,0.0095870935812048
0.5915000000000035,0.205601531214184,0.0010646508437165,0.0
0.595000000000006,0.2130593231079557,-0.0042603487041181,-0.002131047016685
0.5985000000000014,0.2215817658454441,-0.0095870935812048,0.0031956978604016
0.6020000000000039,0.2322352555996175,-0.0127827914416064,0.0095870935812048
0.6054999999999993,0.247149094057909,-0.0170448854749766,0.0149138384582915
0.6090000000000018,0.2705853752536888,-0.0234362811957798,0.01598023463126
0.6125000000000043,0.2833681666952953,-0.0266319790561814,0.0106534897541733
0.6159999999999997,0.3014794483432405,-0.0340897709499532,0.0074577918937717
0.6195000000000022,0.3121311927681619,-0.0394165158270399,0.0
0.6230000000000047,0.3249157295390203,-0.0447432607041266,-0.0053267448770866
0.6265000000000001,0.3302424744161071,-0.0394165158270399,-0.0117181405978899
0.6300000000000026,0.3451563128743986,-0.0436768645311581,-0.0149138384582915
0.6335000000000051,0.3483520107348002,-0.0479389585645282,-0.0170448854749766
0.6370000000000005,0.3494166615785167,-0.0521993072686464,-0.0223716303520633
0.640500000000003,0.3515477085952018,-0.0564614013020165,-0.0223716303520633
0.6440000000000055,0.341960615013997,-0.0575260521457331,-0.02769837522915
0.6475000000000009,0.3366338701369103,-0.0575260521457331,-0.029827676916583
0.6510000000000034,0.3249157295390203,-0.0479389585645282,-0.0308940730895516
0.6545000000000059,0.3121311927681619,-0.0447432607041266,-0.0330233747769847
0.6580000000000013,0.2908259585890671,-0.0372854688103548,-0.0319587239332681
0.6615000000000038,0.2716500260974054,-0.0266319790561814,-0.0287630260728665
0.6649999999999991,0.2386266513204207,-0.0213052341790947,-0.0234362811957798
0.6685000000000016,0.2109282760912707,-0.0085224427374883,-0.0245026773687483
0.6720000000000041,0.1619246666830259,0.0042603487041181,-0.0181095363186931
0.6754999999999995,0.1331616406101593,0.0202405833353782,-0.0191759324916617
0.679000000000002,0.0916158230956863,0.0351544217936697,-0.01598023463126
0.6825000000000045,0.0639174478665363,0.0394165158270399,-0.0181095363186931
0.6859999999999999,0.0191759324916617,0.0532657034416149,-0.0202405833353782
0.6895000000000024,-0.0053267448770866,0.0585907029894496,-0.0202405833353782
0.693000000000005,-0.0447432607041266,0.0745709376207097,-0.0223716303520633
0.6965000000000003,-0.0671131457269379,0.0862890782185996,-0.0223716303520633
0.7000000000000028,-0.1054650107102613,0.1054650107102613,-0.0266319790561814
0.7035000000000053,-0.1267702448893561,0.1235745470289545,-0.0340897709499532
0.7070000000000007,-0.1576643179789077,0.138488385487246,-0.0308940730895516
0.7105000000000032,-0.1736428072809158,0.1427504795206162,-0.029827676916583
0.7140000000000057,-0.1853609478788057,0.1459461773810178,-0.0255673282124649
0.7175000000000011,-0.1885583910684593,0.1491418752414194,-0.0245026773687483
0.7210000000000036,-0.180035948330971,0.1565979218059392,-0.02769837522915
0.7245000000000061,-0.1672514115601126,0.1555332709622227,-0.0319587239332681
0.7280000000000015,-0.1438151303643327,0.1565979218059392,-0.0362208179666383
0.731500000000004,-0.1214435000122694,0.1565979218059392,-0.0383501196540714
0.7349999999999994,-0.0809623333415129,0.1534022239455376,-0.0383501196540714
0.7385000000000019,-0.0521993072686464,0.1491418752414194,-0.0351544217936697
0.7420000000000044,-0.013849187614575,0.1416840833476476,-0.0330233747769847
0.7454999999999998,0.0106534897541733,0.1352926876268444,-0.0330233747769847
0.7490000000000023,0.041545817514473,0.136357338470561,-0.0383501196540714
0.7525000000000048,0.0671131457269379,0.1310323389227262,-0.0426122136874415
0.7560000000000002,0.0894847760790012,0.1299659427497577,-0.0447432607041266
0.7595000000000027,0.1097253594143795,0.1278348957330726,-0.0383501196540714
0.7630000000000052,0.1331616406101593,0.124639197872671,-0.0372854688103548
0.7665000000000006,0.1406194325039311,0.1214435000122694,-0.041545817514473
0.7700000000000031,0.1480754790684509,0.1171831513081512,-0.0511346564249298
0.7735000000000056,0.1448797812080492,0.1118564064310645,-0.0575260521457331
0.777000000000001,0.1491418752414194,0.1033339636935762,-0.0628527970228197
0.7805000000000035,0.1427504795206162,0.0948115209560879,-0.0671131457269379
0.784000000000006,0.1470108282247343,0.0905494269227178,-0.0745709376207097
0.7875000000000014,0.1352926876268444,0.0894847760790012,-0.0798976824977964
0.7910000000000039,0.1193124529955843,0.0905494269227178,-0.0937468701123714
0.7944999999999993,0.0990718696602061,0.0926804739394028,-0.0958761717998045
0.7980000000000018,0.0575260521457331,0.0884201252352847,-0.1012029166768912
0.8015000000000043,0.0117181405978899,0.0862890782185996,-0.1012029166768912
0.8049999999999997,-0.0532657034416149,0.0852244273748831,-0.0990718696602061
0.8085000000000022,-0.1054650107102613,0.0852244273748831,-0.0937468701123714
0.8120000000000047,-0.1874919948954908,0.0724398906040246,-0.0852244273748831
0.8155000000000001,-0.2503447919183106,0.0681795418999064,-0.0809623333415129
0.8190000000000026,-0.3398295679973119,0.0404811666707564,-0.0628527970228197
0.8225000000000051,-0.4026823650201317,0.0191759324916617,-0.0436768645311581
0.8260000000000005,-0.4378367868138015,0.0031956978604016,-0.0074577918937717
0.829500000000003,-0.43890318298677,0.0,0.02769837522915
0.8330000000000055,-0.4506213235846599,-0.0223716303520633,0.0607217500061347
0.8365000000000009,-0.4602084171658648,-0.0383501196540714,0.0809623333415129
0.8400000000000034,-0.4580773701491797,-0.0617864008498512,0.0990718696602061
0.8435000000000059,-0.4378367868138015,-0.0703088435873395,0.1171831513081512
0.8470000000000013,-0.4037470158638482,-0.0809623333415129,0.1470108282247343
0.8505000000000038,-0.3622011983493752,-0.0820287295144815,0.166186760716396
0.8539999999999992,-0.2972173543098703,-0.0873537290623162,0.1874919948954908
0.8575000000000017,-0.2492801410745941,-0.0862890782185996,0.1949497867892626
0.8610000000000042,-0.1789695521580025,-0.0905494269227178,0.2013411825100658
0.8644999999999996,-0.1342280367831279,-0.0937468701123714,0.1928187397725775
0.8680000000000021,-0.0916158230956863,-0.0937468701123714,0.1757738542976009
0.8715000000000046,-0.0681795418999064,-0.1033339636935762,0.1640557136997109
0.875,-0.0511346564249298,-0.1161167551351827,0.1395530363309626
0.8785000000000025,-0.0436768645311581,-0.1289012919060412,0.124639197872671
0.882000000000005,-0.0511346564249298,-0.1491418752414194,0.1001382658331746
0.8855000000000004,-0.0607217500061347,-0.1608600158393093,0.0820287295144815
0.8890000000000029,-0.0767019846373948,-0.177904901314286,0.0596570991624181
0.8925000000000054,-0.0926804739394028,-0.1896230419121759,0.0447432607041266
0.8960000000000008,-0.1139874534477496,-0.1992101354933808,0.0202405833353782
0.8995000000000033,-0.1182478021518678,-0.2024058333537824,0.0085224427374883
0.9030000000000058,-0.1257055940456395,-0.2013411825100658,0.002131047016685
0.9065000000000012,-0.1139874534477496,-0.1981454846496642,0.0053267448770866
0.9100000000000036,-0.0990718696602061,-0.1853609478788057,0.0063913957208032
0.9134999999999992,-0.0767019846373948,-0.1683160624038291,0.0127827914416064
0.9170000000000016,-0.0458079115478431,-0.1374237346435295,0.0181095363186931
0.920500000000004,-0.01598023463126,-0.1022693128498597,0.0266319790561814
0.9239999999999996,0.0308940730895516,-0.0511346564249298,0.0372854688103548
0.927500000000002,0.0649838440395048,-0.0085224427374883,0.0447432607041266
0.9310000000000044,0.1129210572747811,0.0404811666707564,0.0617864008498512
0.9345,0.1416840833476476,0.0745709376207097,0.0628527970228197
0.9380000000000024,0.1757738542976009,0.1278348957330726,0.0596570991624181
0.9415000000000048,0.1928187397725775,0.1640557136997109,0.0479389585645282
0.9450000000000004,0.1981454846496642,0.2034722295267509,0.0223716303520633
0.9485000000000028,0.191754088928861,0.2322352555996175,0.0
0.9520000000000052,0.1629910628559944,0.2652586303766022,-0.041545817514473
0.9555000000000008,0.1310323389227262,0.2780431671474606,-0.0735062867769931
0.9590000000000032,0.0671131457269379,0.2854992137119804,-0.1214435000122694
0.9625000000000056,0.0106534897541733,0.2801724688348938,-0.1491418752414194
0.9660000000000012,-0.0777666354811113,0.2631275833599171,-0.1928187397725775
0.9695000000000036,-0.1491418752414194,0.2418223491808223,-0.2141239739516723
0.973000000000006,-0.2428870000245388,0.2130593231079557,-0.2396913021641372
0.9765000000000016,-0.3046751462036421,0.180035948330971,-0.2567361876391139
0.980000000000004,-0.3643322453660603,0.1470108282247343,-0.2684543282370038
0.9834999999999994,-0.4239875991992265,0.0980072188164895,-0.2769767709744921
0.987000000000002,-0.4516859744283765,0.0607217500061347,-0.2769767709744921
0.9905000000000044,-0.4676662090596366,0.0031956978604016,-0.2727164222703739
0.9939999999999998,-0.464468765869983,-0.0340897709499532,-0.2620629325162006
0.9975000000000024,-0.4399678338304866,-0.0798976824977964,-0.2428870000245388
1.0010000000000048,-0.4080091098972184,-0.1139874534477496,-0.2226464166891606
1.0045000000000002,-0.3494166615785167,-0.1427504795206162,-0.1896230419121759
1.008000000000003,-0.2950880526224372,-0.1576643179789077,-0.1565979218059392
1.0115000000000052,-0.2119946722642392,-0.177904901314286,-0.1118564064310645
1.0150000000000006,-0.1491418752414194,-0.1970790884766957,-0.0756355884644262
1.018500000000003,-0.0585907029894496,-0.2098636252475541,-0.0287630260728665
1.0220000000000056,0.0085224427374883,-0.2290395577392158,0.0
1.025500000000001,0.0894847760790012,-0.247149094057909,0.0340897709499532
1.0290000000000037,0.1427504795206162,-0.2652586303766022,0.0521993072686464
1.032500000000006,0.1960144376329791,-0.2993484013265554,0.0703088435873395
1.0360000000000014,0.2322352555996175,-0.3291760782431385,0.083093380358198
1.039500000000004,0.2641939795328856,-0.3664615470534934,0.0948115209560879
1.0429999999999993,0.2801724688348938,-0.4026823650201317,0.1001382658331746
1.0465000000000018,0.2950880526224372,-0.4399678338304866,0.1054650107102613
1.0500000000000045,0.2993484013265554,-0.4676662090596366,0.1054650107102613
1.0534999999999997,0.2982837504828389,-0.503885281697023,0.1012029166768912
1.0570000000000022,0.2918906094327836,-0.5251905158761178,0.1022693128498597
1.0605000000000049,0.2780431671474606,-0.5603466829990394,0.0980072188164895
1.064,0.2652586303766022,-0.5752605214573311,0.0948115209560879
1.0675000000000026,0.2418223491808223,-0.6040235475301975,0.0958761717998045
1.071000000000005,0.2279731615662473,-0.6200020368322057,0.0980072188164895
1.0745000000000005,0.2077325782308691,-0.628524479569694,0.1012029166768912
1.078000000000003,0.1906876927558924,-0.630655526586379,0.1097253594143795
1.0815000000000057,0.1789695521580025,-0.628524479569694,0.1235745470289545
1.0850000000000009,0.166186760716396,-0.6231994800218592,0.138488385487246
1.0885000000000034,0.1491418752414194,-0.6104149432510009,0.1565979218059392
1.092000000000006,0.1395530363309626,-0.602958896686481,0.1693824585767977
1.0955000000000013,0.1182478021518678,-0.5837829641948193,0.1811005991746876
1.0990000000000038,0.1012029166768912,-0.5688691257365278,0.1864273440517743
1.1024999999999991,0.0713752397603081,-0.5454328445407479,0.2013411825100658
1.1060000000000016,0.0468725623915597,-0.5262569120490862,0.2119946722642392
1.109500000000004,0.0085224427374883,-0.5145387714511963,0.2258421145495622
1.1129999999999995,-0.0202405833353782,-0.508147375730393,0.2322352555996175
1.116500000000002,-0.0585907029894496,-0.5017542346803379,0.2343645572870505
1.1200000000000043,-0.0820287295144815,-0.5017542346803379,0.2322352555996175
1.1235,-0.1182478021518678,-0.5028206308533064,0.2173214171413259
1.1270000000000024,-0.1395530363309626,-0.5070809795574245,0.2077325782308691
1.130500000000005,-0.1587289688226243,-0.5134723752782278,0.1811005991746876
1.1340000000000003,-0.1629910628559944,-0.5166698184678814,0.1629910628559944
1.1375000000000028,-0.1608600158393093,-0.5251905158761178,0.1310323389227262
1.1410000000000051,-0.1459461773810178,-0.5251905158761178,0.110790010258096
1.1445000000000007,-0.110790010258096,-0.5219948180157161,0.0777666354811113
1.1480000000000032,-0.0745709376207097,-0.5273215628928027,0.0575260521457331
1.1515000000000055,-0.0127827914416064,-0.519865516328283,0.0308940730895516
1.1550000000000011,0.041545817514473,-0.517734469311598,0.01598023463126
1.1585000000000036,0.1310323389227262,-0.5028206308533064,-0.0117181405978899
1.162000000000006,0.1949497867892626,-0.4942981881158181,-0.0255673282124649
1.1655000000000015,0.2833681666952953,-0.4708619069200382,-0.0404811666707564
1.169000000000004,0.3547434064556034,-0.4495549274116914,-0.0479389585645282
1.1724999999999994,0.4420988808471717,-0.4197272504951083,-0.0511346564249298
1.176000000000002,0.4964292351325031,-0.3952245731263599,-0.0479389585645282
1.1795000000000044,0.5582156359823544,-0.3611348021764067,-0.041545817514473
1.1829999999999998,0.5880433128989375,-0.3387649171535954,-0.0394165158270399
1.1865000000000023,0.6157416881280875,-0.3046751462036421,-0.0255673282124649
1.1900000000000048,0.6274598287259775,-0.2897613077453506,-0.0127827914416064
1.1935000000000002,0.630655526586379,-0.2684543282370038,0.002131047016685
1.1970000000000027,0.630655526586379,-0.2620629325162006,0.0106534897541733
1.2005000000000052,0.6295908757426625,-0.2535404897787122,0.0266319790561814
1.2040000000000006,0.6295908757426625,-0.2556715367953973,0.0287630260728665
1.2075000000000031,0.6413090163405525,-0.2673896773932873,0.0351544217936697
1.2110000000000056,0.6540918077821589,-0.2812388650078622,0.0383501196540714
1.214500000000001,0.6753987872905056,-0.2972173543098703,0.0330233747769847
1.2180000000000035,0.6924436727654824,-0.3089354949077603,0.0255673282124649
1.221500000000006,0.7201403026653803,-0.3249157295390203,0.01598023463126
1.2250000000000014,0.7403808860007585,-0.3366338701369103,0.0053267448770866
1.228500000000004,0.7691439120736251,-0.3547434064556034,-0.0042603487041181
1.231999999999999,0.7957776364590586,-0.3675279432264619,-0.0149138384582915
1.2355000000000018,0.8256053133756417,-0.3803107346680683,-0.0308940730895516
1.2390000000000043,0.8501062454151381,-0.38350643252847,-0.0383501196540714
1.2424999999999995,0.8831313655213747,-0.3920288752659583,-0.0607217500061347
1.2460000000000022,0.9118943915942412,-0.3867021303888716,-0.0724398906040246
1.2495000000000047,0.9481134642316276,-0.3749839897909817,-0.0862890782185996
1.253,0.9736807924440926,-0.3611348021764067,-0.0980072188164895
1.2565000000000026,1.0045748655336442,-0.3408942188410284,-0.1075943123976944
1.2600000000000051,1.0258800997127389,-0.3259803803827369,-0.1086607085706629
1.2635000000000003,1.0461224283773694,-0.3121311927681619,-0.1022693128498597
1.267000000000003,1.0546431257856057,-0.3068061932203272,-0.1022693128498597
1.2705000000000055,1.0567741728022906,-0.2940216564494687,-0.0894847760790012
1.274000000000001,1.0482517300648024,-0.2940216564494687,-0.0862890782185996
1.2775000000000034,1.0386646364835974,-0.2950880526224372,-0.0756355884644262
1.281000000000006,1.0248154488690224,-0.3036087500306735,-0.0713752397603081
1.2845000000000013,1.0013791676732426,-0.314262239784847,-0.0660484948832214
1.2880000000000038,0.984334282198266,-0.3313071252598236,-0.055395005129048
1.2914999999999992,0.968355792896258,-0.355809802628572,-0.0394165158270399
1.2950000000000017,0.958766953985801,-0.3728546881035486,-0.0255673282124649
1.2985000000000042,0.952375558264998,-0.397355620143045,0.002131047016685
1.3019999999999996,0.9502445112483128,-0.4144005056180216,0.0223716303520633
1.305500000000002,0.9438531155275096,-0.4346410889533998,0.055395005129048
1.3090000000000046,0.9459841625441944,-0.4548816722887781,0.0756355884644262
1.3125,0.9481134642316276,-0.4783179534845579,0.1043986145372928
1.3160000000000025,0.9502445112483128,-0.4953628389595346,0.1203788491685528
1.319500000000005,0.9651583497066044,-0.5156034222949128,0.1331616406101593
1.3230000000000004,0.9790075373211792,-0.5315836569261729,0.1459461773810178
1.326500000000003,1.0067059125503293,-0.5464974953844645,0.1565979218059392
1.3300000000000054,1.0333378916065108,-0.5539552872782363,0.1640557136997109
1.3335000000000008,1.0780811523106375,-0.5560845889656694,0.1629910628559944
1.3370000000000033,1.1174959228084254,-0.547562146228181,0.1597953649955928
1.3405000000000058,1.1718262770937566,-0.5273215628928027,0.1544686201185061
1.3440000000000012,1.2165695377978836,-0.5006895838366213,0.1491418752414194
1.3475000000000037,1.275160240787333,-0.4612730680095813,0.1416840833476476
1.350999999999999,1.3230991993518617,-0.425053995372195,0.1416840833476476
1.3545000000000016,1.3827562985142796,-0.369657244913895,0.1342280367831279
1.358000000000004,1.4360202566266425,-0.3366338701369103,0.1320969897664428
1.3614999999999997,1.506329100213982,-0.2823035158515788,0.136357338470561
1.365000000000002,1.5542680587785105,-0.2439533961975074,0.1352926876268444
1.3685000000000045,1.6203165536617317,-0.1981454846496642,0.1342280367831279
1.372,1.66825551222626,-0.1640557136997109,0.1289012919060412
1.3755000000000024,1.7417600536740012,-0.1203788491685528,0.1214435000122694
1.3790000000000049,1.7822412203447575,-0.0958761717998045,0.1182478021518678
1.3825000000000005,1.8387026216467743,-0.0617864008498512,0.1161167551351827
1.3860000000000028,1.871725996423759,-0.0436768645311581,0.1139874534477496
1.3895000000000053,1.904751116529996,-0.0170448854749766,0.1118564064310645
1.393000000000001,1.917533907971602,0.0,0.1150521042914662
1.3965000000000032,1.922860652848689,0.0181095363186931,0.1235745470289545
1.4000000000000057,1.917533907971602,0.0340897709499532,0.1225098961852379
1.403500000000001,1.901555418669594,0.0468725623915597,0.1310323389227262
1.4070000000000036,1.8845105331946173,0.0543303542853314,0.1374237346435295
1.410500000000006,1.8674656477196407,0.0500682602519613,0.1342280367831279
1.4140000000000017,1.852551809261349,0.0458079115478431,0.1352926876268444
1.417500000000004,1.8376379708030577,0.0404811666707564,0.136357338470561
1.4209999999999994,1.8323112259259708,0.0394165158270399,0.1331616406101593
1.424500000000002,1.8376379708030577,0.0383501196540714,0.1257055940456395
1.4280000000000044,1.8408336686634592,0.0383501196540714,0.1161167551351827
1.4314999999999998,1.8589432049821528,0.0426122136874415,0.1022693128498597
1.4350000000000025,1.8695966947363256,0.0585907029894496,0.0873537290623162
1.4385000000000048,1.8951640229487907,0.0767019846373948,0.0660484948832214
1.4420000000000002,1.9068821635466808,0.1012029166768912,0.0458079115478431
1.445500000000003,1.931383095586177,0.1310323389227262,0.0202405833353782
1.4490000000000052,1.9484279810611536,0.1608600158393093,0.0
1.4525000000000006,1.9654728665361303,0.2002765316663493,-0.0255673282124649
1.456000000000003,1.9761263562903035,0.2354309534600191,-0.0468725623915597
1.4595000000000056,1.9814531011673904,0.2780431671474606,-0.0756355884644262
1.463000000000001,1.970799611413217,0.314262239784847,-0.0980072188164895
1.4665000000000037,1.944167632357036,0.3494166615785167,-0.1331616406101593
1.470000000000006,1.9068821635466808,0.3685925940701784,-0.1587289688226243
1.4735000000000014,1.8280491318926009,0.4005513180034466,-0.1949497867892626
1.477000000000004,1.763067033182348,0.4186608543221398,-0.2130593231079557
1.4804999999999993,1.649079579734598,0.4325100419367148,-0.2418223491808223
1.4840000000000018,1.5510723609181087,0.4378367868138015,-0.2641939795328856
1.4875000000000045,1.412583975430863,0.4346410889533998,-0.2940216564494687
1.4909999999999997,1.2954008241227113,0.4314453910929982,-0.3217200316786187
1.4945000000000022,1.1483899958979769,0.4218582975117934,-0.3547434064556034
1.4980000000000049,1.0280111467294242,0.4080091098972184,-0.3845728287014385
1.5015,0.8724778757672014,0.3856374795451551,-0.4282496932325966
1.5050000000000026,0.7606214693361367,0.3685925940701784,-0.4516859744283765
1.508500000000005,0.6125459902676859,0.3376985209806268,-0.4836446983616446
1.5120000000000005,0.5124077244345112,0.314262239784847,-0.4985585368199362
1.515500000000003,0.3952245731263599,0.2737810731140905,-0.5219948180157161
1.5190000000000057,0.3270467765557054,0.2418223491808223,-0.5326483077698895
1.5225000000000009,0.2503447919183106,0.1949497867892626,-0.547562146228181
1.5260000000000034,0.2130593231079557,0.1587289688226243,-0.5571509851386378
1.529500000000006,0.191754088928861,0.1193124529955843,-0.5816519171781342
1.5330000000000013,0.1896230419121759,0.0916158230956863,-0.602958896686481
1.5365000000000038,0.1906876927558924,0.0564614013020165,-0.6413090163405525
1.5399999999999991,0.205601531214184,0.0308940730895516,-0.6626142505196473
1.5435000000000016,0.2205171150017275,0.0063913957208032,-0.6935083236091989
1.547000000000004,0.2279731615662473,-0.0106534897541733,-0.7116178599278921
1.5504999999999995,0.233299906443334,-0.0308940730895516,-0.7382515843133254
1.554000000000002,0.2354309534600191,-0.0436768645311581,-0.7584921676487036
1.5575000000000043,0.233299906443334,-0.0585907029894496,-0.780862052671515
1.561,0.2173214171413259,-0.069244192743623,-0.7979069381464917
1.5645000000000024,0.1949497867892626,-0.0767019846373948,-0.8181475214818699
1.568000000000005,0.166186760716396,-0.083093380358198,-0.8341277561131301
1.5715000000000003,0.1161167551351827,-0.0926804739394028,-0.8511726415881066
1.5750000000000028,0.0724398906040246,-0.0980072188164895,-0.8660864800463982
1.5785000000000051,0.0042603487041181,-0.1033339636935762,-0.8905874120858945
1.5820000000000007,-0.0532657034416149,-0.1161167551351827,-0.905502995873438
1.5855000000000032,-0.1512729222581045,-0.1331616406101593,-0.940657417667108
1.5890000000000055,-0.2279731615662473,-0.1534022239455376,-0.9694204437399744
1.5925000000000011,-0.3568744534722885,-0.191754088928861,-1.0035102146899275
1.5960000000000036,-0.4634041150262664,-0.2237128128621291,-1.032273240762794
1.599500000000006,-0.616806338971804,-0.2780431671474606,-1.065296615539779
1.6030000000000015,-0.7350541411236718,-0.3185243338182171,-1.0983217356460158
1.606500000000004,-0.9086986937338396,-0.3622011983493752,-1.138802902316772
1.6099999999999994,-1.0461224283773694,-0.3877685265618402,-1.1611727873395834
1.613500000000002,-1.231483376256175,-0.4207919013388249,-1.1931332566021038
1.6170000000000044,-1.369971761743421,-0.4399678338304866,-1.2218962826749702
1.6204999999999998,-1.563855152359715,-0.4655351620429515,-1.2602464023290416
1.6240000000000023,-1.706605631880331,-0.4857757453783297,-1.289009428401908
1.6275000000000048,-1.905815767373712,-0.519865516328283,-1.326294897212263
1.6310000000000002,-2.05176194475473,-0.5433017975240628,-1.353991527112161
1.6345000000000027,-2.239253939650221,-0.5678027295635593,-1.3934080429392008
1.6380000000000052,-2.3777423251374668,-0.5773915684740161,-1.4253667668724692
1.6415000000000006,-2.5513868777476345,-0.5827165680218508,-1.4562608399620207
1.6450000000000031,-2.678157122636991,-0.5816519171781342,-1.482892819018202
1.6485000000000056,-2.836886091459615,-0.5709984274239609,-1.5137868921077535
1.652000000000001,-2.9466114508739945,-0.5720648235969293,-1.5372231733035338
1.6555000000000035,-3.0882955342216425,-0.5720648235969293,-1.5670525955493688
1.659000000000006,-3.1948251957756204,-0.5699337765802444,-1.5862267827117784
1.6625000000000014,-3.336509279123268,-0.5773915684740161,-1.61712085580133
1.666000000000004,-3.443040686006498,-0.5805872663344177,-1.6384260899804248
1.669499999999999,-3.585789420197862,-0.5880433128989375,-1.66825551222626
1.6730000000000018,-3.688058733047722,-0.5837829641948193,-1.6948874912824414
1.6765000000000043,-3.8201557228141647,-0.5720648235969293,-1.725781564371993
1.6799999999999995,-3.901118056155677,-0.5560845889656694,-1.7481531947240565
1.6835000000000022,-3.981013993324222,-0.5401060996636612,-1.7758498246239545
1.6870000000000047,-4.016170160447143,-0.5273215628928027,-1.795025757115616
1.6905,-4.0417357433303565,-0.5145387714511963,-1.8152663404509943
1.6940000000000026,-4.023626207011663,-0.5102766774178261,-1.8333758767696875
1.6975000000000051,-3.9724915505867338,-0.4996249329929048,-1.8472250643842625
1.7010000000000003,-3.909640498893166,-0.4953628389595346,-1.8632035536862703
1.704500000000003,-3.795653045445416,-0.4836446983616446,-1.874923439613413
1.7080000000000055,-3.694450128768525,-0.4783179534845579,-1.885575184038334
1.711500000000001,-3.549570347560476,-0.4708619069200382,-1.887706231055019
1.7150000000000034,-3.4462363838668995,-0.4729912086074713,-1.8823794861779324
1.718500000000006,-3.318399742804575,-0.4889714432387313,-1.865334600702956
1.7220000000000013,-3.2321106645859747,-0.5070809795574245,-1.850420762244664
1.7255000000000038,-3.139430190646572,-0.5305172607532044,-1.8237887831884827
1.7289999999999992,-3.094686929942445,-0.547562146228181,-1.7992861058197342
1.7325000000000017,-3.059532508148776,-0.5635423808594411,-1.767327381886466
1.7360000000000042,-3.0467497167071693,-0.5709984274239609,-1.7417600536740012
1.7394999999999996,-3.0467497167071693,-0.5720648235969293,-1.7023452831762131
1.743000000000002,-3.054205763271689,-0.5699337765802444,-1.66825551222626
1.7465000000000046,-3.0744463466070675,-0.5731294744406459,-1.626707949382535
1.75,-3.0957533261154144,-0.5773915684740161,-1.5926181784325817
1.7535000000000025,-3.130907747909084,-0.586978662055221,-1.5489413139014236
1.757000000000005,-3.162866471842352,-0.6040235475301975,-1.5191136369848404
1.7605000000000004,-3.2161321752839678,-0.630655526586379,-1.482892819018202
1.764000000000003,-3.2619400868318102,-0.6647452975363323,-1.4583918869787058
1.7675000000000054,-3.3279868363857794,-0.709488558240459,-1.4296288609058392
1.7710000000000008,-3.3812525398273947,-0.7457076308778453,-1.413648626274579
1.7745000000000033,-3.447301034710616,-0.7979069381464917,-1.390212345078799
1.7780000000000058,-3.502696039839664,-0.836258803129815,-1.3806252514975943
1.7815000000000012,-3.5655488368624835,-0.8852624125380599,-1.3625139698496491
1.7850000000000037,-3.6028343056728387,-0.9161547402983594,-1.3486665275643264
1.788499999999999,-3.6560982637852018,-0.9555712561253994,-1.3358819907934678
1.7920000000000016,-3.688058733047722,-0.9832696313545496,-1.3273595480559794
1.795500000000004,-3.729604550562194,-1.0205551001649042,-1.3135103604414045
1.7989999999999997,-3.749845133897573,-1.0418603343439992,-1.3039232668601997
1.802500000000002,-3.769021066389235,-1.073819058277267,-1.2922051262623095
1.8060000000000045,-3.774347811266322,-1.0866035950481256,-1.2836826835248214
1.8095,-3.771150368076668,-1.1004510373334488,-1.2794223348207032
1.8130000000000024,-3.767954670216266,-1.1015174335064173,-1.2836826835248214
1.8165000000000049,-3.7604986236517455,-1.097255339473047,-1.28048698566442
1.8200000000000005,-3.767954670216266,-1.0887328967355587,-1.282618032681105
1.8235000000000028,-3.7967176962891327,-1.0727544074335509,-1.2708998920832149
1.8270000000000053,-3.830807467239086,-1.0599698706626923,-1.2559843082956712
1.830500000000001,-3.875550727943213,-1.0418603343439992,-1.2250919805353715
1.8340000000000032,-3.9170965454576856,-1.0269464958857075,-1.1899375587417018
1.8375000000000057,-3.957577712128442,-1.012032657427416,-1.130280459579284
1.841000000000001,-3.976753644620104,-1.002443818516959,-1.083406151858472
1.844500000000004,-3.9724915505867338,-0.9928567249357544,-1.0205551001649042
1.848000000000006,-3.951186316407639,-0.9939213757794708,-0.9800739334941478
1.8515000000000013,-3.905378404859796,-0.9971170736398725,-0.9300039279129344
1.855000000000004,-3.856374795451551,-1.0035102146899275,-0.8991098548233829
1.8584999999999996,-3.7924573475850143,-1.0194887039919358,-0.8703468287505163
1.8620000000000017,-3.757302925791345,-1.037599985639881,-0.8533036886047917
1.8655000000000044,-3.724277805685108,-1.0780811523106375,-0.8309320582527283
1.869,-3.716821759120589,-1.108973480070937,-0.820278568498555
1.8725000000000025,-3.726408852701793,-1.1483899958979769,-0.8043000791965469
1.8760000000000048,-3.757302925791345,-1.1835444176916468,-0.7957776364590586
1.8795,-3.805240139026621,-1.2218962826749702,-0.7851241467048852
1.883000000000003,-3.8521144467474326,-1.2485282617311515,-0.7776663548111135
1.8865000000000047,-3.905378404859796,-1.2698334959102464,-0.767014610386192
1.8900000000000008,-3.968231201882616,-1.3071189647206012,-0.7563611206320187
1.893500000000003,-4.009777019397089,-1.342273386514271,-0.7425119330174437
1.8970000000000056,-4.05238923308453,-1.3923433920954844,-0.723336000525782
1.900500000000001,-4.071565165576192,-1.432824558766241,-0.7116178599278921
1.9040000000000037,-4.086479004034484,-1.498873053649462,-0.6956393706258839
1.907500000000006,-4.095001446771971,-1.5425499181806204,-0.6871169278883955
1.9110000000000011,-4.104588540353176,-1.5947492254492668,-0.6636806466926157
1.914500000000004,-4.110981681403231,-1.6352303921200233,-0.644504714200954
1.9179999999999997,-4.124829123688555,-1.6810383036678664,-0.605088198373914
1.9215000000000015,-4.141874009163532,-1.7098013297407328,-0.5731294744406459
1.9250000000000045,-4.161049941655193,-1.7556092412885762,-0.5219948180157161
1.9285,-4.175963780113484,-1.781176569501041,-0.4783179534845579
1.9320000000000024,-4.196204363448863,-1.800352501992703,-0.4165315526347067
1.9355000000000049,-4.208988900219721,-1.811004246417624,-0.369657244913895
1.939,-4.24094762415299,-1.8056775015405373,-0.3068061932203272
1.9425000000000023,-4.275037395102943,-1.802481803680136,-0.2673896773932873
1.946000000000005,-4.340019493813196,-1.795025757115616,-0.2183860679850424
1.9495000000000005,-4.397545545958929,-1.790763663082246,-0.1853609478788057
1.953000000000003,-4.488096718210898,-1.8046128506968209,-0.1491418752414194
1.9565000000000052,-4.56160125965864,-1.816330991294711,-0.1289012919060412
1.9600000000000009,-4.667066270368902,-1.8387026216467743,-0.1150521042914662
1.9635000000000036,-4.751224301570816,-1.8450940173675772,-0.1086607085706629
1.9670000000000056,-4.856689312281078,-1.8610742519988372,-0.1065296615539778
1.9705000000000013,-4.928062806712132,-1.8610742519988372,-0.1086607085706629
1.974000000000004,-5.012222583243299,-1.8706613455800425,-0.1012029166768912
1.9774999999999991,-5.058030494791144,-1.8695966947363256,-0.0948115209560879
1.9810000000000016,-5.088924567880694,-1.8706613455800425,-0.0788312863248278
1.984500000000004,-5.097445265288931,-1.862138902842554,-0.0649838440395048
1.9879999999999995,-5.077204681953552,-1.860007855825869,-0.0372854688103548
1.991500000000002,-5.037789911455764,-1.8610742519988372,-0.0170448854749766
1.9950000000000043,-4.957892228957968,-1.8557475071217504,0.0074577918937717
1.9985,-4.876929895616455,-1.841898319507176,0.0266319790561814
2.0020000000000024,-4.745897556693729,-1.825918084875916,0.0468725623915597
2.005500000000005,-4.626585103698145,-1.8141999442780257,0.0649838440395048
2.0090000000000003,-4.454006947260945,-1.806743897713506,0.0937468701123714
2.012500000000003,-4.312322863913297,-1.7939593609426474,0.1214435000122694
2.0160000000000053,-4.130155868565642,-1.781176569501041,0.1555332709622227
2.0195000000000007,-3.983145040340907,-1.7779808716406396,0.1842962970350892
2.0230000000000032,-3.798848743305818,-1.7801119186573249,0.2354309534600191
2.0265000000000057,-3.6592957069748553,-1.7865033143781277,0.2769767709744921
2.030000000000001,-3.481390805660569,-1.792894710098931,0.3345028231202252
2.033500000000004,-3.34396707101704,-1.8099395955739075,0.3792460838243518
2.036999999999999,-3.1660621697027533,-1.8195266891551125,0.4367721359700849
2.040500000000001,-3.0265091333717917,-1.829115528065569,0.4815136513449596
2.044000000000004,-2.8443421380241345,-1.8301801789092855,0.5433017975240628
2.0474999999999994,-2.703724450849456,-1.825918084875916,0.5901743599156226
2.051000000000002,-2.508774664060193,-1.8035481998531044,0.6540918077821589
2.0545000000000044,-2.36495953369586,-1.781176569501041,0.7041618133633722
2.058,-2.1593562571524245,-1.7449557515344027,0.7691439120736251
2.0615000000000023,-2.0016936845027686,-1.7140634237741033,0.8170828706381533
2.065000000000005,-1.800352501992703,-1.6725158609303783,0.8863270633817765
2.0685,-1.6416217878408266,-1.649079579734598,0.9342660219463046
2.0720000000000027,-1.4445426993641308,-1.614989808784645,0.9917920740920376
2.075500000000005,-1.3017922198435146,-1.5904888767451486,1.030142193746109
2.0790000000000006,-1.131345110423,-1.555332709622227,1.0727544074335509
2.082500000000003,-1.0280111467294242,-1.536158522459817,1.1015174335064173
2.0860000000000056,-0.9182857873150446,-1.5191136369848404,1.144129647193859
2.089500000000001,-0.8607597351693115,-1.5137868921077535,1.18247976684793
2.0930000000000035,-0.8266699642193582,-1.520178287828557,1.2368101211332618
2.096500000000006,-0.8298656620797599,-1.5297671267390138,1.2858137305415065
2.1000000000000014,-0.8746089227838865,-1.5446809651973052,1.3571889703018147
2.103500000000004,-0.9278728808962494,-1.5542680587785105,1.413648626274579
2.1069999999999998,-1.0258800997127389,-1.5510723609181087,1.4956773557890606
2.110500000000002,-1.1121691779313387,-1.5532034079347938,1.5659861993764004
2.1140000000000043,-1.2304187254124583,-1.5393542203202186,1.6661244652095748
2.1175,-1.3177724544747746,-1.531896428426447,1.7460221477073712
2.121000000000002,-1.423237465185036,-1.5244403818619272,1.866400996875924
2.1245000000000047,-1.4935463087723757,-1.5287007305660454,1.9612107725027603
2.128,-1.5585301528118805,-1.5350921262868489,2.0901120644088014
2.1315000000000026,-1.5851621318680618,-1.5414852673369035,2.1849235853648894
2.135000000000005,-1.5809000378346918,-1.561725850672282,2.3042377836897256
2.1385000000000005,-1.5532034079347938,-1.5766396891305736,2.386264767874956
2.142000000000003,-1.4658479335432255,-1.596880272465952,2.47468489311024
2.145500000000005,-1.3752985066205077,-1.6075337622201251,2.5332755960996893
2.149000000000001,-1.201655699339592,-1.61285876176796,2.597194789295478
2.1525000000000034,-1.0365335894669123,-1.61285876176796,2.644067351687037
2.156000000000006,-0.7755353077944284,-1.6085984130638418,2.703724450849456
2.1595000000000013,-0.5560845889656694,-1.5979449233096683,2.749530617068047
2.163000000000004,-0.2290395577392158,-1.5766396891305736,2.81131876324715
2.166499999999999,0.0330233747769847,-1.5563991057951954,2.8592577218116784
2.1700000000000017,0.4026823650201317,-1.5329628245994156,2.9114570290803248
2.173500000000004,0.6828548338550254,-1.5116558450910689,2.947676101717711
2.177,1.065296615539779,-1.480763517330769,2.981765872667665
2.180500000000002,1.3454708297039246,-1.4562608399620207,2.998810758142641
2.1840000000000046,1.7119323767574182,-1.427497813889154,3.0115952949135
2.1875,1.972930658429902,-1.4019304856766894,3.0169202944613343
2.1910000000000025,2.302106736673041,-1.3806252514975943,3.0265091333717917
2.194500000000005,2.5311462944122565,-1.3689071108997044,3.030769482075909
2.1980000000000004,2.8006652734929767,-1.3550579232851294,3.0329005290925943
2.201500000000003,2.9657873833656563,-1.340144084826838,3.031834132919626
2.2050000000000054,3.137299143629887,-1.3294905950726643,3.030769482075909
2.208500000000001,3.2225235710047704,-1.3188371053184913,3.0243780863551057
2.2120000000000037,3.2864410188713067,-1.314576756614373,3.015855643617618
2.215500000000006,3.294963461608795,-1.3135103604414045,3.010528898740531
2.219000000000001,3.280049623150503,-1.3230991993518617,3.0115952949135
2.222500000000004,3.2480908992172357,-1.3465354805476413,3.015855643617618
2.225999999999999,3.1873691492111007,-1.3816899023413112,3.031834132919626
2.2295000000000016,3.135168096613202,-1.4179107203079493,3.054205763271689
2.233000000000004,3.0627282060091776,-1.4701100275765957,3.087230883377926
2.2364999999999995,3.0115952949135,-1.5084601472306671,3.1202542581549104
2.240000000000002,2.9540692427677664,-1.569181897236802,3.1532793782611472
2.2435000000000045,2.9263708675386164,-1.6203165536617317,3.188433800054817
2.247,2.899738888482435,-1.69169179342204,3.2267839197088883
2.2505000000000024,2.89760784146575,-1.7502824964114894,3.25767799279844
2.254000000000005,2.9082613312199235,-1.825918084875916,3.293898810765078
2.2575000000000003,2.9210441226615296,-1.8770527413008455,3.313072997927488
2.261000000000003,2.9519381957510813,-1.9324494917591453,3.3386403261399527
2.2645000000000053,2.974309826103145,-1.9676039135528156,3.34396707101704
2.2680000000000007,3.008397851723846,-2.0070186840506032,3.3450317218607566
2.271500000000003,3.043554018846768,-2.0293903144026664,3.335444628279552
2.2750000000000057,3.102144721836217,-2.04749985072136,3.3258575346983466
2.278500000000001,3.1554104252778323,-2.053892991771415,3.316268695787889
2.282000000000004,3.2385020603067787,-2.054957642615132,3.30881264922337
2.285500000000006,3.305616951362968,-2.0506972939110133,3.3024212535025668
2.289000000000001,3.3908396334085995,-2.0389791533131234,3.294963461608795
2.292500000000004,3.4419742898335293,-2.02406356952558,3.2907031129046764
2.296,3.5037624360126327,-2.0016936845027686,3.276853925290102
2.299500000000002,3.532525462085499,-1.984648799027792,3.271527180413015
2.3030000000000044,3.564484186018767,-1.970799611413217,3.26939613339633
2.3065,3.581529071493744,-1.9622771686757288,3.2736582274297
2.3100000000000023,3.6070946543769566,-1.9558857729549253,3.283245321010905
2.3135000000000048,3.622010238164501,-1.9537547259382404,3.2970945086254804
2.317,3.6305326809019887,-1.9612107725027603,3.312008347083772
2.3205000000000027,3.625205936024902,-1.966537517379847,3.317335091960858
2.324000000000005,3.5975075607957523,-1.970799611413217,3.323726487681661
2.327500000000001,3.557026394124996,-1.9803867049944217,3.319464393648292
2.331000000000003,3.494173597102176,-1.9910401947485952,3.30881264922337
2.3345000000000056,3.449432081727301,-2.003822986190201,3.30455055519
2.338000000000001,3.3972310291294026,-2.0251299656985484,3.298159159469196
2.3415000000000035,3.372730097089906,-2.037912757140155,3.2928324145921097
2.345000000000006,3.365272305196134,-2.06348008535262,3.293898810765078
2.3485000000000014,3.3812525398273947,-2.0847853195317145,3.288572065887992
2.352000000000004,3.4217337064981512,-2.1156793926212663,3.276853925290102
2.3554999999999997,3.4558234774481043,-2.133788928939959,3.2587426436421567
2.3590000000000018,3.5144141804375537,-2.154031257604589,3.21080543040688
2.3625000000000043,3.555961743281279,-2.166814049046196,3.168193216719439
2.366,3.622010238164501,-2.190250330241976,3.114927513277824
2.369500000000002,3.675274196276863,-2.2179487054711258,3.0893619303946105
2.3730000000000047,3.745584785193455,-2.2552341742814805,3.073381695763351
2.3765,3.806306535199589,-2.283997200354348,3.068054950886264
2.3800000000000026,3.8734196809265273,-2.320216272991734,3.075512742780036
2.383500000000005,3.9107051497368825,-2.334065460606309,3.078708440640437
2.3870000000000005,3.9469259677035207,-2.356437090958372,3.081904138500839
2.390500000000003,3.963969107849245,-2.3681552315562624,3.082968789344556
2.394000000000005,3.981013993324222,-2.390526861908325,3.087230883377926
2.397500000000001,3.987407134374277,-2.409701049070735,3.0882955342216425
2.401000000000004,4.014039113430459,-2.425681283701995,3.103209372679934
2.404500000000006,4.0438667903470416,-2.44698651788109,3.123449956015312
2.4080000000000013,4.092870399755286,-2.4757495439539565,3.1575397269652656
2.411500000000004,4.144005056180216,-2.50983931490391,3.1894984508985336
2.414999999999999,4.211118201907155,-2.571627461083013,3.228914966725573
2.4185000000000016,4.256926113454997,-2.616368976457888,3.250220200904668
2.422000000000004,4.304865072019526,-2.679221773480708,3.25767799279844
2.4254999999999995,4.329366004059022,-2.736747825626441,3.2544822949380383
2.429000000000002,4.344281587846566,-2.818776555140922,3.244895201356833
2.4325000000000045,4.348541936550684,-2.880562955990773,3.228914966725573
2.436,4.333628098092392,-2.96046063848857,3.2076097325464787
2.4395000000000024,4.325105655354904,-3.0211823884947044,3.185238102194415
2.443000000000005,4.310191816896612,-3.087230883377926,3.1511483312444626
2.4465000000000003,4.300602977986156,-3.130907747909084,3.117058560294509
2.450000000000003,4.27610204594666,-3.172453565423557,3.0467497167071693
2.4535000000000053,4.253730415594596,-3.196956242792305,2.983896919684349
2.4570000000000007,4.207922504046753,-3.22997961756929,2.8954767944490647
2.4605000000000032,4.169572384392682,-3.259809039815125,2.833690393599213
2.4640000000000057,4.117373077124035,-3.2864410188713067,2.753792711101417
2.467500000000001,4.079021212140711,-3.30881264922337,2.698397705972369
2.471000000000004,4.0438667903470416,-3.3333135812628663,2.622760372178691
2.474499999999999,4.021495159994979,-3.34396707101704,2.564169669189241
2.478000000000001,4.011908066413773,-3.35568521161493,2.48214093967476
2.481500000000004,4.012974462586742,-3.358880909475331,2.433139075595767
2.4849999999999994,4.0332150459221205,-3.354620560771213,2.3617638358354585
2.488500000000002,4.05238923308453,-3.356751607787898,2.320216272991734
2.4920000000000044,4.076891910453278,-3.356751607787898,2.269083361896056
2.4955,4.095001446771971,-3.352489513754528,2.229666846069016
2.4990000000000023,4.093936795928255,-3.34396707101704,2.1753364917836846
2.502500000000005,4.079021212140711,-3.3258575346983466,2.1263328823754395
2.506,4.04067109248664,-3.291767763748393,2.06348008535262
2.5095000000000027,4.000189925815883,-3.25767799279844,2.0208678716651782
2.513000000000005,3.9490552693909535,-3.2182614769714,1.9558857729549253
2.5165000000000006,3.908574102720197,-3.1894984508985336,1.9100778614070824
2.520000000000003,3.869157586893157,-3.1554104252778323,1.8472250643842625
2.5235000000000056,3.851048050574464,-3.1341034457694854,1.7960904079593327
2.527000000000001,3.843592004009945,-3.1000136748195324,1.7225858665115914
2.5305000000000035,3.846787701870346,-3.068054950886264,1.6735822571033467
2.534000000000006,3.861701540328637,-3.0382272739696807,1.6096630639075584
2.5375000000000014,3.8808774728202993,-3.005202153863444,1.563855152359715
2.541000000000004,3.916031894613969,-2.9679166850530896,1.5084601472306671
2.5444999999999998,3.952250967251356,-2.947676101717711,1.4711746784203124
2.548000000000002,4.009777019397089,-2.923175169678215,1.432824558766241
2.5515000000000043,4.059847024978302,-2.906130284203238,1.409388277570461
2.555,4.13122226473861,-2.8954767944490647,1.3816899023413112
2.558500000000002,4.187681920711374,-2.893347492761632,1.3625139698496491
2.5620000000000047,4.257992509627966,-2.906130284203238,1.3358819907934678
2.5655,4.308060769879927,-2.9199794718178134,1.3156414074580896
2.5690000000000026,4.364522171181944,-2.9519381957510813,1.290074079245625
2.572500000000005,4.398611942131897,-2.983896919684349,1.2772912878040183
2.5760000000000005,4.4326999677525984,-3.043554018846768,1.261311053172758
2.579500000000003,4.456137994277631,-3.098949023975816,1.247461865558183
2.583000000000005,4.468920785719237,-3.172453565423557,1.23361442327286
2.586500000000001,4.478507879300442,-3.237437409463062,1.219765235658285
2.5900000000000034,4.47531218144004,-3.3141393941004567,1.1995246523229068
2.593500000000006,4.474247530596323,-3.368469748385788,1.176088371127127
2.5970000000000013,4.466789738702552,-3.439843242816844,1.1558477877917488
2.600500000000004,4.471051832735921,-3.482455456504286,1.138802902316772
2.603999999999999,4.469985436562954,-3.532525462085499,1.134540808283402
2.6075000000000017,4.469985436562954,-3.555961743281279,1.131345110423
2.611000000000004,4.478507879300442,-3.580462675320775,1.1334761574396854
2.6145,4.485965671194213,-3.5953765137790668,1.136671855300087
2.618000000000002,4.493421717758733,-3.619879191147815,1.1398675531604887
2.6215000000000046,4.495552764775418,-3.636924076622792,1.1398675531604887
2.625,4.483834624177529,-3.6656871026956575,1.130280459579284
2.6285000000000025,4.465725087858835,-3.683796639014352,1.1217580168417955
2.632000000000005,4.414590431433905,-3.7093639672268166,1.111104527087622
2.6355000000000004,4.363455775008975,-3.722148503997675,1.095126037785614
2.639000000000003,4.265448556192486,-3.732800248422597,1.0663630117127476
2.6425000000000054,4.178094827130169,-3.745584785193455,1.0344025424502272
2.646000000000001,4.035344347609554,-3.757302925791345,0.9747471886170612
2.6495000000000037,3.912836196753567,-3.770085717232951,0.921481485175446
2.653000000000006,3.714690712103903,-3.772216764249636,0.8170828706381533
2.656500000000001,3.5527660454208774,-3.7647589723558648,0.7307937924195538
2.660000000000004,3.3152040449441733,-3.756236529618376,0.5933700577760241
2.663499999999999,3.129843097065367,-3.741322691160085,0.4857757453783297
2.6670000000000016,2.8826940030074586,-3.723213154841392,0.3281114273994219
2.670500000000004,2.695202008111968,-3.706168269366415,0.2119946722642392
2.6739999999999995,2.466162450372752,-3.683796639014352,0.0479389585645282
2.677500000000002,2.306367085377159,-3.6592957069748553,-0.0820287295144815
2.6810000000000045,2.1103526477441794,-3.619879191147815,-0.2673896773932873
2.6845,1.968668564396532,-3.576202326616657,-0.4122694586013365
2.6880000000000024,1.802481803680136,-3.506958133873034,-0.6018925005135125
2.691500000000005,1.6895607464053546,-3.4441053368502144,-0.7435765838611602
2.6950000000000003,1.5468120122139906,-3.34822916505041,-0.9257435792088164
2.698500000000003,1.4520004912579023,-3.26939613339633,-1.055709521958574
2.7020000000000053,1.342273386514271,-3.1596707739819503,-1.2272212822228048
2.7055000000000007,1.275160240787333,-3.0765773936237526,-1.3454708297039246
2.709000000000003,1.192066860429135,-2.9647209871926883,-1.4882195638952889
2.7125000000000057,1.138802902316772,-2.8869543517115765,-1.5947492254492668
2.716000000000001,1.0940596416126456,-2.788947132895087,-1.7311083092490798
2.719500000000004,1.0695587095731491,-2.7133115444306606,-1.8248534340321991
2.723000000000006,1.0493181262377709,-2.618500023474573,-1.9516236789215555
2.726500000000001,1.0407956835002825,-2.552451528591351,-2.033652408436037
2.730000000000004,1.0429249851877156,-2.4885340807248157,-2.1156793926212663
2.7335,1.0503827770814873,-2.41183209608742,-2.220078007158559
2.737000000000002,1.0429249851877156,-2.347914648220884,-2.317020575131332
2.7405000000000044,1.032273240762794,-2.3074334815501274,-2.38413372085827
2.744,1.0013791676732426,-2.282930804181379,-2.469358148233153
2.7475000000000023,0.9640936988628878,-2.282930804181379,-2.5375376901330595
2.7510000000000048,0.9140254386109264,-2.302106736673041,-2.602519788843313
2.7545,0.8266699642193582,-2.352174996925002,-2.687744216218196
2.7580000000000027,0.7361205372966404,-2.4182234918082237,-2.76018410682222
2.761500000000005,0.602958896686481,-2.5204928046580832,-2.8475378358845367
2.765000000000001,0.4889714432387313,-2.6057172320329665,-2.917848424801128
2.768500000000003,0.3185243338182171,-2.731421080749353,-3.0211823884947044
2.7720000000000056,0.1406194325039311,-2.860322372655395,-3.123449956015312
2.775500000000001,0.0031956978604016,-2.9540692427677664,-3.2012165914964235
2.7790000000000035,-0.1257055940456395,-3.052076461584256,-3.275787529117133
2.782500000000006,-0.2876302607286655,-3.1735199615965253,-3.369534399229505
2.7860000000000014,-0.3877685265618402,-3.259809039815125,-3.4387785919731275
2.789500000000004,-0.4985585368199362,-3.3535541645982443,-3.525067670191727
2.7929999999999997,-0.5603466829990394,-3.4100155659002613,-3.5900497689019804
2.7965000000000018,-0.6114795940947174,-3.461150222325191,-3.661425008662288
2.8000000000000043,-0.6370469223071823,-3.482455456504286,-3.7019061753330447
2.8035,-0.6466357612176391,-3.4760640607834827,-3.7381269932996832
2.807000000000002,-0.6317219227593476,-3.450496732571018,-3.747714086880888
2.8105000000000047,-0.5795208701614492,-3.4025577740064894,-3.745584785193455
2.814,-0.5187991201553145,-3.361011956492016,-3.74345373817677
2.8175000000000026,-0.4090737607409349,-3.3141393941004567,-3.740258040316368
2.821000000000005,-0.3131975889411305,-3.288572065887992,-3.74345373817677
2.8245000000000005,-0.1725781564371993,-3.265135784692212,-3.747714086880888
2.828000000000003,-0.0703088435873395,-3.2544822949380383,-3.7445183890204863
2.831500000000005,0.0681795418999064,-3.227850315881857,-3.7210821078247065
2.835000000000001,0.1576643179789077,-3.2054786855297936,-3.69658117578521
2.838500000000004,0.2482137449016255,-3.1692578675631555,-3.644380123187312
2.842000000000006,0.300413052170272,-3.1511483312444626,-3.6007032586561536
2.8455000000000013,0.3376985209806268,-3.138365539802856,-3.549570347560476
2.849000000000004,0.3302424744161071,-3.129843097065367,-3.5144141804375537
2.852499999999999,0.2940216564494687,-3.1191896073111938,-3.482455456504286
2.8560000000000016,0.2386266513204207,-3.1096025137299894,-3.473933013766797
2.859500000000004,0.1203788491685528,-3.09681797695913,-3.4718019667501125
2.8629999999999995,0.0074577918937717,-3.082968789344556,-3.479259758643884
2.866500000000002,-0.1544686201185061,-3.059532508148776,-3.498435691135546
2.8700000000000045,-0.2961527034661538,-3.029704831232193,-3.5037624360126327
2.8735,-0.4911024902554164,-2.992419362421838,-3.513349529593837
2.8770000000000024,-0.6413090163405525,-2.957264940628168,-3.5144141804375537
2.880500000000005,-0.8501062454151381,-2.9221087735052462,-3.531459065912531
2.8840000000000003,-1.016293006131534,-2.8944121436053485,-3.558091044968712
2.887500000000003,-1.2623774493457267,-2.860322372655395,-3.6188145403040983
2.8910000000000053,-1.460522933995391,-2.8432774871804187,-3.6731431492601785
2.8945000000000007,-1.7406954028302846,-2.8198412059846385,-3.7445183890204863
2.8980000000000032,-1.9494926319048704,-2.790013529068055,-3.789261649724613
2.9015000000000057,-2.227535799052331,-2.7346167786097557,-3.8201557228141647
2.905000000000001,-2.415027793947822,-2.672830377759904,-3.8233514206745673
2.908500000000004,-2.648327700391156,-2.5790835076475327,-3.7913909514120463
2.911999999999999,-2.793209226928457,-2.505578966199792,-3.7509097847412898
2.915500000000001,-2.9583295914718843,-2.409701049070735,-3.69231908175184
2.919000000000004,-3.0574014611320908,-2.341523252500081,-3.6497068680643983
2.9224999999999994,-3.1586061231382336,-2.275474757616859,-3.588985118058264
2.926000000000002,-3.2161321752839678,-2.236058241789819,-3.542112555666704
2.9295000000000044,-3.28537636802759,-2.193446028102377,-3.4920425500854906
2.933,-3.324791138525378,-2.166814049046196,-3.4579545244647893
2.9365000000000023,-3.374861144106591,-2.164683002029511,-3.431320800079356
2.940000000000005,-3.4025577740064894,-2.1678786998899127,-3.412146612916946
2.9435,-3.4334518470960407,-2.1838589345211727,-3.3951017274419697
2.9470000000000027,-3.4441053368502144,-2.2040995178565512,-3.382317190671111
2.950500000000005,-3.4622148731689077,-2.2158176584544407,-3.372730097089906
2.9540000000000006,-3.465410571029309,-2.2158176584544407,-3.370599050073221
2.957500000000003,-3.4558234774481043,-2.197708122135748,-3.3812525398273947
2.9610000000000056,-3.4291914983919227,-2.164683002029511,-3.392970680425284
2.964500000000001,-3.3737947479336228,-2.1263328823754395,-3.4089509150565447
2.9680000000000035,-3.3098773000670865,-2.1007655541629746,-3.424929404358553
2.971500000000006,-3.209739034233912,-2.0666757832130216,-3.4387785919731275
2.9750000000000014,-3.1277120500486824,-2.044304152860958,-3.4462363838668995
2.978500000000004,-3.0243780863551057,-2.015541126788092,-3.453692430431419
2.9819999999999998,-2.963656336348971,-1.9984962413131149,-3.4526277795877025
2.985500000000002,-2.917848424801128,-1.9718642622569336,-3.4419742898335293
2.9890000000000043,-2.9263708675386164,-1.945232283200752,-3.4281251022189543
2.9925,-3.0009418051593264,-1.9122071630945157,-3.4142759146043797
2.996000000000002,-3.1159939094507925,-1.8930329759321056,-3.399362076146088
2.9995000000000047,-3.3386403261399527,-1.874923439613413,-3.372730097089906
3.003,-3.563417789845799,-1.862138902842554,-3.3492938158941263
3.0065000000000026,-3.913900847597284,-1.848289715227979,-3.318399742804575
3.010000000000005,-4.200466457482233,-1.844029366523861,-3.2928324145921097
3.0135000000000005,-4.609540218223168,-1.8376379708030577,-3.249155550060952
3.017000000000003,-4.915280015270526,-1.834440527613404,-3.196956242792305
3.020500000000005,-5.304113192676083,-1.820593085328081,-3.1245163521882806
3.024000000000001,-5.562980427331882,-1.816330991294711,-3.055272159444658
3.0275000000000034,-5.8474149902001455,-1.818462038311396,-2.9583295914718843
3.031000000000006,-6.000817214145684,-1.8333758767696875,-2.8816276068344897
3.0345000000000013,-6.12013141247052,-1.8695966947363256,-2.790013529068055
3.038000000000004,-6.148894438543387,-1.9111425122507988,-2.738878872643125
3.041499999999999,-6.133978854755843,-1.9633418195194452,-2.680286424324424
3.0450000000000017,-6.0764545479393615,-2.011280778083973,-2.641936304670353
3.048500000000004,-5.93263941757503,-2.070937877246392,-2.591868044418391
3.052,-5.78349754233361,-2.124201835358755,-2.552451528591351
3.055500000000002,-5.525694958521528,-2.188119283225291,-2.4949254764456184
3.0590000000000046,-5.310504588396887,-2.2445806845273077,-2.444857216193657
3.0625,-5.006895838366213,-2.3127602264272142,-2.379873372154152
3.0660000000000025,-4.785314072520769,-2.37241558026038,-2.3372611584667102
3.069500000000005,-4.523251140004569,-2.453379658931145,-2.2808015024939454
3.0730000000000004,-4.364522171181944,-2.516230710624713,-2.2541677781085125
3.076500000000003,-4.219640644644643,-2.6078465337203998,-2.219013356314843
3.0800000000000054,-4.165310290359311,-2.671763981586936,-2.197708122135748
3.083500000000001,-4.177030176286453,-2.749530617068047,-2.16574939820248
3.0870000000000037,-4.244143322013391,-2.803860971353379,-2.143377767850416
3.090500000000006,-4.397545545958929,-2.8635180705157968,-2.121006137498353
3.094000000000001,-4.559470212641955,-2.8944121436053485,-2.109287996900463
3.097500000000004,-4.8257952391915255,-2.928501914555301,-2.094374158442172
3.100999999999999,-5.032463166578678,-2.9466114508739945,-2.0890474135650847
3.1045000000000016,-5.307308890536485,-2.9583295914718843,-2.07946031998388
3.108000000000004,-5.480953443146653,-2.96046063848857,-2.062415434508903
3.1114999999999995,-5.652465203410883,-2.968983081226058,-2.02406356952558
3.115000000000002,-5.709991255556616,-2.971112382913492,-1.9793220541507053
3.1185000000000045,-5.695077417098325,-2.9700477320697747,-1.915404606284169
3.122,-5.610919385896411,-2.968983081226058,-1.8695966947363256
3.1255000000000024,-5.437276578615495,-2.978570174807263,-1.8056775015405373
3.129000000000005,-5.258305281128241,-3.0020064560030426,-1.7566738921322929
3.1325000000000003,-4.9887863020475205,-3.0382272739696807,-1.693822840438725
3.136000000000003,-4.778922676799965,-3.0648592530258623,-1.6512106267512834
3.1395000000000053,-4.517924395127482,-3.1127982115903907,-1.599011319482637
3.1430000000000007,-4.342150540829881,-3.1575397269652656,-1.563855152359715
3.146500000000003,-4.162114592498909,-3.2118700812505967,-1.5244403818619272
3.1500000000000057,-4.067303071542821,-3.243828805183865,-1.4967420066327772
3.153500000000001,-4.012974462586742,-3.274722878273417,-1.476501423297399
3.157000000000004,-4.015103764274175,-3.2843099718546216,-1.4701100275765957
3.160500000000006,-4.079021212140711,-3.2779185761338185,-1.464783282699509
3.164000000000001,-4.163180988671878,-3.267265086379645,-1.4658479335432255
3.167500000000004,-4.3016693741591245,-3.249155550060952,-1.4594565378224222
3.171,-4.414590431433905,-3.2427641543401484,-1.4562608399620207
3.174500000000002,-4.566928004535726,-3.2310460137422585,-1.4456073502078477
3.1780000000000044,-4.681980108827193,-3.2129347320943134,-1.4413470015037293
3.1815,-4.8257952391915255,-3.186302753038132,-1.4264331630454377
3.1850000000000023,-4.932324900745504,-3.1660621697027533,-1.4083218813974925
3.1885000000000048,-5.069748635389033,-3.137299143629887,-1.379558855324626
3.192,-5.191192135401303,-3.1202542581549104,-1.353991527112161
3.1955000000000027,-5.368032385871872,-3.0957533261154144,-1.3167078036310582
3.199000000000005,-5.508650073046551,-3.0893619303946105,-1.2858137305415065
3.202500000000001,-5.701468812819128,-3.0850998363612407,-1.2368101211332618
3.206000000000003,-5.836761500445973,-3.0893619303946105,-1.1952625582895369
3.2095000000000056,-5.982707677826991,-3.098949023975816,-1.134540808283402
3.213000000000001,-6.056213964603984,-3.104275768852902,-1.0919285945959605
3.2165000000000035,-6.088172688537251,-3.1159939094507925,-1.0312068445898257
3.220000000000006,-6.074323500922676,-3.1277120500486824,-0.9971170736398725
3.2235000000000014,-5.984838724843676,-3.144756935523658,-0.9545066052816829
3.227000000000004,-5.878309063289698,-3.168193216719439,-0.9161547402983594
3.2304999999999997,-5.698273114958727,-3.2022829876693923,-0.8778046206442881
3.2340000000000018,-5.544870891013189,-3.22997961756929,-0.8543683394485082
3.2375000000000043,-5.329680520888548,-3.267265086379645,-0.8245406625319252
3.241,-5.163493760172153,-3.2928324145921097,-0.80642938088398
3.244500000000002,-4.938716296466307,-3.3141393941004567,-0.7766017039673969
3.2480000000000047,-4.764008838341674,-3.3152040449441733,-0.7446429800341288
3.2515,-4.544556374183663,-3.2928324145921097,-0.6690056462404504
3.2550000000000026,-4.38902310322144,-3.259809039815125,-0.5805872663344177
3.258500000000005,-4.213249248923839,-3.203347638513109,-0.425053995372195
3.2620000000000005,-4.116306680951067,-3.162866471842352,-0.2897613077453506
3.265500000000003,-4.038540045469955,-3.103209372679934,-0.1012029166768912
3.269000000000005,-4.016170160447143,-3.061663555165461,0.0426122136874415
3.272500000000001,-4.0417357433303565,-3.0137245966009325,0.2290395577392158
3.276000000000004,-4.09180574891157,-2.981765872667665,0.3643322453660603
3.279500000000006,-4.199400061309264,-2.9434157530135927,0.5241258650324012
3.2830000000000013,-4.312322863913297,-2.912521679924041,0.628524479569694
3.286500000000004,-4.523251140004569,-2.8517999299179064,0.7659482142132235
3.289999999999999,-4.727788020375035,-2.784686784190969,0.8831313655213747
3.2935000000000016,-5.029267468718277,-2.6888088670619124,0.9917920740920376
3.297000000000004,-5.244456093513666,-2.6376759559662344,1.0248154488690224
3.3004999999999995,-5.487344838867456,-2.602519788843313,1.0269464958857075
3.304000000000002,-5.614115083756812,-2.5886723465579893,1.0152283552878176
3.3075000000000045,-5.702535208992097,-2.5865412995413046,0.9768764903044942
3.311,-5.700404161975412,-2.591868044418391,0.947048813387911
3.3145000000000024,-5.607723688036009,-2.5908016482454226,0.8905874120858945
3.318000000000005,-5.479887046973684,-2.584410252524619,0.8415838026776498
3.3215000000000003,-5.261500978988641,-2.567365367049643,0.7744706569507118
3.325000000000003,-5.076140031109836,-2.546060132870548,0.7126842561008605
3.3285000000000053,-4.834317681929013,-2.539668737149745,0.6381133184801508
3.3320000000000007,-4.661739525491814,-2.557778273468438,0.5784562193177326
3.3355000000000032,-4.466789738702552,-2.5908016482454226,0.5017542346803379
3.3390000000000057,-4.346410889533999,-2.619564674318289,0.4378367868138015
3.342500000000001,-4.212184598080123,-2.670699330743219,0.3494166615785167
3.346000000000004,-4.134417962599012,-2.7047891016931724,0.2854992137119804
3.349499999999999,-4.06410737368242,-2.7346167786097557,0.2119946722642392
3.353000000000001,-4.023626207011663,-2.7527280602577004,0.1651203645434275
3.356500000000004,-3.999125274972167,-2.785751435034685,0.1278348957330726
3.3599999999999994,-3.988471785217994,-2.8070584145430324,0.1225098961852379
3.363500000000002,-3.988471785217994,-2.853930976934592,0.1374237346435295
3.3670000000000044,-3.9959295771117658,-2.8837586538511752,0.1747092034538843
3.3705,-4.012974462586742,-2.9199794718178134,0.2364956043037356
3.3740000000000023,-4.037475394626238,-2.9434157530135927,0.2982837504828389
3.377500000000005,-4.06836946771579,-2.9700477320697747,0.38350643252847
3.381,-4.088610051051169,-2.977505523963546,0.452750625272093
3.3845000000000027,-4.102459238665743,-2.979634825650979,0.5464974953844645
3.388000000000005,-4.102459238665743,-2.975374476946861,0.6178727351447726
3.3915000000000006,-4.083283306174081,-2.959394242315601,0.7201403026653803
3.395000000000003,-4.048128884380412,-2.950871799578113,0.80642938088398
3.3985000000000056,-3.9778182954638206,-2.934893310276105,0.9246771830358478
3.402000000000001,-3.909640498893166,-2.923175169678215,1.0109662612544474
3.4055000000000035,-3.7903263005683296,-2.892281096588663,1.1132355741043072
3.409000000000006,-3.682731988170635,-2.8592577218116784,1.17821767281456
3.4125000000000014,-3.497369294962577,-2.803860971353379,1.2389411681499467
3.416000000000004,-3.3322489304191496,-2.753792711101417,1.2762248916310497
3.4194999999999998,-3.0712506487466653,-2.6696346798995023,1.310314662581003
3.423000000000002,-2.854995627778308,-2.6014551379995963,1.3220328031788928
3.4265000000000043,-2.5364712939600915,-2.497056523462303,1.3305552459163812
3.43,-2.2882575490584656,-2.4139631431041053,1.326294897212263
3.433500000000002,-1.9622771686757288,-2.3074334815501274,1.3156414074580896
3.4370000000000047,-1.7247151681990245,-2.229666846069016,1.314576756614373
3.4405,-1.4413470015037293,-2.1455088148671013,1.328425944228948
3.4440000000000026,-1.2581153553123563,-2.0837206686879983,1.3444044335309562
3.447500000000005,-1.051447427925204,-2.0229989186818638,1.361449319005933
3.4510000000000005,-0.9321349749296196,-1.9782556579777368,1.377429553637193
3.454500000000003,-0.80642938088398,-1.9186003041445707,1.3891476942350829
3.458000000000005,-0.7361205372966404,-1.871725996423759,1.407257230553776
3.461500000000001,-0.6551582039551274,-1.818462038311396,1.432824558766241
3.4650000000000034,-0.6093502924072843,-1.772654126763553,1.4711746784203124
3.468500000000006,-0.5699337765802444,-1.7247151681990245,1.522309334845242
3.4720000000000013,-0.5688691257365278,-1.6980831891428432,1.57770433997429
3.475500000000004,-0.5944364539489927,-1.6703848139136932,1.6597330694887715
3.478999999999999,-0.6466357612176391,-1.6639934181928897,1.7247151681990245
3.4825000000000017,-0.7371851881403569,-1.6618641165054566,1.8173973874676796
3.486000000000004,-0.8234742663589566,-1.66825551222626,1.897293324636224
3.4895,-0.9438531155275096,-1.658666673315803,2.0027583353464853
3.493000000000002,-1.030142193746109,-1.65653737162837,2.0837206686879983
3.4965000000000046,-1.136671855300087,-1.6458838818741963,2.197708122135748
3.5,-1.1952625582895369,-1.6362967882929915,2.2914532469188678
3.5035000000000025,-1.2463972147144666,-1.6224476006784168,2.41609419012079
3.507000000000005,-1.2687688450665298,-1.60540271520344,2.5034479191831065
3.5105000000000004,-1.2666377980498449,-1.569181897236802,2.5993240909829107
3.514000000000003,-1.2442661676977815,-1.5393542203202186,2.658981190145329
3.5175000000000054,-1.1899375587417018,-1.492481657928659,2.707984799553574
3.521000000000001,-1.1292140634063152,-1.4520004912579023,2.729290033732669
3.5245000000000037,-1.0248154488690224,-1.3827562985142796,2.735683174782724
3.528000000000006,-0.9257435792088164,-1.3348173399497512,2.723965034184834
3.531500000000001,-0.7766017039673969,-1.2687688450665298,2.6962666589556843
3.535000000000004,-0.6508961099217573,-1.2165695377978836,2.680286424324424
3.538499999999999,-0.4591437663221482,-1.1537167407750637,2.6504587474078405
3.5420000000000016,-0.3068061932203272,-1.106844178383504,2.638740606809951
3.545500000000004,-0.0894847760790012,-1.039729287327314,2.6110422315808006
3.5489999999999995,0.0735062867769931,-0.996052422796156,2.5886723465579893
3.552500000000002,0.302544099186957,-0.9268082300525328,2.559909320485123
3.5560000000000045,0.4751222556241564,-0.8767399698005716,2.541798038837178
3.5595,0.709488558240459,-0.8234742663589566,2.51410140893728
3.5630000000000024,0.8810003185046897,-0.7957776364590586,2.510905711076878
3.566500000000005,1.1025820843501335,-0.7819284488444836,2.5194281538143666
3.5700000000000003,1.2666377980498449,-0.780862052671515,2.543929085853863
3.573500000000003,1.4882195638952889,-0.7936465894423735,2.5865412995413046
3.5770000000000053,1.654406324611685,-0.8011026360068932,2.627022466212061
3.5805000000000007,1.8781191374738144,-0.7915155424256883,2.684548518357794
3.584000000000003,2.044304152860958,-0.7691439120736251,2.729290033732669
3.5875000000000057,2.266952314879371,-0.7350541411236718,2.8017316696659456
3.591000000000001,2.43953047131657,-0.7105532090841755,2.866713768376198
3.594500000000004,2.6813528204973927,-0.6785944851509074,2.9721787790864598
3.598000000000006,2.861387023499112,-0.6583539018155291,3.055272159444658
3.601500000000001,3.081904138500839,-0.6327865736030641,3.160735424825667
3.605000000000004,3.22997961756929,-0.6136106411114024,3.223588221848487
3.6085,3.411080216743977,-0.586978662055221,3.288572065887992
3.612000000000002,3.520805576158357,-0.5741958706136145,3.318399742804575
3.615500000000005,3.628401633885304,-0.5603466829990394,3.339706722312921
3.619,3.679536290310233,-0.5539552872782363,3.3386403261399527
3.6225000000000014,3.7093639672268166,-0.561411333842756,3.3141393941004567
3.6260000000000048,3.697645826628927,-0.5667380787198427,3.288572065887992
3.6295,3.6529025659248,-0.5773915684740161,3.2619400868318102
3.6330000000000022,3.5506349984041923,-0.5901743599156226,3.214001128267282
3.636500000000005,3.435582894112726,-0.602958896686481,3.1767156594569275
3.640000000000001,3.243828805183865,-0.6072192453905992,3.1255810030319973
3.643500000000003,3.073381695763351,-0.6125459902676859,3.0882955342216425
3.6470000000000056,2.820905856828355,-0.6082838962343158,3.036096226952996
3.650500000000001,2.622760372178691,-0.605088198373914,2.999875408986357
3.654000000000004,2.3575017418020887,-0.5986968026531109,2.983896919684349
3.657500000000006,2.166814049046196,-0.6114795940947174,3.0020064560030426
3.661000000000002,1.921796002004972,-0.642373667184269,3.0531411124279724
3.664500000000004,1.7577402883052613,-0.6753987872905056,3.1064050705403354
3.6679999999999993,1.555332709622227,-0.7212066988383489,3.1841734513506985
3.6715000000000018,1.4253667668724692,-0.753165422771617,3.2331753154296914
3.675000000000004,1.2783559386477348,-0.7861887975486017,3.298159159469196
3.6785,1.2048513971999937,-0.8138871727777518,3.3429024201733237
3.682000000000002,1.1483899958979769,-0.836258803129815,3.388710331721166
3.6855000000000047,1.1462589488812918,-0.8522372924318231,3.4164069616210644
3.689,1.196328954462505,-0.8735442719401699,3.4526277795877025
3.6925000000000026,1.2836826835248214,-0.889522761242178,3.477128711627199
3.696000000000005,1.4445426993641308,-0.9097633445775564,3.506958133873034
3.699500000000001,1.5936845746055504,-0.9236125321921312,3.5154805766105226
3.703000000000003,1.8216577361717976,-0.9321349749296196,3.5218719723313257
3.7065000000000055,2.010216127240257,-0.9385263706504228,3.513349529593837
3.710000000000001,2.270148012739772,-0.9342660219463046,3.477128711627199
3.7135000000000034,2.464031403356066,-0.9246771830358478,3.4409096389898126
3.717000000000006,2.7175718931347785,-0.9076322975608712,3.3780568419669925
3.720500000000001,2.89760784146575,-0.8969805531359498,3.323726487681661
3.724000000000004,3.1096025137299894,-0.875673573627603,3.24595985220055
3.727499999999999,3.249155550060952,-0.861824386013028,3.180976008161045
3.7310000000000016,3.3972310291294026,-0.836258803129815,3.081904138500839
3.734500000000004,3.4845865035209704,-0.8117561257610666,3.004137503019728
3.738,3.557026394124996,-0.7787327509840819,2.8869543517115765
3.741500000000002,3.5900497689019804,-0.7457076308778453,2.7996006226492605
3.745000000000005,3.6092257013936417,-0.6988350684862855,2.687744216218196
3.7485,3.613487795427012,-0.6658099483800488,2.6142396747704546
3.7520000000000016,3.622010238164501,-0.6317219227593476,2.5268842003788863
3.755500000000005,3.62946628472902,-0.6136106411114024,2.471489195249838
3.759,3.64118442532691,-0.5912390107593392,2.395853606785412
3.762500000000003,3.64544651936028,-0.5709984274239609,2.347914648220884
3.766000000000005,3.6486422172206816,-0.5464974953844645,2.2935842939355524
3.7695000000000007,3.647577566376965,-0.5464974953844645,2.263756617018969
3.7730000000000032,3.661425008662288,-0.5486285424011496,2.243516033683591
3.7765000000000057,3.679536290310233,-0.5646070317031576,2.2424496375106227
3.780000000000001,3.73173559757888,-0.6093502924072843,2.253103127264796
3.783500000000004,3.780739206987125,-0.6562228547988439,2.2722790597564577
3.786999999999999,3.870223983066126,-0.723336000525782,2.295715340952237
3.7905000000000015,3.943728524513867,-0.7723396099340267,2.3074334815501274
3.794000000000004,4.05238923308453,-0.8288010112360433,2.3223473200084186
3.7975,4.116306680951067,-0.8735442719401699,2.324478367025104
3.801000000000002,4.195139712605147,-0.9193504381587612,2.324478367025104
3.804500000000005,4.233489832259218,-0.947048813387911,2.317020575131332
3.808,4.262252858332085,-0.9853989330419826,2.2967799917959537
3.8115000000000014,4.275037395102943,-1.016293006131534,2.277604059304292
3.815000000000005,4.281428790823746,-1.0567741728022906,2.262690220846
3.8185,4.289951233561234,-1.083406151858472,2.249907429404394
3.8220000000000023,4.299538327142439,-1.1164312719647087,2.2424496375106227
3.825500000000005,4.316583212617416,-1.1398675531604887,2.2349935909461025
3.8290000000000006,4.33788844679651,-1.167565928389639,2.2328625439294174
3.832500000000003,4.3496065873944,-1.1867401155520485,2.225404752035646
3.8360000000000056,4.350672983567369,-1.2048513971999937,2.219013356314843
3.839500000000001,4.340019493813196,-1.215503141624915,2.2158176584544407
3.843000000000004,4.320843561321534,-1.2261566313790884,2.2115573097503227
3.846500000000006,4.312322863913297,-1.2304187254124583,2.219013356314843
3.8500000000000014,4.303800421175809,-1.2517239595915532,2.2381892888065043
3.853500000000004,4.314452165600731,-1.2645067510331598,2.256298825125197
3.8569999999999993,4.335759145109078,-1.286878381385223,2.2861265020417805
3.860500000000002,4.347477285706967,-1.3028586160164832,2.308498132393844
3.864000000000004,4.3496065873944,-1.326294897212263,2.330869762745907
3.8675,4.340019493813196,-1.3486665275643264,2.3532413930979708
3.871000000000002,4.316583212617416,-1.3827562985142796,2.383069070014554
3.8745000000000047,4.283559837840431,-1.4083218813974925,2.4043760495229005
3.878,4.24840367071751,-1.446673746380816,2.444857216193657
3.8815000000000026,4.2292294835551,-1.482892819018202,2.47468489311024
3.885000000000005,4.219640644644643,-1.5478766630577072,2.5130350127643117
3.888500000000001,4.224967389521729,-1.599011319482637,2.5407333879934613
3.892000000000003,4.246274369030076,-1.6757115587907798,2.557778273468438
3.8955000000000055,4.268644254052887,-1.735368657953198,2.555647226451753
3.899000000000001,4.288884837388266,-1.8046128506968209,2.534341992272658
3.9025000000000034,4.299538327142439,-1.8536164601050655,2.5045125700268227
3.906000000000006,4.318714259634101,-1.915404606284169,2.45870465847898
3.909500000000001,4.335759145109078,-1.9612107725027603,2.4171588409645066
3.913000000000004,4.362391124165259,-2.0166075229610603,2.370286278572947
3.916499999999999,4.391154150238125,-2.053892991771415,2.3361965076229936
3.9200000000000017,4.423112874171394,-2.1039612520233764,2.2978446426396704
3.923500000000004,4.459333692138032,-2.13805102297333,2.266952314879371
3.927,4.5008795096525045,-2.1795968404878026,2.2264711482086144
3.930500000000002,4.538164978462859,-2.2051641687002674,2.1966417259627797
3.9340000000000046,4.5818418429940175,-2.227535799052331,2.164683002029511
3.9375,4.623389405837743,-2.243516033683591,2.147638116554534
3.9410000000000025,4.673457666089704,-2.2616255700022845,2.1316596272525263
3.944500000000005,4.708612087883374,-2.277604059304292,2.123137184515038
3.948,4.72565697335835,-2.292519643091836,2.1124836947608645
3.951500000000003,4.717134530620863,-2.3031713875167568,2.1007655541629746
3.955000000000005,4.661739525491814,-2.321282669164702,2.081589621671313
3.958500000000001,4.58929963488779,-2.331934413589624,2.0666757832130216
3.9620000000000033,4.460398342981748,-2.354306043941687,2.04749985072136
3.965500000000006,4.351737634411085,-2.370286278572947,2.0304567105756357
3.969000000000001,4.184486222850973,-2.3990493046458137,2.003822986190201
3.972500000000004,4.067303071542821,-2.425681283701995,1.982517752011107
3.975999999999999,3.920292243318087,-2.46296675251235,1.9420365853403505
3.9795000000000016,3.8233514206745673,-2.497056523462303,1.9090114652341137
3.983000000000004,3.726408852701793,-2.5364712939600915,1.8536164601050655
3.9865,3.68060094115395,-2.567365367049643,1.8046128506968209
3.990000000000002,3.661425008662288,-2.6067818828766827,1.7417600536740012
3.993500000000005,3.679536290310233,-2.6259578153683445,1.6970185382991263
3.997,3.74345373817677,-2.648327700391156,1.6288389963992198
4.000500000000002,3.8158936287807945,-2.6579165393016124,1.5819664340076602
4.004000000000005,3.9394681758097487,-2.658981190145329,1.5148515429514704
4.0075,4.027888301045034,-2.645132002530754,1.4637186318557929
4.011000000000003,4.141874009163532,-2.622760372178691,1.4008658348329728
4.014500000000005,4.2068578532030365,-2.595063742278793,1.3603846681622165
4.018000000000001,4.273970998929975,-2.552451528591351,1.3209681523351764
4.021500000000003,4.298473676298722,-2.524753153362201,1.2922051262623095
4.025000000000006,4.3016693741591245,-2.4842719866914447,1.254919657451955
4.028500000000001,4.2878201865445495,-2.465097799529035,1.2282876783957732
4.032000000000004,4.246274369030076,-2.437399424299885,1.1835444176916468
4.035499999999999,4.211118201907155,-2.422485585841593,1.1494546467416935
4.0390000000000015,4.147200754040618,-2.41609419012079,1.0983217356460158
4.042500000000004,4.105654936526145,-2.408636398227019,1.0663630117127476
4.045999999999999,4.06410737368242,-2.4075717473833023,1.0312068445898257
4.049500000000002,4.047062488207444,-2.4043760495229005,1.014161959114849
4.053000000000004,4.030017602732467,-2.4075717473833023,1.0056395163773606
4.0565,4.024692603184632,-2.4075717473833023,1.0045748655336442
4.060000000000002,4.011908066413773,-2.419289887981192,0.996052422796156
4.063500000000005,3.9959295771117658,-2.4320726794227983,0.9853989330419826
4.067,3.9352060817763785,-2.4565753567915465,0.9502445112483128
4.070500000000003,3.8553101446078335,-2.4725538460935548,0.921481485175446
4.074000000000005,3.726408852701793,-2.4885340807248157,0.8714132249234848
4.077500000000001,3.6092257013936417,-2.5013168721664214,0.8319967090964449
4.081000000000003,3.454758826604388,-2.5077082678872245,0.7744706569507118
4.084500000000006,3.3460981180337246,-2.5045125700268227,0.7307937924195538
4.088000000000001,3.2203925239880853,-2.4917297785852166,0.6711366932571355
4.091500000000004,3.144756935523658,-2.473620242266524,0.6221330838488908
4.095000000000006,3.0574014611320908,-2.443790820020688,0.5582156359823544
4.098500000000001,3.0094642478968145,-2.4128967469311364,0.5134723752782278
4.102000000000004,2.9540692427677664,-2.358568137975057,0.4516859744283765
4.105499999999999,2.923175169678215,-2.317020575131332,0.4144005056180216
4.109000000000002,2.8869543517115765,-2.260560919158568,0.3717882919305801
4.112500000000004,2.8645827213595134,-2.208359866560669,0.3472873598910836
4.116,2.841146440163733,-2.155095908448306,0.3291760782431385
4.119500000000002,2.828363648722127,-2.116745788794235,0.3195889846619337
4.123000000000005,2.8251679508617253,-2.0730671789338246,0.3153286359578155
4.1265,2.8294282995658437,-2.053892991771415,0.3131975889411305
4.130000000000003,2.840081789320017,-2.0229989186818638,0.314262239784847
4.133500000000005,2.856060278622025,-2.0027583353464853,0.3174579376452486
4.1370000000000005,2.88588970086786,-1.9835824028548237,0.3259803803827369
4.140500000000003,2.9082613312199235,-1.9739953092736189,0.3355692192931938
4.1440000000000055,2.930631216242735,-1.9814531011673904,0.341960615013997
4.147500000000001,2.9519381957510813,-1.992104845592312,0.3408942188410284
4.151000000000003,2.957264940628168,-2.0091497310672883,0.314262239784847
4.154500000000006,2.9455468000302782,-2.026194616542265,0.2823035158515788
4.158000000000001,2.90932598206364,-2.06348008535262,0.219450718828759
4.161500000000004,2.86245341967208,-2.095438809285888,0.152337573101821
4.164999999999999,2.77190224742011,-2.1455088148671013,0.0479389585645282
4.168500000000002,2.686679565374479,-2.1849235853648894,-0.0426122136874415
4.172000000000004,2.571627461083013,-2.236058241789819,-0.1736428072809158
4.1755,2.4800116379873267,-2.277604059304292,-0.2759121201307756
4.179000000000002,2.3617638358354585,-2.330869762745907,-0.4154651564617382
4.1825000000000045,2.2744083614438906,-2.36495953369586,-0.5156034222949128
4.186,2.160422653325393,-2.409701049070735,-0.6434400633572375
4.189500000000002,2.074133575106793,-2.4427261691769715,-0.7361205372966404
4.193000000000005,1.9580150746423584,-2.4725538460935548,-0.847976943727705
4.1965,1.8727923925967276,-2.489598731568531,-0.9278728808962494
4.200000000000003,1.7577402883052613,-2.510905711076878,-1.0184240531482192
4.203500000000005,1.6703848139136932,-2.51410140893728,-1.079145803154354
4.207000000000001,1.550007710074392,-2.508774664060193,-1.157977089479182
4.210500000000003,1.4583918869787058,-2.495990127289335,-1.2005893031666235
4.214000000000006,1.332686292933066,-2.466162450372752,-1.2442661676977815
4.217500000000001,1.2442661676977815,-2.4427261691769715,-1.2740955899436164
4.221000000000004,1.1260183655459135,-2.4182234918082237,-1.3017922198435146
4.224499999999999,1.045056032204401,-2.4054407003666167,-1.3273595480559794
4.2280000000000015,0.9513109074212812,-2.395853606785412,-1.3625139698496491
4.231500000000004,0.8852624125380599,-2.395853606785412,-1.3891476942350829
4.234999999999999,0.8074957770569485,-2.4054407003666167,-1.4413470015037293
4.238500000000002,0.7563611206320187,-2.415027793947822,-1.4850238660348871
4.242000000000004,0.6956393706258839,-2.4427261691769715,-1.5489413139014236
4.2455,0.6594185526592456,-2.47042279907687,-1.6022070173430385
4.249000000000002,0.614677037284371,-2.5268842003788863,-1.677842605807465
4.252500000000005,0.5837829641948193,-2.5865412995413046,-1.7460221477073712
4.256,0.5390397034906926,-2.6760260756203054,-1.8450940173675772
4.259500000000003,0.5102766774178261,-2.743139221347244,-1.922860652848689
4.263000000000005,0.4697955107470696,-2.826232601705441,-2.03578171012347
4.266500000000001,0.4506213235846599,-2.8912164457449467,-2.1156793926212663
4.270000000000003,0.4314453910929982,-2.957264940628168,-2.219013356314843
4.273500000000006,0.4271832970596281,-3.006268550036413,-2.292519643091836
4.277000000000001,0.4282496932325966,-3.0531411124279724,-2.3777423251374668
4.280500000000004,0.4410324846742031,-3.0765773936237526,-2.440595122160287
4.284000000000006,0.4548816722887781,-3.093622279098729,-2.50983931490391
4.287500000000001,0.4697955107470696,-3.1000136748195324,-2.56097397132884
4.291000000000004,0.4942981881158181,-3.082968789344556,-2.6078465337203998
4.294499999999999,0.5092120265741096,-3.0574014611320908,-2.640871653826636
4.298000000000002,0.5283879590657713,-2.996679711125956,-2.668568283726534
4.301500000000004,0.5411707505073777,-2.9423493568406247,-2.680286424324424
4.305,0.5464974953844645,-2.852864580761623,-2.6760260756203054
4.308500000000002,0.5443664483677794,-2.778293643140914,-2.654719096111959
4.312000000000005,0.533712958613606,-2.679221773480708,-2.617435372630856
4.3155,0.5145387714511963,-2.602519788843313,-2.573756762770446
4.319000000000003,0.4836446983616446,-2.506643617043508,-2.5215574555018
4.322500000000005,0.4612730680095813,-2.443790820020688,-2.4853383828644136
4.3260000000000005,0.4218582975117934,-2.371350929416664,-2.43953047131657
4.329500000000003,0.3941599222826434,-2.331934413589624,-2.415027793947822
4.3330000000000055,0.355809802628572,-2.2882575490584656,-2.379873372154152
4.336500000000001,0.3345028231202252,-2.2616255700022845,-2.3553724401146554
4.340000000000003,0.3068061932203272,-2.248842778560677,-2.321282669164702
4.343500000000006,0.2929570056057522,-2.237122892633536,-2.295715340952237
4.347000000000001,0.2812388650078622,-2.233927194773134,-2.2658859187064024
4.350500000000004,0.2833681666952953,-2.2381892888065043,-2.246711731543993
4.353999999999999,0.288694911572382,-2.2520384764210792,-2.2243401011919293
4.357500000000002,0.3057397970473587,-2.269083361896056,-2.2115573097503227
4.361000000000004,0.3334381722765087,-2.295715340952237,-2.1987727729794644
4.3645,0.3632658491930918,-2.3159559242876155,-2.1966417259627797
4.368000000000002,0.4037470158638482,-2.347914648220884,-2.194512424275346
4.371500000000005,0.4399678338304866,-2.36495953369586,-2.201968470839866
4.375,0.4889714432387313,-2.378808721310436,-2.2094262627336376
4.3785000000000025,0.5219948180157161,-2.382004419170837,-2.2168823092981573
4.382000000000005,0.5678027295635593,-2.3692198823999786,-2.225404752035646
4.3855,0.5986968026531109,-2.347914648220884,-2.2328625439294174
4.389000000000003,0.630655526586379,-2.308498132393844,-2.241384986666906
4.392500000000005,0.6498314590780407,-2.264821267862686,-2.250972080248111
4.396000000000001,0.6711366932571355,-2.2072952157169525,-2.2616255700022845
4.399500000000003,0.6785944851509074,-2.158291606308708,-2.262690220846
4.403000000000006,0.6871169278883955,-2.095438809285888,-2.257363475968914
4.406500000000001,0.6860505317154271,-2.0528265955984466,-2.2541677781085125
4.410000000000004,0.6881815787321122,-1.9963669396256816,-2.241384986666906
4.413499999999999,0.6849858808717105,-1.9537547259382404,-2.227535799052331
4.417000000000002,0.6679409953967339,-1.885575184038334,-2.21262196059404
4.420500000000004,0.6487650629050722,-1.834440527613404,-2.194512424275346
4.424,0.616806338971804,-1.763067033182348,-2.172140793923283
4.427500000000002,0.586978662055221,-1.7108677259137015,-2.152964861431621
4.4310000000000045,0.5315836569261729,-1.6416217878408266,-2.1316596272525263
4.4345,0.4868403962220463,-1.60540271520344,-2.116745788794235
4.438000000000002,0.4197272504951083,-1.5670525955493688,-2.1039612520233764
4.441500000000005,0.3590055004889736,-1.5468120122139906,-2.0901120644088014
4.445,0.2844345628682639,-1.5297671267390138,-2.09117846058177
4.448500000000003,0.219450718828759,-1.5287007305660454,-2.09117846058177
4.452000000000005,0.1331616406101593,-1.5244403818619272,-2.094374158442172
4.455500000000001,0.0767019846373948,-1.5212446840015257,-2.1018302050066917
4.459000000000003,0.0031956978604016,-1.5116558450910689,-2.1103526477441794
4.462500000000006,-0.0436768645311581,-1.506329100213982,-2.123137184515038
4.466000000000001,-0.0926804739394028,-1.490350610911974,-2.132724278096243
4.469500000000004,-0.1182478021518678,-1.4711746784203124,-2.140182069990015
4.472999999999999,-0.1395530363309626,-1.4413470015037293,-2.1519002105879044
4.4765000000000015,-0.1374237346435295,-1.4157796732912642,-2.150833814414936
4.480000000000004,-0.1193124529955843,-1.3848856002017127,-2.1636183511857947
4.483499999999999,-0.0948115209560879,-1.369971761743421,-2.162553700342078
4.487000000000002,-0.0500682602519613,-1.342273386514271,-2.157226955464991
4.490500000000004,-0.0127827914416064,-1.314576756614373,-2.148704512727503
4.494,0.0426122136874415,-1.2517239595915532,-2.130593231079558
4.497500000000002,0.0756355884644262,-1.1899375587417018,-2.117810439637952
4.501000000000005,0.1118564064310645,-1.097255339473047,-2.0997009033192584
4.5045,0.1395530363309626,-1.0269464958857075,-2.0869163665484
4.508000000000003,0.150206526085136,-0.9502445112483128,-2.053892991771415
4.511500000000005,0.1448797812080492,-0.9193504381587612,-2.0368481062964383
4.515000000000001,0.1065296615539778,-0.820278568498555,-2.057088689631817
4.518500000000003,0.0500682602519613,-0.7520990265986485,-2.085851715704683
4.522000000000006,-0.0372854688103548,-0.6935083236091989,-2.127397533219156
4.525500000000001,-0.1299659427497577,-0.6200020368322057,-2.168945096062881
4.529000000000004,-0.2173214171413259,-0.5731294744406459,-2.194512424275346
4.532500000000006,-0.3504830577514853,-0.5379750526469761,-2.2062305648732363
4.536000000000001,-0.4538170214450616,-0.4996249329929048,-2.2030348670128346
4.539500000000004,-0.5816519171781342,-0.4815136513449596,-2.193446028102377
4.542999999999999,-0.6732677402738206,-0.4708619069200382,-2.188119283225291
4.546500000000002,-0.7947112402860901,-0.4761869064678729,-2.1700097469065978
4.550000000000004,-0.8863270633817765,-0.4697955107470696,-2.192381377258661
4.5535,-0.9896610270753528,-0.4783179534845579,-2.228600449896048
4.557000000000002,-1.0525138240981724,-0.4889714432387313,-2.273343710600174
4.560500000000005,-1.1174959228084254,-0.4996249329929048,-2.3361965076229936
4.564,-1.1537167407750637,-0.517734469311598,-2.3926561635957584
4.567500000000003,-1.17821767281456,-0.5422354013510943,-2.466162450372752
4.571000000000005,-1.17821767281456,-0.559280286826071,-2.5215574555018
4.5745000000000005,-1.1718262770937566,-0.586978662055221,-2.596128393122509
4.578000000000003,-1.1590434856521503,-0.6061545945468827,-2.646198398703723
4.5815000000000055,-1.1356072044563703,-0.6370469223071823,-2.714376195274377
4.585000000000001,-1.1143002249480238,-0.670072042413419,-2.7644462008555903
4.588500000000003,-1.0866035950481256,-0.7148135577882937,-2.8315593465825284
4.592000000000006,-1.0706233604168656,-0.7542300736153336,-2.8709758624095683
4.595500000000001,-1.0599698706626923,-0.80642938088398,-2.9189130756448445
4.599000000000004,-1.0503827770814873,-0.8490415945714216,-2.9434157530135927
4.602499999999999,-1.053578474941889,-0.8991098548233829,-2.96046063848857
4.606000000000002,-1.0727544074335509,-0.9310703240859032,-2.961525289332286
4.609500000000004,-1.1047131313668188,-0.9630290480191712,-2.955133893611483
4.613,-1.145194298037575,-0.9811385843378644,-2.947676101717711
4.616500000000002,-1.2165695377978836,-0.9949877719524394,-2.9210441226615296
4.6200000000000045,-1.2911404754185931,-0.9971170736398725,-2.899738888482435
4.6235,-1.399799438660004,-0.9800739334941478,-2.867780164549167
4.627000000000002,-1.490350610911974,-0.9630290480191712,-2.8390171384763003
4.630500000000005,-1.6320346942596218,-0.9395927668233912,-2.782555737174284
4.634,-1.749217845567773,-0.9257435792088164,-2.7324874769223224
4.637500000000003,-1.9068821635466808,-0.901240901840068,-2.6738950286036207
4.641000000000005,-2.0187385699777454,-0.8852624125380599,-2.640871653826636
4.644500000000001,-2.152964861431621,-0.8543683394485082,-2.603586185016281
4.648000000000003,-2.2381892888065043,-0.8309320582527283,-2.578018856803816
4.651500000000006,-2.328738715729222,-0.7989733343194602,-2.5407333879934613
4.655000000000001,-2.378808721310436,-0.7893844954090034,-2.5077082678872245
4.658500000000004,-2.408636398227019,-0.7840577505319166,-2.454444309774862
4.661999999999999,-2.4075717473833023,-0.7819284488444836,-2.433139075595767
4.6655000000000015,-2.366024184539577,-0.8021690321798618,-2.4171588409645066
4.669000000000004,-2.3138248772709304,-0.8096250787443816,-2.408636398227019
4.672499999999999,-2.194512424275346,-0.8383881048172481,-2.428876981562397
4.676000000000002,-2.0975698563025733,-0.8607597351693115,-2.4278123307186803
4.679500000000004,-1.956950423798642,-0.9023072980130364,-2.434203726439484
4.683,-1.8280491318926009,-0.9236125321921312,-2.45870465847898
4.686500000000002,-1.64481923103048,-0.9395927668233912,-2.527950596551855
4.690000000000005,-1.4999377044931788,-0.9577023031420844,-2.5567118772954696
4.6935,-1.3230991993518617,-1.014161959114849,-2.5822792055079344
4.697000000000003,-1.2027203501833084,-1.0525138240981724,-2.6216957213349743
4.700500000000005,-1.0482517300648024,-1.0919285945959605,-2.6760260756203054
4.704000000000001,-0.9481134642316276,-1.136671855300087,-2.715442591447346
4.707500000000003,-0.84584589671102,-1.1771530219708437,-2.749530617068047
4.711000000000006,-0.8000379851631767,-1.2069806988874263,-2.76018410682222
4.714500000000001,-0.8032336830235783,-1.2463972147144666,-2.76018410682222
4.718000000000004,-0.8650218292026817,-1.273029193770648,-2.7527280602577004
4.721500000000006,-1.0173594023045027,-1.3039232668601997,-2.7484659662243307
4.725000000000001,-1.192066860429135,-1.3305552459163812,-2.750597013241016
4.728500000000004,-1.492481657928659,-1.3689071108997044,-2.761248757665937
4.731999999999999,-1.7598713353219464,-1.4104529284141776,-2.780424690157598
4.735500000000002,-2.154031257604589,-1.4669143297161942,-2.8081230653867486
4.739000000000004,-2.44698651788109,-1.5105911942473522,-2.830494695738812
4.7425,-2.833690393599213,-1.5787707361472587,-2.8517999299179064
4.746000000000002,-3.104275768852902,-1.6384260899804248,-2.865649117532482
4.749500000000005,-3.4196026594814657,-1.7108677259137015,-2.8709758624095683
4.753,-3.6177481441311294,-1.767327381886466,-2.865649117532482
4.756500000000003,-3.813762581764109,-1.8301801789092855,-2.8432774871804187
4.760000000000005,-3.9234879411784886,-1.871725996423759,-2.8134498102638354
4.7635000000000005,-4.02895295188875,-1.915404606284169,-2.7548573619451338
4.767000000000003,-4.077956561296995,-1.940970189167382,-2.6888088670619124
4.7705000000000055,-4.117373077124035,-1.952690075094524,-2.6259578153683445
4.774000000000001,-4.104588540353176,-1.9431012361840672,-2.6014551379995963
4.777500000000003,-4.025757254028348,-1.9068821635466808,-2.570561064910044
4.781000000000006,-3.928814686055576,-1.8823794861779324,-2.516230710624713
4.784500000000001,-3.756236529618376,-1.8472250643842625,-2.426745934545712
4.788000000000004,-3.6038989565165553,-1.820593085328081,-2.358568137975057
4.791499999999999,-3.379121492810709,-1.7865033143781277,-2.276539408460576
4.795000000000002,-3.209739034233912,-1.7737187776072691,-2.2168823092981573
4.798500000000004,-2.998810758142641,-1.7779808716406396,-2.143377767850416
4.802,-2.8699094662366,-1.7971568041323012,-2.09117846058177
4.805500000000002,-2.7324874769223224,-1.844029366523861,-2.026194616542265
4.809000000000005,-2.6749614247765896,-1.8887708818987357,-1.994235892608997
4.8125,-2.668568283726534,-1.9718642622569336,-1.9548193767819568
4.8160000000000025,-2.722898638011866,-2.0560222934588483,-1.9324494917591453
4.819500000000005,-2.878431908974088,-2.1636183511857947,-1.904751116529996
4.823,-3.043554018846768,-2.248842778560677,-1.887706231055019
4.826500000000003,-3.32053078982126,-2.370286278572947,-1.8834458823509008
4.830000000000005,-3.5591574411416804,-2.4555089606185785,-1.8802484391612475
4.833500000000001,-3.895791311278591,-2.56097397132884,-1.885575184038334
4.837000000000003,-4.15039645190102,-2.629153513228746,-1.889837278071704
4.840500000000006,-4.469985436562954,-2.6920045649223137,-1.903686465686279
4.844000000000001,-4.691567202408398,-2.7207675909951803,-1.9186003041445707
4.847500000000004,-4.942978390499676,-2.7410081743305588,-1.940970189167382
4.850999999999999,-5.101707359322301,-2.739943523486842,-1.9558857729549253
4.854500000000002,-5.252978536251153,-2.7175718931347785,-1.9857134498715088
4.858000000000004,-5.323289125167745,-2.687744216218196,-2.0166075229610603
4.8615,-5.350987500396895,-2.627022466212061,-2.045370549033927
4.865000000000002,-5.326484823028146,-2.5694964140663283,-2.0645447361963365
4.8685000000000045,-5.23486899993246,-2.48214093967476,-2.0837206686879983
4.872,-5.12514364051808,-2.4054407003666167,-2.09117846058177
4.875500000000002,-4.941911994326707,-2.3180869713043006,-2.0901120644088014
4.879000000000005,-4.775726978939565,-2.264821267862686,-2.081589621671313
4.8825,-4.538164978462859,-2.2147530076107245,-2.058153340475533
4.886000000000003,-4.3496065873944,-2.1870546323815745,-2.03578171012347
4.889500000000005,-4.096066097615688,-2.1732054447669995,-2.003822986190201
4.893000000000001,-3.9181629416306554,-2.176401142627401,-1.9718642622569336
4.896500000000003,-3.6997768736456114,-2.194512424275346,-1.9271227468820589
4.900000000000006,-3.563417789845799,-2.213686611437756,-1.887706231055019
4.903500000000001,-3.4206690556544346,-2.250972080248111,-1.8461604135405456
4.907000000000004,-3.34396707101704,-2.277604059304292,-1.8099395955739075
4.910499999999999,-3.301354857329598,-2.3180869713043006,-1.779045522484356
4.9140000000000015,-3.305616951362968,-2.3532413930979708,-1.7641316840260644
4.917500000000004,-3.3737947479336228,-2.4065053512103334,-1.7470867985510878
4.920999999999999,-3.456888128291821,-2.4491175648977745,-1.7449557515344027
4.924500000000002,-3.6007032586561536,-2.511970361920594,-1.743891100690686
4.928000000000004,-3.723213154841392,-2.557778273468438,-1.752413543428175
4.9315,-3.892595613418189,-2.6238267683516594,-1.767327381886466
4.935000000000002,-4.0172348112908605,-2.678157122636991,-1.7843722673614426
4.938500000000005,-4.177030176286453,-2.746334919207645,-1.811004246417624
4.942,-4.285689139527864,-2.798535971805544,-1.8376379708030577
4.945500000000003,-4.415655082277622,-2.8699094662366,-1.8791837883175309
4.949000000000005,-4.497683811792104,-2.917848424801128,-1.9249916998653736
4.952500000000001,-4.591428936575223,-2.994550409438523,-1.972930658429902
4.956000000000003,-4.645759290860553,-3.058467857305059,-2.0091497310672883
4.959500000000006,-4.6905025515646805,-3.149017284227777,-2.048566246894328
4.963000000000001,-4.703285343006288,-3.2203925239880853,-2.0666757832130216
4.966500000000004,-4.679849061810508,-3.322661836837945,-2.0837206686879983
4.970000000000006,-4.634041150262664,-3.388710331721166,-2.081589621671313
4.973500000000001,-4.540296025479544,-3.4803244094876007,-2.0762646221234786
4.977000000000004,-4.442288806663056,-3.5303944150688142,-2.06774217938599
4.980499999999999,-4.300602977986156,-3.5825937223374607,-2.0645447361963365
4.984000000000002,-4.180225874146855,-3.612421399254044,-2.058153340475533
4.987500000000004,-4.005516670692971,-3.639055123639477,-2.045370549033927
4.991,-3.868092936049441,-3.6486422172206816,-2.0368481062964383
4.994500000000002,-3.672078498416462,-3.643315472343595,-2.0293903144026664
4.998000000000005,-3.518676274470924,-3.627336983041587,-2.0208678716651782
5.0015,-3.310941950910803,-3.583658373181177,-2.0059540332068866
5.005000000000003,-3.1639328680153205,-3.5431772065104203,-1.9857134498715088
5.008500000000005,-2.990288315405153,-3.472868362923081,-1.952690075094524
5.0120000000000005,-2.8752362111136867,-3.413211263760662,-1.9303184447424608
5.015500000000003,-2.76018410682222,-3.323726487681661,-1.904751116529996
5.0190000000000055,-2.707984799553574,-3.263004737675527,-1.8845105331946173
5.022500000000001,-2.679221773480708,-3.177780310300644,-1.8376379708030577
5.026000000000003,-2.7058537525368886,-3.128776700892399,-1.7896990122385292
5.029500000000006,-2.7942738777721736,-3.072317044919634,-1.6948874912824414
5.033000000000001,-2.888020747884545,-3.0371608777967127,-1.6075337622201251
5.036500000000004,-3.058467857305059,-3.005202153863444,-1.4882195638952889
5.039999999999999,-3.2171968261276835,-2.997746107298924,-1.3934080429392008
5.043500000000002,-3.4558234774481043,-3.0009418051593264,-1.273029193770648
5.047000000000004,-3.650773264237367,-3.004137503019728,-1.1867401155520485
5.0505,-3.921358639491056,-2.990288315405153,-1.073819058277267
5.054000000000002,-4.124829123688555,-2.968983081226058,-1.002443818516959
5.0575000000000045,-4.384762754517322,-2.9221087735052462,-0.9097633445775564
5.061,-4.570123702396128,-2.866713768376198,-0.8511726415881066
5.064500000000002,-4.806619306699863,-2.798535971805544,-0.7861887975486017
5.068000000000005,-4.979197463137062,-2.751661664084732,-0.7446429800341288
5.0715,-5.1879964375409005,-2.7133115444306606,-0.6849858808717105
5.075000000000003,-5.326484823028146,-2.7047891016931724,-0.6413090163405525
5.078500000000005,-5.477757745286251,-2.721833987168149,-0.5795208701614492
5.082000000000001,-5.55232693757771,-2.742074570503527,-0.5433017975240628
5.085500000000003,-5.597070198281835,-2.788947132895087,-0.5017542346803379
5.089000000000006,-5.5789606619631416,-2.8315593465825284,-0.4868403962220463
5.092500000000001,-5.489475885884141,-2.901868190169868,-0.4697955107470696
5.096000000000004,-5.3637702918385015,-2.961525289332286,-0.4697955107470696
5.099499999999999,-5.136861781115971,-3.051010065411288,-0.480449000501243
5.1030000000000015,-4.930193853728818,-3.1127982115903907,-0.4985585368199362
5.106500000000004,-4.620193707977341,-3.191629497915218,-0.5390397034906926
5.109999999999999,-4.37730496262355,-3.243828805183865,-0.5720648235969293
5.113500000000002,-4.049193535224129,-3.2960281124525115,-0.626395177882261
5.117000000000004,-3.808435836887023,-3.32053078982126,-0.6658099483800488
5.1205,-3.501631388995948,-3.3215954406649764,-0.7126842561008605
5.124000000000002,-3.28537636802759,-3.3066816022066847,-0.7393162351570419
5.127500000000005,-3.022247039338421,-3.267265086379645,-0.7510343757549319
5.131,-2.84647318504082,-3.223588221848487,-0.7510343757549319
5.134500000000003,-2.662176888005731,-3.1586061231382336,-0.7350541411236718
5.138000000000005,-2.559909320485123,-3.113862862434108,-0.7084221620674903
5.141500000000001,-2.4927944294289333,-3.0712506487466653,-0.6679409953967339
5.145000000000003,-2.4917297785852166,-3.043554018846768,-0.6381133184801508
5.148500000000006,-2.5652343200329577,-3.004137503019728,-0.5816519171781342
5.152000000000001,-2.672830377759904,-2.979634825650979,-0.533712958613606
5.155500000000004,-2.8752362111136867,-2.9434157530135927,-0.4516859744283765
5.159000000000006,-3.0712506487466653,-2.9114570290803248,-0.3760503859639502
5.162500000000001,-3.374861144106591,-2.880562955990773,-0.2663250265495707
5.166000000000004,-3.636924076622792,-2.853930976934592,-0.1842962970350892
5.169499999999999,-4.001256321988852,-2.8091877162304653,-0.0905494269227178
5.173000000000002,-4.281428790823746,-2.7868160858784017,-0.0362208179666383
5.176500000000004,-4.645759290860553,-2.777228992297197,0.02769837522915
5.18,-4.897170478951834,-2.775097945280512,0.0735062867769931
5.183500000000002,-5.185865390524215,-2.7836203880180004,0.1406194325039311
5.187000000000005,-5.356312499944729,-2.785751435034685,0.1853609478788057
5.1905,-5.526761354694496,-2.7878824820513706,0.2258421145495622
5.194000000000003,-5.608788338879725,-2.788947132895087,0.2386266513204207
5.197500000000005,-5.649269505550482,-2.785751435034685,0.2439533961975074
5.2010000000000005,-5.6322246200755055,-2.778293643140914,0.2290395577392158
5.204500000000003,-5.57150287006937,-2.7633798046826223,0.1928187397725775
5.2080000000000055,-5.500127630309063,-2.758053059805535,0.166186760716396
5.211500000000001,-5.371228083732273,-2.758053059805535,0.1278348957330726
5.215000000000003,-5.260436328144925,-2.7569884089618184,0.096942567972773
5.218500000000006,-5.0804003798139545,-2.7569884089618184,0.0585907029894496
5.222000000000001,-4.922737807164299,-2.7569884089618184,0.029827676916583
5.225500000000004,-4.6905025515646805,-2.755923758118102,-0.0127827914416064
5.228999999999999,-4.492357066915017,-2.7452702683639285,-0.0500682602519613
5.232500000000002,-4.197270759621831,-2.7303564299056373,-0.0990718696602061
5.236000000000004,-3.958644108301411,-2.7207675909951803,-0.1352926876268444
5.2395,-3.6305326809019887,-2.698397705972369,-0.1768385051413174
5.243000000000002,-3.379121492810709,-2.671763981586936,-0.2034722295267509
5.246500000000005,-3.0467497167071693,-2.631282814916179,-0.2375620004767041
5.25,-2.8017316696659456,-2.5982594401391945,-0.2546051406224288
5.2535000000000025,-2.5034479191831065,-2.5726921119267296,-0.2631275833599171
5.257000000000005,-2.294648944779269,-2.5567118772954696,-0.260998281672484
5.2605,-2.04004380415684,-2.539668737149745,-0.2418223491808223
5.264000000000003,-1.8727923925967276,-2.5236885025184845,-0.2215817658454441
5.267500000000005,-1.6810383036678664,-2.4874676845518464,-0.1842962970350892
5.271000000000001,-1.5606594544993135,-2.453379658931145,-0.1565979218059392
5.274500000000003,-1.4253667668724692,-2.3915915127520417,-0.1043986145372928
5.278000000000006,-1.342273386514271,-2.347914648220884,-0.0543303542853314
5.281500000000001,-1.2581153553123563,-2.285061851198064,0.0181095363186931
5.285000000000004,-1.2123074437645132,-2.2349935909461025,0.0798976824977964
5.288499999999999,-1.1771530219708437,-2.16574939820248,0.1619246666830259
5.292000000000002,-1.1728926732667255,-2.1124836947608645,0.2162550209683574
5.295500000000004,-1.203785001027025,-2.03578171012347,0.288694911572382
5.299,-1.2400058189936634,-1.982517752011107,0.3547434064556034
5.302500000000002,-1.314576756614373,-1.9164692571278852,0.4474238803950063
5.3060000000000045,-1.3667760638830195,-1.8706613455800425,0.5326483077698895
5.3095,-1.4349556057829258,-1.818462038311396,0.6690056462404504
5.313000000000002,-1.474370376280714,-1.7918300592552143,0.7904508915819718
5.316500000000005,-1.5010041006661472,-1.769458428903151,0.9577023031420844
5.32,-1.5116558450910689,-1.7737187776072691,1.097255339473047
5.323500000000003,-1.502068751509864,-1.7833076165177262,1.2708998920832149
5.327000000000005,-1.480763517330769,-1.8120706425905928,1.3987347878162877
5.330500000000001,-1.4317599079225245,-1.8759880904571289,1.5532034079347938
5.334000000000003,-1.374233855776791,-1.933514142602862,1.649079579734598
5.337500000000006,-1.2762248916310497,-2.0059540332068866,1.7683920327301823
5.341000000000001,-1.1888711625687334,-2.057088689631817,1.8450940173675772
5.344500000000004,-1.051447427925204,-2.109287996900463,1.944167632357036
5.347999999999999,-0.9417220685108244,-2.132724278096243,2.017672173804777
5.3515000000000015,-0.7744706569507118,-2.134855325112928,2.10289660117966
5.355000000000004,-0.6519625060947258,-2.123137184515038,2.162553700342078
5.358499999999999,-0.5347793547865746,-2.0922431114254865,2.2168823092981573
5.362000000000002,-0.3813771308410369,-2.0411084550005567,2.2882575490584656
5.365500000000004,-0.2492801410745941,-1.9857134498715088,2.351110346081285
5.369,-0.1629910628559944,-1.9345787934465783,2.3926561635957584
5.372500000000002,-0.0575260521457331,-1.857878554138436,2.434203726439484
5.376000000000005,0.0085224427374883,-1.7960904079593327,2.46296675251235
5.3795,0.1012029166768912,-1.7034099340199298,2.4800116379873267
5.383000000000003,0.1704471094205142,-1.6362967882929915,2.4949254764456184
5.386500000000005,0.258867234655799,-1.5436145690243368,2.5013168721664214
5.390000000000001,0.3291760782431385,-1.4722410745932808,2.506643617043508
5.393500000000003,0.4058780628805333,-1.377429553637193,2.4991858251497363
5.397000000000006,0.4538170214450616,-1.3028586160164832,2.490663382412248
5.400500000000001,0.4974938859762197,-1.23361442327286,2.4778805909706416
5.404000000000004,0.5422354013510943,-1.134540808283402,2.47468489311024
5.407500000000006,0.5763251723010476,-1.0695587095731491,2.495990127289335
5.411000000000001,0.614677037284371,-0.996052422796156,2.5471247837142648
5.414500000000004,0.6551582039551274,-0.952375558264998,2.60039048715588
5.417999999999999,0.7126842561008605,-0.912959042437958,2.6834838675140773
5.421500000000002,0.7648835633695069,-0.8927184591025796,2.753792711101417
5.425000000000004,0.847976943727705,-0.8788692714880046,2.8390171384763003
5.4285,0.9182857873150446,-0.8671511308901148,2.892281096588663
5.432000000000002,1.0173594023045027,-0.847976943727705,2.953002846594798
5.435500000000005,1.0908639437522438,-0.8224096155152401,2.987092617544751
5.439,1.1910022095854185,-0.7712749590903102,3.015855643617618
5.442500000000003,1.2666377980498449,-0.7286627454028686,3.0265091333717917
5.446000000000005,1.3752985066205077,-0.6594185526592456,3.0467497167071693
5.4495000000000005,1.453065142101619,-0.605088198373914,3.054205763271689
5.453000000000003,1.5595948036555969,-0.5251905158761178,3.0531411124279724
5.4565000000000055,1.64055713699711,-0.4665998128866681,3.058467857305059
5.460000000000001,1.743891100690686,-0.3813771308410369,3.0627282060091776
5.463500000000003,1.8216577361717976,-0.3206536355056502,3.059532508148776
5.467000000000006,1.922860652848689,-0.233299906443334,3.0467497167071693
5.470500000000001,1.9910401947485952,-0.1747092034538843,3.036096226952996
5.474000000000004,2.093307762269203,-0.1022693128498597,3.0179866906343027
5.477499999999999,2.1732054447669995,-0.0511346564249298,3.005202153863444
5.481000000000002,2.294648944779269,0.0053267448770866,2.983896919684349
5.484500000000004,2.3883958148916404,0.0521993072686464,2.963656336348971
5.488,2.530079898239288,0.1043986145372928,2.935957961119821
5.491500000000002,2.6376759559662344,0.1448797812080492,2.9082613312199235
5.4950000000000045,2.785751435034685,0.1874919948954908,2.88588970086786
5.4985,2.903999237186553,0.2087989744038376,2.8699094662366
5.502000000000002,3.072317044919634,0.233299906443334,2.8571266747949933
5.505500000000005,3.193760544931904,0.247149094057909,2.842212836336702
5.509,3.34822916505041,0.260998281672484,2.827297252549158
5.512500000000003,3.453692430431419,0.2620629325162006,2.82303690384504
5.516000000000005,3.576202326616657,0.2492801410745941,2.8251679508617253
5.519500000000001,3.6529025659248,0.2343645572870505,2.8315593465825284
5.523000000000003,3.718951060808021,0.2024058333537824,2.8454085341971034
5.526500000000006,3.745584785193455,0.1736428072809158,2.849668882901222
5.530000000000001,3.761563274495463,0.1235745470289545,2.8454085341971034
5.533500000000004,3.7509097847412898,0.083093380358198,2.835819695286647
5.536999999999999,3.724277805685108,0.0319587239332681,2.8059920183700635
5.5405000000000015,3.691254430908124,-0.0053267448770866,2.777228992297197
5.544000000000004,3.644380123187312,-0.0458079115478431,2.722898638011866
5.547499999999999,3.6049653526895233,-0.0703088435873395,2.6813528204973927
5.551000000000002,3.5399815086500186,-0.0958761717998045,2.6216957213349743
5.554500000000004,3.4856511543646875,-0.1129210572747811,2.570561064910044
5.558,3.4014931231627727,-0.1299659427497577,2.5045125700268227
5.561500000000002,3.324791138525378,-0.1470108282247343,2.444857216193657
5.565000000000005,3.2203925239880853,-0.1608600158393093,2.371350929416664
5.5685,3.1404948414902885,-0.1725781564371993,2.3116938302542454
5.572000000000003,3.0371608777967127,-0.1949497867892626,2.239253939650221
5.575500000000005,2.971112382913492,-0.219450718828759,2.188119283225291
5.579000000000001,2.9146527269407265,-0.2460844432141925,2.136986372129613
5.582500000000003,2.88588970086786,-0.274847469287059,2.09863450714629
5.586000000000006,2.8752362111136867,-0.3174579376452486,2.057088689631817
5.589500000000001,2.878431908974088,-0.3387649171535954,2.02406356952558
5.593000000000004,2.906130284203238,-0.3653968962097769,1.984648799027792
5.596500000000006,2.927435518382333,-0.3771150368076668,1.956950423798642
5.600000000000001,2.9625899401760027,-0.3920288752659583,1.921796002004972
5.603500000000004,2.994550409438523,-0.3994866671597301,1.8983597208091925
5.606999999999999,3.036096226952996,-0.4016177141764152,1.8706613455800425
5.610500000000002,3.065923903869579,-0.4058780628805333,1.848289715227979
5.614000000000004,3.0957533261154144,-0.4005513180034466,1.8152663404509943
5.6175,3.1096025137299894,-0.3952245731263599,1.7886343613948128
5.621000000000002,3.114927513277824,-0.3952245731263599,1.7470867985510878
5.624500000000005,3.1255810030319973,-0.3941599222826434,1.7129970276011346
5.628,3.126645653875713,-0.3941599222826434,1.6661244652095748
5.631500000000003,3.136234492786171,-0.3898978282492732,1.6277743455555036
5.635000000000005,3.142625888506974,-0.3845728287014385,1.5894224805721802
