time,Gyr_X,Gyr_Y,Gyr_Z
0.0,-0.0010646508437165,0.0,0.0085224427374883
0.0034999999999989,-0.002131047016685,-0.002131047016685,0.0063913957208032
0.0070000000000014,0.002131047016685,0.0010646508437165,0.0106534897541733
0.0105000000000003,-0.002131047016685,0.002131047016685,0.0042603487041181
0.0139999999999993,-0.0031956978604016,0.0010646508437165,0.0085224427374883
0.0175000000000018,-0.0063913957208032,0.0,0.0074577918937717
0.0210000000000007,-0.0031956978604016,0.0010646508437165,0.0085224427374883
0.0244999999999997,-0.0042603487041181,-0.0031956978604016,0.0053267448770866
0.0279999999999986,-0.0042603487041181,0.0,0.0063913957208032
0.0315000000000011,0.0,-0.002131047016685,0.0095870935812048
0.0350000000000001,-0.0042603487041181,-0.0010646508437165,0.0085224427374883
0.038499999999999,-0.0031956978604016,0.002131047016685,0.0085224427374883
0.0420000000000015,-0.0031956978604016,0.0,0.0053267448770866
0.0455000000000005,0.0,-0.0010646508437165,0.0074577918937717
0.0489999999999994,0.0010646508437165,0.0,0.0085224427374883
0.0524999999999984,-0.0042603487041181,-0.002131047016685,0.0085224427374883
0.0560000000000009,-0.0010646508437165,-0.0031956978604016,0.0053267448770866
0.0594999999999998,-0.0042603487041181,-0.0042603487041181,0.0042603487041181
0.0629999999999988,0.0,-0.0031956978604016,0.0053267448770866
0.0665000000000013,0.0,-0.0042603487041181,0.0042603487041181
0.0700000000000002,-0.0031956978604016,-0.0010646508437165,0.0085224427374883
0.0734999999999992,0.0,-0.002131047016685,0.0095870935812048
0.0770000000000017,-0.0063913957208032,-0.0063913957208032,0.002131047016685
0.0805000000000006,-0.0085224427374883,-0.0053267448770866,0.0063913957208032
0.0839999999999996,-0.0053267448770866,-0.0063913957208032,0.0063913957208032
0.0874999999999985,-0.0085224427374883,-0.0053267448770866,0.0074577918937717
0.091000000000001,0.0010646508437165,-0.002131047016685,0.0149138384582915
0.0945,0.0,0.0,0.0106534897541733
0.0979999999999989,-0.0063913957208032,-0.002131047016685,0.0042603487041181
0.1015000000000014,0.0010646508437165,-0.002131047016685,0.0042603487041181
0.1050000000000004,0.0074577918937717,0.0,0.0095870935812048
0.1084999999999993,-0.002131047016685,-0.0031956978604016,0.0106534897541733
0.1120000000000018,-0.0085224427374883,-0.002131047016685,0.0042603487041181
0.1155000000000008,0.0085224427374883,0.002131047016685,0.0074577918937717
0.1189999999999997,0.0,0.0031956978604016,0.0074577918937717
0.1224999999999987,-0.0042603487041181,0.0063913957208032,0.0085224427374883
0.1260000000000012,-0.0010646508437165,0.0042603487041181,0.0095870935812048
0.1295000000000001,0.0,-0.002131047016685,0.0117181405978899
0.1329999999999991,-0.0031956978604016,-0.0010646508437165,0.0106534897541733
0.1365000000000016,0.0,-0.0010646508437165,0.0085224427374883
0.1400000000000005,0.0085224427374883,0.0,0.0106534897541733
0.1434999999999995,0.0010646508437165,-0.002131047016685,0.0106534897541733
0.1469999999999984,0.0031956978604016,-0.002131047016685,0.0063913957208032
0.1505000000000009,-0.002131047016685,-0.0053267448770866,0.0042603487041181
0.1539999999999999,-0.0063913957208032,-0.0053267448770866,0.0042603487041181
0.1574999999999988,-0.0074577918937717,0.0,0.002131047016685
0.1610000000000013,-0.0063913957208032,-0.0053267448770866,0.0074577918937717
0.1645000000000003,-0.0085224427374883,-0.0042603487041181,0.0127827914416064
0.1679999999999992,-0.0074577918937717,-0.0042603487041181,0.0063913957208032
0.1715000000000017,-0.0074577918937717,-0.0063913957208032,0.0063913957208032
0.1750000000000007,-0.0042603487041181,-0.0074577918937717,0.0063913957208032
0.1784999999999996,-0.0085224427374883,-0.0095870935812048,0.0074577918937717
0.1819999999999986,-0.0031956978604016,-0.0085224427374883,0.0117181405978899
0.1855000000000011,0.0042603487041181,-0.0042603487041181,0.0085224427374883
0.189,0.0031956978604016,-0.0053267448770866,0.0042603487041181
0.192499999999999,0.0010646508437165,-0.0031956978604016,0.0053267448770866
0.1960000000000015,0.0053267448770866,-0.002131047016685,0.0074577918937717
0.1995000000000004,-0.0010646508437165,-0.0053267448770866,0.0127827914416064
0.2029999999999994,-0.002131047016685,-0.002131047016685,0.0149138384582915
0.2064999999999983,0.0,-0.0063913957208032,0.0042603487041181
0.2100000000000008,-0.002131047016685,0.0010646508437165,0.0074577918937717
0.2134999999999998,-0.0010646508437165,0.0,0.002131047016685
0.2169999999999987,-0.002131047016685,0.0,0.0042603487041181
0.2205000000000012,-0.0053267448770866,0.0,0.0085224427374883
0.2240000000000002,-0.0042603487041181,-0.0042603487041181,0.0095870935812048
0.2274999999999991,-0.0042603487041181,-0.0053267448770866,0.0053267448770866
0.2310000000000016,0.0,0.0,0.0074577918937717
0.2345000000000006,-0.002131047016685,-0.0010646508437165,0.0042603487041181
0.2379999999999995,0.0,0.0,0.0063913957208032
0.2414999999999985,-0.0042603487041181,0.0,0.0053267448770866
0.245000000000001,-0.0063913957208032,-0.0010646508437165,0.0106534897541733
0.2484999999999999,-0.0010646508437165,0.002131047016685,0.0074577918937717
0.2519999999999989,0.0,-0.0042603487041181,0.0085224427374883
0.2555000000000014,-0.0010646508437165,-0.0010646508437165,0.0042603487041181
0.2590000000000003,-0.0053267448770866,0.0,0.0085224427374883
0.2624999999999993,-0.0063913957208032,-0.0010646508437165,0.0063913957208032
0.2660000000000018,-0.0053267448770866,-0.0010646508437165,0.0063913957208032
0.2695000000000007,-0.0010646508437165,0.0010646508437165,0.0074577918937717
0.2729999999999997,0.0,0.0010646508437165,0.0053267448770866
0.2764999999999986,0.002131047016685,-0.002131047016685,0.0085224427374883
0.2800000000000011,-0.0010646508437165,-0.0031956978604016,0.0042603487041181
0.2835000000000001,-0.0010646508437165,-0.002131047016685,0.0053267448770866
0.286999999999999,0.002131047016685,-0.0010646508437165,0.0063913957208032
0.2905000000000015,0.0,-0.0031956978604016,0.0095870935812048
0.2940000000000005,0.0010646508437165,-0.0042603487041181,0.0085224427374883
0.2974999999999994,0.0010646508437165,-0.0010646508437165,0.0085224427374883
0.3009999999999984,0.0,-0.0063913957208032,0.0074577918937717
0.3045000000000009,-0.002131047016685,0.0,0.0085224427374883
0.3079999999999998,-0.0053267448770866,0.002131047016685,0.0031956978604016
0.3114999999999988,-0.0010646508437165,0.0,0.0031956978604016
0.3150000000000013,0.0,0.0,0.0106534897541733
0.3185000000000002,-0.0031956978604016,-0.002131047016685,0.0063913957208032
0.3219999999999992,-0.0053267448770866,0.0042603487041181,0.0063913957208032
0.3255000000000017,-0.0010646508437165,0.002131047016685,0.002131047016685
0.3290000000000006,-0.002131047016685,0.0010646508437165,0.0074577918937717
0.3324999999999996,-0.0063913957208032,0.002131047016685,0.002131047016685
0.3359999999999985,-0.0117181405978899,0.0,0.002131047016685
0.339500000000001,-0.0063913957208032,0.0074577918937717,0.0074577918937717
0.3429999999999999,0.0010646508437165,0.0127827914416064,0.0053267448770866
0.3464999999999989,-0.0127827914416064,0.0,0.0
0.3500000000000014,-0.013849187614575,0.0095870935812048,0.0
0.3535000000000003,0.0,0.0095870935812048,0.002131047016685
0.3569999999999993,-0.0031956978604016,0.002131047016685,0.0053267448770866
0.3605000000000018,-0.0117181405978899,0.0106534897541733,0.0010646508437165
0.3640000000000007,-0.0053267448770866,0.0085224427374883,0.0
0.3674999999999997,-0.0031956978604016,0.0266319790561814,-0.0031956978604016
0.3709999999999986,0.0010646508437165,0.0245026773687483,-0.0085224427374883
0.3745000000000011,-0.0181095363186931,-0.0053267448770866,-0.01598023463126
0.3780000000000001,-0.0266319790561814,-0.0308940730895516,-0.0223716303520633
0.381499999999999,0.0095870935812048,-0.0905494269227178,-0.0010646508437165
0.3850000000000015,0.0404811666707564,-0.1448797812080492,0.0181095363186931
0.3885000000000005,0.0106534897541733,-0.1459461773810178,0.0010646508437165
0.3919999999999994,-0.0404811666707564,-0.0990718696602061,-0.0213052341790947
0.3954999999999984,-0.0468725623915597,-0.0245026773687483,-0.0340897709499532
0.3990000000000009,-0.0010646508437165,0.0255673282124649,-0.0202405833353782
0.4024999999999998,0.0085224427374883,0.0085224427374883,-0.0053267448770866
0.4059999999999988,-0.0213052341790947,-0.0202405833353782,0.0010646508437165
0.4095000000000013,-0.0266319790561814,-0.02769837522915,0.0
0.4130000000000002,0.0063913957208032,-0.0287630260728665,0.0010646508437165
0.4164999999999992,0.0649838440395048,0.0,0.0053267448770866
0.4200000000000017,0.0958761717998045,0.0127827914416064,0.0074577918937717
0.4235000000000006,0.096942567972773,0.0170448854749766,0.0234362811957798
0.4269999999999996,0.0543303542853314,0.0308940730895516,0.0170448854749766
0.4304999999999985,-0.0053267448770866,0.0245026773687483,0.0031956978604016
0.434000000000001,-0.0372854688103548,0.0170448854749766,0.0042603487041181
0.4375,-0.0639174478665363,0.0383501196540714,0.0095870935812048
0.4409999999999989,-0.0649838440395048,0.0287630260728665,0.0117181405978899
0.4445000000000014,-0.0287630260728665,0.0383501196540714,0.0191759324916617
0.4480000000000004,-0.0085224427374883,0.041545817514473,0.0202405833353782
0.4514999999999993,-0.01598023463126,0.0255673282124649,0.01598023463126
0.4550000000000018,-0.029827676916583,0.0255673282124649,0.0149138384582915
0.4585000000000008,-0.0362208179666383,0.0266319790561814,0.0106534897541733
0.4619999999999997,-0.0213052341790947,0.0245026773687483,0.013849187614575
0.4654999999999987,0.0319587239332681,0.0202405833353782,0.0181095363186931
0.4690000000000012,0.0575260521457331,0.0042603487041181,0.0181095363186931
0.4725000000000001,0.0628527970228197,-0.0170448854749766,0.0245026773687483
0.4759999999999991,0.0468725623915597,-0.0223716303520633,0.0202405833353782
0.4795000000000016,0.0234362811957798,-0.0234362811957798,0.0117181405978899
0.4830000000000005,0.0127827914416064,-0.0287630260728665,0.0149138384582915
0.4864999999999995,-0.002131047016685,-0.041545817514473,0.0095870935812048
0.4899999999999984,-0.0095870935812048,-0.0479389585645282,0.0127827914416064
0.4935000000000009,0.0074577918937717,-0.0617864008498512,0.0095870935812048
0.4969999999999999,0.0319587239332681,-0.0543303542853314,0.013849187614575
0.5004999999999988,0.0458079115478431,-0.0404811666707564,0.0031956978604016
0.5040000000000013,0.0490036094082447,-0.0340897709499532,0.0
0.5075000000000003,0.0468725623915597,-0.0245026773687483,0.002131047016685
0.5109999999999992,0.0511346564249298,-0.0255673282124649,0.0085224427374883
0.5145000000000017,0.0500682602519613,-0.0085224427374883,0.01598023463126
0.5180000000000007,0.0394165158270399,0.0010646508437165,0.01598023463126
0.5214999999999996,0.0245026773687483,0.013849187614575,0.0095870935812048
0.5249999999999986,0.0213052341790947,0.0245026773687483,0.0095870935812048
0.5285000000000011,0.0223716303520633,0.0340897709499532,0.0106534897541733
0.532,0.0106534897541733,0.041545817514473,0.0117181405978899
0.535499999999999,-0.0223716303520633,0.0490036094082447,0.0127827914416064
0.5390000000000015,-0.0394165158270399,0.0585907029894496,0.013849187614575
0.5425000000000004,-0.0511346564249298,0.0735062867769931,0.0117181405978899
0.5459999999999994,-0.0521993072686464,0.0767019846373948,0.0095870935812048
0.5495000000000019,-0.0436768645311581,0.0649838440395048,0.0127827914416064
0.5530000000000008,-0.0266319790561814,0.055395005129048,0.0106534897541733
0.5564999999999998,-0.0010646508437165,0.0372854688103548,0.0181095363186931
0.5599999999999987,0.0170448854749766,0.0266319790561814,0.0213052341790947
0.5635000000000012,0.029827676916583,0.0181095363186931,0.0191759324916617
0.5670000000000002,0.0266319790561814,0.0095870935812048,0.0149138384582915
0.5704999999999991,0.0106534897541733,0.0085224427374883,0.0095870935812048
0.5740000000000016,0.0010646508437165,0.0106534897541733,0.0031956978604016
0.5775000000000006,0.0127827914416064,0.0063913957208032,0.0063913957208032
0.5809999999999995,0.0213052341790947,0.01598023463126,0.0095870935812048
0.5844999999999985,0.0191759324916617,0.0181095363186931,-0.0010646508437165
0.588000000000001,0.0234362811957798,0.0202405833353782,-0.0053267448770866
0.5914999999999999,0.0255673282124649,0.0202405833353782,-0.01598023463126
0.5949999999999989,0.0372854688103548,0.0202405833353782,-0.013849187614575
0.5985000000000014,0.0351544217936697,0.0170448854749766,-0.01598023463126
0.6020000000000003,0.0362208179666383,0.0170448854749766,-0.0202405833353782
0.6054999999999993,0.055395005129048,0.01598023463126,-0.0106534897541733
0.6090000000000018,0.069244192743623,0.0287630260728665,-0.0010646508437165
0.6125000000000007,0.0617864008498512,0.0447432607041266,0.0127827914416064
0.6159999999999997,0.0351544217936697,0.0319587239332681,0.0245026773687483
0.6194999999999986,0.0308940730895516,0.0149138384582915,0.0426122136874415
0.6230000000000011,0.0500682602519613,0.0181095363186931,0.0521993072686464
0.6265000000000001,0.0713752397603081,0.0223716303520633,0.0479389585645282
0.629999999999999,0.0671131457269379,0.029827676916583,0.0404811666707564
0.6335000000000015,0.0521993072686464,0.0404811666707564,0.0266319790561814
0.6370000000000005,0.0266319790561814,0.0521993072686464,0.0223716303520633
0.6404999999999994,-0.0170448854749766,0.0703088435873395,0.0095870935812048
0.6439999999999984,-0.0404811666707564,0.0820287295144815,0.0042603487041181
0.6475000000000009,-0.0628527970228197,0.1012029166768912,-0.002131047016685
0.6509999999999998,-0.0681795418999064,0.1150521042914662,0.0010646508437165
0.6544999999999987,-0.0703088435873395,0.1267702448893561,-0.0127827914416064
0.6580000000000013,-0.0745709376207097,0.1097253594143795,-0.0181095363186931
0.6615000000000002,-0.069244192743623,0.1001382658331746,-0.0149138384582915
0.6649999999999991,-0.0564614013020165,0.1043986145372928,-0.0127827914416064
0.6685000000000016,-0.041545817514473,0.1043986145372928,-0.0223716303520633
0.6720000000000006,-0.0351544217936697,0.096942567972773,-0.029827676916583
0.6754999999999995,-0.0117181405978899,0.0894847760790012,-0.0308940730895516
0.6789999999999985,-0.002131047016685,0.0873537290623162,-0.0202405833353782
0.682500000000001,0.0127827914416064,0.0756355884644262,-0.0181095363186931
0.6859999999999999,0.0255673282124649,0.0798976824977964,-0.0213052341790947
0.6894999999999989,0.0149138384582915,0.1054650107102613,-0.0223716303520633
0.6930000000000014,-0.0085224427374883,0.0767019846373948,-0.0330233747769847
0.6965000000000003,-0.0340897709499532,0.0745709376207097,-0.029827676916583
0.6999999999999993,-0.0500682602519613,0.0990718696602061,-0.029827676916583
0.7035000000000018,-0.0521993072686464,0.1033339636935762,-0.0362208179666383
0.7070000000000007,-0.0351544217936697,0.110790010258096,-0.0351544217936697
0.7104999999999997,-0.0245026773687483,0.1043986145372928,-0.0255673282124649
0.7139999999999986,-0.0426122136874415,0.1118564064310645,-0.0223716303520633
0.7175000000000011,-0.0596570991624181,0.1012029166768912,-0.0266319790561814
0.7210000000000001,-0.0852244273748831,0.0884201252352847,-0.0362208179666383
0.724499999999999,-0.1161167551351827,0.0713752397603081,-0.041545817514473
0.7280000000000015,-0.1470108282247343,0.0585907029894496,-0.0426122136874415
0.7315000000000005,-0.1704471094205142,0.0585907029894496,-0.0426122136874415
0.7349999999999994,-0.1704471094205142,0.0681795418999064,-0.0351544217936697
0.7384999999999984,-0.1544686201185061,0.0916158230956863,-0.0191759324916617
0.7420000000000009,-0.1161167551351827,0.0958761717998045,-0.0053267448770866
0.7454999999999998,-0.0639174478665363,0.0958761717998045,0.013849187614575
0.7489999999999988,-0.0596570991624181,0.1022693128498597,0.0170448854749766
0.7525000000000013,-0.069244192743623,0.1065296615539778,0.0074577918937717
0.7560000000000002,-0.0649838440395048,0.1033339636935762,0.0127827914416064
0.7594999999999992,-0.0724398906040246,0.1129210572747811,0.01598023463126
0.7630000000000017,-0.0607217500061347,0.1086607085706629,0.02769837522915
0.7665000000000006,-0.0255673282124649,0.1139874534477496,0.0468725623915597
0.7699999999999996,-0.0042603487041181,0.1086607085706629,0.0511346564249298
0.7734999999999985,-0.0649838440395048,0.0990718696602061,0.0713752397603081
0.777000000000001,-0.152337573101821,0.0713752397603081,0.0681795418999064
0.7805,-0.3057397970473587,0.0287630260728665,0.0468725623915597
0.7839999999999989,-0.355809802628572,-0.0085224427374883,0.0330233747769847
0.7875000000000014,-0.4303807402492817,-0.0724398906040246,0.0181095363186931
0.7910000000000004,-0.5017542346803379,-0.110790010258096,-0.0042603487041181
0.7944999999999993,-0.5635423808594411,-0.1992101354933808,-0.0809623333415129
0.7980000000000018,-0.5358440056302911,-0.2418223491808223,-0.1129210572747811
0.8015000000000008,-0.5017542346803379,-0.2897613077453506,-0.1555332709622227
0.8049999999999997,-0.4729912086074713,-0.3440916620306821,-0.1874919948954908
0.8084999999999987,-0.4037470158638482,-0.4122694586013365,-0.2237128128621291
0.8120000000000012,-0.3568744534722885,-0.4516859744283765,-0.2524758389349957
0.8155000000000001,-0.3185243338182171,-0.5358440056302911,-0.2844345628682639
0.8189999999999991,-0.2940216564494687,-0.602958896686481,-0.2982837504828389
0.8225000000000016,-0.2759121201307756,-0.6892479749050807,-0.3036087500306735
0.8260000000000005,-0.2578025838120824,-0.7510343757549319,-0.3036087500306735
0.8294999999999995,-0.2386266513204207,-0.8149518236214683,-0.2940216564494687
0.8329999999999984,-0.2311688594266489,-0.8575640373089098,-0.2833681666952953
0.8365000000000009,-0.2269085107225308,-0.8948495061192646,-0.2663250265495707
0.8399999999999999,-0.2237128128621291,-0.9236125321921312,-0.2503447919183106
0.8434999999999988,-0.2237128128621291,-0.9577023031420844,-0.2269085107225308
0.8470000000000013,-0.2279731615662473,-0.970485094583691,-0.2034722295267509
0.8505000000000003,-0.2237128128621291,-0.9822032351815808,-0.177904901314286
0.8539999999999992,-0.2141239739516723,-0.984334282198266,-0.1576643179789077
0.8575000000000017,-0.1864273440517743,-0.9694204437399744,-0.1161167551351827
0.8610000000000007,-0.166186760716396,-0.9481134642316276,-0.0894847760790012
0.8644999999999996,-0.1086607085706629,-0.903371948856753,-0.0521993072686464
0.8679999999999986,-0.0660484948832214,-0.8522372924318231,-0.02769837522915
0.871500000000001,0.0031956978604016,-0.7659482142132235,0.002131047016685
0.875,0.0575260521457331,-0.6881815787321122,0.0223716303520633
0.878499999999999,0.1427504795206162,-0.5656734278761262,0.0500682602519613
0.8820000000000014,0.2173214171413259,-0.4719265577637547,0.0671131457269379
0.8855000000000004,0.3398295679973119,-0.3153286359578155,0.0937468701123714
0.8889999999999993,0.4410324846742031,-0.1853609478788057,0.1075943123976944
0.8925000000000018,0.5741958706136145,-0.0106534897541733,0.1161167551351827
0.8960000000000008,0.6626142505196473,0.1193124529955843,0.1182478021518678
0.8994999999999997,0.7712749590903102,0.2940216564494687,0.1203788491685528
0.9029999999999988,0.8522372924318231,0.4271832970596281,0.1171831513081512
0.9065000000000012,0.944917766371226,0.5891097090719061,0.1129210572747811
0.91,1.0035102146899275,0.7105532090841755,0.1065296615539778
0.9134999999999992,1.0823415010147557,0.8628907821859965,0.0990718696602061
0.9170000000000016,1.1164312719647087,0.9939213757794708,0.0937468701123714
0.9205000000000004,1.108973480070937,1.1622391835125518,0.0745709376207097
0.9239999999999996,1.1015174335064173,1.2517239595915532,0.0735062867769931
0.9274999999999984,1.0887328967355587,1.3603846681622165,0.0916158230956863
0.9310000000000008,1.0706233604168656,1.4370849074703589,0.0990718696602061
0.9345,1.0312068445898257,1.5169825899681555,0.1182478021518678
0.9379999999999988,0.9853989330419826,1.561725850672282,0.1331616406101593
0.9415000000000012,0.9353306727900212,1.5947492254492668,0.1640557136997109
0.9450000000000004,0.8980452039796664,1.6043380643597236,0.1853609478788057
0.9484999999999992,0.8682175270630832,1.6075337622201251,0.205601531214184
0.9520000000000016,0.8319967090964449,1.599011319482637,0.2215817658454441
0.9555000000000008,0.7425119330174437,1.5542680587785105,0.2354309534600191
0.9589999999999996,0.6764634381342222,1.502068751509864,0.2439533961975074
0.9624999999999986,0.5901743599156226,1.4338892096099574,0.2652586303766022
0.9660000000000012,0.5390397034906926,1.3880812980621142,0.286565609884949
0.9695,0.4591437663221482,1.3039232668601997,0.3078708440640437
0.972999999999999,0.4080091098972184,1.235743724960293,0.3291760782431385
0.9765000000000016,0.3408942188410284,1.1494546467416935,0.3526141047681703
0.9800000000000004,0.302544099186957,1.097255339473047,0.3664615470534934
0.9834999999999994,0.2546051406224288,1.0290775429023926,0.3749839897909817
0.9869999999999984,0.2247774637058457,0.972616141600376,0.3717882919305801
0.9905000000000008,0.1683160624038291,0.8799356676609732,0.3632658491930918
0.9939999999999998,0.1289012919060412,0.81069147491735,0.355809802628572
0.9974999999999988,0.1001382658331746,0.7244023966987505,0.3398295679973119
1.0010000000000012,0.0809623333415129,0.6594185526592456,0.3238510786953038
1.0045000000000002,0.0788312863248278,0.5741958706136145,0.3100018910807288
1.0079999999999991,0.0980072188164895,0.5070809795574245,0.2918906094327836
1.0115000000000016,0.1565979218059392,0.4197272504951083,0.2673896773932873
1.0150000000000006,0.2109282760912707,0.3547434064556034,0.247149094057909
1.0184999999999995,0.2759121201307756,0.258867234655799,0.2119946722642392
1.0219999999999985,0.3206536355056502,0.1640557136997109,0.1906876927558924
1.025500000000001,0.38350643252847,0.0266319790561814,0.1619246666830259
1.029,0.4154651564617382,-0.083093380358198,0.1470108282247343
1.0324999999999989,0.4218582975117934,-0.2354309534600191,0.124639197872671
1.0360000000000014,0.4016177141764152,-0.3440916620306821,0.1043986145372928
1.0395000000000003,0.3504830577514853,-0.4708619069200382,0.1012029166768912
1.0429999999999993,0.3046751462036421,-0.5603466829990394,0.1075943123976944
1.0465000000000018,0.2141239739516723,-0.670072042413419,0.1374237346435295
1.0500000000000007,0.1629910628559944,-0.7520990265986485,0.1693824585767977
1.0534999999999997,0.1267702448893561,-0.8490415945714216,0.219450718828759
1.0569999999999986,0.1097253594143795,-0.9310703240859032,0.2482137449016255
1.060500000000001,0.0852244273748831,-1.051447427925204,0.2567361876391139
1.064,0.0617864008498512,-1.1462589488812918,0.2439533961975074
1.067499999999999,0.0,-1.267704194222813,0.2077325782308691
1.0710000000000015,-0.0756355884644262,-1.356122574128846,0.1725781564371993
1.0745000000000005,-0.2183860679850424,-1.4615875848391076,0.1139874534477496
1.0779999999999994,-0.3451563128743986,-1.5148515429514704,0.0777666354811113
1.0814999999999984,-0.519865516328283,-1.5425499181806204,0.0245026773687483
1.0850000000000009,-0.6551582039551274,-1.5287007305660454,-0.0149138384582915
1.0884999999999998,-0.7968422873027752,-1.4711746784203124,-0.0564614013020165
1.0919999999999987,-0.8916538082588631,-1.3923433920954844,-0.0916158230956863
1.0955000000000013,-0.9822032351815808,-1.247461865558183,-0.1299659427497577
1.0990000000000002,-1.0365335894669123,-1.1217580168417955,-0.1693824585767977
1.1024999999999991,-1.055709521958574,-0.9385263706504228,-0.2045368803704674
1.1060000000000016,-1.0258800997127389,-0.8011026360068932,-0.2311688594266489
1.1095000000000006,-0.9577023031420844,-0.605088198373914,-0.2716500260974054
1.1129999999999995,-0.8735442719401699,-0.4516859744283765,-0.3057397970473587
1.1164999999999985,-0.7414472821737271,-0.2684543282370038,-0.3355692192931938
1.120000000000001,-0.6604849488322142,-0.1576643179789077,-0.3483520107348002
1.1235,-0.5401060996636612,-0.0639174478665363,-0.3259803803827369
1.126999999999999,-0.3962909692993285,-0.0287630260728665,-0.2854992137119804
1.1305000000000014,-0.1672514115601126,-0.0149138384582915,-0.2215817658454441
1.1340000000000003,0.0,-0.0351544217936697,-0.1928187397725775
1.1374999999999993,0.233299906443334,-0.1129210572747811,-0.1683160624038291
1.1410000000000018,0.3994866671597301,-0.1949497867892626,-0.1736428072809158
1.1445000000000007,0.5560845889656694,-0.3046751462036421,-0.2002765316663493
1.1479999999999997,0.7009661155029706,-0.3376985209806268,-0.2364956043037356
1.1514999999999986,0.956635906969116,-0.3611348021764067,-0.2854992137119804
1.1550000000000011,1.124953714702197,-0.3941599222826434,-0.3323735214327921
1.1585,1.314576756614373,-0.3941599222826434,-0.4080091098972184
1.161999999999999,1.4914152617556906,-0.3632658491930918,-0.4665998128866681
1.1655000000000015,1.7449557515344027,-0.316393286801532,-0.5433017975240628
1.1690000000000005,1.904751116529996,-0.2705853752536888,-0.602958896686481
1.1724999999999994,2.0368481062964383,-0.1725781564371993,-0.6924436727654824
1.1759999999999984,2.1039612520233764,-0.1065296615539778,-0.7616878655091054
1.1795000000000009,2.1561605592920228,-0.0330233747769847,-0.81069147491735
1.1830000000000034,2.1785321896440863,0.0745709376207097,-0.8724778757672014
1.1864999999999988,2.1614873041691096,0.2141239739516723,-0.9353306727900212
1.1900000000000013,2.139115673817046,0.316393286801532,-0.9768764903044942
1.193499999999997,2.09117846058177,0.3909642244222418,-1.0290775429023926
1.1969999999999992,1.952690075094524,0.4634041150262664,-1.1036484805231024
1.2005000000000017,1.8131352934343088,0.4953628389595346,-1.1537167407750637
1.203999999999997,1.583031084851377,0.5092120265741096,-1.20591604804371
1.2074999999999996,1.3923433920954844,0.5294526099094878,-1.2165695377978836
1.211000000000002,1.1718262770937566,0.5283879590657713,-1.1973936053062215
1.2144999999999977,1.0237507980253058,0.4974938859762197,-1.1654348813729536
1.218,0.8575640373089098,0.4346410889533998,-1.1174959228084254
1.2215000000000025,0.7552947244590501,0.3291760782431385,-1.1036484805231024
1.224999999999998,0.6892479749050807,0.2279731615662473,-1.1100398762439057
1.2285000000000004,0.5848476150385359,0.0671131457269379,-1.1558477877917488
1.2320000000000029,0.5113430735907947,-0.0671131457269379,-1.1867401155520485
1.2354999999999985,0.4186608543221398,-0.2002765316663493,-1.215503141624915
1.2390000000000008,0.3579391043160051,-0.2482137449016255,-1.22935232923949
1.2425000000000033,0.3036087500306735,-0.3153286359578155,-1.2250919805353715
1.2459999999999989,0.274847469287059,-0.3909642244222418,-1.20591604804371
1.2495000000000012,0.2269085107225308,-0.4591437663221482,-1.1995246523229068
1.2529999999999966,0.2013411825100658,-0.5017542346803379,-1.1952625582895369
1.256499999999999,0.1981454846496642,-0.5699337765802444,-1.2027203501833084
1.2600000000000016,0.1970790884766957,-0.630655526586379,-1.2048513971999937
1.263499999999997,0.1736428072809158,-0.6764634381342222,-1.21017814207708
1.2669999999999997,0.0862890782185996,-0.7510343757549319,-1.2218962826749702
1.270500000000002,-0.01598023463126,-0.7904508915819718,-1.2069806988874263
1.2739999999999974,-0.1853609478788057,-0.7947112402860901,-1.1686305792333551
1.2775,-0.3760503859639502,-0.8021690321798618,-1.1206916206688269
1.2810000000000024,-0.5273215628928027,-0.8085604279006651,-1.0663630117127476
1.2844999999999978,-0.683921230027994,-0.8160182197944368,-1.0333378916065108
1.2880000000000005,-0.8884581103984615,-0.80642938088398,-1.0088369595670144
1.2915000000000028,-1.0365335894669123,-0.7893844954090034,-1.0152283552878176
1.2949999999999982,-1.2229609335186866,-0.7797974018277984,-1.0290775429023926
1.2985000000000009,-1.3646450168663344,-0.780862052671515,-1.0386646364835974
1.3020000000000032,-1.5478766630577072,-0.7148135577882937,-1.0642319646960623
1.3054999999999986,-1.693822840438725,-0.6477004120613556,-1.0844725480314406
1.309000000000001,-1.8962286737925071,-0.5731294744406459,-1.083406151858472
1.3125000000000036,-2.033652408436037,-0.5305172607532044,-1.0716880112605822
1.315999999999999,-2.123137184515038,-0.4687308599033531,-1.035468938623196
1.3195000000000014,-2.105025902867093,-0.4293143440763132,-1.014161959114849
1.3229999999999968,-1.9910401947485952,-0.4005513180034466,-0.9832696313545496
1.3264999999999991,-1.8429629703508923,-0.3781796876513833,-0.9779428864774626
1.3300000000000018,-1.550007710074392,-0.3579391043160051,-0.970485094583691
1.3334999999999972,-1.2708998920832149,-0.3376985209806268,-0.9651583497066044
1.3369999999999995,-0.8543683394485082,-0.3046751462036421,-0.9555712561253994
1.3405000000000022,-0.5496931932448661,-0.2641939795328856,-0.9491798604045962
1.3439999999999976,-0.1565979218059392,-0.1821652500184041,-0.933199625773336
1.3475,0.0948115209560879,-0.1161167551351827,-0.921481485175446
1.3510000000000026,0.3664615470534934,-0.0234362811957798,-0.8767399698005716
1.354499999999998,0.5699337765802444,0.0660484948832214,-0.8394545009902167
1.3580000000000003,0.7915155424256883,0.1640557136997109,-0.7606214693361367
1.361500000000003,0.905502995873438,0.2173214171413259,-0.6785944851509074
1.3649999999999984,1.037599985639881,0.2993484013265554,-0.5486285424011496
1.368500000000001,1.1292140634063152,0.3590055004889736,-0.4314453910929982
1.3720000000000034,1.2176341886416,0.4069427137242498,-0.2567361876391139
1.3754999999999988,1.2559843082956712,0.4516859744283765,-0.1182478021518678
1.3790000000000011,1.2623774493457267,0.5251905158761178,0.0639174478665363
1.3824999999999967,1.2112427929207967,0.5656734278761262,0.191754088928861
1.3859999999999992,1.0802104539980706,0.6508961099217573,0.3622011983493752
1.3895000000000015,0.9534402091087144,0.727598094559152,0.4847093492053612
1.3929999999999971,0.7307937924195538,0.7936465894423735,0.6594185526592456
1.3964999999999996,0.5401060996636612,0.8383881048172481,0.8000379851631767
1.400000000000002,0.2823035158515788,0.8873917142254929,1.0152283552878176
1.4034999999999975,0.1161167551351827,0.903371948856753,1.1952625582895369
1.407,-0.0820287295144815,0.9353306727900212,1.4243021160287526
1.4105000000000023,-0.2269085107225308,0.928939277069218,1.5862267827117784
1.413999999999998,-0.38350643252847,0.9076322975608712,1.779045522484356
1.4175000000000004,-0.464468765869983,0.889522761242178,1.8951640229487907
1.421000000000003,-0.5145387714511963,0.8447812458673034,2.0208678716651782
1.4244999999999983,-0.5305172607532044,0.8032336830235783,2.0890474135650847
1.4280000000000008,-0.508147375730393,0.7201403026653803,2.174271840939968
1.431500000000003,-0.4154651564617382,0.6125459902676859,2.262690220846
1.4349999999999987,-0.3068061932203272,0.5241258650324012,2.324478367025104
1.4385000000000012,-0.1693824585767977,0.4420988808471717,2.382004419170837
1.4419999999999966,0.0394165158270399,0.3494166615785167,2.4299416324061136
1.4454999999999991,0.1981454846496642,0.2854992137119804,2.4363347734561684
1.4490000000000016,0.3813771308410369,0.1970790884766957,2.4075717473833023
1.452499999999997,0.4506213235846599,0.1310323389227262,2.350045695237569
1.4559999999999995,0.4697955107470696,0.0458079115478431,2.2424496375106227
1.459500000000002,0.43890318298677,0.0085224427374883,2.150833814414936
1.4629999999999974,0.3398295679973119,0.0106534897541733,2.02406356952558
1.4665,0.2364956043037356,0.0170448854749766,1.9420365853403505
1.4700000000000024,0.0948115209560879,0.0362208179666383,1.8610742519988372
1.4734999999999978,0.0149138384582915,0.0511346564249298,1.820593085328081
1.4770000000000003,-0.0649838440395048,0.0724398906040246,1.7843722673614426
1.4805000000000028,-0.1406194325039311,0.0745709376207097,1.7609359861656628
1.4839999999999982,-0.2567361876391139,0.1150521042914662,1.743891100690686
1.4875000000000007,-0.3376985209806268,0.1438151303643327,1.737499704969883
1.4910000000000032,-0.4442281825346047,0.1576643179789077,1.763067033182348
1.4944999999999986,-0.5124077244345112,0.1555332709622227,1.792894710098931
1.498000000000001,-0.5901743599156226,0.1534022239455376,1.8152663404509943
1.5015000000000036,-0.6636806466926157,0.152337573101821,1.826984481048884
1.504999999999999,-0.727598094559152,0.1619246666830259,1.8333758767696875
1.5085000000000015,-0.727598094559152,0.1715135055934827,1.8461604135405456
1.511999999999997,-0.7723396099340267,0.1065296615539778,1.8887708818987357
1.5154999999999994,-0.723336000525782,0.1139874534477496,1.9622771686757288
1.519000000000002,-0.5784562193177326,0.1821652500184041,2.070937877246392
1.5224999999999973,-0.4719265577637547,0.1683160624038291,2.1614873041691096
1.5259999999999998,-0.3717882919305801,0.0841580312019145,2.2882575490584656
1.5295000000000023,-0.3259803803827369,0.0596570991624181,2.3670905807125457
1.5329999999999977,-0.2940216564494687,0.0862890782185996,2.448052914054059
1.5365000000000002,-0.274847469287059,0.1097253594143795,2.51410140893728
1.5400000000000027,-0.2396913021641372,0.1427504795206162,2.617435372630856
1.543499999999998,-0.1629910628559944,0.1693824585767977,2.7047891016931724
1.5470000000000006,-0.0362208179666383,0.1885583910684593,2.803860971353379
1.550500000000003,0.0511346564249298,0.1811005991746876,2.8699094662366
1.5539999999999985,0.1821652500184041,0.1981454846496642,2.929566565399018
1.557500000000001,0.2514094427620272,0.2077325782308691,2.9434157530135927
1.5610000000000035,0.2812388650078622,0.2258421145495622,2.9370243572927897
1.564499999999999,0.2631275833599171,0.2620629325162006,2.9114570290803248
1.5680000000000014,0.2141239739516723,0.3153286359578155,2.8635180705157968
1.5714999999999968,0.191754088928861,0.3483520107348002,2.824101554688757
1.5749999999999993,0.1651203645434275,0.3472873598910836,2.7836203880180004
1.5785000000000018,0.1352926876268444,0.3430252658577135,2.747401315380614
1.5819999999999972,0.1161167551351827,0.3526141047681703,2.714376195274377
1.5854999999999997,0.1182478021518678,0.3398295679973119,2.6770907264640225
1.5890000000000022,0.0820287295144815,0.3014794483432405,2.597194789295478
1.5924999999999976,0.041545817514473,0.2759121201307756,2.518361757641398
1.596,0.0255673282124649,0.2375620004767041,2.386264767874956
1.5995000000000026,0.0010646508437165,0.2183860679850424,2.2722790597564577
1.602999999999998,-0.0543303542853314,0.1821652500184041,2.0901120644088014
1.6065000000000005,-0.0617864008498512,0.1576643179789077,1.9654728665361303
1.610000000000003,-0.0213052341790947,0.1193124529955843,1.7960904079593327
1.6134999999999984,-0.0063913957208032,0.0713752397603081,1.6618641165054566
1.6170000000000009,-0.0106534897541733,0.0564614013020165,1.4935463087723757
1.6205000000000034,0.0063913957208032,0.0511346564249298,1.377429553637193
1.6239999999999988,0.0500682602519613,0.0127827914416064,1.2240255843624033
1.6275000000000013,0.055395005129048,0.0191759324916617,1.1015174335064173
1.630999999999997,-0.0085224427374883,0.0149138384582915,0.905502995873438
1.6344999999999992,-0.0543303542853314,0.0042603487041181,0.7606214693361367
1.6380000000000017,-0.0660484948832214,0.0191759324916617,0.5891097090719061
1.641499999999997,-0.029827676916583,0.0340897709499532,0.464468765869983
1.6449999999999996,0.0308940730895516,0.0234362811957798,0.2940216564494687
1.648500000000002,0.0841580312019145,0.0117181405978899,0.1704471094205142
1.6519999999999977,0.1427504795206162,0.0213052341790947,-0.0042603487041181
1.6555,0.1374237346435295,0.0074577918937717,-0.138488385487246
1.6590000000000025,0.055395005129048,-0.0255673282124649,-0.3014794483432405
1.662499999999998,-0.0447432607041266,-0.0585907029894496,-0.4154651564617382
1.6660000000000004,-0.1981454846496642,-0.1235745470289545,-0.5454328445407479
1.6695000000000029,-0.2940216564494687,-0.1832316461913727,-0.6210684330051742
1.6729999999999985,-0.3877685265618402,-0.2599318854995155,-0.7403808860007585
1.6765000000000008,-0.4548816722887781,-0.3238510786953038,-0.8319967090964449
1.6800000000000033,-0.5305172607532044,-0.3909642244222418,-0.9736807924440926
1.6834999999999989,-0.586978662055221,-0.4207919013388249,-1.0770147561376688
1.6870000000000012,-0.6785944851509074,-0.4314453910929982,-1.1910022095854185
1.6904999999999966,-0.7606214693361367,-0.4303807402492817,-1.2634421001894431
1.693999999999999,-0.8660864800463982,-0.4080091098972184,-1.3337526891060347
1.6975000000000016,-0.9363953236337376,-0.3867021303888716,-1.367840714726736
1.700999999999997,-1.016293006131534,-0.3685925940701784,-1.3731674596038226
1.7044999999999997,-1.0621009176793774,-0.3345028231202252,-1.3593182719892478
1.708000000000002,-1.1036484805231024,-0.3131975889411305,-1.328425944228948
1.7114999999999974,-1.1494546467416935,-0.2940216564494687,-1.2975318711393966
1.715,-1.203785001027025,-0.2375620004767041,-1.2517239595915532
1.7185000000000024,-1.2442661676977815,-0.2151903701246408,-1.2165695377978836
1.7219999999999978,-1.2442661676977815,-0.2002765316663493,-1.173957324110442
1.7255000000000005,-1.2144384907811985,-0.1832316461913727,-1.157977089479182
1.7290000000000028,-1.1473253450542604,-0.1555332709622227,-1.160108136495867
1.7324999999999982,-1.0908639437522438,-0.1544686201185061,-1.1878065117250167
1.7360000000000009,-1.0248154488690224,-0.1821652500184041,-1.2208298865020015
1.7395000000000032,-0.984334282198266,-0.2269085107225308,-1.2442661676977815
1.7429999999999986,-0.9417220685108244,-0.3014794483432405,-1.2815516365081363
1.746500000000001,-0.942788464683793,-0.3792460838243518,-1.3124457095976878
1.7500000000000036,-0.9715514907566596,-0.480449000501243,-1.353991527112161
1.753499999999999,-1.002443818516959,-0.5496931932448661,-1.3870166472183978
1.7570000000000014,-1.007770563394046,-0.5880433128989375,-1.4445426993641308
1.7604999999999968,-0.9374617198067065,-0.5795208701614492,-1.5116558450910689
1.7639999999999991,-0.8032336830235783,-0.5347793547865746,-1.6362967882929915
1.7675000000000018,-0.7020307663466872,-0.5092120265741096,-1.769458428903151
1.7709999999999972,-0.6061545945468827,-0.452750625272093,-1.9590814708153272
1.7744999999999995,-0.5646070317031576,-0.3888331774055567,-2.1039612520233764
1.7780000000000022,-0.5720648235969293,-0.3195889846619337,-2.2808015024939454
1.7814999999999976,-0.6455693650446706,-0.3089354949077603,-2.3915915127520417
1.785,-0.8213432193422715,-0.3355692192931938,-2.5151660597809964
1.7885000000000026,-0.9779428864774626,-0.3259803803827369,-2.5790835076475327
1.791999999999998,-1.1633038343562685,-0.2556715367953973,-2.6675036328828177
1.7955000000000003,-1.267704194222813,-0.1885583910684593,-2.7484659662243307
1.799000000000003,-1.427497813889154,-0.0767019846373948,-2.876302607286655
1.8024999999999984,-1.534027475443132,0.01598023463126,-2.988157268388468
1.806000000000001,-1.64481923103048,0.1257055940456395,-3.1223853051715955
1.8095000000000037,-1.7151280746178197,0.1736428072809158,-3.2171968261276835
1.8129999999999988,-1.8301801789092855,0.1928187397725775,-3.32053078982126
1.8165000000000011,-1.956950423798642,0.1938833906162941,-3.380187888983678
1.8199999999999967,-2.164683002029511,0.260998281672484,-3.405753471866891
1.8234999999999992,-2.347914648220884,0.341960615013997,-3.370599050073221
1.8270000000000015,-2.4927944294289333,0.3994866671597301,-3.1596707739819503
1.830499999999997,-2.4310080285790816,0.4484902765679749,-2.8816276068344897
1.834,-2.0027583353464853,0.5699337765802444,-2.421419189668625
1.837500000000002,-1.4456073502078477,0.6668763445530174,-2.07946031998388
1.8409999999999973,-0.5784562193177326,0.8085604279006651,-1.7225858665115914
1.8445,0.0948115209560879,0.940657417667108,-1.5446809651973052
1.8480000000000023,1.0312068445898257,1.132411506595969,-1.407257230553776
1.851499999999998,1.6597330694887715,1.2762248916310497,-1.377429553637193
1.8550000000000004,2.2658859187064024,1.421106418168351,-1.4147150224475475
1.858500000000003,2.553516179435068,1.518048986141124,-1.4573254908057371
1.8619999999999983,2.7410081743305588,1.642688184013795,-1.5191136369848404
1.8655000000000008,2.759119455978504,1.7151280746178197,-1.5489413139014236
1.8690000000000035,2.690939914078597,1.7417600536740012,-1.573443991270172
1.8724999999999987,2.558842924312154,1.743891100690686,-1.5904888767451486
1.8760000000000008,2.308498132393844,1.774785173780238,-1.6256432985388185
1.8794999999999968,2.0506972939110133,1.7449557515344027,-1.6618641165054566
1.8829999999999991,1.6256432985388185,1.6607977203324882,-1.719388423321938
1.8865000000000016,1.2410704698373798,1.60540271520344,-1.7545445904448598
1.889999999999997,0.6764634381342222,1.4637186318557929,-1.790763663082246
1.8934999999999995,0.233299906443334,1.3220328031788928,-1.7865033143781277
1.897000000000002,-0.2908259585890671,1.1483899958979769,-1.735368657953198
1.9004999999999972,-0.586978662055221,1.0109662612544474,-1.6703848139136932
1.904,-0.8330613599401614,0.7947112402860901,-1.5404188711639353
1.9075000000000024,-0.8959141569629812,0.6519625060947258,-1.4157796732912642
1.9109999999999976,-0.8596950843255949,0.4783179534845579,-1.2421368660103485
1.9145000000000003,-0.7638171671965385,0.3323735214327921,-1.1047131313668188
1.9180000000000028,-0.5401060996636612,0.1470108282247343,-0.9097633445775564
1.9214999999999984,-0.341960615013997,0.029827676916583,-0.7819284488444836
1.9250000000000007,-0.1012029166768912,-0.1480754790684509,-0.6487650629050722
1.9285000000000032,0.055395005129048,-0.2737810731140905,-0.5763251723010476
1.9319999999999984,0.233299906443334,-0.4346410889533998,-0.5113430735907947
1.935500000000001,0.3632658491930918,-0.5433017975240628,-0.4793843496575265
1.939000000000004,0.5518242402615512,-0.7307937924195538,-0.4602084171658648
1.942499999999999,0.670072042413419,-0.8841960163650913,-0.4506213235846599
1.9460000000000013,0.7957776364590586,-0.970485094583691,-0.4495549274116914
1.949499999999997,0.8863270633817765,-0.996052422796156,-0.4293143440763132
1.9529999999999996,0.986465329214951,-1.0429249851877156,-0.3408942188410284
1.956500000000002,1.0173594023045027,-1.053578474941889,-0.2460844432141925
1.9599999999999973,0.9822032351815808,-1.0344025424502272,-0.0788312863248278
1.9635,0.921481485175446,-1.0067059125503293,0.0671131457269379
1.9670000000000023,0.7766017039673969,-0.972616141600376,0.2876302607286655
1.9704999999999977,0.6018925005135125,-0.9268082300525328,0.4570127193054631
1.974,0.2854992137119804,-0.8160182197944368,0.6796591359946239
1.9775000000000027,0.0170448854749766,-0.7542300736153336,0.8746089227838865
1.980999999999998,-0.3270467765557054,-0.670072042413419,1.173957324110442
1.9845000000000008,-0.5518242402615512,-0.5784562193177326,1.3934080429392008
1.988000000000003,-0.7936465894423735,-0.480449000501243,1.6789072566511811
1.9914999999999985,-0.9204168343317296,-0.4325100419367148,1.8674656477196407
1.995000000000001,-1.022684401852337,-0.3728546881035486,2.0730671789338246
1.9985000000000035,-1.0482517300648024,-0.3291760782431385,2.1987727729794644
2.001999999999999,-0.9779428864774626,-0.2993484013265554,2.3351318567792774
2.0055000000000014,-0.903371948856753,-0.302544099186957,2.4246166328582786
2.008999999999997,-0.7627525163528219,-0.3174579376452486,2.529015247395572
2.0124999999999997,-0.5795208701614492,-0.3504830577514853,2.6142396747704546
2.016000000000002,-0.1970790884766957,-0.4165315526347067,2.7324874769223224
2.019499999999997,0.1374237346435295,-0.4665998128866681,2.790013529068055
2.023,0.5859140112115044,-0.5145387714511963,2.824101554688757
2.026500000000002,0.889522761242178,-0.6040235475301975,2.8091877162304653
2.0299999999999976,1.1537167407750637,-0.7286627454028686,2.774033294436796
2.0335,1.24533256387075,-0.7574257714757352,2.728225382888952
2.0370000000000026,1.2506593087478366,-0.7616878655091054,2.690939914078597
2.040499999999998,1.18247976684793,-0.7595568184924202,2.710115846570259
2.0440000000000005,1.0333378916065108,-0.7361205372966404,2.7878824820513706
2.047500000000003,0.928939277069218,-0.6998997193300021,2.8837586538511752
2.0509999999999984,0.7989733343194602,-0.642373667184269,3.0382272739696807
2.054500000000001,0.6945729744529154,-0.5571509851386378,3.146887982540344
2.0580000000000034,0.480449000501243,-0.4218582975117934,3.252351247921353
2.0614999999999988,0.274847469287059,-0.3547434064556034,3.322661836837945
2.0650000000000013,-0.0170448854749766,-0.2599318854995155,3.4291914983919227
2.0684999999999967,-0.2226464166891606,-0.1896230419121759,3.513349529593837
2.071999999999999,-0.4442281825346047,-0.1342280367831279,3.6337283787623904
2.0755000000000017,-0.5422354013510943,-0.1257055940456395,3.71575536294762
2.078999999999997,-0.5709984274239609,-0.1150521042914662,3.789261649724613
2.0825,-0.5496931932448661,-0.1342280367831279,3.807371186043306
2.086000000000002,-0.4559463231324946,-0.1992101354933808,3.803110837339188
2.089499999999997,-0.3131975889411305,-0.2737810731140905,3.788195253551644
2.093,-0.0639174478665363,-0.3728546881035486,3.7445183890204863
2.0965000000000025,0.1406194325039311,-0.4815136513449596,3.694450128768525
2.099999999999998,0.3845728287014385,-0.6274598287259775,3.6145524462707286
2.1035000000000004,0.5720648235969293,-0.6849858808717105,3.548503951387507
2.107000000000003,0.8085604279006651,-0.7382515843133254,3.4579545244647893
2.1104999999999983,0.9182857873150446,-0.7723396099340267,3.3812525398273947
2.1140000000000008,0.9971170736398725,-0.780862052671515,3.2779185761338185
2.1175000000000037,0.9981834698128408,-0.7723396099340267,3.200151940652707
2.1209999999999987,0.921481485175446,-0.7201403026653803,3.080839487657123
2.124500000000001,0.8160182197944368,-0.6594185526592456,2.99561506028224
2.127999999999997,0.6466357612176391,-0.5923054069323076,2.90932598206364
2.131499999999999,0.5507578440885826,-0.5326483077698895,2.8709758624095683
2.1350000000000016,0.4580773701491797,-0.4548816722887781,2.830494695738812
2.138499999999997,0.4175962034784233,-0.3856374795451551,2.7942738777721736
2.1419999999999995,0.4442281825346047,-0.2950880526224372,2.715442591447346
2.145500000000002,0.4900360940824479,-0.2279731615662473,2.6238267683516594
2.1489999999999974,0.5060163287137079,-0.136357338470561,2.4363347734561684
2.1525,0.4900360940824479,-0.1097253594143795,2.2658859187064024
2.1560000000000024,0.4655351620429515,-0.1075943123976944,2.0166075229610603
2.1594999999999978,0.4474238803950063,-0.1278348957330726,1.8141999442780257
2.1630000000000003,0.4175962034784233,-0.191754088928861,1.534027475443132
2.1665000000000028,0.4282496932325966,-0.2407576983371057,1.3273595480559794
2.169999999999998,0.5124077244345112,-0.3387649171535954,0.9779428864774626
2.1735000000000007,0.559280286826071,-0.3877685265618402,0.8415838026776498
2.177000000000003,0.6668763445530174,-0.4452945787075733,0.5496931932448661
2.1804999999999986,0.727598094559152,-0.4911024902554164,0.3238510786953038
2.184000000000001,0.7158799539612621,-0.4974938859762197,0.0308940730895516
2.187500000000004,0.6679409953967339,-0.4697955107470696,-0.1619246666830259
2.190999999999999,0.5667380787198427,-0.4463592295512898,-0.3685925940701784
2.194500000000001,0.4239875991992265,-0.4367721359700849,-0.4815136513449596
2.197999999999997,0.2087989744038376,-0.4016177141764152,-0.5880433128989375
2.2015,0.0458079115478431,-0.3494166615785167,-0.630655526586379
2.205000000000002,-0.1193124529955843,-0.2918906094327836,-0.6402426201675839
2.208499999999997,-0.1938833906162941,-0.2641939795328856,-0.6157416881280875
2.212,-0.2141239739516723,-0.1821652500184041,-0.547562146228181
2.2155000000000022,-0.1619246666830259,-0.1054650107102613,-0.4900360940824479
2.2189999999999976,-0.0596570991624181,-0.0798976824977964,-0.4452945787075733
2.2225,-0.0543303542853314,-0.0948115209560879,-0.4378367868138015
2.226000000000002,-0.1022693128498597,-0.0042603487041181,-0.4602084171658648
2.229499999999998,-0.1289012919060412,0.0404811666707564,-0.4879067923950148
2.2330000000000005,-0.2205171150017275,0.0287630260728665,-0.5358440056302911
2.236500000000003,-0.286565609884949,0.01598023463126,-0.5603466829990394
2.2399999999999984,-0.3046751462036421,0.0117181405978899,-0.5997614534968274
2.243500000000001,-0.2673896773932873,-0.0010646508437165,-0.630655526586379
2.2470000000000034,-0.2183860679850424,-0.0181095363186931,-0.6871169278883955
2.250499999999999,-0.1821652500184041,-0.0117181405978899,-0.7339894902799553
2.2540000000000013,-0.138488385487246,-0.0063913957208032,-0.8032336830235783
2.2574999999999967,-0.1225098961852379,-0.013849187614575,-0.8447812458673034
2.2609999999999992,-0.124639197872671,-0.01598023463126,-0.912959042437958
2.2645000000000017,-0.1406194325039311,-0.0149138384582915,-0.9694204437399744
2.267999999999997,-0.1981454846496642,-0.0074577918937717,-1.053578474941889
2.2715,-0.2695207244099723,0.0202405833353782,-1.1196269698251105
2.275000000000002,-0.355809802628572,0.069244192743623,-1.2069806988874263
2.278499999999997,-0.3984202709867616,0.0926804739394028,-1.2655731472061282
2.282,-0.4026823650201317,0.138488385487246,-1.3603846681622165
2.2855000000000025,-0.3952245731263599,0.1597953649955928,-1.4413470015037293
2.288999999999998,-0.316393286801532,0.2183860679850424,-1.5926181784325817
2.2925000000000004,-0.2567361876391139,0.2119946722642392,-1.737499704969883
2.296000000000003,-0.2631275833599171,0.205601531214184,-1.9676039135528156
2.2994999999999983,-0.2705853752536888,0.2759121201307756,-2.148704512727503
2.303000000000001,-0.2482137449016255,0.3345028231202252,-2.362828486679175
2.3065000000000038,-0.2567361876391139,0.3153286359578155,-2.50983931490391
2.3099999999999987,-0.2972173543098703,0.3068061932203272,-2.695202008111968
2.313500000000001,-0.3110665419244454,0.3291760782431385,-2.82303690384504
2.3169999999999966,-0.3281114273994219,0.3408942188410284,-2.980701221823948
2.320499999999999,-0.3536787556118869,0.3483520107348002,-3.0850998363612407
2.3240000000000016,-0.4101401569139035,0.3920288752659583,-3.2342417116026603
2.327499999999997,-0.4825800475179281,0.4026823650201317,-3.331184279575433
2.3309999999999995,-0.6274598287259775,0.42292294835551,-3.4462363838668995
2.334500000000002,-0.7339894902799553,0.4484902765679749,-3.5112184825771524
2.3379999999999974,-0.8746089227838865,0.4857757453783297,-3.5751359304436887
2.3415,-1.016293006131534,0.5390397034906926,-3.6177481441311294
2.3450000000000024,-1.1856754647083318,0.6274598287259775,-3.636924076622792
2.348499999999998,-1.2400058189936634,0.6753987872905056,-3.6070946543769566
2.3520000000000003,-1.1814151160042137,0.7446429800341288,-3.542112555666704
2.355500000000003,-1.0663630117127476,0.7968422873027752,-3.493108946258459
2.358999999999998,-0.8383881048172481,0.8714132249234848,-3.4462363838668995
2.3625000000000007,-0.6104149432510009,0.928939277069218,-3.43025614923564
2.366000000000003,-0.2929570056057522,0.9811385843378644,-3.4366475449564424
2.3694999999999986,-0.0713752397603081,1.0067059125503293,-3.453692430431419
2.373000000000001,0.2269085107225308,1.0344025424502272,-3.482455456504286
2.3764999999999965,0.4367721359700849,1.053578474941889,-3.5005649928229787
2.379999999999999,0.7126842561008605,1.0759501052939522,-3.510153831733436
2.383500000000001,0.9342660219463046,1.097255339473047,-3.510153831733436
2.386999999999997,1.215503141624915,1.097255339473047,-3.4803244094876007
2.3904999999999994,1.3731674596038226,1.0993863864897322,-3.464345920185593
2.394000000000002,1.4999377044931788,1.1483899958979769,-3.4409096389898126
2.3974999999999973,1.502068751509864,1.1835444176916468,-3.4227983573418674
2.401,1.3412087356705549,1.2123074437645132,-3.399362076146088
2.4045000000000023,1.083406151858472,1.2463972147144666,-3.362076607335733
2.4079999999999977,0.644504714200954,1.2836826835248214,-3.2725918312567317
2.4115,0.2940216564494687,1.3039232668601997,-3.1596707739819503
2.4150000000000027,-0.1342280367831279,1.3337526891060347,-2.955133893611483
2.418499999999998,-0.3813771308410369,1.342273386514271,-2.788947132895087
2.4220000000000006,-0.616806338971804,1.3113810587539714,-2.5865412995413046
2.425500000000003,-0.7489033287382468,1.275160240787333,-2.4864030337081298
2.4289999999999985,-0.8309320582527283,1.2240255843624033,-2.4235502366853097
2.432500000000001,-0.8213432193422715,1.1537167407750637,-2.41609419012079
2.4360000000000035,-0.7393162351570419,1.030142193746109,-2.4597710546519487
2.439499999999999,-0.6402426201675839,0.9502445112483128,-2.505578966199792
2.4430000000000014,-0.4197272504951083,0.7872551937215703,-2.5567118772954696
2.446499999999997,-0.2141239739516723,0.6370469223071823,-2.555647226451753
2.4499999999999997,0.0841580312019145,0.4303807402492817,-2.530079898239288
2.453500000000002,0.2908259585890671,0.302544099186957,-2.483207335847728
2.456999999999997,0.5550199381219528,0.1608600158393093,-2.379873372154152
2.4605,0.7563611206320187,0.0596570991624181,-2.263756617018969
2.464000000000002,0.996052422796156,-0.0468725623915597,-2.0837206686879983
2.4674999999999976,1.1164312719647087,-0.124639197872671,-1.9548193767819568
2.471,1.16649953221667,-0.2311688594266489,-1.7854369182051593
2.4745000000000026,1.106844178383504,-0.3014794483432405,-1.658666673315803
2.477999999999998,0.9065676467171546,-0.3941599222826434,-1.4754367724536823
2.4815000000000005,0.6722030894301041,-0.4538170214450616,-1.3188371053184913
2.485000000000003,0.2812388650078622,-0.4953628389595346,-1.083406151858472
2.4884999999999984,-0.0213052341790947,-0.519865516328283,-0.8735442719401699
2.492000000000001,-0.3994866671597301,-0.5550199381219528,-0.5315836569261729
2.4955000000000034,-0.6413090163405525,-0.5805872663344177,-0.2322352555996175
2.4989999999999988,-0.8522372924318231,-0.6327865736030641,0.2045368803704674
2.5025000000000013,-0.912959042437958,-0.6636806466926157,0.5273215628928027
2.5059999999999967,-0.9268082300525328,-0.6775280889779387,0.9374617198067065
2.509499999999999,-0.8852624125380599,-0.6913772765925138,1.2165695377978836
2.5130000000000017,-0.7872551937215703,-0.7339894902799553,1.5670525955493688
2.516499999999997,-0.6732677402738206,-0.7584921676487036,1.816330991294711
2.52,-0.4815136513449596,-0.7915155424256883,2.132724278096243
2.523500000000002,-0.3206536355056502,-0.81069147491735,2.370286278572947
2.526999999999997,-0.0862890782185996,-0.820278568498555,2.668568283726534
2.5305,0.0735062867769931,-0.8053647300402634,2.878431908974088
2.5340000000000025,0.274847469287059,-0.7499697249112154,3.135168096613202
2.537499999999998,0.4175962034784233,-0.7084221620674903,3.3098773000670865
2.5410000000000004,0.5156034222949128,-0.6604849488322142,3.501631388995948
2.544500000000003,0.4996249329929048,-0.6231994800218592,3.6070946543769566
2.5479999999999983,0.3867021303888716,-0.5369104018032596,3.711495014243501
2.5515000000000008,0.2396913021641372,-0.4900360940824479,3.772216764249636
2.5550000000000037,-0.0074577918937717,-0.4048134120368167,3.848917003557779
2.5584999999999987,-0.2109282760912707,-0.3483520107348002,3.903247357843111
2.562000000000001,-0.4719265577637547,-0.2801724688348938,3.987407134374277
2.565499999999997,-0.6519625060947258,-0.2066679273871525,4.04493318652001
2.568999999999999,-0.8543683394485082,-0.1342280367831279,4.110981681403231
2.5725000000000016,-0.9577023031420844,-0.1203788491685528,4.175963780113484
2.575999999999997,-1.0578405689752592,-0.1171831513081512,4.227098436538414
2.5794999999999995,-1.1419986001771738,-0.1235745470289545,4.235620879275903
2.583000000000002,-1.2069806988874263,-0.1576643179789077,4.224967389521729
2.5864999999999974,-1.2432015168540649,-0.1885583910684593,4.200466457482233
2.59,-1.2794223348207032,-0.2183860679850424,4.153592149761422
2.5935000000000024,-1.2879447775581916,-0.2482137449016255,4.11524203010735
2.5969999999999978,-1.2485282617311515,-0.3238510786953038,4.06836946771579
2.6005000000000003,-1.1814151160042137,-0.3739193389472651,4.0438667903470416
2.6040000000000028,-1.0589052198189757,-0.4431635316908882,3.999125274972167
2.607499999999998,-0.9534402091087144,-0.4761869064678729,3.9724915505867338
2.6110000000000007,-0.7318584432632703,-0.5166698184678814,3.959708759145127
2.614500000000003,-0.5486285424011496,-0.5443664483677794,3.958644108301411
2.6179999999999986,-0.3110665419244454,-0.5891097090719061,3.958644108301411
2.621500000000001,-0.1608600158393093,-0.605088198373914,3.962904457005529
2.625000000000004,-0.0117181405978899,-0.5923054069323076,3.963969107849245
2.628499999999999,0.0575260521457331,-0.5795208701614492,3.9756889937763873
2.632000000000001,0.0948115209560879,-0.5752605214573311,4.002320972832569
2.635499999999997,0.0777666354811113,-0.5731294744406459,4.015103764274175
2.639,0.0,-0.5635423808594411,4.032148649749152
2.642500000000002,-0.0617864008498512,-0.5283879590657713,4.039606441642924
2.645999999999997,-0.1427504795206162,-0.480449000501243,4.022561556167947
2.6495,-0.2215817658454441,-0.452750625272093,3.987407134374277
2.6530000000000022,-0.3504830577514853,-0.4048134120368167,3.909640498893166
2.6564999999999976,-0.4591437663221482,-0.3824417816847534,3.830807467239086
2.66,-0.5699337765802444,-0.3259803803827369,3.7285398997184784
2.663500000000002,-0.5997614534968274,-0.2737810731140905,3.651837915081084
2.666999999999998,-0.6061545945468827,-0.2428870000245388,3.545308253527106
2.6705000000000005,-0.6082838962343158,-0.2301042085829324,3.4558234774481043
2.674000000000003,-0.5773915684740161,-0.1896230419121759,3.3492938158941263
2.6774999999999984,-0.5294526099094878,-0.1619246666830259,3.267265086379645
2.681000000000001,-0.4665998128866681,-0.1459461773810178,3.146887982540344
2.6845000000000034,-0.4207919013388249,-0.1289012919060412,3.0467497167071693
2.687999999999999,-0.3504830577514853,-0.110790010258096,2.912521679924041
2.6915000000000013,-0.2727164222703739,-0.1320969897664428,2.8177101589679534
2.6949999999999967,-0.1193124529955843,-0.1629910628559944,2.6994623568160856
2.6984999999999992,0.0170448854749766,-0.1736428072809158,2.613173278597486
2.7020000000000017,0.2162550209683574,-0.1757738542976009,2.4874676845518464
2.705499999999997,0.3898978282492732,-0.2087989744038376,2.402245002506215
2.709,0.5539552872782363,-0.274847469287059,2.271212663583489
2.712500000000002,0.6402426201675839,-0.2663250265495707,2.1636183511857947
2.715999999999997,0.6988350684862855,-0.2535404897787122,2.0134118251006585
2.7195,0.6775280889779387,-0.2578025838120824,1.894097626775822
2.7230000000000025,0.6178727351447726,-0.2578025838120824,1.735368657953198
2.726499999999998,0.5496931932448661,-0.260998281672484,1.6192519028180152
2.7300000000000004,0.4719265577637547,-0.2460844432141925,1.4583918869787058
2.733500000000003,0.42292294835551,-0.233299906443334,1.332686292933066
2.7369999999999983,0.3749839897909817,-0.2162550209683574,1.167565928389639
2.740500000000001,0.3632658491930918,-0.2034722295267509,1.0589052198189757
2.7440000000000038,0.3664615470534934,-0.2439533961975074,0.8927184591025796
2.7474999999999987,0.3685925940701784,-0.2684543282370038,0.7702103082465936
2.751000000000001,0.3792460838243518,-0.2663250265495707,0.5741958706136145
2.7544999999999966,0.3813771308410369,-0.2705853752536888,0.425053995372195
2.757999999999999,0.3749839897909817,-0.274847469287059,0.233299906443334
2.7615000000000016,0.3845728287014385,-0.2663250265495707,0.0990718696602061
2.764999999999997,0.4175962034784233,-0.2673896773932873,-0.0468725623915597
2.7684999999999995,0.4506213235846599,-0.2482137449016255,-0.152337573101821
2.772000000000002,0.5028206308533064,-0.2013411825100658,-0.2684543282370038
2.7754999999999974,0.5560845889656694,-0.1768385051413174,-0.3398295679973119
2.779,0.6242641308655758,-0.136357338470561,-0.4335764381096833
2.7825000000000024,0.6498314590780407,-0.1075943123976944,-0.5134723752782278
2.785999999999998,0.6317219227593476,-0.0862890782185996,-0.6338512244467807
2.7895000000000003,0.5688691257365278,-0.0639174478665363,-0.727598094559152
2.793000000000003,0.4548816722887781,-0.013849187614575,-0.8501062454151381
2.796499999999998,0.3611348021764067,0.0085224427374883,-0.9268082300525328
2.8000000000000007,0.2567361876391139,0.0351544217936697,-1.0237507980253058
2.803500000000003,0.1874919948954908,0.041545817514473,-1.1025820843501335
2.8069999999999986,0.1193124529955843,0.0490036094082447,-1.2208298865020015
2.810500000000001,0.0724398906040246,0.0735062867769931,-1.3188371053184913
2.8139999999999965,0.0394165158270399,0.1043986145372928,-1.453065142101619
2.817499999999999,0.0170448854749766,0.1065296615539778,-1.5436145690243368
2.821000000000001,-0.0255673282124649,0.1054650107102613,-1.6725158609303783
2.824499999999997,-0.041545817514473,0.110790010258096,-1.7598713353219464
2.8279999999999994,-0.02769837522915,0.1257055940456395,-1.857878554138436
2.831500000000002,0.0213052341790947,0.1331616406101593,-1.9186003041445707
2.8349999999999973,0.136357338470561,0.1416840833476476,-1.9867781007152248
2.8385,0.2578025838120824,0.1470108282247343,-2.044304152860958
2.8420000000000023,0.3856374795451551,0.1640557136997109,-2.143377767850416
2.8454999999999977,0.4538170214450616,0.1885583910684593,-2.2328625439294174
2.849,0.4793843496575265,0.2546051406224288,-2.344718950360482
2.8525000000000027,0.4442281825346047,0.2876302607286655,-2.4384640751436013
2.855999999999998,0.3046751462036421,0.300413052170272,-2.539668737149745
2.8595000000000006,0.1629910628559944,0.3100018910807288,-2.6014551379995963
2.863000000000003,-0.0127827914416064,0.3398295679973119,-2.6738950286036207
2.8664999999999985,-0.1129210572747811,0.3579391043160051,-2.7175718931347785
2.870000000000001,-0.1960144376329791,0.3472873598910836,-2.782555737174284
2.8735000000000035,-0.2396913021641372,0.3323735214327921,-2.8475378358845367
2.876999999999999,-0.2759121201307756,0.3590055004889736,-2.9455468000302782
2.8805000000000014,-0.2844345628682639,0.3643322453660603,-3.01905134147802
2.883999999999997,-0.3398295679973119,0.3355692192931938,-3.107471466713304
2.8874999999999997,-0.4165315526347067,0.3110665419244454,-3.164997518859037
2.891000000000002,-0.5358440056302911,0.2854992137119804,-3.221457174831801
2.894499999999997,-0.628524479569694,0.2705853752536888,-3.255546945781755
2.898,-0.7244023966987505,0.2599318854995155,-3.2736582274297
2.901500000000002,-0.7467722817215618,0.2567361876391139,-3.2843099718546216
2.9049999999999976,-0.7041618133633722,0.2535404897787122,-3.294963461608795
2.9085,-0.6253287817092923,0.2578025838120824,-3.319464393648292
2.9120000000000026,-0.4857757453783297,0.2833681666952953,-3.379121492810709
2.915499999999998,-0.3824417816847534,0.3366338701369103,-3.4441053368502144
2.9190000000000005,-0.2737810731140905,0.397355620143045,-3.5506349984041923
2.922500000000003,-0.233299906443334,0.4197272504951083,-3.639055123639477
2.9259999999999984,-0.2247774637058457,0.4815136513449596,-3.7541072279309433
2.929500000000001,-0.233299906443334,0.5433017975240628,-3.835069561272456
2.9330000000000034,-0.2396913021641372,0.5752605214573311,-3.925618988195174
2.9364999999999988,-0.2247774637058457,0.5699337765802444,-3.971426899743017
2.9400000000000013,-0.1715135055934827,0.5827165680218508,-4.023626207011663
2.9434999999999967,-0.1097253594143795,0.6231994800218592,-4.0566513271179
2.946999999999999,-0.0085224427374883,0.6945729744529154,-4.100328191649059
2.9505000000000017,0.0511346564249298,0.7286627454028686,-4.123764472844838
2.953999999999997,0.0841580312019145,0.7584921676487036,-4.15465854593439
2.9575,0.0809623333415129,0.7904508915819718,-4.162114592498909
2.961000000000002,0.0543303542853314,0.8138871727777518,-4.147200754040618
2.964499999999997,0.0149138384582915,0.8117561257610666,-4.122699822001121
2.968,-0.0617864008498512,0.7936465894423735,-4.0577159779616165
2.9715000000000025,-0.1139874534477496,0.8053647300402634,-3.987407134374277
2.974999999999998,-0.1406194325039311,0.8298656620797599,-3.858505842468236
2.9785000000000004,-0.1289012919060412,0.8330613599401614,-3.737062342455967
2.982000000000003,-0.1214435000122694,0.836258803129815,-3.5655488368624835
2.9854999999999983,-0.1342280367831279,0.8522372924318231,-3.4291914983919227
2.9890000000000008,-0.1928187397725775,0.8799356676609732,-3.2406331073234638
2.9925000000000037,-0.2812388650078622,0.8873917142254929,-3.091491232082044
2.9959999999999987,-0.4239875991992265,0.8905874120858945,-2.86245341967208
2.999500000000001,-0.5070809795574245,0.912959042437958,-2.6856131692015106
3.002999999999997,-0.5709984274239609,0.9044365997004696,-2.441661518333255
3.006499999999999,-0.5731294744406459,0.8724778757672014,-2.273343710600174
3.0100000000000016,-0.5028206308533064,0.8277363603923268,-2.0762646221234786
3.013499999999997,-0.4154651564617382,0.7883198445652868,-1.9612107725027603
3.0169999999999995,-0.2993484013265554,0.7435765838611602,-1.8237887831884827
3.020500000000002,-0.2269085107225308,0.7073575112237738,-1.7247151681990245
3.0239999999999974,-0.1470108282247343,0.6317219227593476,-1.5745086421138883
3.0275,-0.1331616406101593,0.5678027295635593,-1.4520004912579023
3.0310000000000024,-0.1544686201185061,0.4740576047804398,-1.282618032681105
3.0344999999999978,-0.1811005991746876,0.3845728287014385,-1.1483899958979769
3.0380000000000003,-0.2492801410745941,0.2396913021641372,-0.970485094583691
3.0415000000000028,-0.2982837504828389,0.1704471094205142,-0.8373234539735316
3.044999999999998,-0.3078708440640437,0.0735062867769931,-0.6530271569384424
3.0485000000000007,-0.2982837504828389,-0.0234362811957798,-0.5124077244345112
3.052000000000003,-0.2684543282370038,-0.1576643179789077,-0.3302424744161071
3.0554999999999986,-0.2482137449016255,-0.2460844432141925,-0.1970790884766957
3.059000000000001,-0.1864273440517743,-0.316393286801532,-0.013849187614575
3.062500000000004,-0.1214435000122694,-0.3632658491930918,0.1352926876268444
3.065999999999999,-0.0468725623915597,-0.4463592295512898,0.3398295679973119
3.069500000000001,0.002131047016685,-0.4985585368199362,0.4974938859762197
3.072999999999997,0.0639174478665363,-0.5539552872782363,0.6945729744529154
3.0765,0.0905494269227178,-0.5752605214573311,0.8309320582527283
3.080000000000002,0.0884201252352847,-0.5912390107593392,0.9939213757794708
3.083499999999997,0.0713752397603081,-0.6082838962343158,1.1132355741043072
3.087,0.0245026773687483,-0.6253287817092923,1.2517239595915532
3.0905000000000022,-0.0117181405978899,-0.6125459902676859,1.3454708297039246
3.0939999999999976,-0.0532657034416149,-0.5731294744406459,1.4498694442412174
3.0975,-0.0788312863248278,-0.5486285424011496,1.525505032705644
3.101000000000002,-0.1118564064310645,-0.5283879590657713,1.6107294600805269
3.104499999999998,-0.1459461773810178,-0.517734469311598,1.6661244652095748
3.1080000000000005,-0.2087989744038376,-0.5092120265741096,1.730041913076111
3.111500000000003,-0.2673896773932873,-0.4868403962220463,1.7620006370093797
3.1149999999999984,-0.369657244913895,-0.4676662090596366,1.7971568041323012
3.118500000000001,-0.4452945787075733,-0.4740576047804398,1.826984481048884
3.1220000000000034,-0.5060163287137079,-0.4815136513449596,1.8887708818987357
3.125499999999999,-0.5070809795574245,-0.5006895838366213,1.9420365853403505
3.1290000000000013,-0.4847093492053612,-0.5326483077698895,2.01234542892769
3.1324999999999967,-0.4506213235846599,-0.5251905158761178,2.062415434508903
3.1359999999999992,-0.3792460838243518,-0.5102766774178261,2.123137184515038
3.1395000000000017,-0.3121311927681619,-0.5070809795574245,2.176401142627401
3.142999999999997,-0.2460844432141925,-0.5156034222949128,2.2381892888065043
3.1465,-0.2130593231079557,-0.5028206308533064,2.2871928982147494
3.150000000000002,-0.1565979218059392,-0.4602084171658648,2.356437090958372
3.153499999999997,-0.1043986145372928,-0.4399678338304866,2.4171588409645066
3.157,-0.0085224427374883,-0.4101401569139035,2.5151660597809964
3.1605000000000025,0.0735062867769931,-0.3867021303888716,2.596128393122509
3.163999999999998,0.1704471094205142,-0.3536787556118869,2.670699330743219
3.1675000000000004,0.2141239739516723,-0.3387649171535954,2.7207675909951803
3.171000000000003,0.2130593231079557,-0.3068061932203272,2.759119455978504
3.1744999999999983,0.1629910628559944,-0.2844345628682639,2.77616434145348
3.178000000000001,0.0319587239332681,-0.2705853752536888,2.7868160858784017
3.1815000000000038,-0.0841580312019145,-0.274847469287059,2.803860971353379
3.1849999999999987,-0.2535404897787122,-0.2673896773932873,2.8251679508617253
3.188500000000001,-0.3771150368076668,-0.2769767709744921,2.830494695738812
3.1919999999999966,-0.5219948180157161,-0.302544099186957,2.830494695738812
3.195499999999999,-0.6381133184801508,-0.2993484013265554,2.8006652734929767
3.1990000000000016,-0.7819284488444836,-0.316393286801532,2.727160732045236
3.202499999999997,-0.8927184591025796,-0.3515477085952018,2.6579165393016124
3.2059999999999995,-1.022684401852337,-0.369657244913895,2.539668737149745
3.209500000000002,-1.083406151858472,-0.3962909692993285,2.4363347734561684
3.2129999999999974,-1.1057777822105357,-0.4783179534845579,2.3191516221480173
3.2165,-1.0599698706626923,-0.533712958613606,2.243516033683591
3.2200000000000024,-0.863955433029713,-0.5539552872782363,2.1593562571524245
3.223499999999998,-0.6466357612176391,-0.5752605214573311,2.1263328823754395
3.2270000000000003,-0.258867234655799,-0.6061545945468827,2.118875090481668
3.230500000000003,0.0767019846373948,-0.6136106411114024,2.1455088148671013
3.233999999999998,0.4793843496575265,-0.6082838962343158,2.188119283225291
3.2375000000000007,0.7286627454028686,-0.5635423808594411,2.233927194773134
3.241000000000003,0.9236125321921312,-0.4602084171658648,2.2808015024939454
3.2444999999999986,0.9459841625441944,-0.3675279432264619,2.3053024345334423
3.248000000000001,0.8213432193422715,-0.2364956043037356,2.330869762745907
3.2514999999999965,0.6242641308655758,-0.1278348957330726,2.3393922054833958
3.254999999999999,0.2514094427620272,0.0191759324916617,2.3330008097625923
3.258500000000001,-0.0926804739394028,0.1033339636935762,2.331934413589624
3.261999999999997,-0.5848476150385359,0.1949497867892626,2.3361965076229936
3.2654999999999994,-0.9065676467171546,0.2578025838120824,2.354306043941687
3.269000000000002,-1.2133738399374818,0.2844345628682639,2.389460465735357
3.2724999999999973,-1.3476001313913577,0.2556715367953973,2.4299416324061136
3.276,-1.3827562985142796,0.2087989744038376,2.478945241814358
3.2795000000000023,-1.290074079245625,0.1693824585767977,2.5130350127643117
3.2829999999999977,-1.0695587095731491,0.0980072188164895,2.5471247837142648
3.2865,-0.8937848552755481,0.0095870935812048,2.5545825756080367
3.2900000000000027,-0.6402426201675839,-0.1235745470289545,2.564169669189241
3.293499999999998,-0.4506213235846599,-0.2215817658454441,2.5726921119267296
3.2970000000000006,-0.2151903701246408,-0.341960615013997,2.589736997401706
3.300500000000003,-0.0639174478665363,-0.4186608543221398,2.618500023474573
3.3039999999999985,0.1342280367831279,-0.5134723752782278,2.6738950286036207
3.307500000000001,0.2705853752536888,-0.5358440056302911,2.723965034184834
3.3110000000000035,0.43890318298677,-0.4953628389595346,2.777228992297197
3.314499999999999,0.5507578440885826,-0.4548816722887781,2.7996006226492605
3.3180000000000014,0.628524479569694,-0.4186608543221398,2.8081230653867486
3.321499999999997,0.6359822714634658,-0.355809802628572,2.77616434145348
3.3249999999999997,0.5997614534968274,-0.2364956043037356,2.690939914078597
3.328500000000002,0.5315836569261729,-0.166186760716396,2.5876059503850213
3.331999999999997,0.4005513180034466,-0.0926804739394028,2.4235502366853097
3.3355,0.2876302607286655,-0.0458079115478431,2.2722790597564577
3.339000000000002,0.1544686201185061,-0.0085224427374883,2.034717059279753
3.3424999999999976,0.0798976824977964,0.0319587239332681,1.8514854130883809
3.346,0.0468725623915597,0.0756355884644262,1.603271668186755
3.3495000000000026,0.0660484948832214,0.0926804739394028,1.399799438660004
3.352999999999998,0.0894847760790012,0.0820287295144815,1.1015174335064173
3.3565000000000005,0.1225098961852379,0.0660484948832214,0.84584589671102
3.360000000000003,0.1768385051413174,0.0223716303520633,0.4879067923950148
3.3634999999999984,0.2301042085829324,-0.0095870935812048,0.2109282760912707
3.367000000000001,0.3185243338182171,-0.0649838440395048,-0.1768385051413174
3.3705000000000034,0.3962909692993285,-0.1171831513081512,-0.4634041150262664
3.3739999999999988,0.4815136513449596,-0.2098636252475541,-0.8501062454151381
3.3775000000000013,0.5326483077698895,-0.2716500260974054,-1.1174959228084254
3.3809999999999967,0.616806338971804,-0.3376985209806268,-1.4157796732912642
3.384499999999999,0.6743323911175372,-0.3877685265618402,-1.6139251579409286
3.3880000000000017,0.7190756518216638,-0.4719265577637547,-1.848289715227979
3.391499999999997,0.7403808860007585,-0.5017542346803379,-2.008085080223572
3.395,0.7542300736153336,-0.5060163287137079,-2.200903819996149
3.398500000000002,0.7393162351570419,-0.5145387714511963,-2.330869762745907
3.401999999999997,0.7084221620674903,-0.4974938859762197,-2.468293497389437
3.4055,0.6785944851509074,-0.4815136513449596,-2.5471247837142648
3.4090000000000025,0.6104149432510009,-0.4516859744283765,-2.6238267683516594
3.412499999999998,0.5582156359823544,-0.4197272504951083,-2.6536544452682427
3.4160000000000004,0.503885281697023,-0.3664615470534934,-2.655785492284928
3.419500000000003,0.4793843496575265,-0.3355692192931938,-2.6398052576536672
3.4229999999999983,0.4484902765679749,-0.2940216564494687,-2.6014551379995963
3.4265000000000008,0.4346410889533998,-0.2631275833599171,-2.558842924312154
3.4300000000000037,0.4399678338304866,-0.2077325782308691,-2.497056523462303
3.4334999999999987,0.452750625272093,-0.1736428072809158,-2.44698651788109
3.437000000000001,0.480449000501243,-0.136357338470561,-2.387331164047924
3.440499999999997,0.5241258650324012,-0.0980072188164895,-2.3436525541875133
3.443999999999999,0.5976321518093943,-0.0639174478665363,-2.3095645285668125
3.4475000000000016,0.6466357612176391,-0.0479389585645282,-2.277604059304292
3.450999999999997,0.727598094559152,-0.0351544217936697,-2.239253939650221
3.4544999999999995,0.8128207766047831,-0.0372854688103548,-2.18918567939826
3.458000000000002,0.9747471886170612,-0.0607217500061347,-2.11461474177755
3.4614999999999974,1.1206916206688269,-0.0948115209560879,-2.0688068302297067
3.465,1.3092500117372865,-0.1267702448893561,-2.0560222934588483
3.4685000000000024,1.4424116523474455,-0.1182478021518678,-2.06348008535262
3.4719999999999978,1.6224476006784168,-0.1182478021518678,-2.081589621671313
3.4755000000000003,1.7321729600927964,-0.1534022239455376,-2.0997009033192584
3.4790000000000028,1.7843722673614426,-0.2322352555996175,-2.124201835358755
3.482499999999998,1.7769144754676711,-0.2727164222703739,-2.133788928939959
3.4860000000000007,1.7183237724782212,-0.3206536355056502,-2.1284639293921246
3.489500000000003,1.629903647242937,-0.3962909692993285,-2.113548345604581
3.4929999999999986,1.4360202566266425,-0.503885281697023,-2.093307762269203
3.496500000000001,1.2527886104352697,-0.5166698184678814,-2.0922431114254865
3.500000000000004,0.9353306727900212,-0.4442281825346047,-2.13805102297333
3.503499999999999,0.6540918077821589,-0.3387649171535954,-2.2030348670128346
3.507000000000001,0.219450718828759,-0.1214435000122694,-2.327674064885506
3.510499999999997,-0.1033339636935762,0.0532657034416149,-2.445921867037373
3.514,-0.5209301671719996,0.2663250265495707,-2.5982594401391945
3.517500000000002,-0.8053647300402634,0.4175962034784233,-2.703724450849456
3.520999999999997,-1.1292140634063152,0.5912390107593392,-2.840081789320017
3.5245,-1.332686292933066,0.6807255321675924,-2.9210441226615296
3.5280000000000022,-1.5904888767451486,0.7510343757549319,-3.006268550036413
3.5314999999999976,-1.743891100690686,0.7989733343194602,-3.048879018394602
3.535,-1.9111425122507988,0.863955433029713,-3.091491232082044
3.538500000000002,-2.045370549033927,0.9193504381587612,-3.1223853051715955
3.541999999999998,-2.1732054447669995,1.0312068445898257,-3.102144721836217
3.5455000000000005,-2.11461474177755,1.1015174335064173,-3.022247039338421
3.549000000000003,-1.7865033143781277,1.144129647193859,-2.842212836336702
3.5524999999999984,-1.3550579232851294,1.164370230529237,-2.707984799553574
3.556000000000001,-0.6157416881280875,1.1377365061438036,-2.595063742278793
3.5595000000000034,-0.0010646508437165,1.053578474941889,-2.557778273468438
3.562999999999999,0.7638171671965385,0.8810003185046897,-2.570561064910044
3.5665000000000013,1.2666377980498449,0.7116178599278921,-2.591868044418391
3.5699999999999967,1.774785173780238,0.5156034222949128,-2.6323492110891475
3.5734999999999992,2.02406356952558,0.3824417816847534,-2.661112237162014
3.5770000000000017,2.1838589345211727,0.1725781564371993,-2.6770907264640225
3.580499999999997,2.197708122135748,0.013849187614575,-2.6749614247765896
3.584,2.111419043917148,-0.1864273440517743,-2.6813528204973927
3.587500000000002,1.9612107725027603,-0.2780431671474606,-2.7015934038327707
3.590999999999997,1.686365048544953,-0.3462209637181151,-2.7324874769223224
3.5945,1.413648626274579,-0.4080091098972184,-2.7548573619451338
3.5980000000000025,0.956635906969116,-0.4431635316908882,-2.7708375965763934
3.601499999999998,0.5603466829990394,-0.4570127193054631,-2.765510851699307
3.605,-0.0223716303520633,-0.4740576047804398,-2.706920148709857
3.608500000000003,-0.4559463231324946,-0.480449000501243,-2.618500023474573
3.6119999999999983,-0.9758118394607777,-0.4719265577637547,-2.457640007635263
3.615500000000001,-1.3220328031788928,-0.4538170214450616,-2.3159559242876155
3.6190000000000033,-1.65653737162837,-0.38350643252847,-2.09863450714629
3.622499999999999,-1.771589475919836,-0.3281114273994219,-1.921796002004972
3.626000000000001,-1.7577402883052613,-0.2620629325162006,-1.6458838818741963
3.6294999999999966,-1.629903647242937,-0.2162550209683574,-1.4189753711516655
3.632999999999999,-1.326294897212263,-0.1597953649955928,-1.1015174335064173
3.6365000000000016,-1.0493181262377709,-0.1427504795206162,-0.8607597351693115
3.639999999999997,-0.6913772765925138,-0.1544686201185061,-0.519865516328283
3.6435,-0.4293143440763132,-0.1725781564371993,-0.258867234655799
3.647000000000002,-0.0926804739394028,-0.205601531214184,0.0862890782185996
3.650499999999997,0.1129210572747811,-0.2620629325162006,0.3345028231202252
3.654,0.3014794483432405,-0.3408942188410284,0.6178727351447726
3.6575000000000015,0.41120480775762,-0.3867021303888716,0.8000379851631767
3.660999999999998,0.4697955107470696,-0.4729912086074713,1.016293006131534
3.6645,0.425053995372195,-0.5092120265741096,1.1707616262500404
3.668000000000003,0.3398295679973119,-0.4559463231324946,1.3689071108997044
3.671499999999998,0.2450180470412239,-0.42292294835551,1.5297671267390138
3.6750000000000007,0.0543303542853314,-0.3898978282492732,1.7620006370093797
3.678500000000003,-0.0990718696602061,-0.3451563128743986,1.917533907971602
3.681999999999999,-0.2705853752536888,-0.2599318854995155,2.121006137498353
3.685500000000001,-0.3760503859639502,-0.1853609478788057,2.262690220846
3.688999999999997,-0.492167141099133,-0.1033339636935762,2.3990493046458137
3.692499999999999,-0.559280286826071,-0.0532657034416149,2.476815940126925
3.6960000000000015,-0.6604849488322142,0.0127827914416064,2.539668737149745
3.699499999999997,-0.7403808860007585,0.0564614013020165,2.564169669189241
3.703,-0.8245406625319252,0.1118564064310645,2.570561064910044
3.706500000000002,-0.8831313655213747,0.1416840833476476,2.567365367049643
3.709999999999997,-0.9459841625441944,0.1672514115601126,2.534341992272658
3.7135,-0.9715514907566596,0.1715135055934827,2.50238326833939
3.7170000000000014,-0.9310703240859032,0.177904901314286,2.4555089606185785
3.7204999999999977,-0.8330613599401614,0.1864273440517743,2.4182234918082237
3.724,-0.6210684330051742,0.1608600158393093,2.354306043941687
3.7275000000000023,-0.4325100419367148,0.1182478021518678,2.295715340952237
3.730999999999998,-0.1534022239455376,0.096942567972773,2.2062305648732363
3.7345000000000006,0.0724398906040246,0.0990718696602061,2.140182069990015
3.738000000000003,0.3867021303888716,0.0958761717998045,2.0783939238109115
3.7414999999999994,0.5997614534968274,0.0926804739394028,2.0506972939110133
3.745000000000001,0.8277363603923268,0.1097253594143795,2.0208678716651782
3.748500000000004,0.9779428864774626,0.1097253594143795,2.011280778083973
3.751999999999999,1.0855371988751572,0.1022693128498597,1.9963669396256816
3.7555000000000014,1.111104527087622,0.1427504795206162,1.975059960117335
3.758999999999997,1.0716880112605822,0.1885583910684593,2.0027583353464853
3.7624999999999993,1.0109662612544474,0.2002765316663493,2.053892991771415
3.766000000000002,0.8863270633817765,0.1992101354933808,2.14976916357122
3.769499999999997,0.7584921676487036,0.1938833906162941,2.225404752035646
3.773,0.5827165680218508,0.1832316461913727,2.321282669164702
3.776500000000002,0.4591437663221482,0.180035948330971,2.374546627277065
3.7799999999999976,0.3046751462036421,0.1544686201185061,2.4128967469311364
3.7835,0.1928187397725775,0.0958761717998045,2.4299416324061136
3.7870000000000026,0.1043986145372928,0.029827676916583,2.4363347734561684
3.790499999999998,0.0777666354811113,-0.0447432607041266,2.4310080285790816
3.794000000000001,0.0649838440395048,-0.1842962970350892,2.4235502366853097
3.797500000000003,0.0862890782185996,-0.2631275833599171,2.419289887981192
3.8009999999999984,0.177904901314286,-0.3291760782431385,2.41609419012079
3.804500000000001,0.2535404897787122,-0.3888331774055567,2.426745934545712
3.8080000000000034,0.341960615013997,-0.4346410889533998,2.440595122160287
3.811499999999999,0.3845728287014385,-0.464468765869983,2.443790820020688
3.815000000000001,0.4154651564617382,-0.4516859744283765,2.4725538460935548
3.8184999999999967,0.4452945787075733,-0.4090737607409349,2.4927944294289333
3.821999999999999,0.4538170214450616,-0.3568744534722885,2.517297106797681
3.8255000000000017,0.425053995372195,-0.3174579376452486,2.532210945255973
3.828999999999997,0.3845728287014385,-0.2556715367953973,2.548189434557981
3.8325,0.3803107346680683,-0.2109282760912707,2.564169669189241
3.836000000000002,0.3930952714389268,-0.1651203645434275,2.576952460630848
3.8394999999999975,0.41120480775762,-0.1075943123976944,2.5822792055079344
3.843,0.4516859744283765,-0.0191759324916617,2.570561064910044
3.8465000000000025,0.4836446983616446,0.0500682602519613,2.5428644350101464
3.849999999999998,0.5326483077698895,0.1565979218059392,2.495990127289335
3.8535,0.5709984274239609,0.2418223491808223,2.443790820020688
3.857000000000003,0.5795208701614492,0.3131975889411305,2.358568137975057
3.8604999999999983,0.5635423808594411,0.3440916620306821,2.302106736673041
3.8640000000000008,0.5635423808594411,0.3994866671597301,2.220078007158559
3.8675000000000033,0.5731294744406459,0.4335764381096833,2.1593562571524245
3.870999999999999,0.5507578440885826,0.4346410889533998,2.048566246894328
3.874500000000001,0.5134723752782278,0.4282496932325966,1.9590814708153272
3.877999999999997,0.4634041150262664,0.4410324846742031,1.8173973874676796
3.881499999999999,0.4239875991992265,0.4452945787075733,1.7129970276011346
3.8850000000000016,0.4005513180034466,0.4495549274116914,1.5787707361472587
3.888499999999997,0.3930952714389268,0.4357057397971164,1.4786324703140838
3.892,0.4101401569139035,0.3813771308410369,1.3571889703018147
3.895500000000002,0.4410324846742031,0.3281114273994219,1.2762248916310497
3.898999999999997,0.5134723752782278,0.2769767709744921,1.164370230529237
3.9025,0.5752605214573311,0.2269085107225308,1.0663630117127476
3.9060000000000015,0.6274598287259775,0.1725781564371993,0.9395927668233912
3.9094999999999978,0.6562228547988439,0.1544686201185061,0.8394545009902167
3.913,0.6636806466926157,0.136357338470561,0.7158799539612621
3.9165000000000023,0.6615495996759307,0.1065296615539778,0.644504714200954
3.919999999999998,0.6668763445530174,0.0596570991624181,0.5667380787198427
3.9235000000000007,0.6647452975363323,0.0266319790561814,0.5113430735907947
3.927000000000003,0.6551582039551274,-0.0074577918937717,0.4186608543221398
3.930499999999999,0.6519625060947258,-0.0308940730895516,0.3430252658577135
3.934000000000001,0.6136106411114024,-0.0479389585645282,0.219450718828759
3.937500000000004,0.5496931932448661,-0.0330233747769847,0.1182478021518678
3.940999999999999,0.4239875991992265,-0.0042603487041181,-0.0255673282124649
3.9445000000000014,0.2918906094327836,0.01598023463126,-0.1342280367831279
3.947999999999997,0.0756355884644262,0.0585907029894496,-0.2908259585890671
3.9514999999999993,-0.0767019846373948,0.0873537290623162,-0.4090737607409349
3.955000000000002,-0.2663250265495707,0.0937468701123714,-0.5560845889656694
3.958499999999997,-0.3941599222826434,0.1043986145372928,-0.6807255321675924
3.962,-0.5294526099094878,0.1118564064310645,-0.8266699642193582
3.965500000000002,-0.5986968026531109,0.1193124529955843,-0.9363953236337376
3.9689999999999976,-0.6381133184801508,0.0958761717998045,-1.055709521958574
3.9725,-0.6338512244467807,0.0671131457269379,-1.138802902316772
3.976000000000002,-0.5880433128989375,0.0106534897541733,-1.2645067510331598
3.979499999999998,-0.547562146228181,-0.0149138384582915,-1.377429553637193
3.983000000000001,-0.492167141099133,-0.041545817514473,-1.5446809651973052
3.986500000000003,-0.4516859744283765,-0.0628527970228197,-1.695952142126158
3.9899999999999984,-0.4218582975117934,-0.1001382658331746,-1.9196649549882872
3.993500000000001,-0.4314453910929982,-0.1289012919060412,-2.07946031998388
3.997000000000003,-0.4655351620429515,-0.1320969897664428,-2.2999756896563555
4.000499999999999,-0.480449000501243,-0.1342280367831279,-2.444857216193657
4.004000000000001,-0.5049499325407395,-0.1555332709622227,-2.617435372630856
4.007499999999997,-0.5379750526469761,-0.1619246666830259,-2.733552127766039
4.010999999999999,-0.5560845889656694,-0.1544686201185061,-2.868844815392884
4.014500000000002,-0.5688691257365278,-0.1555332709622227,-2.961525289332286
4.017999999999997,-0.5731294744406459,-0.1352926876268444,-3.0574014611320908
4.0215,-0.5624759846864725,-0.110790010258096,-3.113862862434108
4.025000000000002,-0.5347793547865746,-0.0894847760790012,-3.180976008161045
4.0284999999999975,-0.5230612141886847,-0.0703088435873395,-3.2203925239880853
4.032,-0.4996249329929048,-0.0596570991624181,-3.267265086379645
4.0355000000000025,-0.4996249329929048,-0.0543303542853314,-3.2970945086254804
4.038999999999998,-0.517734469311598,-0.0617864008498512,-3.3215954406649764
4.0425,-0.5528888911052677,-0.0639174478665363,-3.3215954406649764
4.046000000000003,-0.6295908757426625,-0.0767019846373948,-3.2864410188713067
4.049499999999998,-0.6871169278883955,-0.0926804739394028,-3.2427641543401484
4.053000000000001,-0.7648835633695069,-0.1161167551351827,-3.1511483312444626
4.056500000000003,-0.8224096155152401,-0.136357338470561,-3.078708440640437
4.059999999999999,-0.8660864800463982,-0.1214435000122694,-2.979634825650979
4.063500000000001,-0.8852624125380599,-0.0798976824977964,-2.916783773957412
4.066999999999997,-0.8714132249234848,-0.0404811666707564,-2.840081789320017
4.070499999999999,-0.8351924069568466,-0.0042603487041181,-2.7942738777721736
4.074000000000002,-0.7425119330174437,0.0724398906040246,-2.749530617068047
4.077499999999997,-0.6381133184801508,0.1374237346435295,-2.7250296850285505
4.081,-0.4665998128866681,0.205601531214184,-2.719702940151464
4.084500000000002,-0.3366338701369103,0.2428870000245388,-2.7303564299056373
4.087999999999997,-0.1757738542976009,0.2950880526224372,-2.7569884089618184
4.0915,-0.0809623333415129,0.3632658491930918,-2.779360039313882
4.095000000000002,0.0042603487041181,0.4506213235846599,-2.8070584145430324
4.098499999999998,0.0479389585645282,0.4964292351325031,-2.798535971805544
4.102,0.0788312863248278,0.5507578440885826,-2.77616434145348
4.105500000000003,0.083093380358198,0.605088198373914,-2.7410081743305588
4.108999999999998,0.1012029166768912,0.6945729744529154,-2.6749614247765896
4.112500000000001,0.1129210572747811,0.7627525163528219,-2.6216957213349743
4.116000000000003,0.1438151303643327,0.8437148496943347,-2.5449937366975792
4.119499999999999,0.1448797812080492,0.8660864800463982,-2.4917297785852166
4.123000000000001,0.0884201252352847,0.875673573627603,-2.422485585841593
4.1264999999999965,0.0042603487041181,0.8991098548233829,-2.363893137522892
4.129999999999999,-0.1480754790684509,0.9065676467171546,-2.277604059304292
4.1335000000000015,-0.2918906094327836,0.8724778757672014,-2.18918567939826
4.136999999999997,-0.5070809795574245,0.8053647300402634,-2.059219736648502
4.140499999999999,-0.6455693650446706,0.7457076308778453,-1.9431012361840672
4.144000000000002,-0.725467047542467,0.6391779693238674,-1.767327381886466
4.147499999999997,-0.6690056462404504,0.5486285424011496,-1.6362967882929915
4.151,-0.4889714432387313,0.4399678338304866,-1.4892859600682575
4.154500000000002,-0.2972173543098703,0.3632658491930918,-1.411517579257894
4.157999999999998,0.0095870935812048,0.2801724688348938,-1.3529268762684443
4.1615,0.205601531214184,0.2396913021641372,-1.3348173399497512
4.165000000000003,0.3888331774055567,0.2077325782308691,-1.3358819907934678
4.168499999999998,0.4772533026408414,0.1842962970350892,-1.3476001313913577
4.172000000000001,0.5070809795574245,0.1374237346435295,-1.3657114130393029
4.175500000000003,0.4857757453783297,0.0873537290623162,-1.3689071108997044
4.178999999999999,0.4506213235846599,0.0383501196540714,-1.3667760638830195
4.182500000000001,0.4218582975117934,0.0085224427374883,-1.358253621145531
4.186000000000004,0.4133358547743051,-0.029827676916583,-1.3348173399497512
4.189499999999999,0.4133358547743051,-0.0660484948832214,-1.2996629181560817
4.193000000000001,0.3877685265618402,-0.1257055940456395,-1.2506593087478366
4.196499999999997,0.3408942188410284,-0.1512729222581045,-1.2005893031666235
4.199999999999999,0.2705853752536888,-0.177904901314286,-1.1185623189813938
4.203500000000002,0.2098636252475541,-0.2247774637058457,-1.0205551001649042
4.206999999999997,0.1182478021518678,-0.2929570056057522,-0.8724778757672014
4.2105,0.0532657034416149,-0.3451563128743986,-0.7414472821737271
4.214000000000002,-0.0351544217936697,-0.4357057397971164,-0.5443664483677794
4.217499999999998,-0.1012029166768912,-0.5070809795574245,-0.3771150368076668
4.221,-0.1640557136997109,-0.5784562193177326,-0.1395530363309626
4.224500000000003,-0.1992101354933808,-0.6210684330051742,0.0394165158270399
4.227999999999998,-0.2631275833599171,-0.6690056462404504,0.2780431671474606
4.2315000000000005,-0.3270467765557054,-0.6796591359946239,0.4516859744283765
4.235000000000003,-0.4175962034784233,-0.6732677402738206,0.6711366932571355
4.238499999999998,-0.4953628389595346,-0.6796591359946239,0.8288010112360433
4.242000000000001,-0.6189373859884891,-0.6881815787321122,1.0290775429023926
4.245500000000003,-0.7180110009779472,-0.683921230027994,1.1707616262500404
4.248999999999999,-0.8298656620797599,-0.6508961099217573,1.358253621145531
4.252500000000001,-0.9086986937338396,-0.6157416881280875,1.5084601472306671
4.255999999999997,-0.9832696313545496,-0.5571509851386378,1.739630751986568
4.259499999999999,-0.9939213757794708,-0.5166698184678814,1.9345787934465783
4.263000000000002,-0.9417220685108244,-0.43890318298677,2.2062305648732363
4.266499999999997,-0.8767399698005716,-0.3739193389472651,2.395853606785412
4.27,-0.7819284488444836,-0.2950880526224372,2.640871653826636
4.273500000000002,-0.6881815787321122,-0.2301042085829324,2.803860971353379
4.2769999999999975,-0.5294526099094878,-0.1395530363309626,3.0094642478968145
4.2805,-0.4367721359700849,-0.0894847760790012,3.14369053935069
4.2840000000000025,-0.3515477085952018,-0.0340897709499532,3.299223810312913
4.287499999999998,-0.3227846825223353,-0.0074577918937717,3.3972310291294026
4.291,-0.3185243338182171,0.013849187614575,3.525067670191727
4.294500000000003,-0.3291760782431385,0.0490036094082447,3.587920467214547
4.297999999999998,-0.369657244913895,0.0884201252352847,3.639055123639477
4.301500000000001,-0.4314453910929982,0.0980072188164895,3.64118442532691
4.305000000000003,-0.5358440056302911,0.1118564064310645,3.586854071041578
4.308499999999999,-0.5859140112115044,0.1257055940456395,3.5154805766105226
4.312000000000001,-0.630655526586379,0.1043986145372928,3.391906029581568
4.315499999999997,-0.6508961099217573,0.0681795418999064,3.2864410188713067
4.318999999999999,-0.6466357612176391,0.0458079115478431,3.154344029104864
4.322500000000002,-0.5933700577760241,0.0372854688103548,3.077643789796721
4.325999999999997,-0.4548816722887781,-0.0127827914416064,3.006268550036413
4.3295,-0.3302424744161071,-0.0617864008498512,2.96046063848857
4.333000000000002,-0.1576643179789077,-0.1448797812080492,2.916783773957412
4.336499999999997,-0.0735062867769931,-0.1960144376329791,2.88588970086786
4.34,0.0,-0.2854992137119804,2.861387023499112
4.343500000000002,0.041545817514473,-0.3781796876513833,2.867780164549167
4.346999999999998,0.0660484948832214,-0.4836446983616446,2.896543190622033
4.3505,0.0649838440395048,-0.5305172607532044,2.913586330767758
4.354000000000003,0.0500682602519613,-0.5709984274239609,2.930631216242735
4.357499999999998,0.0362208179666383,-0.600827849669796,2.9519381957510813
4.361000000000001,0.0095870935812048,-0.642373667184269,2.9625899401760027
4.364500000000003,-0.02769837522915,-0.6849858808717105,2.959394242315601
4.367999999999999,-0.1043986145372928,-0.7403808860007585,2.9434157530135927
4.371500000000001,-0.1885583910684593,-0.7659482142132235,2.923175169678215
4.3749999999999964,-0.3089354949077603,-0.7595568184924202,2.878431908974088
4.378499999999999,-0.3717882919305801,-0.723336000525782,2.8443421380241345
4.3820000000000014,-0.3813771308410369,-0.6466357612176391,2.7953385286158903
4.385499999999997,-0.3259803803827369,-0.5859140112115044,2.746334919207645
4.388999999999999,-0.1725781564371993,-0.517734469311598,2.6856131692015106
4.392500000000002,-0.0287630260728665,-0.4793843496575265,2.6355449089495493
4.395999999999997,0.1555332709622227,-0.43890318298677,2.558842924312154
4.3995,0.2812388650078622,-0.4005513180034466,2.517297106797681
4.403000000000002,0.3994866671597301,-0.3366338701369103,2.4597710546519487
4.406499999999998,0.4367721359700849,-0.3078708440640437,2.4182234918082237
4.41,0.4282496932325966,-0.2567361876391139,2.362828486679175
4.413500000000003,0.41120480775762,-0.1938833906162941,2.314889528114647
4.416999999999998,0.3749839897909817,-0.1289012919060412,2.2381892888065043
4.4205000000000005,0.3217200316786187,-0.0905494269227178,2.176401142627401
4.424000000000003,0.2535404897787122,-0.0404811666707564,2.0869163665484
4.427499999999998,0.2098636252475541,-0.0191759324916617,2.0293903144026664
4.431000000000001,0.1374237346435295,0.0,1.944167632357036
4.434500000000003,0.096942567972773,-0.0010646508437165,1.8834458823509008
4.437999999999999,0.0585907029894496,-0.0458079115478431,1.795025757115616
4.441500000000001,0.0223716303520633,-0.0596570991624181,1.705540981036615
4.444999999999997,-0.0085224427374883,-0.0798976824977964,1.5627905015159986
4.448499999999999,-0.0372854688103548,-0.0990718696602061,1.4413470015037293
4.452000000000002,-0.0724398906040246,-0.1267702448893561,1.2655731472061282
4.455499999999997,-0.0756355884644262,-0.1374237346435295,1.1174959228084254
4.459,-0.0916158230956863,-0.1704471094205142,0.9001762509963515
4.462500000000002,-0.0948115209560879,-0.1981454846496642,0.7371851881403569
4.4659999999999975,-0.069244192743623,-0.2290395577392158,0.5145387714511963
4.4695,-0.0149138384582915,-0.2514094427620272,0.3483520107348002
4.4730000000000025,0.0937468701123714,-0.2769767709744921,0.136357338470561
4.476499999999998,0.1821652500184041,-0.2897613077453506,-0.0170448854749766
4.48,0.3121311927681619,-0.2854992137119804,-0.2002765316663493
4.483500000000003,0.4026823650201317,-0.2631275833599171,-0.3291760782431385
4.486999999999998,0.4761869064678729,-0.2013411825100658,-0.4697955107470696
4.490500000000001,0.5166698184678814,-0.1470108282247343,-0.5571509851386378
4.494000000000003,0.5571509851386378,-0.1118564064310645,-0.6594185526592456
4.497499999999999,0.5827165680218508,-0.0884201252352847,-0.7382515843133254
4.501000000000001,0.6253287817092923,-0.0500682602519613,-0.8554329902922247
4.504499999999997,0.6679409953967339,-0.0234362811957798,-0.9534402091087144
4.507999999999999,0.7158799539612621,-0.002131047016685,-1.1121691779313387
4.511500000000002,0.7265316983861836,0.0330233747769847,-1.2463972147144666
4.514999999999997,0.7552947244590501,0.0671131457269379,-1.4381513036433275
4.5185,0.7936465894423735,0.0724398906040246,-1.5723775950972034
4.522000000000002,0.8309320582527283,0.0862890782185996,-1.771589475919836
4.525499999999997,0.8543683394485082,0.0820287295144815,-1.9271227468820589
4.529,0.8916538082588631,0.0724398906040246,-2.1220707883420697
4.532500000000002,0.9193504381587612,0.0639174478665363,-2.2680169657230875
4.535999999999998,0.9545066052816829,0.0426122136874415,-2.454444309774862
4.5395,0.9598333501587696,0.0394165158270399,-2.585474903368336
4.543000000000003,0.9481134642316276,0.0426122136874415,-2.7452702683639285
4.546499999999998,0.9278728808962494,0.0372854688103548,-2.8454085341971034
4.550000000000001,0.8735442719401699,0.0351544217936697,-2.9700477320697747
4.553500000000003,0.8245406625319252,0.029827676916583,-3.059532508148776
4.556999999999999,0.7382515843133254,0.01598023463126,-3.1575397269652656
4.560500000000001,0.6615495996759307,0.0085224427374883,-3.223588221848487
4.5639999999999965,0.5283879590657713,0.0095870935812048,-3.3034859043462834
4.567499999999999,0.3877685265618402,0.0085224427374883,-3.35568521161493
4.5710000000000015,0.1491418752414194,0.0149138384582915,-3.394035331269001
4.574499999999997,-0.041545817514473,0.002131047016685,-3.388710331721166
4.577999999999999,-0.300413052170272,-0.0287630260728665,-3.352489513754528
4.581500000000002,-0.4793843496575265,-0.0330233747769847,-3.3152040449441733
4.584999999999997,-0.6477004120613556,-0.0255673282124649,-3.2779185761338185
4.5885,-0.7201403026653803,-0.0330233747769847,-3.255546945781755
4.592000000000002,-0.7446429800341288,-0.0042603487041181,-3.259809039815125
4.595499999999998,-0.7222713496820654,0.0308940730895516,-3.2736582274297
4.599,-0.6615495996759307,0.055395005129048,-3.3152040449441733
4.602500000000003,-0.6200020368322057,0.0703088435873395,-3.3429024201733237
4.605999999999998,-0.5709984274239609,0.0884201252352847,-3.386579284704481
4.609500000000001,-0.5326483077698895,0.0916158230956863,-3.400428472319056
4.613000000000003,-0.4740576047804398,0.0862890782185996,-3.411080216743977
4.616499999999999,-0.4218582975117934,0.0713752397603081,-3.405753471866891
4.620000000000001,-0.341960615013997,0.0575260521457331,-3.3951017274419697
4.623500000000004,-0.288694911572382,0.055395005129048,-3.38338358684408
4.626999999999999,-0.2695207244099723,0.0713752397603081,-3.371665446246189
4.630500000000001,-0.2737810731140905,0.1086607085706629,-3.364207654352418
4.633999999999997,-0.3451563128743986,0.1534022239455376,-3.34822916505041
4.637499999999999,-0.4442281825346047,0.1928187397725775,-3.3269221855420628
4.641000000000002,-0.628524479569694,0.2641939795328856,-3.28537636802759
4.644499999999997,-0.7659482142132235,0.3110665419244454,-3.2310460137422585
4.648,-0.928939277069218,0.3771150368076668,-3.1181232111382258
4.651500000000002,-1.0152283552878176,0.42292294835551,-3.020115992321736
4.654999999999998,-1.0589052198189757,0.4900360940824479,-2.879498305147057
4.6585,-1.0333378916065108,0.5496931932448661,-2.77616434145348
4.662000000000003,-0.9640936988628878,0.6210684330051742,-2.668568283726534
4.665499999999998,-0.8884581103984615,0.6743323911175372,-2.6078465337203998
4.6690000000000005,-0.7702103082465936,0.7520990265986485,-2.5449937366975792
4.672500000000003,-0.6679409953967339,0.7712749590903102,-2.4885340807248157
4.675999999999998,-0.4942981881158181,0.7467722817215618,-2.402245002506215
4.679500000000001,-0.316393286801532,0.7105532090841755,-2.3361965076229936
4.683000000000003,-0.0362208179666383,0.6562228547988439,-2.2445806845273077
4.686499999999999,0.2034722295267509,0.5891097090719061,-2.1838589345211727
4.690000000000001,0.5326483077698895,0.4932317919428495,-2.105025902867093
4.693499999999997,0.7659482142132235,0.4431635316908882,-2.057088689631817
4.696999999999999,1.0471870792210858,0.3888331774055567,-2.0016936845027686
4.700500000000002,1.2112427929207967,0.3685925940701784,-1.9590814708153272
4.703999999999997,1.3369483869664365,0.3249157295390203,-1.885575184038334
4.7075,1.3859519963746811,0.2599318854995155,-1.7960904079593327
4.711000000000002,1.3912769959225155,0.1704471094205142,-1.648014928890882
4.7144999999999975,1.3476001313913577,0.1267702448893561,-1.5159179391244388
4.718,1.2602464023290416,0.0862890782185996,-1.3092500117372865
4.7215000000000025,1.176088371127127,0.0713752397603081,-1.1292140634063152
4.724999999999998,1.055709521958574,0.069244192743623,-0.8810003185046897
4.7285,0.9353306727900212,0.0756355884644262,-0.6881815787321122
4.732000000000003,0.7329248394362388,0.1012029166768912,-0.4357057397971164
4.735499999999998,0.5539552872782363,0.1459461773810178,-0.2578025838120824
4.739000000000001,0.2780431671474606,0.2066679273871525,-0.029827676916583
4.742500000000003,0.0617864008498512,0.2269085107225308,0.136357338470561
4.745999999999999,-0.2045368803704674,0.2183860679850424,0.3568744534722885
4.749500000000001,-0.3898978282492732,0.1960144376329791,0.4974938859762197
4.752999999999997,-0.5816519171781342,0.1534022239455376,0.6764634381342222
4.756499999999999,-0.6604849488322142,0.0990718696602061,0.8011026360068932
4.760000000000002,-0.6956393706258839,0.0,0.952375558264998
4.763499999999997,-0.6679409953967339,-0.069244192743623,1.0567741728022906
4.767,-0.5496931932448661,-0.1853609478788057,1.1846108138646152
4.770500000000002,-0.4346410889533998,-0.2663250265495707,1.273029193770648
4.773999999999997,-0.2524758389349957,-0.3185243338182171,1.3657114130393029
4.7775,-0.0926804739394028,-0.341960615013997,1.4434780485204144
4.781000000000002,0.1470108282247343,-0.3877685265618402,1.5542680587785105
4.784499999999998,0.3206536355056502,-0.4303807402492817,1.6416217878408266
4.788,0.5571509851386378,-0.4634041150262664,1.7769144754676711
4.791500000000003,0.7222713496820654,-0.4815136513449596,1.8887708818987357
4.794999999999998,0.8959141569629812,-0.4772533026408414,2.0506972939110133
4.798500000000001,0.9853989330419826,-0.4484902765679749,2.1732054447669995
4.802000000000003,1.021619751008621,-0.3962909692993285,2.3681552315562624
4.805499999999999,0.996052422796156,-0.3622011983493752,2.5204928046580832
4.809000000000001,0.8863270633817765,-0.3014794483432405,2.7186382893077474
4.8124999999999964,0.7467722817215618,-0.2641939795328856,2.848604232057505
4.815999999999999,0.4729912086074713,-0.2482137449016255,2.988157268388468
4.8195000000000014,0.2205171150017275,-0.2759121201307756,3.069121347059233
4.822999999999997,-0.1725781564371993,-0.274847469287059,3.156475076121549
4.826499999999999,-0.4548816722887781,-0.2396913021641372,3.224654618021455
4.830000000000002,-0.7371851881403569,-0.2173214171413259,3.3514248629108114
4.833499999999997,-0.8799356676609732,-0.2247774637058457,3.465410571029309
4.837,-0.9662247458795729,-0.2407576983371057,3.5985722116394685
4.840500000000002,-0.9630290480191712,-0.2567361876391139,3.689123383891438
4.843999999999998,-0.8937848552755481,-0.2812388650078622,3.772216764249636
4.8475,-0.8170828706381533,-0.2908259585890671,3.7945883946017
4.851000000000003,-0.7030954171904037,-0.3302424744161071,3.80204444116622
4.854499999999998,-0.6200020368322057,-0.3568744534722885,3.7913909514120463
4.8580000000000005,-0.5092120265741096,-0.369657244913895,3.7509097847412898
4.861500000000003,-0.4314453910929982,-0.38350643252847,3.724277805685108
4.864999999999998,-0.3153286359578155,-0.4282496932325966,3.6901880347351543
4.868500000000001,-0.2354309534600191,-0.4495549274116914,3.661425008662288
4.872000000000003,-0.1289012919060412,-0.4538170214450616,3.6166834932874137
4.875499999999999,-0.0511346564249298,-0.4559463231324946,3.583658373181177
4.879000000000001,0.0649838440395048,-0.4697955107470696,3.560222091985397
4.882499999999997,0.1949497867892626,-0.480449000501243,3.5506349984041923
4.885999999999999,0.4144005056180216,-0.4697955107470696,3.544243602683389
4.889500000000002,0.5624759846864725,-0.4676662090596366,3.525067670191727
4.892999999999997,0.7244023966987505,-0.4452945787075733,3.4760640607834827
4.8965,0.81069147491735,-0.4165315526347067,3.424929404358553
4.900000000000002,0.8351924069568466,-0.3600701513326901,3.350358466737843
4.9034999999999975,0.7883198445652868,-0.2972173543098703,3.298159159469196
4.907,0.7009661155029706,-0.1757738542976009,3.2310460137422585
4.9105000000000025,0.614677037284371,-0.1033339636935762,3.177780310300644
4.913999999999998,0.4634041150262664,-0.0031956978604016,3.094686929942445
4.9175,0.3760503859639502,0.069244192743623,3.033965179936311
4.921000000000003,0.2780431671474606,0.1267702448893561,2.9402200551531914
4.924499999999998,0.2173214171413259,0.1480754790684509,2.854995627778308
4.928000000000001,0.1587289688226243,0.138488385487246,2.722898638011866
4.931500000000003,0.138488385487246,0.1033339636935762,2.6110422315808006
4.934999999999999,0.1352926876268444,0.0458079115478431,2.443790820020688
4.938500000000001,0.166186760716396,-0.0106534897541733,2.3095645285668125
4.941999999999997,0.2183860679850424,-0.0862890782185996,2.133788928939959
4.945499999999999,0.2620629325162006,-0.1278348957330726,1.9995626374860835
4.949000000000002,0.3313071252598236,-0.1789695521580025,1.8248534340321991
4.952499999999997,0.3771150368076668,-0.2109282760912707,1.7023452831762131
4.956,0.3739193389472651,-0.2450180470412239,1.5436145690243368
4.959500000000002,0.3515477085952018,-0.2673896773932873,1.4360202566266425
4.962999999999997,0.3366338701369103,-0.2823035158515788,1.300727568999798
4.9665,0.3110665419244454,-0.2833681666952953,1.1973936053062215
4.970000000000002,0.2844345628682639,-0.286565609884949,1.0567741728022906
4.973499999999998,0.2961527034661538,-0.2823035158515788,0.9491798604045962
4.977,0.3238510786953038,-0.2407576983371057,0.7712749590903102
4.980500000000003,0.3451563128743986,-0.2034722295267509,0.6274598287259775
4.983999999999998,0.3579391043160051,-0.1544686201185061,0.4293143440763132
4.987500000000001,0.3611348021764067,-0.1161167551351827,0.2759121201307756
4.991000000000003,0.3526141047681703,-0.069244192743623,0.0905494269227178
4.994499999999999,0.3568744534722885,-0.0490036094082447,-0.0404811666707564
4.998000000000001,0.3781796876513833,-0.0596570991624181,-0.2087989744038376
5.0014999999999965,0.4154651564617382,-0.0788312863248278,-0.3462209637181151
5.004999999999999,0.492167141099133,-0.0820287295144815,-0.5539552872782363
5.0085000000000015,0.5305172607532044,-0.0617864008498512,-0.7244023966987505
5.011999999999997,0.5656734278761262,-0.0117181405978899,-0.9545066052816829
5.015499999999999,0.5678027295635593,0.0095870935812048,-1.1174959228084254
5.019000000000002,0.5326483077698895,0.029827676916583,-1.3252302463685464
5.022499999999997,0.4815136513449596,0.0490036094082447,-1.4637186318557929
5.026,0.4090737607409349,0.0617864008498512,-1.6320346942596218
5.029500000000002,0.3611348021764067,0.0639174478665363,-1.739630751986568
5.032999999999998,0.3068061932203272,0.0798976824977964,-1.8642699498592392
5.0365,0.3057397970473587,0.1001382658331746,-1.946296934044469
5.040000000000003,0.3366338701369103,0.1182478021518678,-2.049630897738045
5.043499999999998,0.3494166615785167,0.1278348957330726,-2.1124836947608645
5.047000000000001,0.3685925940701784,0.1406194325039311,-2.1849235853648894
5.050500000000003,0.369657244913895,0.1491418752414194,-2.2104909135773543
5.053999999999999,0.3728546881035486,0.152337573101821,-2.2051641687002674
5.057500000000001,0.4026823650201317,0.1438151303643327,-2.1710743977503144
5.061000000000004,0.4825800475179281,0.136357338470561,-2.111419043917148
5.064499999999999,0.5699337765802444,0.124639197872671,-2.069871481073423
5.068000000000001,0.6998997193300021,0.1022693128498597,-2.0315213614193515
5.071499999999997,0.7893844954090034,0.0948115209560879,-2.033652408436037
5.074999999999999,0.8511726415881066,0.1065296615539778,-2.058153340475533
5.078500000000002,0.8650218292026817,0.1352926876268444,-2.080524970827597
5.081999999999997,0.836258803129815,0.1310323389227262,-2.1124836947608645
5.0855,0.7755353077944284,0.0937468701123714,-2.140182069990015
5.089000000000002,0.6626142505196473,0.0820287295144815,-2.162553700342078
5.092499999999998,0.6082838962343158,0.0788312863248278,-2.176401142627401
5.096,0.5528888911052677,0.0383501196540714,-2.1827925383482043
5.099500000000003,0.5145387714511963,0.02769837522915,-2.1870546323815745
5.102999999999998,0.4708619069200382,0.0372854688103548,-2.2179487054711258
5.1065000000000005,0.4452945787075733,0.0394165158270399,-2.233927194773134
5.110000000000003,0.397355620143045,0.02769837522915,-2.2616255700022845
5.113499999999998,0.3313071252598236,0.0191759324916617,-2.282930804181379
5.117000000000001,0.2226464166891606,0.0308940730895516,-2.3127602264272142
5.120500000000003,0.138488385487246,0.0426122136874415,-2.3191516221480173
5.123999999999999,0.013849187614575,0.069244192743623,-2.2935842939355524
5.127500000000001,-0.0628527970228197,0.0990718696602061,-2.256298825125197
5.130999999999997,-0.1182478021518678,0.138488385487246,-2.166814049046196
5.134499999999999,-0.1448797812080492,0.152337573101821,-2.09863450714629
5.138000000000002,-0.2013411825100658,0.1928187397725775,-2.010216127240257
5.141499999999997,-0.2386266513204207,0.2258421145495622,-1.946296934044469
5.145,-0.2972173543098703,0.258867234655799,-1.8632035536862703
5.148500000000002,-0.3739193389472651,0.2673896773932873,-1.802481803680136
5.1519999999999975,-0.5358440056302911,0.2673896773932873,-1.7385643558135997
5.1555,-0.6881815787321122,0.2705853752536888,-1.6991478399865596
5.1590000000000025,-0.9150900894546428,0.274847469287059,-1.658666673315803
5.162499999999998,-1.0897992929085274,0.2599318854995155,-1.6362967882929915
5.166,-1.2655731472061282,0.2247774637058457,-1.5947492254492668
5.169500000000003,-1.3199035014914595,0.1853609478788057,-1.563855152359715
5.172999999999998,-1.298596521983113,0.1342280367831279,-1.5212446840015257
5.176500000000001,-1.201655699339592,0.110790010258096,-1.4935463087723757
5.180000000000003,-1.0194887039919358,0.1097253594143795,-1.4637186318557929
5.183499999999999,-0.8735442719401699,0.1214435000122694,-1.4424116523474455
5.187000000000001,-0.7126842561008605,0.1257055940456395,-1.421106418168351
5.190499999999997,-0.6359822714634658,0.1406194325039311,-1.405126183537091
5.193999999999999,-0.5923054069323076,0.2002765316663493,-1.377429553637193
5.197500000000002,-0.5699337765802444,0.247149094057909,-1.3454708297039246
5.200999999999997,-0.5358440056302911,0.2950880526224372,-1.2666377980498449
5.2045,-0.4900360940824479,0.3302424744161071,-1.192066860429135
5.208000000000002,-0.3984202709867616,0.3920288752659583,-1.0578405689752592
5.211499999999997,-0.302544099186957,0.4367721359700849,-0.9342660219463046
5.215,-0.1619246666830259,0.5006895838366213,-0.7574257714757352
5.218500000000002,-0.0649838440395048,0.5390397034906926,-0.6040235475301975
5.221999999999998,0.02769837522915,0.5795208701614492,-0.3941599222826434
5.2255,0.0681795418999064,0.6061545945468827,-0.2386266513204207
5.229000000000003,0.0862890782185996,0.642373667184269,-0.0213052341790947
5.232499999999998,0.0703088435873395,0.6572875056425604,0.138488385487246
5.236000000000001,0.02769837522915,0.6743323911175372,0.3760503859639502
5.239500000000003,0.0063913957208032,0.6743323911175372,0.5582156359823544
5.242999999999999,-0.0095870935812048,0.6711366932571355,0.7893844954090034
5.246500000000001,-0.002131047016685,0.6732677402738206,0.9598333501587696
5.2499999999999964,0.0287630260728665,0.6753987872905056,1.1633038343562685
5.253499999999999,0.0703088435873395,0.6764634381342222,1.300727568999798
5.2570000000000014,0.1267702448893561,0.7030954171904037,1.448803048068249
5.260499999999997,0.177904901314286,0.7510343757549319,1.545745616041022
5.263999999999999,0.2407576983371057,0.7979069381464917,1.6437528348575114
5.267500000000002,0.2716500260974054,0.8117561257610666,1.700214236159528
5.270999999999997,0.274847469287059,0.8298656620797599,1.7598713353219464
5.2745,0.2695207244099723,0.8319967090964449,1.7992861058197342
5.278000000000002,0.2716500260974054,0.8245406625319252,1.8472250643842625
5.281499999999998,0.2716500260974054,0.8256053133756417,1.8802484391612475
5.285,0.2801724688348938,0.8660864800463982,1.920729605832004
5.288500000000003,0.3068061932203272,0.8767399698005716,1.9601461216590437
5.291999999999998,0.3867021303888716,0.8607597351693115,2.04004380415684
5.2955000000000005,0.4825800475179281,0.8256053133756417,2.094374158442172
5.299000000000003,0.6200020368322057,0.7307937924195538,2.1519002105879044
5.302499999999998,0.7052264642070888,0.6381133184801508,2.1753364917836846
5.306000000000001,0.7286627454028686,0.517734469311598,2.164683002029511
5.309500000000003,0.6775280889779387,0.4090737607409349,2.1316596272525263
5.312999999999999,0.5486285424011496,0.2620629325162006,2.0762646221234786
5.316500000000001,0.3867021303888716,0.1438151303643327,2.0091497310672883
5.319999999999997,0.0916158230956863,-0.0511346564249298,1.9026200695133104
5.323499999999999,-0.166186760716396,-0.1981454846496642,1.8120706425905928
5.327000000000002,-0.519865516328283,-0.3952245731263599,1.6884960955616382
5.330499999999997,-0.7467722817215618,-0.5443664483677794,1.5979449233096683
5.334,-1.0109662612544474,-0.7180110009779472,1.4637186318557929
5.337500000000002,-1.1792840689875286,-0.836258803129815,1.3444044335309562
5.3409999999999975,-1.3848856002017127,-0.9630290480191712,1.176088371127127
5.3445,-1.4978066574764937,-1.0418603343439992,1.0482517300648024
5.3480000000000025,-1.5862267827117784,-1.1206916206688269,0.875673573627603
5.351499999999998,-1.6043380643597236,-1.1718262770937566,0.7478386778945303
5.355,-1.584095735695093,-1.2005893031666235,0.5997614534968274
5.358500000000003,-1.5148515429514704,-1.2123074437645132,0.503885281697023
5.361999999999998,-1.3529268762684443,-1.2091117459041116,0.4399678338304866
5.365500000000001,-1.167565928389639,-1.1941979074458202,0.4271832970596281
5.369000000000003,-0.7574257714757352,-1.157977089479182,0.4495549274116914
5.372499999999999,-0.3909642244222418,-1.1196269698251105,0.4729912086074713
5.376000000000001,0.1736428072809158,-1.0684923134001805,0.4708619069200382
5.379499999999997,0.5965657556364258,-1.016293006131534,0.4378367868138015
5.382999999999999,1.0706233604168656,-0.8586286881526264,0.3430252658577135
5.386500000000002,1.340144084826838,-0.7244023966987505,0.2354309534600191
5.389999999999997,1.5595948036555969,-0.5848476150385359,0.0703088435873395
5.3935,1.583031084851377,-0.4708619069200382,-0.0564614013020165
5.397000000000002,1.4690453767328793,-0.2780431671474606,-0.2301042085829324
5.400499999999997,1.3188371053184913,-0.1310323389227262,-0.3376985209806268
5.404,1.0802104539980706,0.1043986145372928,-0.464468765869983
5.407500000000002,0.9118943915942412,0.3100018910807288,-0.5486285424011496
5.410999999999998,0.7180110009779472,0.5699337765802444,-0.6413090163405525
5.4145,0.5859140112115044,0.7552947244590501,-0.6998997193300021
5.418000000000003,0.3792460838243518,0.956635906969116,-0.767014610386192
5.421499999999998,0.180035948330971,1.0897992929085274,-0.7989733343194602
5.425000000000001,-0.1416840833476476,1.2410704698373798,-0.7979069381464917
5.428500000000003,-0.4090737607409349,1.3028586160164832,-0.7489033287382468
5.431999999999999,-0.7552947244590501,1.2836826835248214,-0.6253287817092923
5.435500000000001,-0.9577023031420844,1.2442661676977815,-0.5070809795574245
5.4389999999999965,-1.106844178383504,1.201655699339592,-0.3355692192931938
5.442499999999999,-1.1260183655459135,1.1622391835125518,-0.1992101354933808
5.4460000000000015,-1.0109662612544474,1.0748854544502358,0.02769837522915
5.449499999999997,-0.7915155424256883,0.9981834698128408,0.2450180470412239
5.452999999999999,-0.2492801410745941,0.8533036886047917,0.6178727351447726
5.456500000000002,0.3568744534722885,0.6881815787321122,0.9246771830358478
5.459999999999997,1.2719645429269315,0.4239875991992265,1.2623774493457267
5.4635,1.9164692571278852,0.2109282760912707,1.4157796732912642
5.467000000000002,2.654719096111959,-0.0735062867769931,1.4914152617556906
5.470499999999998,3.077643789796721,-0.3185243338182171,1.4626522356828238
5.474,3.3535541645982443,-0.6935083236091989,1.3294905950726643
5.477500000000003,3.310941950910803,-0.9811385843378644,1.167565928389639
5.480999999999998,2.9146527269407265,-1.3390776886538696,0.8937848552755481
5.484500000000001,2.425681283701995,-1.5137868921077535,0.6647452975363323
5.488000000000003,1.6607977203324882,-1.5883578297284635,0.3313071252598236
5.491499999999999,1.0716880112605822,-1.5851621318680618,0.0372854688103548
5.495000000000001,0.2833681666952953,-1.545745616041022,-0.4048134120368167
5.498500000000004,-0.2801724688348938,-1.412583975430863,-0.8043000791965469
5.501999999999999,-0.9694204437399744,-1.1132355741043072,-1.4040615326933743
5.505500000000001,-1.4381513036433275,-0.8330613599401614,-1.8706613455800425
5.508999999999997,-1.992104845592312,-0.4101401569139035,-2.4885340807248157
5.512499999999999,-2.331934413589624,-0.0479389585645282,-2.9402200551531914
5.516000000000002,-2.631282814916179,0.4165315526347067,-3.493108946258459
5.519499999999997,-2.6941356119389988,0.7297291415758372,-3.853179097591149
5.523,-2.5130350127643117,1.0908639437522438,-4.243076925840422
5.526500000000002,-2.147638116554534,1.3071189647206012,-4.449744853227576
5.529999999999998,-1.3934080429392008,1.5862267827117784,-4.619127311804372
5.5335,-0.6551582039551274,1.7854369182051593,-4.653217082754326
5.537000000000003,0.517734469311598,2.011280778083973,-4.5711900985690965
5.540499999999998,1.490350610911974,2.1561605592920228,-4.410330082729787
5.5440000000000005,2.8294282995658437,2.302106736673041,-4.093936795928255
5.547500000000003,3.8041754881829046,2.3670905807125457,-3.806306535199589
5.550999999999998,4.9259335050247,2.371350929416664,-3.3812525398273947
5.554500000000001,5.518238911957008,2.3436525541875133,-3.051010065411288
5.558000000000003,5.851675338904264,2.3191516221480173,-2.6216957213349743
5.561499999999999,5.767517307702351,2.3095645285668125,-2.270148012739772
5.565000000000001,5.231673302072059,2.279735106320977,-1.7683920327301823
5.568499999999997,4.611669519910601,2.2871928982147494,-1.3816899023413112
5.571999999999999,3.3492938158941263,2.0901120644088014,-0.84584589671102
5.575500000000002,2.326609414041789,1.9068821635466808,-0.4026823650201317
5.578999999999997,0.84584589671102,1.6117941109242435,0.1640557136997109
5.5825,-0.3643322453660603,1.2719645429269315,0.5944364539489927
5.586000000000002,-1.9345787934465783,0.7893844954090034,1.1846108138646152
5.5894999999999975,-3.01905134147802,0.4602084171658648,1.60114062117007
5.593,-4.343215191673598,-0.0521993072686464,2.121006137498353
5.5965000000000025,-5.123012593501396,-0.5049499325407395,2.5034479191831065
5.599999999999998,-5.782431146160641,-1.1569124386354652,2.971112382913492
5.6035,-6.037038032112322,-1.6629287673491733,3.244895201356833
5.607000000000003,-6.079650245799764,-2.347914648220884,3.4963046441188608
5.610499999999998,-5.893222901747989,-2.852864580761623,3.601769654829122
5.614000000000001,-5.41170925040303,-3.4845865035209704,3.647577566376965
5.617500000000003,-4.951500833237165,-3.90431375401608,3.6113567484103273
5.620999999999999,-4.29208228057792,-4.376240311779834,3.4835201073480024
5.624500000000001,-3.7913909514120463,-4.660674874648097,3.350358466737843
