time,Gyr_X,Gyr_Y,Gyr_Z
0.0,0.0050065662696366,0.002865422760421,0.0030691763372306
0.0099999999999909,0.0021934341904894,0.0001759600732852,0.0017510207870292
0.0199999999999818,-0.0018518524014739,-0.0048066741506632,0.000564908850957
0.0299999999999727,-0.0068587095953167,-0.0017463138101369,-0.0022744013257342
0.039999999999992,-0.0012544048377846,-0.0017706153845629,-0.0085799775941074
0.0499999999999829,0.0066003604299951,-0.0005711225117855,-0.0041202801097041
0.0599999999999738,0.0029315879576249,-0.0005457217585827,-0.0058476761276287
0.0699999999999931,-0.0045252156204501,-0.0018815677377331,0.000948460524304
0.079999999999984,-0.0083848948443763,0.0005641821449483,0.0031666066834802
0.0899999999999749,-0.0017420638252183,0.0018090112393653,0.0088537018617865
0.0999999999999943,0.0043275239836889,0.0033761853912817,0.0121723164071562
0.1099999999999852,0.0081161790718218,0.0033334244845,0.0130434492852079
0.1199999999999761,0.0036169915255083,-0.0012956097095006,0.0183524493863941
0.1299999999999954,-0.001402344945516,-0.0024802156825666,0.0167621477715349
0.1399999999999863,-9.376869283363478e-05,0.0041940250764113,0.0062519419448333
0.1499999999999772,0.0061385112513235,0.002122946378877,0.0069005771077061
0.1599999999999966,0.0028425676022466,-0.0016512903715498,0.003219972412959
0.1699999999999875,-0.003060088027275,-0.0050509121001428,0.0017309094589769
0.1799999999999784,-0.0039287998111723,-0.002897634652623,0.0028728904656133
0.1899999999999977,-0.0015345209015503,0.0016353913100638,-0.0002799786824334
0.1999999999999886,0.0043106186521282,0.0014989003439441,0.0033766719342908
0.2099999999999795,-8.377076955232724e-05,0.0007619872800088,0.0025988468947076
0.2199999999999988,-0.0044681991044604,0.00173221285658,0.0042876310659681
0.2299999999999897,-0.0049715607800556,-0.0024301147392673,0.0034559402166602
0.2399999999999806,-0.0044715083090153,0.001343813685091,-0.0074905271863446
0.25,-0.0104188093871216,0.0036417008108816,-0.0169509034172204
0.2599999999999909,-0.0079710003665701,0.0008433453086705,-0.0189383768860153
0.2699999999999818,-0.0115606964725523,-0.0024752823236413,-0.019074477517395
0.2799999999999727,-0.0039726986916423,-0.006573354785333,-0.0208723553497948
0.289999999999992,8.28257166046957e-05,-0.0022881983053681,-0.0226606359593998
0.2999999999999829,0.0048088648211415,-0.0016961613326914,-0.0241257563971161
0.3099999999999738,0.0037508427647707,0.0021032975002679,-0.0273895742306675
0.3199999999999932,0.0059531910674286,0.0025523139539919,-0.0299148161356671
0.3299999999999841,0.0072670263415633,0.0028311405756713,-0.0304518343027967
0.339999999999975,0.0029821395406434,0.0027416572657337,-0.0315003049700038
0.3499999999999943,0.0075294749471112,-0.0008106315046095,-0.0350370323486809
0.3599999999999852,-0.001505496082563,-0.0016143553082461,-0.0344543770127489
0.3699999999999761,-0.0046974380235374,-0.0046043375397884,-0.0321520600116492
0.3799999999999954,-0.0051711080222159,-0.0033216811298937,-0.0236952125078286
0.3899999999999863,-0.0030108021318112,9.990278602016194e-05,-0.0175521105053903
0.3999999999999772,0.0026490433316667,0.0021448789684927,-0.0127613416062631
0.4099999999999966,0.0063164622023496,-0.0019064672954112,-0.0045577212275632
0.4199999999999875,0.0068000739306993,-0.000735126355344,0.0005458522830018
0.4299999999999784,0.0041202264588095,-2.6163267918982667e-05,0.0016287590288968
0.4399999999999977,-0.0012640855801456,-0.0001836507552542,0.0030451512116192
0.4499999999999886,0.0075255954342093,-0.0011401545490763,0.0101620404133161
0.4599999999999795,-0.0023018090071255,-0.0014640142741436,0.0121943840301304
0.4699999999999988,-0.0012781509965287,-0.0006723465111717,0.0220882665744933
0.4799999999999897,-0.0029437452539474,0.000546086496008,0.0291235302089211
0.4899999999999807,-0.0011088645188732,-0.0025065673948239,0.0360985080493136
0.5,-0.0014305143693007,-0.000294516932372,0.0465069552216967
0.5099999999999909,-0.0010780157117906,0.001227060001888,0.0489927295491434
0.5199999999999818,-0.0010147873100232,0.0002183656236396,0.0527872621803772
0.5299999999999727,0.0044613579391019,-0.001082985157817,0.0525794532501699
0.539999999999992,0.0045290961059226,0.0050496836111562,0.0508682433558106
0.549999999999983,0.0030861062042868,0.0011699655836,0.0501919110221113
0.5599999999999739,-0.0001862085605266,-0.0031838901711208,0.0515133664968034
0.5699999999999932,-0.0032567195541683,-0.0009456511691696,0.0603543014326279
0.5799999999999841,0.005778111593969,-0.0003812372977625,0.0639999704691664
0.589999999999975,0.0053567092067953,0.0027678441773081,0.0684057377569853
0.5999999999999943,-0.002081374221609,0.0009618021153533,0.0799647183065719
0.6099999999999852,-0.0014396387324416,0.000350447221365,0.0883198428399694
0.6199999999999761,0.0030952727554588,0.0010414057640608,0.0942960066433515
0.6299999999999955,0.0002145102605049,0.0028704709473264,0.0966025449551172
0.6399999999999864,0.0052391665987358,0.0025584288386791,0.098505202599529
0.6499999999999773,0.0064054715792992,0.0026739884786827,0.0967593960631519
0.6599999999999966,0.0050050112443418,0.0013458255704179,0.0955373374592107
0.6699999999999875,0.0017108684964173,0.0007622405946403,0.0984758765094987
0.6799999999999784,0.0066753778211529,0.0013137753775692,0.0976820833640672
0.6899999999999977,-0.0009827702600669,0.000770667818317,0.0923471379234886
0.6999999999999886,0.0062299139290905,0.0024989988445412,0.086584332190984
0.7099999999999795,0.0026418422302103,0.0017748918287827,0.086456480587352
0.7199999999999989,0.0022260202689959,0.0023951642653657,0.0897629266308653
0.7299999999999898,0.0006102371278445,0.0044272067965273,0.0893613265175381
0.7399999999999807,-0.0012338563340798,0.0007511447189194,0.0894237300029321
0.75,0.0014331997419853,-0.0006427306230983,0.0898068502320835
0.7599999999999909,0.0016103341398168,-0.0003829542930512,0.08779324902668
0.7699999999999818,-0.0021490898211788,-0.0011567650089304,0.0809437429528524
0.7799999999999727,-0.0024800495731458,0.0013694991508282,0.0723381386767885
0.789999999999992,0.0009600082442657,0.0027933212181679,0.0598380663169978
0.799999999999983,-0.0013496890152616,0.0053913548679611,0.0532324084024028
0.8099999999999739,0.0007361450615506,0.0026991562276528,0.0458583305552193
0.8199999999999932,0.0017952196720089,-0.0001706343934989,0.0400160286050937
0.8299999999999841,0.0041418205889841,0.0013251118754686,0.0414193420025733
0.839999999999975,0.0120244419780445,-0.0007591224422295,0.0327361969250417
0.8499999999999943,0.0082051186784263,0.0011431648869688,0.0342623154208299
0.8599999999999852,0.0066118332456373,-0.0018619991955224,0.0349811823050869
0.8699999999999761,0.0074595147308317,0.0019918866412668,0.03803531459224
0.8799999999999955,0.0060308827431611,0.0029407059675362,0.0428464877931503
0.8899999999999864,0.0084839136993318,0.0018718417704828,0.0474594731827958
0.8999999999999773,0.0049049067562823,0.0002845989356487,0.0505273541997725
0.9099999999999966,-4.20086139509074e-05,-0.0017041976540494,0.0549711233396443
0.9199999999999876,0.0002955402206808,-0.0018150032172195,0.0597339844896452
0.9299999999999784,-0.0026045208246979,-0.0007525416826669,0.0594137069207604
0.9399999999999976,-0.0034848846708689,-0.0017208395325584,0.0641096082997194
0.9499999999999886,0.0053093150547085,0.0008426388668293,0.0712800163912452
0.9599999999999796,-0.0004693329632672,-0.0010504604533142,0.0790602342911083
0.9699999999999988,0.0002761577085304,0.0004826149041607,0.0806338100390783
0.9799999999999898,-0.0009196403210532,-0.0011439146587647,0.0679893509834077
0.9899999999999808,-0.000445381541491,0.0029275651521547,0.0479386253669311
1.0,0.0084988559115484,0.001391437006478,0.0268991144508118
1.009999999999991,0.0060434834344657,-0.0042529334115652,0.0058623208468825
1.0199999999999818,0.0044671263767687,-0.0060133918235381,-0.0110202781901455
1.0299999999999727,0.0012878079281622,-0.0048900368216628,-0.0221939825079722
1.039999999999992,0.0002782668698328,-0.0024659667906137,-0.0276169364725421
1.049999999999983,-0.004676867284404,-0.0025329884194576,-0.0252824390933251
1.059999999999974,-0.0051868361192248,-0.0027825364603786,-0.0224390638687335
1.0699999999999932,-0.0060379187940934,-0.0024011901258642,-0.0097498580108967
1.079999999999984,-0.0031900328962166,0.0006440400444362,-0.0014380243972676
1.089999999999975,0.0007195171503164,-0.0018834532299547,0.0033983246225868
1.0999999999999943,-0.0014403062967097,-0.0006952305442537,0.0074017689406748
1.1099999999999852,0.0048148498193428,-0.0019109894176494,0.009292187220586
1.119999999999976,0.0029016906192649,0.0002349891923086,0.0060186197623775
1.1299999999999957,0.0077155464451852,0.0015044033812838,0.0004925863172397
1.1399999999999864,0.0048084876060841,0.0009084941051045,-0.0017036587732609
1.1499999999999773,-0.0029550455991875,-0.005154811571853,-0.0032623656721651
1.1599999999999966,-0.000542260386515,-0.0032917488549507,-0.0054381326142149
1.1699999999999875,-0.0062498663521886,-0.0004878860940447,-0.0088068288880135
1.1799999999999784,-0.0106629212237219,0.0003405775331201,-0.0095431477793012
1.1899999999999975,-0.0074150171104093,0.0005221334734918,-0.0097906223115935
1.1999999999999886,-0.0077856672817589,-0.0038289635128437,-0.0155528737129304
1.2099999999999795,-0.0046171215954685,-0.0049496640358393,-0.0155563191379267
1.2199999999999989,-0.0012103392355233,-0.0032494530882943,-0.0147761060379591
1.2299999999999898,0.0007729192823939,-0.000809727887624,-0.0071826174881586
1.239999999999981,0.0029044374648851,0.0009829443339146,0.0039484515336166
1.25,0.0005515429077817,-0.0017016743676592,0.017692245304071
1.259999999999991,0.0032445581191297,0.0005274253177867,0.0265424286702576
1.2699999999999818,0.0078728111237451,0.0043830507261274,0.0315858106640851
1.2799999999999727,0.0083951378717074,0.0063765666360631,0.0330319727269324
1.289999999999992,-0.0003626871409319,0.0021020204996286,0.0298390999733266
1.299999999999983,-0.003198918196363,0.0003908645117098,0.0187799577289155
1.309999999999974,0.0012492384220751,2.1456427443226135e-05,0.0052276307682694
1.3199999999999932,0.0062486771806905,-0.0005610579330567,-0.0077139647110824
1.329999999999984,0.0065385385661238,-0.0038237719541045,-0.0188022736428905
1.339999999999975,-0.0014471213758147,-0.007785604086488,-0.0202737161761083
1.3499999999999943,-0.0059984387624061,-0.0046618075615054,-0.0190262607664078
1.3599999999999852,-0.0050357462528113,-0.0049978588802537,-0.0175996832390495
1.369999999999976,-0.0009191980430739,-0.0003869776544584,-0.0117431204703443
1.3799999999999957,-0.0015833356166058,0.0002658915925012,-0.003066368302965
1.3899999999999864,-0.0014436528904517,-0.0022321006355325,0.0024306585854817
1.3999999999999773,-0.0014584794702152,-0.0007072258564317,0.0149651495588431
