time,Gyr_X,Gyr_Y,Gyr_Z
0.0,-0.0260468815822444,-0.0256792960636561,-0.0230821672972384
0.0100000000000051,-0.018374838653397,-0.0275463291748843,-0.0261063930074627
0.019999999999996,-0.0147351504982949,-0.0278818220836725,-0.0189625391104244
0.0300000000000011,-0.0193309925913481,-0.0207377492318257,-0.0183454552075706
0.0400000000000062,-0.0203762476377501,-0.0209624057469283,-0.0200663267416423
0.0499999999999971,-0.0161416174652071,-0.0254332288305476,-0.0160996909543672
0.0600000000000022,-0.0172727097394719,-0.0232413449699844,-0.0200498041519536
0.0700000000000073,-0.0189812985082627,-0.021820346621572,-0.0168049191768885
0.0799999999999983,-0.0236202192968638,-0.0218614749014836,-0.0159857672861378
0.0900000000000034,-0.0241579746911049,-0.0162474214040493,-0.0140713865624506
0.1000000000000085,-0.0307218589327714,-0.0152052726234183,-0.0140012346757167
0.1099999999999994,-0.0232764793588116,-0.0121898588880861,-0.0139215235543516
0.1200000000000045,-0.0187799370780707,-0.0163270632646561,-0.0124436212614533
0.1299999999999954,-0.018417714448994,-0.0113959003294219,-0.014582979852036
0.1400000000000005,-0.0190847065300595,-0.0136478819920709,-0.008048844120034
0.1500000000000056,-0.024749163961371,-0.0139264792718615,-0.0057160156276737
0.1599999999999966,-0.0242399058596151,-0.0179570173403286,-0.0054530156057223
0.1700000000000017,-0.0160674702444865,-0.0165337668226558,-0.0047432459585605
0.1800000000000068,-0.0195221658555314,-0.016156794148467,-0.0129356565424688
0.1899999999999977,-0.0165027624031342,-0.0208849456743918,-0.0189888200929114
0.2000000000000028,-0.0175278027067309,-0.0192694195522072,-0.0137197013357918
0.2100000000000079,-0.0178048165610766,-0.0160365026213432,-0.0236437183673804
0.2199999999999988,-0.017499939741508,-0.0140220963160275,-0.0169207676208086
0.2300000000000039,-0.0161235277979,-0.0062840218509854,-0.0249841829648833
0.2399999999999948,-0.0182280199888418,-0.0019747756042149,-0.0224342661521965
0.25,-0.0174950040995159,-0.0090090281440799,-0.0159977847446363
0.2600000000000051,-0.0176396854848322,-0.0061459060941767,-0.0205237803169033
0.269999999999996,-0.0089067014939213,-0.0112428083777042,-0.0170754408332557
0.2800000000000011,-0.0053904410295871,-0.010672242356229,-0.0126377215308923
0.2900000000000062,-0.01350432842814,-0.0188958885026555,-0.0160930473637306
0.2999999999999971,-0.0159190035214999,-0.0199710785133071,-0.0140487402567712
0.3100000000000023,-0.0183250827891166,-0.0063022685447635,-0.0211997761579656
0.3200000000000074,-0.0174601810587917,-0.0050867222800318,-0.0247132610187914
0.3299999999999983,-0.0191676958566437,-0.0098170234869423,-0.0279309772598209
0.3400000000000034,-0.0150223646259999,0.0040444051942448,-0.0258928544863495
0.3500000000000085,-0.012510034058543,-0.0058990166851085,-0.0305009629418233
0.3599999999999994,-0.0176299053770742,-0.0002425375377924,-0.0303472366944071
0.3700000000000045,-0.0227505462093955,0.0053909309765149,-0.0302090882171277
0.3799999999999954,-0.0265030716299864,0.0021895984254191,-0.0394441298155058
0.3900000000000005,-0.0213821795201305,0.0013325622889361,-0.0363376435089691
0.4000000000000057,-0.0212467304136945,-0.0057223643741468,-0.0349624264639315
0.4099999999999966,-0.0195745393323035,-0.0090338197677529,-0.0372787498822526
0.4200000000000017,-0.0179443233593402,-0.0075211432353643,-0.0364765696406779
0.4300000000000068,-0.0197667765992612,-0.0062594859967617,-0.0396036388300518
0.4399999999999977,-0.0171711266201834,-0.002998926914527,-0.0413284014760441
0.4500000000000028,-0.0166196006692186,-0.0062021556078823,-0.0349818425229132
0.4600000000000079,-0.018385773975068,-0.014863232049214,-0.0307729726512086
0.4699999999999988,-0.0184267086214772,-0.0062435914514483,-0.0381288228351675
0.480000000000004,-0.0184423525527379,-0.0027670788671281,-0.0326416187938773
0.4899999999999949,-0.0177007604109515,-0.0001033355144739,-0.0323980470703247
0.5,-0.0187040099898363,-0.0034170614072979,-0.0312001942678849
0.5100000000000051,-0.0175524429689943,-0.0015573663458221,-0.0314362817439728
0.519999999999996,-0.0157733042874004,0.0013524626725475,-0.0326668613470899
0.5300000000000011,-0.0087684064281647,0.0051160656268373,-0.0320018930810919
0.5400000000000063,0.001087188208621,0.0003926343441802,-0.0319072623626023
0.5499999999999972,0.0024066839906655,-0.0050928133030135,-0.0315574203189098
0.5600000000000023,-0.001418158621047,-0.0065005918567913,-0.0320956041647987
0.5700000000000074,0.0048318379492993,-0.0082850261254873,-0.0311177040943355
0.5799999999999983,0.0011345094435541,-0.0082768009482342,-0.0271600176248928
0.5900000000000034,0.0078312804240426,-0.0084470559175483,-0.025214912445383
0.6000000000000085,0.0049709074213368,-0.0168290830066132,-0.0290297334904417
0.6099999999999994,0.0074515179610342,-0.0039343926201571,-0.0296109009439371
0.6200000000000045,0.009319577547169,-0.0096311486538815,-0.0341948582563049
0.6299999999999955,0.0092831092780085,-0.0117851367603779,-0.0392230795523075
0.6400000000000006,0.0196467700071245,-0.0123903041141717,-0.0457347839559946
0.6500000000000057,0.0336843703596221,-0.0157895520148974,-0.0564838772626482
0.6599999999999966,0.0326696464797929,-0.0206989526856491,-0.0619007438652314
0.6700000000000017,0.0358355608085964,-0.0177892816644994,-0.0604858831018236
0.6800000000000068,0.0519511445519859,-0.0223600422648663,-0.0615749229164617
0.6899999999999977,0.0542288018345369,-0.0251666802116241,-0.0691828760486392
0.7000000000000028,0.0600910042001186,-0.0218415749696558,-0.0734048462854628
0.710000000000008,0.0777771604540752,-0.0249079738795599,-0.0766062313765339
0.7199999999999989,0.0856904379795842,-0.0225859544183996,-0.0858783876453368
0.730000000000004,0.1001389985987479,-0.0235715507862724,-0.0896823160121878
0.7399999999999949,0.1128171578988236,-0.0263565762186667,-0.0983417061823742
0.75,0.1284731219412015,-0.0294517154440274,-0.0952025345821542
0.7600000000000051,0.1372708482991298,-0.0316701632786903,-0.1027866693931843
0.769999999999996,0.1470481081347776,-0.0343701501368446,-0.0959099312266645
0.7800000000000011,0.1579229584377972,-0.0352354152969776,-0.0969583313361502
0.7900000000000063,0.1631396451061073,-0.0346210474996032,-0.0987279114891168
0.7999999999999972,0.1676917314030229,-0.0354385745510102,-0.1053748295915776
0.8100000000000023,0.1828253288796575,-0.0419545960561707,-0.1037393050150984
0.8200000000000074,0.1901656861881768,-0.0572143258574172,-0.1061814608519942
0.8299999999999983,0.1988724302640778,-0.0603982838617942,-0.0977227681308017
0.8400000000000034,0.194385352690111,-0.0693794392185698,-0.0945595641147027
0.8500000000000085,0.1830567948605553,-0.0835382506980439,-0.0887222750641398
0.8599999999999994,0.1634271665044685,-0.0720391110525689,-0.0886610216510436
0.8700000000000045,0.1511485410520102,-0.06462363284656,-0.0744911203521277
0.8799999999999955,0.1357920732500555,-0.0524736644989063,-0.056956942791088
0.8900000000000006,0.1273052243310397,-0.0449476138402512,-0.0471959088990117
0.9000000000000057,0.1247456410316072,-0.0297702141421838,-0.0174135180071375
0.9099999999999966,0.1046025514805494,-0.0136428581981576,-0.0008967753388112
0.9200000000000016,0.0897701056884502,-0.006658620298655,0.0278757684560618
0.9300000000000068,0.0609994517959097,0.0094804459565518,0.052657730887623
0.9399999999999976,0.0334587893206331,0.0268668753244657,0.0722240450961376
0.9500000000000028,0.0018712684651439,0.0428221627755149,0.0933951491493065
0.960000000000008,-0.0328522574916581,0.0726853899499193,0.1153117595248406
0.9699999999999988,-0.067056829355443,0.0892552286926878,0.1390937916394957
0.980000000000004,-0.0876182468499273,0.1103137401862306,0.1558066391068315
0.9899999999999948,-0.1132875560934092,0.1364432962015909,0.1753047935071464
1.0,-0.1381798560456659,0.1527639108538228,0.1969150029092481
1.0100000000000051,-0.1653596944546512,0.170735660316865,0.2222918984734795
1.019999999999996,-0.194298939006588,0.1913098262123639,0.2391986011991205
1.0300000000000011,-0.2187589486732068,0.205385262889004,0.2453268260497644
1.0400000000000065,-0.2525321140459224,0.2203629977686349,0.2555778012791004
1.0499999999999972,-0.2690535536001531,0.2248366436596262,0.2681916250102694
1.0600000000000025,-0.2885807145353344,0.2368475984721199,0.2645017406231171
1.0700000000000074,-0.297290225019059,0.2296171799846412,0.2701279753067316
1.0799999999999983,-0.2782365293505933,0.2097015739504287,0.2685354124947393
1.0900000000000034,-0.2689053426748674,0.1773858631952548,0.2590215541597153
1.1000000000000083,-0.2649583832439509,0.1386676877432602,0.2494036323061427
1.1099999999999994,-0.3012331285961981,0.0933334259558256,0.2120764886353214
1.1200000000000043,-0.3166451081227374,0.0446707868274659,0.1641346712723007
1.1299999999999957,-0.276331541179298,-0.0226595229923911,0.1139973709373126
1.1400000000000006,-0.2688227814143205,-0.0811310935943676,0.0734784489833719
1.1500000000000057,-0.252756942492681,-0.1378565900105565,0.0433026184783724
1.1599999999999966,-0.2409186189951861,-0.2035561451098146,-0.0006050101638847
1.1700000000000017,-0.2203441429505137,-0.2686746763633364,-0.063076896274333
1.1800000000000068,-0.1824389906228706,-0.3315337253486196,-0.1320061942457056
1.1899999999999975,-0.1458226370420638,-0.3883792249853626,-0.1933489360916711
1.2000000000000028,-0.100583389056268,-0.4421352674040252,-0.2546697765687451
1.210000000000008,-0.0230871590895189,-0.463517486457549,-0.2815001340757521
1.2199999999999989,0.0211287071359958,-0.4211377760871683,-0.2645654663585146
1.230000000000004,0.020389488311417,-0.3628423447139606,-0.2263727616486468
1.2399999999999949,0.0252782591417265,-0.3015251943649855,-0.2020006112385726
1.25,0.0254005666869534,-0.2409447383292953,-0.1779932667317002
1.2600000000000051,0.0275202938910833,-0.1665462476717064,-0.1648364308659208
1.269999999999996,0.029289736766138,-0.0855727222262123,-0.1370969868633478
1.2800000000000011,0.0300194901211983,-0.0078790772455982,-0.0979121047137497
1.2900000000000065,0.0111407697663693,0.0631649851475438,-0.0596680491563797
1.2999999999999972,-0.0005023641730558,0.1445040493679411,-0.0115474398291534
1.3100000000000025,-0.0103155561976626,0.2122007481290285,0.0207783165621715
1.3200000000000074,-0.0252278432684549,0.2645401937513771,0.0530909250465118
1.3299999999999983,-0.0358613793094413,0.305119120522655,0.0792746973600018
1.3400000000000034,-0.0378975758129975,0.3223570366993846,0.0929961460477629
1.3500000000000083,-0.0348714992756534,0.3389284744092903,0.0894047717426603
1.3599999999999994,-0.0333839142019741,0.3405526723142016,0.0906047232385362
1.3700000000000043,-0.0280496600454288,0.3534428386098232,0.0936955224304605
1.3799999999999957,-0.0182117043292921,0.3584844087470957,0.0781842383786691
1.3900000000000006,-0.0147535644728984,0.361507913241036,0.0635909440338447
1.4000000000000057,-0.0037884532918751,0.3805071765129624,0.0514884358513272
1.4099999999999966,0.0117497232701197,0.3843111111205505,0.0297785138528513
1.4200000000000017,0.0152779833502406,0.3855766754789472,0.0097473050777265
1.4300000000000068,0.0290092287122293,0.3619450938737575,-0.0067209574569448
1.4399999999999975,0.0207350689594216,0.3363582007719548,-0.016613804409455
1.4500000000000028,0.0122047539898765,0.3199576337788289,-0.0257873762115419
1.460000000000008,0.0033905787242411,0.3038517996087637,-0.0350084818895948
1.4699999999999989,-0.0089792723305437,0.2685151519966268,-0.0347283632396113
1.480000000000004,-0.0135885546970023,0.2446196839452846,-0.0377516408442893
1.4899999999999949,-0.0190665419884744,0.2139280768466292,-0.0298937017910597
1.5,-0.0208254258015453,0.1727831201454513,-0.021895582889123
1.5100000000000051,-0.034257521610908,0.1243719744578808,-0.0112132877422327
1.519999999999996,-0.0304070232242647,0.0746650734762947,-0.0001058096296069
1.5300000000000011,-0.0816613245837349,0.0218169705498312,0.0041723624303294
1.5400000000000065,-0.0021141747458795,-0.0748918923966507,-0.0413403197349833
1.5499999999999972,0.0058649060081955,-0.1561983775706035,-0.0630859718545199
1.5600000000000025,0.024769331044879,-0.2243545388902785,-0.0635938185606938
1.5700000000000074,0.112374118262452,-0.2826264698293816,-0.074469613427468
1.5799999999999983,0.1389918947507321,-0.3355192274088079,-0.0863306960204509
1.5900000000000034,0.1753090059439958,-0.3852079057408049,-0.0881248969249485
1.6000000000000083,0.170229496410282,-0.425400186812654,-0.0949659704636051
1.6099999999999994,0.1495455918651545,-0.4554349783784061,-0.1177366874628238
1.6200000000000043,0.1149718083955001,-0.4811689743125762,-0.1296225095858363
1.6299999999999957,0.0756752453916614,-0.4909432649030659,-0.1531286009256374
1.6400000000000006,0.050308993807053,-0.5080844592461597,-0.1738812598479647
1.6500000000000057,0.0506169403950931,-0.5102997403385106,-0.1942466549060716
1.6599999999999966,0.0832286866989935,-0.5154098606274616,-0.2221557712057642
1.6700000000000017,0.1314601215490284,-0.4911257676099622,-0.219765316904507
1.6800000000000068,0.1228228723416323,-0.4450413132560192,-0.185083794181361
1.6899999999999975,0.052768791999658,-0.36792638289506,-0.1369681566664419
1.7000000000000028,0.004726192521849,-0.3070880459829177,-0.1116055113512949
1.710000000000008,-0.0307476632835995,-0.24824889767488,-0.0918215215843395
1.7199999999999989,-0.07697559856907,-0.178022471937413,-0.0736883997554919
1.730000000000004,-0.1326524850470733,-0.109695684739515,-0.0672596488569063
1.7399999999999949,-0.1785695159652134,-0.0353770368670271,-0.0640603971257304
1.75,-0.2229394246672556,0.0460313001563993,-0.062084559159952
1.7600000000000051,-0.2640964867489555,0.1313061605876588,-0.0453098621119186
1.769999999999996,-0.294162292963483,0.1885945331574924,-0.0199820637955243
1.7800000000000011,-0.3035234554760688,0.2426762408141631,0.0074284502888794
1.7900000000000065,-0.294689774783765,0.2731013454200615,0.0399427704991335
1.7999999999999972,-0.2682235762513895,0.294223841141692,0.0600249243512364
1.8100000000000025,-0.2338170119451794,0.3333494639132793,0.070295823239102
1.8200000000000076,-0.1912157202747242,0.3555999519525156,0.0781069931095154
1.8299999999999983,-0.1394170763498354,0.3732102176346061,0.0777571131456664
1.8400000000000036,-0.0843302159432565,0.3942044970499361,0.0838734191385863
1.8500000000000083,-0.0240044491538134,0.4029842134868475,0.0927428541367218
1.8599999999999997,0.0169910177064161,0.4165491460923566,0.0865729931180269
1.8700000000000043,0.0541376021784055,0.4181493789937436,0.0864210313847028
1.8799999999999957,0.0860800543572236,0.4320761122324014,0.0805608028587257
1.8900000000000008,0.1189272891739863,0.4378028184062251,0.0732393839874371
1.9000000000000057,0.1284722659987572,0.4372100919832187,0.0683766501667052
1.9099999999999968,0.1448792236636764,0.4449295699135439,0.0536356438195411
1.9200000000000017,0.1400926129324449,0.4484734796885854,0.0473272281350706
1.9300000000000068,0.1269727093987791,0.4590531669674603,0.0351539478832146
1.9399999999999975,0.1112832059927045,0.4632974910284953,0.0456485712374861
1.9500000000000028,0.0968050568129377,0.4806389373496405,0.0598513063736498
1.960000000000008,0.0755831831359068,0.4801521791400649,0.0714527231232351
1.9699999999999989,0.0545719580186714,0.4862824358832857,0.0832279440600485
1.980000000000004,0.0261895210376295,0.4891176734338435,0.1026523981954572
1.9899999999999949,-0.0050740686535951,0.4812362369439809,0.1171836761257428
2.0,-0.0330253653286299,0.4686429532293752,0.1295330570774382
2.010000000000005,-0.0695979379368903,0.4533362920189623,0.1360612985758047
2.019999999999996,-0.0918404109674929,0.4329377943365636,0.1473751950934025
2.030000000000001,-0.1232789628990002,0.4058100041117896,0.1598276058826482
2.0400000000000063,-0.1404563795792562,0.3806867717330746,0.1740729119799004
2.049999999999997,-0.1376462335781547,0.3544083869880884,0.1893444754169698
2.0600000000000023,-0.1336850370385973,0.3192396781785442,0.1982547236568779
2.0700000000000074,-0.1113371825309028,0.2742930611536535,0.2031142855439051
2.0799999999999983,-0.0907118460246143,0.2256635477594947,0.1910438643331307
2.0900000000000034,-0.0789851401309895,0.1846881909709374,0.1691592372908766
2.1000000000000085,-0.0652144969849411,0.1391407121024077,0.1437243836550407
2.1099999999999994,-0.0650003263223816,0.1072243449199061,0.1234023847873703
2.1200000000000045,-0.0472485234008052,0.0758141998037015,0.1096831877699117
2.1299999999999955,-0.0416706903888489,0.0485057962237239,0.113376106480606
2.140000000000001,-0.0359527878292001,0.0241372076773285,0.1093289591265051
2.1500000000000057,-0.0278290393660247,-0.0008321874379418,0.0982257796776694
2.1599999999999966,-0.0250623429240946,-0.0065277941541726,0.0855872072205773
2.1700000000000017,-0.0355885948647293,-0.00802037608555,0.0685527886720813
2.180000000000007,-0.0448161535913205,-0.0171594400796099,0.0672037738879123
2.1899999999999977,-0.0429288347268155,-0.0157341405963765,0.05436588195326
2.200000000000003,-0.0433021273582527,-0.001017153188056,0.0525826430777375
2.210000000000008,-0.0447543502751918,0.0042530664475467,0.0532846449938573
2.219999999999999,-0.0358374404202656,0.0120386878876611,0.0533238801351329
2.230000000000004,-0.0318499416318234,0.0110617518010426,0.0532049114109489
2.239999999999995,-0.0222140612141616,0.0086264529444575,0.0435141660285569
2.25,-0.0198180912044411,0.0053823439494466,0.0313775187108173
2.260000000000005,-0.0149197041143378,-0.003922159555974,0.0177848532618478
2.269999999999996,-0.0132765307056543,-0.020811899217302,-0.0011396812779008
2.280000000000001,-0.0192780618706739,-0.0272119951983907,-0.0122739258129516
2.2900000000000063,-0.0245170362339954,-0.0436409447203881,-0.0164716694917382
2.299999999999997,-0.0200061842274742,-0.0534148038959205,-0.0147106409556221
2.3100000000000023,-0.0181241048857474,-0.0480453938259649,-0.01393140859004
2.3200000000000074,-0.0165289897132839,-0.0619973341199334,-0.0148144936474702
2.3299999999999983,-0.00796703561465,-0.075256157242553,-0.0159902343732103
2.3400000000000034,-0.0012659147004853,-0.0880526618209683,-0.0208023916212735
2.3500000000000085,0.0028402392521236,-0.0965855086704108,-0.0211838122362923
2.3599999999999994,0.0010844872742764,-0.099555154243982,-0.0233205969505802
2.3700000000000045,0.0031258667474594,-0.098361894121097,-0.0116422620370182
2.3799999999999955,-0.0089657692922986,-0.0955364256466623,-0.006241268217376
2.390000000000001,-0.0227836142214473,-0.0753935566796256,0.00457396922696
2.4000000000000057,-0.0164898265876212,-0.0612868564516921,0.0204358024011528
2.4099999999999966,-0.0232877998021906,-0.0433548896005424,0.0244708648791652
2.4200000000000017,-0.0268491059018581,-0.0401486866766463,0.0369890483008251
2.430000000000007,-0.0235833398073704,-0.0282558931997127,0.0470869234121682
2.4399999999999977,-0.0293307631124662,-0.0173414202624253,0.0459104979240072
2.450000000000003,-0.0412871913459332,-0.022011414751068,0.0421046489452931
2.460000000000008,-0.0505472573019206,-0.0210725848458069,0.0374814942821733
2.469999999999999,-0.0437789188661114,-0.0134531874580442,0.0384266369753227
2.480000000000004,-0.0432805207227407,-0.0023687809395544,0.0415824341509625
2.489999999999995,-0.0408227765661975,0.003009484574469,0.0455384247570197
2.5,-0.0386047151752473,0.0210540320703252,0.0535518780262327
2.510000000000005,-0.0334382715727559,0.0285747056208944,0.0633193250594847
2.519999999999996,-0.0329964687763946,0.035349977921517,0.0575317979637725
2.530000000000001,-0.0321157277768129,0.0538633439198044,0.0547635308039601
2.5400000000000063,-0.0260510265620454,0.0594682753748316,0.0477339554647079
2.549999999999997,-0.0246368930342874,0.0768114654630891,0.0400613751370953
2.5600000000000023,-0.0178358515106065,0.0826138045826101,0.0450669396694034
2.5700000000000074,-0.0211164175005268,0.0923931949047277,0.0437237107860593
2.5799999999999983,-0.0327915149423546,0.1078509133527295,0.0468840722128188
2.5900000000000034,-0.038008664194401,0.1127124584659241,0.0365801657446128
2.6000000000000085,-0.0605627281559717,0.1112383311552565,0.0326569262607241
2.6099999999999994,-0.0551010985558626,0.1125694341022845,0.0212757178858501
2.6200000000000045,-0.0606203978102452,0.1013269618064519,0.0199217453972277
2.6299999999999955,-0.0456693756306817,0.1009602773287963,0.0170347170511552
2.640000000000001,-0.0385364762709549,0.1037028412617622,0.0124998495725976
2.6500000000000057,-0.0430589722272628,0.0872272434879916,0.027183267171357
2.6599999999999966,-0.0303424648330227,0.0794726502007504,0.0392638853697583
2.6700000000000017,-0.0297407012352686,0.0754264488785581,0.0438285191384812
2.680000000000007,-0.0292645437089504,0.0655860131120783,0.0429987931585238
2.6899999999999977,-0.0259471526766595,0.0521355949290655,0.0398236486318499
2.700000000000003,-0.0284732100364218,0.0462135306111573,0.0421414239523504
2.710000000000008,-0.0318471126236138,0.0313790844751134,0.0290374264811745
2.719999999999999,-0.0261800588501862,0.0325114890750882,0.0137901268563091
2.730000000000004,-0.0207248146693805,0.0181005806606989,-0.0059204992183652
2.739999999999995,-0.0173217677045065,0.0057280234170484,-0.0212757566428509
2.75,-0.0062291717836107,-0.0033776974752646,-0.0288640686256884
2.760000000000005,0.0057596820653221,-0.0129415082752929,-0.0421375109025094
2.769999999999996,0.0080791954149211,-0.0190201804411649,-0.0462957619465022
2.780000000000001,0.0095165581837232,-0.0174610975920283,-0.0421973529123127
2.7900000000000063,0.0319677323576564,-0.015866509545159,-0.0372619501739145
2.799999999999997,0.0350530546729302,-0.0138675979798289,-0.0354465279666519
2.8100000000000023,0.0410182370308453,-0.0021616638529039,-0.0388763376928818
2.8200000000000074,0.0424659072858807,0.0001708693024346,-0.0331526458129474
2.8299999999999983,0.033330155451421,0.0001627894572738,-0.0315143361771712
2.8400000000000034,0.0347403901200572,-0.0035428712699974,-0.03217188443016
2.8500000000000085,0.024291064595332,0.0040010543981286,-0.0296552546238817
2.8599999999999994,0.0260366314259068,0.0033116277752287,-0.0304905563886734
2.8700000000000045,0.0188309315524435,0.0028134894181124,-0.0249379912292475
2.8799999999999955,0.0063999290088088,0.0031588676073641,-0.0120930969818868
2.890000000000001,0.0068744967798196,0.0079693454854187,-0.0049559917310222
2.9000000000000057,-0.0029680945373963,0.0146410130667233,-0.0016108962843831
2.9099999999999966,-0.0189557774674818,0.0085524162713276,-0.0077046615632419
2.9200000000000017,-0.026327263974851,0.0170195912295144,-0.010147972653093
2.930000000000007,-0.0361333312689959,0.021780606315575,-0.0138626205965299
2.9399999999999977,-0.0390853895001974,0.0223341319524633,-0.0097131124749145
2.950000000000003,-0.0176999351968794,0.0287957058832998,-0.0076733303887719
2.960000000000008,-0.0049093574329147,0.0302823527658182,-0.0006771386312981
2.969999999999999,0.006208481798065,0.0248384067748811,0.0120614070570311
2.980000000000004,0.0114782007099598,0.0115268666560973,0.0236925176397977
2.989999999999995,0.0254186374145433,0.0045283511568248,0.0450139799475511
3.0,0.0248041154399006,-0.0131672464325116,0.0678494488064347
3.010000000000005,0.0340207652571157,-0.0300983618274152,0.0783259051502256
3.019999999999996,0.0414126978763681,-0.0459749215058446,0.0993557502690445
3.030000000000001,0.0783051276602326,-0.0838001583168677,0.1007736355531863
3.0400000000000063,0.0351986526365594,-0.1205861684310337,0.1206706665975392
3.049999999999997,-0.0532493206345675,-0.1443968898291139,0.1466720558211117
3.0600000000000023,-0.0723589241615882,-0.1635889766856086,0.1388965233862302
3.0700000000000074,-0.0946736906741549,-0.1872123282200564,0.1346648477656846
3.0799999999999983,-0.1038401506613957,-0.2132806670436181,0.1275918564062337
3.0900000000000034,-0.0908364543246109,-0.2420483839983428,0.108435247846729
3.1000000000000085,-0.0792264528688508,-0.2790001310572541,0.0937675423291717
3.1099999999999994,-0.056920718019993,-0.3078027218924761,0.0927315083498048
3.1200000000000045,-0.0159086021507537,-0.3339133555062379,0.1112348990031536
3.1299999999999955,0.0369879586785134,-0.3498157506480338,0.1427835158328874
3.140000000000001,0.0676492760023196,-0.3708303899016302,0.1833157565185988
3.1500000000000057,0.0822964962439372,-0.377468634513906,0.2242256268899671
3.1599999999999966,0.0710391371743628,-0.3888286533984683,0.2504208381123977
3.1700000000000017,0.0479455512629482,-0.4074513112874524,0.2824418639380786
3.180000000000007,0.0221609856315464,-0.4283867802491091,0.3151523107552114
3.1899999999999977,-0.0095657727579471,-0.4599047755580772,0.3342535770163546
3.200000000000003,-0.0511060739045605,-0.484495402933183,0.353200777565645
3.210000000000008,-0.0750945963342886,-0.5157420532942883,0.3640614739836856
3.219999999999999,-0.0842256584209165,-0.5396396049741808,0.364797938536148
3.230000000000004,-0.0729339389851985,-0.5620560355889601,0.3704847820796234
3.239999999999995,-0.0359473696678903,-0.5777556269681506,0.3718485161807443
3.25,0.0034863229857203,-0.5780556279651469,0.3670781096676198
3.260000000000005,0.0512710798774762,-0.5776492036698584,0.3551323891907635
3.269999999999996,0.0927501187731707,-0.5834162852793555,0.3343808088080829
3.280000000000001,0.1256128115896008,-0.5807619583379312,0.318631640570196
3.2900000000000063,0.128951574083942,-0.5583648432691649,0.2933720922305817
3.299999999999997,0.134310306664347,-0.5320375597766567,0.2710019053054666
3.3100000000000023,0.1478341810478968,-0.5008541456694309,0.2504229890481208
3.3200000000000074,0.1731281996646096,-0.4584631092954154,0.2134885422808363
3.3299999999999983,0.1976112578391826,-0.419429170038579,0.1834925969012071
3.3400000000000034,0.2204434817686796,-0.372966361591919,0.1463213842237725
3.3500000000000085,0.2306447610634347,-0.3441065167170357,0.1007514992313991
3.3599999999999994,0.2424314806115895,-0.3066701058284302,0.0735987731470654
3.3700000000000045,0.2607253091587875,-0.2890948300228388,0.054670499685657
3.3799999999999955,0.2593317841188156,-0.2573152768474959,0.0507248758562745
3.390000000000001,0.2478481892479163,-0.2293413861874249,0.0488266072068621
3.4000000000000057,0.2302912702336386,-0.2078614101505946,0.0523766558075753
3.4099999999999966,0.2296328728713071,-0.1749421596994144,0.0693424756873577
3.4200000000000017,0.2150101542896429,-0.1576613653092022,0.0877725133345535
3.430000000000007,0.2220179324677283,-0.1326142498138174,0.1100369123990078
3.4399999999999977,0.2347248222897983,-0.1152579637235114,0.1327178083968434
3.450000000000003,0.2582155631529906,-0.0992168968981787,0.1577933989835615
3.460000000000008,0.2767071462187156,-0.096481844250931,0.1904903082074989
3.469999999999999,0.2966207481460157,-0.0939348077940127,0.2210213647843168
3.480000000000004,0.2994322162983777,-0.0772455803452233,0.2547197287492566
3.489999999999995,0.2902788570996564,-0.072670161455797,0.2851519710727254
3.5,0.2938225632937977,-0.0593332811975357,0.3057857990202456
3.510000000000005,0.2899672997302375,-0.0435642447460062,0.3138168791002682
3.519999999999996,0.2912781233856514,-0.043295120412505,0.3361270720231925
3.530000000000001,0.282371543947742,-0.0410340248710435,0.3731820503805251
3.5400000000000063,0.2666477012361843,-0.0442268546519333,0.3997108709224706
3.549999999999997,0.2520601468413117,-0.0430609787426172,0.4256688950066244
3.5600000000000023,0.2140356643947879,-0.052582482340236,0.4420540481634558
3.5700000000000074,0.184589654085986,-0.0526888206096169,0.4492853882293267
3.5799999999999983,0.142372044596623,-0.0552941428076505,0.4471861225025259
3.5900000000000034,0.1082613253218647,-0.0503813962880557,0.4322714035501728
3.6000000000000085,0.0769762123756897,-0.0561765855696138,0.4260353205647756
3.61,0.041639263923667,-0.0526051398783295,0.4202343057894268
3.620000000000005,0.0217100300184482,-0.0425882825730146,0.4124893069086345
3.629999999999996,-0.0074481498994822,-0.0371086141665512,0.4148348064429769
3.640000000000001,-0.0449648888911697,-0.0358670530024835,0.407824867150263
3.6500000000000057,-0.1033752139632939,-0.0360785090986713,0.4125758029705394
3.6599999999999966,-0.1554333398348396,-0.032462457925341,0.4000437671894211
3.6700000000000017,-0.1899567285423822,-0.0295394616673406,0.3935158307706204
3.680000000000007,-0.222112103670075,-0.029039739495362,0.3918638728078983
3.6899999999999977,-0.2420138171331373,-0.0336049254563387,0.3855862311237338
3.700000000000003,-0.2442241444011467,-0.0435603216798345,0.4019541868334366
3.710000000000008,-0.247659911687418,-0.0517386490487989,0.4187684317228298
3.719999999999999,-0.2627136891312889,-0.0524678912113382,0.4325342703415918
3.730000000000004,-0.2698960558849053,-0.0654699137005069,0.4438074387442046
3.739999999999995,-0.2813139865621155,-0.0780894986466948,0.4529845432947582
3.75,-0.3015695375678123,-0.075406302689563,0.4696961065473169
3.760000000000005,-0.3268054588673972,-0.0926066292455892,0.4927786535291775
3.769999999999996,-0.348154385136309,-0.0982010029979498,0.517982232833075
3.780000000000001,-0.3713428274651472,-0.1140187233362302,0.5423682511384242
3.7900000000000063,-0.3937538511933485,-0.1240850292444566,0.5628068087513851
3.799999999999997,-0.4081067422117206,-0.1385900170993379,0.5813130180833528
3.8100000000000014,-0.4183879112987942,-0.1596323688967796,0.5969482353721107
3.820000000000008,-0.4222920629426102,-0.1806392496639854,0.6054955752120224
3.8299999999999983,-0.4297511274745313,-0.2136223839689992,0.6089686907531373
3.8400000000000034,-0.430282272233974,-0.2376288494405655,0.6068161061671647
3.850000000000009,-0.4364951078414577,-0.2652184129579503,0.6098464303827232
3.86,-0.4447693166665693,-0.2731098577230702,0.6099163043211469
3.870000000000005,-0.4508610561034077,-0.2979655837993719,0.619391537855078
3.879999999999996,-0.4506810516889301,-0.3131458524863734,0.625217377792744
3.890000000000001,-0.4542244130957117,-0.3272085257835622,0.6226527465555662
3.9000000000000057,-0.4507221136615387,-0.3473047686607077,0.6238824629988046
3.9099999999999966,-0.4514936411895039,-0.3646406211199258,0.6299907682440185
3.9200000000000017,-0.4372013598574089,-0.3970461360051913,0.6438802007349886
3.930000000000007,-0.4235711140357981,-0.417438555398791,0.6610532726402607
3.9399999999999977,-0.4198048163878266,-0.4278536128049313,0.6816459493800725
3.950000000000003,-0.414879420733848,-0.443994392375026,0.6872658780433295
3.960000000000008,-0.4075949841487464,-0.4525884135528379,0.697232715879302
3.969999999999999,-0.3997256028142332,-0.4535449228798805,0.7042071206136066
3.980000000000004,-0.4002920771513956,-0.4515997149933454,0.7039621298729697
3.989999999999995,-0.3977455475257827,-0.4399264747772907,0.7081512374382825
4.0,-0.4088096177414896,-0.4382927994594229,0.7175981272437671
4.010000000000005,-0.4177897299118485,-0.4440893528294332,0.7351526682264475
4.019999999999996,-0.4252557673729518,-0.4465003195704556,0.7687705508493288
4.030000000000001,-0.4349390760415727,-0.4584298228235662,0.80144835511676
4.040000000000006,-0.4607044509330362,-0.4481000560408507,0.8312490060933471
4.049999999999997,-0.4804531577142631,-0.4366637268758585,0.8675095722120147
4.060000000000002,-0.4858828963110198,-0.4303077666254082,0.9030303727267524
4.070000000000007,-0.4935301850347097,-0.4087264146655687,0.9335309633750594
4.079999999999998,-0.4918779992875515,-0.3873625274308584,0.9731943712094354
4.090000000000003,-0.4743689207133011,-0.3688859051996631,1.0116782501500827
4.1000000000000085,-0.4721613516327134,-0.3503826002744377,1.0474300592935273
4.109999999999999,-0.4744717944225546,-0.3359446110900539,1.0795822937720758
4.1200000000000045,-0.4902752771050416,-0.3282999867610608,1.1290678719922913
4.129999999999996,-0.512566795435092,-0.3199846720717937,1.199329637930285
4.140000000000001,-0.5392044208346894,-0.3158714060426324,1.2720114086257648
4.150000000000006,-0.582703527371239,-0.3287219951023919,1.3544343967762
4.159999999999997,-0.6095472838070466,-0.3439692315585596,1.4331114099004585
4.170000000000002,-0.6364962613874889,-0.3652614495604019,1.5020807968387917
4.180000000000007,-0.6575947548532801,-0.3955071430152082,1.5807607838436404
4.189999999999998,-0.7024156081571373,-0.4241246070597469,1.6623940439898133
4.200000000000003,-0.7379213613815001,-0.4577885252265427,1.7482161468226858
4.210000000000008,-0.7780752477579345,-0.4883042944112638,1.840945246572644
4.219999999999999,-0.8337211992677674,-0.5326495286153151,1.9368912902618092
4.230000000000004,-0.8975373244186604,-0.5642190884397491,2.045726000784316
4.239999999999995,-0.9841969529735074,-0.6174444316941199,2.1531884793695637
4.25,-1.0802791379175376,-0.672667579786276,2.253561744650568
4.260000000000005,-1.2107874061900163,-0.7197126387292067,2.362042135205085
4.269999999999996,-1.3369285209265778,-0.7706535529456379,2.4574286266771934
4.280000000000001,-1.4561925471992885,-0.8261059974119608,2.560357026832591
4.290000000000006,-1.5782481026657147,-0.8844433730690483,2.650547804514881
4.299999999999997,-1.6599797144927282,-0.9503542702590352,2.7340556332158843
4.310000000000002,-1.7288632217121718,-1.027386207259139,2.80219993325992
4.320000000000007,-1.787075132761707,-1.0938899619462272,2.846463197183549
4.329999999999998,-1.84547310585958,-1.161864617615472,2.884867669692423
4.340000000000003,-1.8890146069285645,-1.22767502443316,2.913726526009384
4.3500000000000085,-1.944347640956595,-1.296354487365867,2.9426970695503485
4.359999999999999,-1.997281558217821,-1.3527561557731675,2.96587961019117
4.3700000000000045,-2.0428258064401703,-1.4146073743639516,2.9777308687513977
4.379999999999996,-2.084072178424825,-1.453784363645459,2.991381262405921
4.390000000000001,-2.130385680077701,-1.5052081474545356,3.0059581703007585
4.400000000000006,-2.191208052645114,-1.5442918330265871,2.997393153006752
4.409999999999997,-2.24402411955164,-1.5735554824552829,2.990831378449981
4.420000000000002,-2.303423251445417,-1.6140478584824531,2.976800503764617
4.430000000000007,-2.381627972566588,-1.6564708045596428,2.966157649137493
4.439999999999998,-2.466297769913751,-1.7100658093809566,2.9421676195117583
4.450000000000003,-2.556487071054979,-1.7396642240250713,2.9094906673736154
4.460000000000008,-2.623773765108324,-1.762791358890914,2.8711365224090577
4.469999999999999,-2.6705954607462714,-1.7870291410364354,2.828145203678029
4.480000000000004,-2.7026409690908597,-1.7952038119913505,2.768444394079658
4.489999999999995,-2.713953818944658,-1.8032038167779485,2.684886048476686
4.5,-2.714828532315258,-1.8120876578746072,2.5962144412592103
4.510000000000005,-2.730987478667466,-1.7943789040390947,2.487317675521116
4.519999999999996,-2.7596019799039757,-1.7735578644597698,2.37270053160391
4.530000000000001,-2.7943578722671454,-1.7519808690483425,2.2556056978515864
4.540000000000006,-2.82914655155104,-1.6959216359017584,2.128518565949934
4.549999999999997,-2.848091122932838,-1.634995578388771,1.9773061882990133
4.560000000000002,-2.821810156357634,-1.546059653101767,1.8029369904166908
4.570000000000007,-2.7697209504547757,-1.4357439708370678,1.5975696721063632
4.579999999999998,-2.701962204383362,-1.3192429423434415,1.3437588777153928
4.590000000000003,-2.6384471074443447,-1.1827957693567568,1.0778710074485265
4.6000000000000085,-2.580389001727416,-1.036702658344244,0.7905054596186889
4.609999999999999,-2.521832113520312,-0.8717444933344823,0.4888336120966414
4.6200000000000045,-2.452670864570077,-0.6811022485996389,0.1799834650050754
4.629999999999996,-2.356534223837153,-0.4686968149958323,-0.145335329739579
4.640000000000001,-2.2540840979123957,-0.2499943978074926,-0.4742365102790313
4.650000000000006,-2.13966805950347,-0.0198167685866778,-0.8122443843390675
4.659999999999997,-2.0345896431217665,0.2053543287197472,-1.145054725842761
4.670000000000002,-1.9550681287010567,0.4311704304709778,-1.475397773584183
4.680000000000007,-1.869114251523601,0.6474898526400611,-1.78823648037086
4.689999999999998,-1.7969419431914635,0.8458961524720514,-2.0894567546364
4.700000000000003,-1.7443037615849162,1.0305755106004242,-2.385188081091425
4.710000000000008,-1.6949597313643072,1.2139887130834974,-2.6480557026050566
4.719999999999999,-1.664372753293074,1.3905469520732123,-2.891097923697915
4.730000000000004,-1.6454483513563298,1.5677401532617306,-3.1141258336773494
4.739999999999995,-1.6267546430832711,1.7339772922032808,-3.316395180754377
4.75,-1.6072434951356231,1.8801889806352687,-3.512523636598343
4.760000000000005,-1.5732689116690242,2.005994756203546,-3.6840333799490352
4.769999999999996,-1.5246812799906213,2.118645800094783,-3.834314321392791
4.780000000000001,-1.4661699362562484,2.197614818119348,-3.960583109495892
4.790000000000006,-1.4052801913015496,2.2541889017207675,-4.057266888794683
4.799999999999997,-1.3571455265311536,2.306341791655308,-4.144087649565887
4.810000000000002,-1.3367273044958905,2.362857165713121,-4.209810974104904
4.820000000000007,-1.3183690567772113,2.423945476378487,-4.274544734240228
4.829999999999998,-1.3017992316831604,2.502944707423276,-4.339706313908157
4.840000000000003,-1.2786570735643368,2.5831615676746447,-4.393877234673121
4.8500000000000085,-1.2000540818733487,2.6877768888720723,-4.456703344770368
4.859999999999999,-1.0945040767937029,2.850167374905279,-4.557905307728063
4.8700000000000045,-1.0435546420394544,3.015242264099057,-4.614089773526123
4.879999999999996,-1.0199102514847342,3.174598438992539,-4.627042878355917
4.890000000000001,-1.0029914024501223,3.3134340459285943,-4.5942601169325
4.900000000000006,-0.952177982475133,3.4576099238410385,-4.544565134338967
4.909999999999997,-0.8685650310151283,3.586300467838266,-4.488839789769648
4.920000000000002,-0.7708617460772655,3.7053151265336464,-4.456520504762606
4.930000000000007,-0.6607392898354206,3.826034600059146,-4.45077477320785
4.939999999999998,-0.5438085877881664,3.930525088595408,-4.458026585359799
4.950000000000003,-0.4480042012133258,4.015169561921279,-4.4721866519405244
4.960000000000008,-0.3784547586025458,4.08981455545998,-4.486084330598176
4.969999999999999,-0.3316271201963626,4.15686114515783,-4.499540447793769
4.980000000000004,-0.2961356085165641,4.211035370464612,-4.53041265262396
4.989999999999995,-0.257289196911294,4.258432180994954,-4.552612123545591
5.0,-0.2116781875029064,4.293768762382715,-4.581260715643652
5.010000000000005,-0.1504064281931765,4.324645364402641,-4.6207217667147065
5.019999999999996,-0.0885809732760837,4.349982137330926,-4.657930706877449
5.030000000000001,-0.0272552637891457,4.374208242474119,-4.69606838184222
5.040000000000006,0.0284802920485667,4.392078749423167,-4.73544246171815
5.049999999999997,0.0792254878469951,4.409701532725477,-4.753154859400721
5.060000000000002,0.1276202629885503,4.406454433003835,-4.759794215800698
5.070000000000007,0.1633480668310974,4.418875511515805,-4.752357109916608
5.079999999999998,0.1760406047928439,4.432167536033338,-4.739745375894764
5.090000000000003,0.186977523992294,4.444467795785212,-4.714071630518611
5.1000000000000085,0.1933013120557312,4.455738042133819,-4.676265426880625
5.109999999999999,0.1924139026921761,4.470641747875075,-4.629693848043622
5.1200000000000045,0.1778189932036462,4.4720800791159006,-4.562846178623491
5.129999999999996,0.1618413829867829,4.474515938353998,-4.505093323749211
5.140000000000001,0.1367943027923678,4.470026795644178,-4.449249224323434
5.150000000000006,0.0929053119213615,4.464229434546606,-4.384543784902024
5.159999999999997,0.0620681951348941,4.466172279231343,-4.31809197207216
5.170000000000002,0.0112017057967107,4.463957908978427,-4.220475754873612
5.180000000000007,-0.0509146384851644,4.446282810339733,-4.10743653856563
5.189999999999998,-0.1140522343137155,4.440116137120786,-3.9814372546277226
5.200000000000003,-0.1863380394801787,4.434599935655423,-3.851347709701024
5.210000000000008,-0.2442173865862207,4.414236644027942,-3.7094367912436974
5.219999999999999,-0.3081863857432509,4.416145583868076,-3.569035437555838
5.230000000000004,-0.3658158870710605,4.390966901872193,-3.4265370076028026
5.239999999999995,-0.4162382096438766,4.367328413995452,-3.279420060434962
5.25,-0.4752801999928935,4.329346908850493,-3.135404183265276
5.260000000000005,-0.5143072989642377,4.295281141160298,-2.9948384432360458
5.269999999999996,-0.5718241478218355,4.242058582866348,-2.87400407627746
5.280000000000001,-0.6577301279118678,4.19096490210181,-2.74523084359028
5.290000000000006,-0.6934949338611595,4.142664065569637,-2.630980572886985
5.299999999999997,-0.7347938685627773,4.088768962281965,-2.518703617565488
5.310000000000002,-0.7700216247878857,4.041178085162644,-2.4023494781620114
5.320000000000007,-0.7671976871665411,3.9793062495548135,-2.291574361340996
5.329999999999998,-0.7404025315082675,3.917698377974732,-2.189834611117244
5.340000000000003,-0.7097452903671037,3.846223371644057,-2.095748071280137
5.3500000000000085,-0.6796592565004853,3.756474270508115,-1.9922269170197784
5.359999999999999,-0.6614008284526814,3.645997777956769,-1.8969586667081688
5.3700000000000045,-0.6605938295969488,3.5163659091542856,-1.8017493053927016
5.379999999999996,-0.6748887358333968,3.371814555789643,-1.7200497409496829
5.390000000000001,-0.7052523678880335,3.2147929573813245,-1.6314114211319644
5.400000000000006,-0.7307703657807497,3.0408068386693548,-1.53812229822126
5.409999999999997,-0.7452962927482366,2.8541467050126443,-1.417425957695774
5.420000000000002,-0.740348595569366,2.6631299951609257,-1.2706790094852696
5.430000000000007,-0.7416356052177631,2.4511979661295378,-1.1170742822145692
5.439999999999998,-0.7428092442571559,2.21917488572444,-0.9524959206982836
5.450000000000003,-0.7629172201901541,1.9597020050914973,-0.7912872370881086
5.460000000000008,-0.7877855489874332,1.681120924071956,-0.6191266976627142
5.469999999999999,-0.805027868282748,1.3909014935440824,-0.4613932730835388
5.480000000000004,-0.8455913312546497,1.0866138251361213,-0.3084143730976003
5.489999999999995,-0.8703296266813947,0.7736838044891489,-0.1714924351473436
5.5,-0.912040940682056,0.4520083164239378,-0.0382517820330434
5.510000000000005,-0.9537765896174816,0.1284435981777782,0.0878868411548311
5.519999999999996,-1.0162700815703332,-0.1790974417218404,0.2022791951858003
5.530000000000001,-1.0871679549554976,-0.4911907588814275,0.3172219832486074
5.540000000000006,-1.1731716513044232,-0.7920006015614407,0.4264728576317167
5.549999999999997,-1.257611078850784,-1.058147649640948,0.5375221073147969
5.560000000000002,-1.3621358140940654,-1.320717191462163,0.6451845753328425
5.570000000000007,-1.4709701158012622,-1.5482465624005788,0.7531695555185954
5.579999999999998,-1.5952689785816685,-1.768397993629956,0.8610915344315071
5.590000000000003,-1.7178703456676785,-1.9734472425008216,0.968155805028652
5.6000000000000085,-1.8278437105166967,-2.1582041426970164,1.0709514949696064
5.609999999999999,-1.9285489740598445,-2.327066443511088,1.1680204119883797
5.6200000000000045,-2.0190439617475144,-2.479519913370594,1.2602932086364125
5.629999999999996,-2.1016097785208587,-2.6173025715474663,1.3629975761215756
5.640000000000001,-2.1754523610759637,-2.7248017651126184,1.458609012887924
5.650000000000006,-2.257049421412393,-2.83343920773133,1.5683471042364037
5.659999999999997,-2.3257931138563697,-2.906752138190281,1.680623628786247
5.670000000000002,-2.381576533878385,-2.966885799091023,1.7891703969869093
5.680000000000007,-2.423642692459422,-3.0133892493683185,1.8977154637820817
5.689999999999998,-2.456420713552011,-3.041987550296031,1.99515025747931
5.700000000000003,-2.486515139065298,-3.0682509091539503,2.097024560854839
5.710000000000008,-2.50051559413354,-3.0673578674885214,2.192835242413316
5.719999999999999,-2.53491630673802,-3.063705461197612,2.29295074436272
5.730000000000004,-2.571179203192808,-3.057317391520061,2.384508003093726
5.739999999999995,-2.609634364539824,-3.043395910698967,2.4769620647560227
5.75,-2.644315656791357,-3.034989683134749,2.5649679455661536
5.760000000000005,-2.677185425160533,-3.0255658495143973,2.6371963463896155
5.769999999999996,-2.7116558352993487,-3.0152656654514693,2.7062399071758283
5.780000000000001,-2.720303018043838,-3.009909100311854,2.7607030793662384
5.790000000000006,-2.727807760274142,-3.008522084834469,2.820014481518168
5.799999999999997,-2.7315904851918296,-3.018234056399074,2.8747444599940626
5.810000000000002,-2.7430327976227398,-3.037737160302351,2.920671297663441
5.820000000000007,-2.776677516239728,-3.0756298890405165,2.9654988137223657
5.829999999999998,-2.820272704315116,-3.128425646634788,2.997156712083852
5.840000000000003,-2.845489031110117,-3.195431255443739,3.025958940873475
5.8500000000000085,-2.850957796213692,-3.2691320734036147,3.038339309177992
5.859999999999999,-2.8506947938647142,-3.3443631452390696,3.040914166152304
5.8700000000000045,-2.800100453902765,-3.426565222040175,3.035169853963368
5.879999999999996,-2.7373227064147327,-3.506196320185787,3.0261035285645805
5.890000000000001,-2.674816165357337,-3.5943528116491885,3.0111724369451145
5.900000000000006,-2.610817987958079,-3.680405720378312,2.9938048875152106
5.909999999999997,-2.54623362361357,-3.773763772233511,2.974069571546736
5.920000000000002,-2.4755027734572588,-3.859584477102085,2.959568734503575
5.930000000000007,-2.406461615734785,-3.954790110096774,2.9397490524491
5.939999999999998,-2.332692382034413,-4.047072081519027,2.9134925818459463
5.950000000000003,-2.254241433724902,-4.129373634610072,2.8785487511160928
5.960000000000008,-2.162726052018109,-4.207640287273695,2.8498151340465485
5.969999999999999,-2.073739902283142,-4.2869677911296495,2.8204308894403542
5.980000000000004,-1.968379443683304,-4.341746297485684,2.8061791741212505
5.989999999999995,-1.866613114874312,-4.402727907303054,2.8004324815091217
6.0,-1.7683006306762372,-4.453576568905315,2.830303276072732
6.010000000000005,-1.7071098094523685,-4.4985399103178825,2.8682626503078974
6.019999999999996,-1.6823399961159564,-4.548269303373898,2.9187749244146555
6.030000000000001,-1.6678310729046375,-4.592104484644086,2.9580000060231963
6.040000000000006,-1.666311305665677,-4.618041271785525,3.00359590969975
6.049999999999997,-1.6275490155339496,-4.629842981087522,3.0502785982691702
6.060000000000002,-1.5471164884408497,-4.635951896814295,3.095367047001978
6.070000000000007,-1.460649983106035,-4.629628727774926,3.1426967539865407
6.079999999999998,-1.3573890916017728,-4.620352389955113,3.200556104004684
6.090000000000003,-1.262241951528332,-4.600113762956705,3.247219390574255
6.1000000000000085,-1.219060539314852,-4.581474419807155,3.2738795696086647
6.109999999999999,-1.1972827413829932,-4.553590111520404,3.2665630468707563
6.1200000000000045,-1.1950229322501402,-4.519456640904868,3.236775292064919
6.129999999999996,-1.1944051002337162,-4.467069134515427,3.190373536660468
6.140000000000001,-1.160112108914081,-4.408691771279711,3.1415972837349107
6.150000000000006,-1.1028003463185692,-4.339209618064129,3.109459836131443
6.159999999999997,-1.0331471861032329,-4.261319432824814,3.08626942127132
6.170000000000002,-0.9540383474411364,-4.184259679453562,3.063988590114194
6.180000000000007,-0.8901725272941855,-4.109721373213048,3.0380016037795734
6.189999999999998,-0.8652133262710769,-4.041185502569453,3.000880301539018
6.200000000000003,-0.8651534426641629,-3.951357539786303,2.961311946718685
6.210000000000008,-0.9260064576302368,-3.87944274927598,2.904406893506194
6.219999999999999,-1.0260228728267653,-3.7819030355339742,2.824005593372741
6.230000000000004,-1.1114651705886254,-3.67447793224704,2.7341839809346054
6.239999999999995,-1.1685680452547031,-3.561577686176244,2.637450105894225
6.25,-1.1956823016043114,-3.4461646268029917,2.539911642898437
6.260000000000005,-1.2293403103344684,-3.327353627889214,2.454859270485942
6.269999999999996,-1.304633703510015,-3.202053480018193,2.359556924988352
6.280000000000001,-1.3910100118817763,-3.0702890726035696,2.249579406688608
6.290000000000006,-1.4877103771807754,-2.9244747356987406,2.1329591496971654
6.299999999999997,-1.5888962636060422,-2.776738237581037,2.0048042287428984
6.310000000000002,-1.6779516258519045,-2.635821822210137,1.860404274755702
6.320000000000007,-1.7691394193966488,-2.473107986315,1.6906044739934996
6.329999999999998,-1.853346946369913,-2.2982402606533103,1.5219956659568787
6.340000000000003,-1.9357287242873609,-2.1191041294723125,1.34958565234984
6.3500000000000085,-2.010311411768208,-1.9259096126878887,1.190814608144798
6.359999999999999,-2.0795992621398973,-1.73208232478395,1.0427954378970468
6.3700000000000045,-2.150824019908246,-1.5203797227941476,0.8858964386811505
6.379999999999996,-2.1937443549882536,-1.299969306800219,0.7286018037979866
6.390000000000001,-2.223279955625797,-1.0598451494144367,0.5668914550215204
6.400000000000006,-2.219902047447572,-0.8038409472590816,0.4048852688204886
6.409999999999997,-2.180727572185853,-0.5461552154700762,0.2337669441079994
6.420000000000002,-2.142306736074179,-0.2770964745538355,0.0738074156915309
6.430000000000007,-2.0957814699116746,0.024818685942568,-0.0778379230382059
6.439999999999998,-2.0233356749430405,0.3279323815293851,-0.2288833707221898
6.450000000000003,-1.9732771156938096,0.6350565409796622,-0.3900562405920821
6.460000000000008,-1.909410073312908,0.946172344630972,-0.5559057774552763
6.469999999999999,-1.8535948078257647,1.2622739716294764,-0.7182776660936651
6.480000000000004,-1.816758396266192,1.5863689545893764,-0.8737664514352661
6.489999999999995,-1.789918273270267,1.909653431447465,-1.019072995743155
6.5,-1.7879201387744608,2.233486724884149,-1.161674059219462
6.510000000000005,-1.7823308736778831,2.5726758609215703,-1.3065409978763312
6.519999999999996,-1.7748121145672895,2.8951808796352405,-1.4682632770390036
6.530000000000001,-1.7644083809715692,3.1999623793900605,-1.6139763044953463
6.540000000000006,-1.7568740089163049,3.4733606475117025,-1.7532617792071452
6.549999999999997,-1.7319154925419118,3.732690147996653,-1.8971318605599476
6.560000000000002,-1.6744603037141406,3.962692522799645,-2.036592909516815
6.570000000000007,-1.5734132515756036,4.15525534084591,-2.180296861575334
6.579999999999998,-1.4467129169590902,4.335044766985565,-2.3200900293163103
6.590000000000003,-1.2991250772482532,4.486387283252006,-2.457645184256444
6.6000000000000085,-1.1514767901641256,4.60733889013925,-2.606688054685813
6.609999999999999,-0.9862182943471154,4.702082035428375,-2.7525577422140777
6.6200000000000045,-0.8062519916819163,4.760357661249297,-2.915125821469981
6.629999999999996,-0.6259375016217638,4.800315969939525,-3.0767541368121445
6.640000000000001,-0.4719338632702807,4.815344782140305,-3.25049152062359
6.650000000000006,-0.3561693337298277,4.793041998350295,-3.4099488002855614
6.659999999999997,-0.2535691788762096,4.77541831521641,-3.5485960437734696
6.670000000000002,-0.1669460991245298,4.747078054504003,-3.664140319174281
6.680000000000007,-0.074100035034172,4.728967998048965,-3.763508590630025
6.689999999999998,0.0282335618508881,4.702548512861651,-3.856732877493309
6.700000000000003,0.1647602361349051,4.670979203510361,-3.947361575548013
6.710000000000008,0.3146261252162394,4.624280012111366,-4.027982247131624
6.719999999999999,0.4524876535983427,4.587415689423541,-4.123426323285465
6.730000000000004,0.5759290610179116,4.560055277816674,-4.202006792776939
6.739999999999995,0.6707002103148417,4.522290046562721,-4.279313220676118
6.75,0.7599623556604164,4.473663247851072,-4.341587750098689
6.760000000000005,0.8342845677739362,4.4296076175547245,-4.3983905812769
6.769999999999996,0.8965468041011666,4.398346357213669,-4.429441891254228
6.780000000000001,0.9660872253709883,4.349853823109313,-4.435661588881402
6.790000000000006,1.0553848886689825,4.281678451254504,-4.44416269519677
6.799999999999997,1.1449796994898185,4.220397122342553,-4.43169303669523
6.810000000000002,1.2397218426272856,4.166493688764844,-4.420739251511753
6.820000000000007,1.339181801017863,4.105316056618423,-4.403094285619661
6.829999999999998,1.394356040053296,4.04086655224477,-4.394852192017681
6.840000000000003,1.444043339633855,3.9863650941337454,-4.368388772418775
6.8500000000000085,1.4863746537636,3.932010094933556,-4.335462321467715
6.859999999999999,1.5295357658560582,3.883521124978001,-4.284940201274127
6.8700000000000045,1.5738580636278194,3.8265687426699024,-4.2220321475712
6.879999999999996,1.5958889793125224,3.783830568924221,-4.171063039404775
6.890000000000001,1.61861898981967,3.736852907848988,-4.124544292937464
6.900000000000006,1.6591474009171256,3.70523362074127,-4.08166899293551
6.909999999999997,1.6890130017108096,3.6859948102760702,-4.039148176680399
6.920000000000002,1.7020041209713583,3.642997384344388,-3.9710418742793054
6.930000000000007,1.7177903832369483,3.6185262856989833,-3.901408260050344
6.939999999999998,1.6837103799431343,3.5771132437584177,-3.815228350784393
6.950000000000003,1.6067991971621014,3.5463404246161483,-3.728687950628197
6.960000000000008,1.5262600692853103,3.508382927180197,-3.6440778971162953
6.969999999999999,1.4434814744203976,3.47008881181075,-3.550989777103837
6.980000000000004,1.362426871776251,3.4411877500891426,-3.4572750447183047
6.989999999999995,1.2862981043578898,3.409712134470964,-3.3548751405758046
7.0,1.220536650414031,3.375868361289008,-3.260024789685455
7.010000000000005,1.1553429895505636,3.335751727663949,-3.143363270522048
7.019999999999996,1.0820057963685883,3.3025963242141803,-3.018589186867317
7.030000000000001,1.0001962697813178,3.2799010478725275,-2.8766019777318053
7.040000000000006,0.8978594886905842,3.2504417088446056,-2.72747942881232
7.049999999999997,0.7914547683796731,3.2211221717041965,-2.592168175618299
7.060000000000002,0.7076290625036363,3.213711057033702,-2.4502666265438844
7.070000000000007,0.6494336269511072,3.1968409892908127,-2.3204505416573054
7.079999999999998,0.6010918185496952,3.1748883855297065,-2.183911075220703
7.090000000000003,0.5627075361346339,3.154443608849649,-2.0395498385373685
7.1000000000000085,0.5507847056180445,3.1382059765347683,-1.9053488873521536
7.109999999999999,0.5346927974427921,3.106494742877901,-1.7765953265601735
7.1200000000000045,0.5037558705928228,3.071920836300789,-1.6544785369152728
7.129999999999996,0.4695708319206232,3.050310665351104,-1.5311852633543166
7.140000000000001,0.429492388652718,3.0294061789426485,-1.4000716152933768
7.150000000000006,0.3980251335339159,3.007814040201916,-1.259272131611497
7.159999999999997,0.3747174923087915,3.003370582282017,-1.1069676828874329
7.170000000000002,0.3429996616125523,3.0045384255889744,-0.9357990539567016
7.180000000000007,0.3027175097591796,2.9890808665159305,-0.7454644876191167
7.189999999999998,0.2184494745638352,2.964848980763521,-0.5694899681820309
7.200000000000003,0.1056922480119678,2.933930324994359,-0.3928981027902325
7.210000000000008,-0.0074250980410996,2.8992900176043395,-0.220266274114604
7.219999999999999,-0.1218294841925189,2.863169598860547,-0.0469717574652156
7.230000000000004,-0.2461443940192861,2.812928782464164,0.1371445459033218
7.239999999999995,-0.4025718940675777,2.767767977522485,0.338325825266682
7.25,-0.582060105170114,2.6969068628994077,0.5396390188745958
7.260000000000005,-0.7677107121627738,2.608471393981958,0.7371670775124589
7.269999999999996,-0.9528190727720778,2.507091748199981,0.9393631445695384
7.280000000000001,-1.1515721885648624,2.3816372684941345,1.1219683283335058
7.290000000000006,-1.3588696886445073,2.239093198624111,1.2964925717925966
7.299999999999997,-1.5937583262943285,2.0867219144986837,1.4746609682226477
7.310000000000002,-1.8486340062368092,1.931357703469164,1.6306557146717515
7.320000000000007,-2.098115216041652,1.7654276259359314,1.7850539701196502
7.329999999999998,-2.3467019506659192,1.5972948684495814,1.9253751534699488
7.340000000000003,-2.586000779139052,1.4080060676910044,2.0598956552544707
7.350000000000008,-2.81504738743693,1.2315146651037756,2.169831082874776
7.359999999999999,-3.0262690924501974,1.0480009408156348,2.268805771255761
7.370000000000003,-3.227154284881007,0.8553709250566167,2.3692498396412875
7.3799999999999955,-3.3961982846092647,0.6699610776604367,2.4648367742668063
7.390000000000001,-3.553095646591822,0.4957666469585646,2.559189529689564
7.400000000000006,-3.6978876087058032,0.3219976352472153,2.645440886307018
7.409999999999997,-3.799804254720992,0.151305509509293,2.7228828757481267
7.420000000000002,-3.8599431839120832,-0.009514416538023,2.790755218479889
7.430000000000007,-3.9031322349943776,-0.1716118389463543,2.851754806442365
7.439999999999998,-3.93833188401902,-0.3248275371588572,2.9031730133512137
7.450000000000003,-3.957497415759918,-0.4638297927891586,2.936454858662468
7.460000000000008,-3.986684775265014,-0.5971350074127711,2.9671067515109444
7.469999999999999,-4.002529842865457,-0.7267117456059079,2.9893837677302963
7.480000000000004,-4.009475709355538,-0.8399735540004293,3.0123084322008022
7.489999999999995,-4.012446096826961,-0.9449561232102588,3.044458732058848
7.5,-3.9972923417874062,-1.0292021293511568,3.077888606587765
7.510000000000005,-3.941995427013296,-1.1064064179430069,3.10656436063788
7.519999999999996,-3.8852376323069486,-1.1784295284751185,3.136735207273172
7.530000000000001,-3.823372944448698,-1.2249272133756308,3.171085023694881
7.540000000000006,-3.766229327177203,-1.2575737698309066,3.1995916193106555
7.549999999999997,-3.697658821087723,-1.288217450688523,3.220146650008434
7.560000000000002,-3.645626152908834,-1.299935260028217,3.243757460792383
7.570000000000007,-3.620146010042076,-1.3161672775666946,3.257109221912589
7.579999999999998,-3.596121026605532,-1.3302448653762236,3.263656023599068
7.590000000000003,-3.580464507933648,-1.3438656305385617,3.274937512989363
7.600000000000008,-3.556453420098723,-1.3546724461269857,3.287535910077288
7.609999999999999,-3.5442808134489665,-1.3649509531037367,3.318143272829067
7.620000000000003,-3.5289412728728924,-1.375845674467138,3.3626074305784805
7.6299999999999955,-3.5249885298658667,-1.3797815767762729,3.397327394483291
7.640000000000001,-3.5044775397332373,-1.3898853828054631,3.436552557081063
7.650000000000006,-3.496243082070295,-1.3924829475345506,3.4500588069984603
7.659999999999997,-3.4880821665838986,-1.4161661059370654,3.474784558649436
7.670000000000002,-3.4885605002151867,-1.442056446817168,3.5046593572017644
7.680000000000007,-3.4861515466621014,-1.4699748394489185,3.533597847825402
7.689999999999998,-3.448953657244944,-1.5103200860260335,3.555258582256472
7.700000000000003,-3.388190588570093,-1.5782356986101902,3.572513714135926
7.710000000000008,-3.297034827161696,-1.6709818918566552,3.6167422369655458
7.719999999999999,-3.2415667916453703,-1.790558988114082,3.654244563254319
7.730000000000004,-3.2433140300661507,-1.93460905174302,3.680360831942628
7.739999999999995,-3.277064977071116,-2.096421205651482,3.687167714114624
7.75,-3.336443381461676,-2.270571625043011,3.673392423936334
7.760000000000005,-3.371697516434667,-2.4614182028684706,3.657406629262345
7.769999999999996,-3.369895531647908,-2.65912464218392,3.626725496657487
7.780000000000001,-3.3909036509489905,-2.843882205845305,3.5917300815433846
7.790000000000006,-3.3942387009169237,-3.033108092957729,3.522016813693265
7.799999999999997,-3.354126855045961,-3.193034432722816,3.452563980876487
7.810000000000002,-3.2598579862622907,-3.3378120551784023,3.4059659171417627
7.820000000000007,-3.1117660936827893,-3.4622129475861776,3.3617223993055974
7.829999999999998,-2.948708950657199,-3.575634098181332,3.347672059936252
7.840000000000003,-2.7998511973281413,-3.666154433891845,3.33027213224001
7.850000000000008,-2.7031664453637387,-3.7550324052760167,3.30922350030547
7.859999999999999,-2.628020360731337,-3.8185053357550105,3.2552498987302343
7.870000000000003,-2.5978403587429493,-3.8927416308955856,3.1919103359366385
7.8799999999999955,-2.5970443908858662,-3.944073318279951,3.102508413396152
7.890000000000001,-2.583046370575723,-3.962640553894592,3.00876728314245
7.900000000000006,-2.5659439039111565,-3.970907431372897,2.906654661826657
7.909999999999997,-2.526464875189222,-3.9537720843547306,2.791402775275324
7.920000000000002,-2.4572996480543647,-3.9143106268440646,2.693952873781104
7.930000000000007,-2.3556800902960933,-3.842181849248892,2.5810535256697644
7.939999999999998,-2.259093404587856,-3.7478525777247342,2.4606850347445977
7.950000000000003,-2.1865123764053127,-3.6438894625283655,2.343795777128112
7.960000000000008,-2.14690332398102,-3.534780176363302,2.2043986528470167
7.969999999999999,-2.1389631850135,-3.423661724953526,2.043391744148843
7.980000000000004,-2.143741976439281,-3.31956071747516,1.858222176377745
7.989999999999995,-2.136687652468425,-3.202285552692912,1.6661491940798183
8.0,-2.1183406756509164,-3.084945504925403,1.4917750857484324
8.010000000000005,-2.113785446174106,-2.969241636356108,1.3302264266364954
8.019999999999996,-2.118909998240558,-2.85388135241898,1.1778633812888957
8.030000000000001,-2.0924833935721714,-2.74408001882945,1.0316304346434169
8.040000000000006,-2.066832637399176,-2.622506904013836,0.8752933967016854
8.049999999999997,-2.0491290525483365,-2.493571791469339,0.7144386773415234
8.060000000000002,-2.0235085583003074,-2.355714630628896,0.5365019660739976
8.070000000000007,-2.0105850834413106,-2.209216694749629,0.3514667106574526
8.079999999999998,-1.985983693752988,-2.065557914180135,0.1808203583629829
8.090000000000003,-1.9721116330209163,-1.914121489521043,0.0060170316860412
8.100000000000009,-1.965011765440345,-1.762255768337842,-0.1510497799506728
8.11,-1.9692527558887043,-1.629249032695171,-0.2958151570771261
8.120000000000005,-1.9780312120659531,-1.49455284165959,-0.4197065907346526
8.129999999999995,-1.9841569265593813,-1.358464057445434,-0.5425897721343125
8.14,-2.00006956801137,-1.2238337021288597,-0.6257111904412322
8.150000000000006,-2.048496929690546,-1.1017787362049667,-0.7146913558539402
8.159999999999997,-2.08160250644176,-0.9676652550338704,-0.8145091697720755
8.170000000000002,-2.0874184860608644,-0.8386547042983838,-0.9206660857980732
8.180000000000007,-2.0567445864703777,-0.7121551493163861,-1.0227579492676182
8.189999999999998,-2.021615190437934,-0.5994759697927995,-1.1110501371855213
8.200000000000003,-1.988262170665876,-0.5114114947244643,-1.1982267501534731
8.210000000000008,-1.9813704964016448,-0.4349810260349607,-1.2651199241676423
8.219999999999999,-1.9734555367721505,-0.3684691548712622,-1.3479453873684508
8.230000000000004,-1.980891140388381,-0.2972098217273082,-1.4195555271067557
8.239999999999995,-1.9912179277909987,-0.2232963428192098,-1.5047984756009638
8.25,-2.009901594152958,-0.1483725478348194,-1.5860454362897998
8.260000000000005,-2.03900728218775,-0.0654791172068682,-1.663475868096712
8.269999999999996,-2.066545124020501,0.0169473507609419,-1.7220256661298163
8.280000000000001,-2.0976015364599783,0.0899693037797055,-1.7689979455691835
8.290000000000006,-2.0932223006584856,0.1689909467834604,-1.8095944647234183
8.299999999999997,-2.0955037284367624,0.2388036974273827,-1.8605959369514693
8.310000000000002,-2.0832042717659154,0.3092928602201092,-1.902649227600684
8.320000000000007,-2.063585130888883,0.3796046838863072,-1.9455483468056949
8.329999999999998,-2.043770906845845,0.4542381045978789,-1.9981495127399584
8.340000000000003,-2.0006923951895192,0.519905152129259,-2.0526322393023144
8.350000000000009,-1.9520964797967904,0.5824297118523214,-2.1091756561474866
8.36,-1.887183444300304,0.6487093597485311,-2.1682383484542096
8.370000000000005,-1.8247469991116811,0.7115044641950546,-2.2227434414963927
8.379999999999995,-1.763643098691456,0.768231917273385,-2.286146220738046
8.39,-1.703723781339866,0.8287563675125816,-2.3535013897095065
8.400000000000006,-1.6334700506713915,0.8803653723691485,-2.418511919046089
8.409999999999997,-1.5674538660013912,0.9440945910731564,-2.4892374065846368
8.420000000000002,-1.5172910211502155,1.023406497798343,-2.5592623667886736
8.430000000000007,-1.481453163642403,1.1012189962647108,-2.6387035053684342
8.439999999999998,-1.4404433673447417,1.1814508495800191,-2.740441932085096
8.450000000000003,-1.4143179602612737,1.275880382018903,-2.8431944609256004
8.460000000000008,-1.3827507392005511,1.363832802660756,-2.941116293683262
8.469999999999999,-1.325711613466557,1.4593429115914085,-3.0336469213884816
8.480000000000004,-1.2826037722045414,1.5460053951235708,-3.119414084105792
8.489999999999995,-1.2547654217038575,1.6275848220572269,-3.1928825138109085
8.5,-1.2083271413174173,1.7141113773497847,-3.261397769452616
8.510000000000005,-1.1758749819709542,1.7917794494535306,-3.331398883796663
8.519999999999996,-1.1428368443572363,1.8676132003675596,-3.403113201014493
8.530000000000001,-1.114208387102794,1.954868620039062,-3.481605833612859
8.540000000000006,-1.0493936697309068,2.049318243422993,-3.565226366168808
8.549999999999997,-0.9457496955832272,2.154226768869533,-3.6517475624427065
8.560000000000002,-0.8918760598079367,2.268700950122489,-3.730750940582392
8.570000000000007,-0.8155494524968702,2.365645678701998,-3.797532951400485
8.579999999999998,-0.823680957561677,2.455655452114869,-3.821434537621806
8.590000000000003,-0.817177320897629,2.541536206911963,-3.838892719393074
8.600000000000009,-0.775057010122166,2.6298823713893835,-3.882027851755353
8.61,-0.7857036247888063,2.711328163262704,-3.922224397836705
8.620000000000005,-0.8074701495912047,2.8014338116628643,-3.9549457120078575
8.629999999999995,-0.7817449067114114,2.88919850423614,-3.978012988938281
8.64,-0.70174867518832,2.964561283292818,-4.014323923036683
8.650000000000006,-0.6790871769129655,3.0279474373038604,-4.02185924490006
8.659999999999997,-0.6639447013309177,3.098618237674235,-4.010256617169678
8.670000000000002,-0.6390828295643102,3.164185634898266,-4.005702546964423
8.680000000000007,-0.610209448807037,3.2223750487124603,-4.004605980107349
8.689999999999998,-0.6620137632164625,3.274584056790518,-4.001821618461499
8.700000000000003,-0.6663680872419395,3.327451509357228,-4.012529124364361
8.710000000000008,-0.6728242318232945,3.379356755763524,-4.017269829828775
8.719999999999999,-0.6964943973652197,3.423481742226614,-4.006939072473102
8.730000000000004,-0.6674880089116555,3.464977144126302,-3.9862355834016734
8.739999999999995,-0.655671588469493,3.515559374944261,-3.9675721713315286
8.75,-0.6187406494271857,3.566614315787181,-3.940943153767592
8.760000000000005,-0.5754881978883211,3.6230970004765615,-3.919560143124138
8.769999999999996,-0.5643898790483342,3.665342336442252,-3.913136840517308
8.780000000000001,-0.5799102720875792,3.70138450671576,-3.9050309226462745
8.790000000000006,-0.5942035025508191,3.7482063507307406,-3.905385346351677
8.799999999999997,-0.6326023723813043,3.797411794969185,-3.8998795364567855
8.810000000000002,-0.6439629651577893,3.8333697787946734,-3.89305417440718
8.820000000000007,-0.6654096320424318,3.874440236960856,-3.869593220625284
8.829999999999998,-0.6715205883106756,3.914625908121973,-3.843275080507286
8.840000000000003,-0.6675540795237933,3.9335552642659497,-3.808607064028949
8.850000000000009,-0.6777185589617635,3.952745608015119,-3.772987261962304
8.86,-0.6791968051116514,3.964191847697456,-3.7367630713758095
8.870000000000005,-0.6676258903324633,3.952696500830265,-3.711856257868246
8.879999999999995,-0.6363407784568169,3.939933317467346,-3.6792919209653743
8.89,-0.5914301541248541,3.912057066430227,-3.63063921827201
8.900000000000006,-0.5594454935598776,3.875011503579623,-3.5803749944911183
8.909999999999997,-0.5209826916231276,3.83093180752278,-3.5273041558941003
8.920000000000002,-0.4856088526253987,3.7870808212224425,-3.468671701626425
8.930000000000007,-0.4314282227803404,3.715245763775318,-3.4189926426736954
8.939999999999998,-0.354390219473342,3.641228524011164,-3.352437955457433
8.950000000000003,-0.2579359660004569,3.573332628908884,-3.293283906438921
8.960000000000008,-0.1165005843855584,3.5014383017219264,-3.2257163539343914
8.969999999999999,0.0457916569217401,3.420053945177336,-3.148932892724201
8.980000000000004,0.1827974981546341,3.329811885357802,-3.0671228728589943
8.989999999999995,0.3007233934421828,3.2326489705192043,-2.9906351950433256
9.0,0.3902230389610473,3.118367188822135,-2.916114286546422
9.010000000000003,0.4781603156391742,3.009768700317349,-2.825015195090029
9.019999999999996,0.567983762039365,2.899030890571048,-2.7348631676517825
9.03,0.6713276480394904,2.800531500234328,-2.648645715711321
9.040000000000006,0.7641207296275234,2.710414416133571,-2.578253814599238
9.049999999999995,0.8489451004758977,2.6159330247361985,-2.5011734467859768
9.060000000000002,0.9169566733850908,2.5211281300451795,-2.4159480411333685
9.070000000000007,0.9837268736020142,2.4426431698354114,-2.3186584533430485
9.079999999999998,1.0471763225298476,2.3772515081900027,-2.1971109298872182
9.090000000000003,1.1349983572815538,2.336986048028177,-2.064560426121869
9.100000000000009,1.2597331280224469,2.3120892032430764,-1.91595305223738
9.11,1.389940605507885,2.277096758020112,-1.7687617434175509
9.120000000000005,1.5229839151504423,2.228536456380369,-1.611199987719406
9.129999999999995,1.6392864240515437,2.1608996375885656,-1.44503892056459
9.14,1.7317841272300636,2.0820341602620926,-1.2864861096448954
9.150000000000006,1.7792278073169892,1.978036377112832,-1.1237129627402291
9.159999999999997,1.8128762476482585,1.852759406960452,-0.9650670653091044
9.170000000000002,1.8470618098581133,1.71436269960014,-0.791313447348181
9.180000000000009,1.859892420337566,1.5603982053638936,-0.5924323526328639
9.189999999999998,1.878402986877718,1.4024100666051047,-0.3912993707869839
9.200000000000005,1.874575655374609,1.2516276593176006,-0.1878313339232682
9.210000000000008,1.8691935032151143,1.0791655790793104,-0.0003854162692704
9.22,1.8756718239981405,0.8967339571613265,0.1545939835464819
9.230000000000004,1.8868132586751925,0.7120591821504989,0.2993031272915333
9.239999999999997,1.924967376636593,0.5155242715120171,0.4194447032754272
9.25,1.9605675628639765,0.3058650855847923,0.5401628433271599
9.260000000000003,1.98921040433627,0.0952927069918573,0.6640819658291721
9.269999999999996,1.9948563045908203,-0.1149335548571284,0.8153283426097511
9.28,1.993501520287401,-0.324784195942052,0.9877239863015213
9.290000000000006,1.9913464510490528,-0.5181700348404287,1.1782912630146416
9.299999999999995,2.000272013697203,-0.6923424176826756,1.3758664302046535
9.310000000000002,2.019798385675016,-0.8421846056279827,1.565206990574368
9.320000000000007,2.025481550550466,-0.9663718831564718,1.734310922147399
9.329999999999998,2.0535771593002274,-1.072799935442355,1.8762325370538984
9.340000000000003,2.097772653318698,-1.13888470124259,2.006429003126833
9.350000000000009,2.141352477315281,-1.2008465821289005,2.1300703112488937
9.36,2.180200095443668,-1.2306525211800996,2.2325690765585784
9.370000000000005,2.2077228416714694,-1.235220236549032,2.322101007045157
9.379999999999995,2.2441304019309865,-1.2064644805115337,2.4078599565612064
9.39,2.3215475906770884,-1.166981032593012,2.469684484118488
9.400000000000006,2.4211056496386125,-1.1079662036114588,2.5415966071770497
9.409999999999997,2.5025409277185147,-1.0276336711998633,2.584290368233499
9.420000000000002,2.560527372111692,-0.938409793314678,2.592389647738805
9.430000000000009,2.601453652175256,-0.826489764739363,2.5738058829851043
9.439999999999998,2.621545068873472,-0.7093802054803526,2.529180969456779
9.450000000000005,2.5809416411140305,-0.6007423760801589,2.477277008794176
9.460000000000008,2.483586628938748,-0.4938961146685406,2.406097179692201
9.47,2.337563003247127,-0.4039677057355805,2.321500802382187
9.480000000000004,2.152192371405844,-0.3052523930165378,2.2403021516942183
9.489999999999997,1.957613583535264,-0.2181646648322134,2.154945497819815
9.5,1.7715502765098456,-0.1327118370587936,2.061625482930719
9.510000000000003,1.5897155697123888,-0.0319963732214441,1.9628146217655444
9.519999999999996,1.4002874256062074,0.0518240271844248,1.8610516382531272
9.53,1.194605649937821,0.1389902069785547,1.7571760223581576
9.540000000000006,0.933430722521223,0.2306333904691109,1.6527247199612014
9.549999999999995,0.6257851437490584,0.3251888060403914,1.5325035305824406
9.560000000000002,0.2698799745105193,0.4062437180093901,1.4175101399230468
9.570000000000007,-0.1108896089859839,0.4973624444907534,1.301676323836934
9.579999999999998,-0.4971504475613372,0.5902066084311297,1.205457345346979
9.590000000000003,-0.8892577199466399,0.681618238174319,1.1157012304695717
9.600000000000009,-1.2641086093096272,0.7831866686576896,1.024116009479637
9.61,-1.6002871104565193,0.8843663751463658,0.9567574238440189
9.620000000000005,-1.8813354386360344,0.9976202221702412,0.8940515823244463
9.629999999999995,-2.136657441212784,1.1106041285527009,0.8492346174160077
9.64,-2.3591773276155625,1.214936491169834,0.8245307651175705
9.650000000000006,-2.609662303152705,1.3056632376835466,0.8216254639252846
9.659999999999997,-2.8792570196977576,1.3927172428567116,0.8284166076842336
9.670000000000002,-3.171112303347616,1.4657765173588877,0.8568953443730388
9.680000000000009,-3.4588774303919587,1.5393469071159085,0.8898719082127687
9.689999999999998,-3.743354799251288,1.6062617321465875,0.9388087792463592
9.700000000000005,-3.9807095886652633,1.6443514680531668,0.9973873670329734
9.710000000000008,-4.158310035476211,1.665406557980878,1.0533300363900204
9.72,-4.310295598264535,1.6564385162465691,1.108546255231113
9.730000000000004,-4.467092656040665,1.624886608835112,1.170529170965875
9.739999999999997,-4.623365120325259,1.5796891140983116,1.2299264218040735
9.75,-4.769770337631936,1.5208850532544251,1.2809533443934935
9.760000000000003,-4.906332310492448,1.4382503228808754,1.3286890123660204
9.769999999999996,-5.039334019524488,1.3581257203515789,1.3634483252614351
9.78,-5.155873298601972,1.2568093356337156,1.4083614214764983
9.790000000000006,-5.242895422290825,1.1408763165176383,1.458461830710148
9.799999999999995,-5.305326165842756,1.020513475951536,1.5027784690701076
9.810000000000002,-5.336643596733075,0.8770580968473084,1.52793448346345
9.820000000000007,-5.352994522319944,0.738505776865035,1.5368099622717772
9.829999999999998,-5.356535143567675,0.5901752817288887,1.5188739266581106
9.840000000000003,-5.320530697054905,0.4566301188417752,1.4929284959093894
9.850000000000009,-5.2680515782062205,0.3581236711224082,1.4562373701276468
9.86,-5.22906530398784,0.2573102255026931,1.4073229930859683
9.870000000000005,-5.164885423598641,0.1617056050314773,1.371435200094087
9.879999999999995,-5.0723209029833765,0.0756247951946102,1.347991562214918
9.89,-4.946255057562628,-2.365263142109389e-07,1.3267300865838685
9.900000000000006,-4.797700614280016,-0.0707920720847824,1.3353260430568044
9.909999999999997,-4.657422010215582,-0.14898413883639,1.3373591182439435
9.920000000000002,-4.530893865254995,-0.2197826878605677,1.3439279137682592
9.930000000000009,-4.405264754704313,-0.3003556421585672,1.3499333844598789
9.939999999999998,-4.306913789890535,-0.376348806191234,1.3631282938065128
9.950000000000005,-4.280295878689147,-0.4585758734386696,1.3845901554207312
9.960000000000008,-4.248206688914656,-0.538884941638984,1.4153155451188475
9.97,-4.153624416402584,-0.6069953102569631,1.452320456286883
9.980000000000004,-3.995923670084958,-0.6522756599773455,1.485321290851583
9.989999999999997,-3.831142979991271,-0.7025686675129119,1.5222365787907246
10.0,-3.699971892692327,-0.7364191262211061,1.5694800686046555
10.010000000000003,-3.615239652727868,-0.7763202806412438,1.6229073053704348
10.019999999999996,-3.536140650742846,-0.8227744758452796,1.671717555426241
10.03,-3.483997278796282,-0.8549383370559205,1.736065299740397
10.040000000000006,-3.4589909566646764,-0.8845286256208428,1.806154880134173
10.049999999999995,-3.435658788008104,-0.9070693343277748,1.879453035987705
10.060000000000002,-3.445558633394926,-0.92992280901368,1.9525238617053104
10.070000000000007,-3.456929889681573,-0.9354852020664572,2.000455064946352
10.079999999999998,-3.4693012325414485,-0.9477407040048964,2.061960181117159
10.090000000000003,-3.476961946155633,-0.9692934946322744,2.1247191888977883
10.100000000000009,-3.474837716067531,-0.989786822057749,2.170214801884326
10.11,-3.492162067420477,-1.0202910119025836,2.218724485353364
10.120000000000005,-3.5053264903579238,-1.0462689508965308,2.256710596078106
10.129999999999995,-3.5017460780480807,-1.0769030813035574,2.270294134426573
10.14,-3.481759457122121,-1.110641465432825,2.2678661767078285
10.150000000000006,-3.4850221890849404,-1.1363028029361266,2.2614788264482777
10.159999999999997,-3.5152677257258094,-1.1480002165730934,2.247932773934427
10.170000000000002,-3.5351331377550723,-1.1545275889571307,2.222890054997372
10.180000000000009,-3.56024849277782,-1.1664464984339176,2.190207167386109
10.189999999999998,-3.577158007737728,-1.18304377084173,2.144633454222099
10.200000000000005,-3.604633652366765,-1.1863249153278,2.096832659900066
10.210000000000008,-3.6287785235117274,-1.191731946865594,2.038400283746128
10.22,-3.638036093887537,-1.2014834356143451,1.9739708284955408
10.230000000000004,-3.638141130529562,-1.203549324135742,1.9143617230342849
10.239999999999997,-3.640217904627379,-1.1885356972156025,1.8646435084982704
10.25,-3.642083990296465,-1.172541303340787,1.8093640233239103
10.260000000000003,-3.619833323305168,-1.146053183888327,1.7197898316992852
10.269999999999996,-3.573885597659552,-1.1217016450670667,1.621715415798105
10.28,-3.4678240102593327,-1.0818827924290488,1.5282850718183083
10.290000000000006,-3.3300166366867168,-1.0510452228803413,1.4227484027958868
10.299999999999995,-3.1776723170622887,-1.0273795075298733,1.3355460798555367
10.310000000000002,-2.998975951107412,-1.0014284145101944,1.2610014591299377
10.320000000000007,-2.7818138441989557,-0.9838237876851548,1.175058199763759
10.329999999999998,-2.5416843746379696,-0.98760372716813,1.0925730234776336
10.340000000000003,-2.3275870645959245,-0.970203829030022,1.0010874712012987
10.350000000000009,-2.0823386337584298,-0.9384412142118695,0.90201663556622
10.36,-1.7876275339267826,-0.9007756537937556,0.8071166284186857
10.370000000000005,-1.4725899456889535,-0.8538771377077736,0.7223036316688056
10.379999999999995,-1.157869999035926,-0.7856670284251484,0.6344141137421753
10.39,-0.8850132718529735,-0.706839862735648,0.5766185058443776
10.400000000000006,-0.6430342172741597,-0.6149909752585975,0.5238673198202347
10.409999999999997,-0.4238703555448853,-0.5102953172433691,0.4900603906350313
10.420000000000002,-0.207804264365134,-0.3834448707167774,0.4708582842094495
10.430000000000009,0.0142838854412602,-0.2748444751629383,0.4689712842100506
10.439999999999998,0.2210454306233974,-0.1644321772289559,0.4818221939714073
10.450000000000005,0.4248102873317579,-0.0486256959279162,0.504571020039213
10.460000000000008,0.6368260899240166,0.0482919988675713,0.530212000263955
10.47,0.8608327106519411,0.1525338833300419,0.5675550573043802
10.480000000000004,1.0926536693378612,0.2579206578932135,0.6051215670531969
10.489999999999997,1.3272660171514334,0.3466710366274416,0.6600272064077012
10.5,1.5617074312624908,0.4415115085918247,0.7296227368440149
10.510000000000003,1.7916726053497989,0.5294697799095129,0.8105690057662303
10.519999999999996,2.006373397808108,0.604973243268865,0.8825948536548809
10.53,2.175991422873877,0.6810568459245252,0.9404285626484494
10.540000000000006,2.327740944877612,0.7559069011923921,0.9696244112645164
10.549999999999995,2.4536376847705483,0.8160278073172724,0.9923265916395956
10.560000000000002,2.580239184840256,0.8614742803218268,1.0158664426089514
10.570000000000007,2.697915701319208,0.88352822831351,1.0420957692264745
10.579999999999998,2.806140004332029,0.9017254448230868,1.0721025748430226
10.590000000000003,2.9085278654330704,0.9131673840146954,1.100062718299967
10.600000000000009,3.009883905512665,0.9103629551989332,1.1130342023654427
10.61,3.119211360574922,0.9069591246487096,1.1176092423591617
10.620000000000005,3.240061854967333,0.9008562467932798,1.1160391776309024
10.629999999999995,3.3640338363525304,0.8816213649219755,1.1207127090334292
10.64,3.4781857420260884,0.8567580635666147,1.117572014135558
10.650000000000006,3.5698580720882056,0.8202340423283939,1.1073653476007943
10.659999999999997,3.633156787047065,0.7591315358255796,1.0990896247068085
10.670000000000002,3.675510632344019,0.6948592582151095,1.0684458779715185
10.680000000000009,3.708058701654757,0.6250577863802473,1.0324871066874302
10.689999999999998,3.7389070177806,0.5547620159518407,0.9920598373834432
10.700000000000005,3.7741584172105846,0.4654125641103149,0.957782052353896
10.710000000000008,3.814640945995428,0.3785739757854702,0.9336762632870044
10.72,3.8668076101746767,0.2816024788160649,0.9245858282644008
10.730000000000004,3.928789370657455,0.1909843498069828,0.916373376046652
10.739999999999997,4.011619485698276,0.0986208809082674,0.916694068795929
10.75,4.077673435708904,-0.0003331402308588,0.9232768134328192
10.760000000000003,4.129467401108956,-0.1048482483332028,0.9226272049896812
10.769999999999996,4.165684760728262,-0.211881517451461,0.9297938547574724
10.78,4.166665732015464,-0.3223915509060811,0.9136081094523236
10.790000000000006,4.144263394346058,-0.442440286898535,0.8948098744465388
10.799999999999995,4.10911957682344,-0.560971867597238,0.8738940396677876
10.810000000000002,4.084389006313729,-0.6866100278432274,0.8483051370814788
10.820000000000007,4.067349305904592,-0.8017122102921646,0.8199289604148524
10.829999999999998,4.0858031078061945,-0.9142320007286876,0.7997456342439877
10.840000000000003,4.135741600175705,-1.012205981736199,0.7839475488163292
10.850000000000009,4.186327949365626,-1.1160822783480056,0.7704378534975731
10.86,4.214247319930709,-1.1946538730598153,0.7337502893952222
10.870000000000005,4.232009683368646,-1.2763453224807764,0.6829490648077654
10.879999999999995,4.255173232597331,-1.3538957426187266,0.6306273708225848
10.89,4.238269521300116,-1.4182732465076322,0.5570820821596411
10.900000000000006,4.222617265952908,-1.4703851002738515,0.4833353576274399
10.909999999999997,4.231216468491022,-1.5110903158051796,0.3948790261125491
10.920000000000002,4.24737039200658,-1.5397659337427132,0.3098745450763883
10.930000000000009,4.248857485903771,-1.5651090807759114,0.2278848299864909
10.939999999999998,4.238326446121724,-1.572756177065573,0.1279154680321786
10.950000000000005,4.2212134573199975,-1.5754035194912386,0.0271308000349722
10.960000000000008,4.2074151520528655,-1.575867753776728,-0.073720625105281
10.97,4.181679814731544,-1.57604156997381,-0.1730230565156587
10.980000000000004,4.162972043669725,-1.5891965702115392,-0.2814367629223299
10.989999999999997,4.13197312913258,-1.6062301324934392,-0.3910233783737187
11.0,4.08839887743941,-1.6210163078139743,-0.5076434394809675
11.010000000000003,4.02209029254261,-1.6589101837972893,-0.6360781883928992
11.019999999999996,3.945716785353077,-1.705815803117782,-0.7606545607451111
11.03,3.861012817093285,-1.7474370051019268,-0.8812857484707007
11.040000000000006,3.7687685848198287,-1.8156435630714896,-0.9991307569433242
11.049999999999995,3.674650623539301,-1.8738298647286027,-1.115972205747814
11.060000000000002,3.578380242180116,-1.952018353526072,-1.2045371970969008
11.070000000000007,3.474151493385385,-2.0305115412225097,-1.2786296208009564
11.079999999999998,3.371181975923148,-2.1107312375351883,-1.334050555832035
11.090000000000003,3.260805239604259,-2.196276239928844,-1.377958308744496
11.100000000000009,3.1566172324051416,-2.26820062468452,-1.4273743500307778
11.11,3.0580482701319043,-2.3377356408861654,-1.4682633111706784
11.120000000000005,2.9705581052647587,-2.399884659080846,-1.5007303134269283
11.129999999999995,2.8763799776297714,-2.4598435282337974,-1.511889717492676
11.14,2.779808043636479,-2.4983042820638697,-1.504247378832648
11.150000000000006,2.6800677614035524,-2.531739904400653,-1.478093452000474
11.159999999999997,2.568792547836826,-2.53872023702994,-1.4368905282281184
11.170000000000002,2.4822769853049707,-2.535059737538705,-1.3867169333816036
11.180000000000009,2.399077058574741,-2.5137938595246543,-1.3361707866462411
11.189999999999998,2.3271446729731844,-2.4715999455484887,-1.2922799389512445
11.200000000000005,2.2614344745501764,-2.402500089370584,-1.2428421541893238
11.210000000000008,2.225904695109083,-2.335859306091706,-1.1839515615188296
11.22,2.2319912943345077,-2.251068461637989,-1.1333788812032897
11.230000000000004,2.2583993848553225,-2.1563643059051723,-1.0599174751953742
11.239999999999997,2.268992990429015,-2.0435339713326,-0.9823298623889006
11.25,2.2603411872860457,-1.908489647520027,-0.9113378550436364
11.260000000000003,2.2267030660532803,-1.7626908585597725,-0.8411269170671849
11.269999999999996,2.169718156272252,-1.5996163267025387,-0.7881265164817131
11.28,2.1116748191069683,-1.4309974370855576,-0.7490961918315034
11.290000000000006,2.063887141153624,-1.2537816569237703,-0.7102055392446024
11.299999999999995,2.034347004002937,-1.0713530351990124,-0.6721899885965177
11.310000000000002,1.9976246108700328,-0.903578778388089,-0.6316320032854004
11.320000000000007,1.970388274726551,-0.7369658578819491,-0.5840560201030717
11.329999999999998,1.9520969830777204,-0.5690523687151069,-0.542942184477506
11.340000000000003,1.9021315567086023,-0.4135486471823155,-0.5101749117256026
11.350000000000009,1.840742846389681,-0.2485883799889954,-0.4856684154584911
11.36,1.7536984396290347,-0.0925519499542668,-0.4532299324521692
11.370000000000005,1.625105574733343,0.0526718230318769,-0.4148420342579544
11.379999999999995,1.470538733122312,0.1868223965957493,-0.3797774886844798
11.39,1.3141510277707555,0.3169531080420114,-0.3316630717669596
11.400000000000006,1.1352038103038424,0.4316867971935312,-0.2884563653678191
11.409999999999997,0.9430596853903916,0.5436369733196805,-0.2356891716378974
11.420000000000002,0.7335121580617978,0.6373200724600582,-0.1711637786161145
11.430000000000009,0.5180566376578324,0.7228442036356035,-0.1011210608655079
11.439999999999998,0.3090196512010538,0.7923491932864303,-0.0042550956714749
11.450000000000005,0.0836580526245294,0.8686047208023968,0.1069108301573615
11.460000000000008,-0.1156707300740113,0.9379932011552242,0.2311544246542944
11.47,-0.3165490962657837,1.0058665799514834,0.3603720458434215
11.480000000000004,-0.52337175927796,1.0752197400638692,0.4931549747730376
11.489999999999997,-0.7204421081654911,1.144070030528062,0.629338131506895
11.5,-0.8996385935879285,1.2143541575053551,0.7657538377351761
11.510000000000003,-1.0717986604171112,1.2691131049379931,0.9052412961106732
11.519999999999996,-1.2485138212327105,1.3143528709369274,1.0432900725711476
11.53,-1.4298099744789776,1.3589910027118806,1.1905581784655557
11.540000000000006,-1.6134067635020273,1.399699936723016,1.3266585466005711
11.549999999999995,-1.7977477697810509,1.420587110477562,1.4591387571878158
11.560000000000002,-1.9881595908506,1.4368883198466185,1.576876032228261
11.570000000000007,-2.1604817660658227,1.4339749209133106,1.678498385065787
11.579999999999998,-2.3279698793026324,1.4257309257327246,1.7939738848903763
11.590000000000003,-2.4924313965371523,1.4100976100222862,1.90817354358464
11.600000000000009,-2.657992508706412,1.3871621507221883,2.01275514542286
11.61,-2.827098414594477,1.3599290784401552,2.119272361577264
11.620000000000005,-2.9963586572622742,1.3366445955300177,2.241616994403951
11.629999999999995,-3.1784050414896066,1.294560027274946,2.363969373991172
11.64,-3.3665133009860724,1.2414672534869806,2.5040914857728467
11.650000000000006,-3.5422829481356635,1.181591813823281,2.634788337776201
11.659999999999997,-3.7486885881172585,1.1097517087179496,2.7512336466221456
11.670000000000002,-3.9364809057197454,1.0351339060065805,2.8535199702710248
11.680000000000009,-4.09372039024256,0.9607184726565676,2.951246660895694
11.689999999999998,-4.266548421783466,0.8850053012424821,3.033186360647328
11.700000000000005,-4.424506102410047,0.8093698022285019,3.1121000796238136
11.710000000000008,-4.558946658687203,0.7391319669509149,3.1766876052762205
11.72,-4.6797633953294815,0.6657957150307707,3.239147635875342
11.730000000000004,-4.778047829993177,0.5785338375871795,3.2889357339992404
11.739999999999997,-4.8545382394783845,0.4874294983903111,3.329695416465096
11.75,-4.930093047084254,0.3971613541922185,3.361404575589171
11.760000000000003,-5.0068081919640655,0.2872766444482024,3.3940290569840994
11.769999999999996,-5.095262234474776,0.1709183041931616,3.427655542169253
11.78,-5.197058832468748,0.0418102238844566,3.4820612225974834
11.790000000000006,-5.284851866858174,-0.0887505295346768,3.519306471751107
11.799999999999995,-5.320865278780159,-0.2199435045798966,3.546041992730602
11.810000000000002,-5.330495076814884,-0.3529736924094287,3.5451866044085816
11.820000000000007,-5.321025222004933,-0.4876435993863037,3.528599298387537
11.829999999999998,-5.290496945551231,-0.6253762766442242,3.5066811497716586
11.840000000000003,-5.25646338118177,-0.7737746008474123,3.500654634148735
11.850000000000009,-5.203097084103064,-0.9041178051499555,3.489634232455477
11.86,-5.174179892737546,-1.0368041793917018,3.47384233429138
11.870000000000005,-5.20347795076775,-1.1783246750963423,3.43822372961579
11.879999999999995,-5.209887751239299,-1.3014646508785128,3.3821268001439275
11.89,-5.1642491680571005,-1.4336248675550445,3.3213722235673333
11.900000000000006,-5.067047604705681,-1.5533045468115676,3.2539229549446915
11.909999999999997,-4.941202861973077,-1.653613606008323,3.1648064942963403
11.920000000000002,-4.813473314469633,-1.7365375691143006,3.0725434119949355
11.930000000000009,-4.6820625424473095,-1.8120382654494809,2.985011735221732
11.939999999999998,-4.567664038759043,-1.86998896607624,2.896729793590171
11.950000000000005,-4.465660161285575,-1.8956211649711927,2.8072073882831656
11.960000000000008,-4.315545888239469,-1.9125022758495267,2.7054125570552165
11.97,-4.152466274080403,-1.921414181032456,2.6031869177209805
11.980000000000004,-4.000839370886768,-1.922355997746844,2.5152349596482493
11.989999999999997,-3.835787266347973,-1.905289872050001,2.42498651182655
12.0,-3.673959828072576,-1.8718603159145069,2.341058869634156
12.010000000000003,-3.533501016564735,-1.8362329007937364,2.2631282598682927
12.019999999999996,-3.4251103227487114,-1.786158026680135,2.2108414651740804
12.03,-3.32197314171973,-1.7196762495167557,2.1612632216582504
12.040000000000006,-3.224806945127524,-1.6414375747896246,2.108855268883597
12.049999999999995,-3.076532883350169,-1.553646303216491,2.070029843415772
12.060000000000002,-2.892006319076883,-1.4550986923206155,2.0162381900877238
12.070000000000007,-2.6673986874879105,-1.347521751901079,1.9534015968462188
12.079999999999998,-2.418002966347768,-1.2334105777551592,1.894128358510372
12.090000000000003,-2.285749966144349,-1.1231301308080897,1.7961668503973325
12.100000000000009,-2.2331102531166898,-1.004961536789328,1.6812572499606997
12.11,-2.12384250914627,-0.8794047751754684,1.5840673982501268
12.120000000000005,-2.003096930749101,-0.7510866749692999,1.4993935497877682
12.129999999999995,-1.8962115731121023,-0.6115778106250747,1.4197618371906218
12.14,-1.7473824376518663,-0.4891150633530659,1.3256284861717516
12.150000000000006,-1.6097283695489637,-0.3639382234406677,1.230977752397063
12.159999999999997,-1.4587946937974858,-0.2148941173595739,1.1373519761341309
12.170000000000002,-1.2737040412873246,-0.0908479925914772,1.0655422667294523
12.180000000000009,-1.1736905980676025,0.0270612336718486,0.9674843446541952
12.189999999999998,-1.1128830592279424,0.1619046705288073,0.8433170822168572
12.200000000000005,-1.0333395346464882,0.30605868986391,0.7117223606564648
12.210000000000008,-0.9153063308707244,0.452486245476143,0.604076121774241
12.22,-0.7953123760440374,0.6076489930387553,0.5027992702726337
12.230000000000004,-0.6870363874532441,0.7684968386570893,0.4110711317319621
12.239999999999997,-0.6184810221571988,0.9270956482260312,0.3224356543603248
12.25,-0.556890648364472,1.0908045779952644,0.2287954589038248
12.260000000000003,-0.4870249451918734,1.250869750168618,0.1380501938997323
12.269999999999996,-0.4082943660795398,1.4140097902840996,0.0439066691335113
12.28,-0.3076641341576024,1.573542145903573,-0.0528664068548774
12.290000000000006,-0.2229967039763619,1.718825400124372,-0.16860638734745
12.299999999999995,-0.1254980132113539,1.874675351335,-0.29335168649402
12.310000000000002,-0.0021264460262448,2.019452938061653,-0.4302028097851181
12.320000000000007,0.0748389655176918,2.1553295904835297,-0.5803911780577122
12.329999999999998,0.1386111884646825,2.292963394038793,-0.7364009461258662
12.340000000000003,0.2131313535085089,2.4226187620792627,-0.9020403002621948
12.350000000000009,0.3068608729082979,2.5599707999909835,-1.0449913625838767
12.36,0.3997320187022617,2.698756451382636,-1.1809214084335369
12.370000000000005,0.4971078288633176,2.82604179365856,-1.3129581124321936
12.379999999999995,0.5975466496693029,2.958093057159868,-1.4480971679800712
12.39,0.7215349265437725,3.084187678785544,-1.581591709621298
12.400000000000006,0.8668960702257305,3.2029914903589987,-1.7229360709825583
12.409999999999997,1.0207525508400357,3.30989746342285,-1.8556949559637812
12.420000000000002,1.184519386722113,3.410032418408264,-1.976633923861616
12.430000000000009,1.3332039254888512,3.5073326465598926,-2.0947093469075866
12.439999999999998,1.4650491689995482,3.5874978608707573,-2.210640652039216
12.450000000000005,1.5990570640603154,3.656183658407978,-2.301196758899168
12.460000000000008,1.7165200253011204,3.706847391746714,-2.3914268439780817
12.47,1.8493496519997492,3.761147734103751,-2.4762426623753595
12.480000000000004,1.994065339235208,3.79999785357328,-2.54307905769206
12.489999999999997,2.127541377632067,3.832228142781713,-2.627322327301413
12.5,2.251228619632627,3.860366737344837,-2.700733233790941
12.510000000000003,2.3641284964111158,3.865403365497908,-2.7590790567815207
12.519999999999996,2.467921384681324,3.8552810582138095,-2.81039617501908
12.53,2.53992690512946,3.842741578481452,-2.851469632805673
12.540000000000006,2.580197920411079,3.8121688177775632,-2.8680418309025413
12.549999999999995,2.5959911160245417,3.774898378097216,-2.8772795545934016
12.560000000000002,2.634953157707059,3.737832956237434,-2.874707400334802
12.570000000000007,2.693220390747962,3.689033655513914,-2.8694531637248653
12.579999999999998,2.7586432680921527,3.642532987685842,-2.858645693606797
12.590000000000003,2.847354015575755,3.583853038678107,-2.8502965714098867
12.600000000000009,2.937976783856579,3.529882421454216,-2.8536948712718058
12.61,3.0148526346267346,3.4821382857169363,-2.842675000990209
12.620000000000005,3.0644179611258844,3.438585606575765,-2.8087522605954702
12.629999999999995,3.0878976046586826,3.399792729735137,-2.76721539190773
12.64,3.076872491717768,3.357175188931332,-2.727491699210332
12.650000000000006,3.054874347616083,3.3315021989870743,-2.6952724872614504
12.659999999999997,3.043292548296708,3.2996392477443783,-2.65318316507632
12.670000000000002,3.038886591826362,3.2698795194114028,-2.598083390976143
12.680000000000009,3.04655593938989,3.239753994417656,-2.5296545898626865
12.689999999999998,3.0563902048100826,3.2040792059181267,-2.4626526582715558
12.700000000000005,3.065035177600216,3.179879886546712,-2.3971876643128387
12.710000000000008,3.043672092477098,3.146968331253598,-2.3320298387504983
12.72,3.0294955515330013,3.123179682912475,-2.266779704616842
12.730000000000004,3.042437446758115,3.0917182356078983,-2.201308258613432
12.739999999999997,3.06071417137694,3.067212517245277,-2.137425665487044
12.75,3.088028170282557,3.026515881574026,-2.078521902259788
12.760000000000003,3.085527147944858,2.9959563181219906,-2.015303905083917
12.769999999999996,3.070672039972298,2.964402147115954,-1.9504780375622857
12.78,3.055346210045689,2.929282288808304,-1.897792060322231
12.790000000000006,2.9916575113882224,2.8720016086244198,-1.843404555867291
12.799999999999995,2.9342514265020267,2.833016840266486,-1.7931577172081754
12.810000000000002,2.931701291499352,2.810320546440663,-1.7627700596912992
12.820000000000007,2.867020726817527,2.743205001131489,-1.68622906217053
12.829999999999998,2.802438244698014,2.676154082493799,-1.609782701311668
12.840000000000003,2.728914096624318,2.5881406332584014,-1.5162822669989795
12.850000000000009,2.6408826442008304,2.482914089035692,-1.405625068653992
12.86,2.571788910906335,2.370131515968272,-1.288192229610175
12.870000000000005,2.5371874962506653,2.265625851922659,-1.159331341240943
12.879999999999995,2.5040762889328225,2.1783366461939484,-1.0386218805320673
12.89,2.481799822929081,2.1005644569876583,-0.9412241331989254
12.900000000000006,2.458315678563596,2.0304026179012054,-0.8454299701020275
12.909999999999997,2.4079634613305707,1.966972879263296,-0.7613126212760641
12.920000000000002,2.372700328392067,1.9027630142598264,-0.6712672562398193
12.930000000000009,2.3436876836888736,1.847917667568364,-0.5950948608215353
12.939999999999998,2.373061635853717,1.795865740506746,-0.5172614473656811
12.950000000000005,2.4248292156162234,1.7479049251624246,-0.4630355207420501
12.960000000000008,2.454689194769229,1.7079319161288815,-0.4230951730749102
12.97,2.4934938541985066,1.6758110312266965,-0.4005065970405458
12.980000000000004,2.5311492988142383,1.6503346301322357,-0.3866819702462521
12.989999999999997,2.55138204426242,1.6314544432035596,-0.3682936551886581
13.0,2.556982813282316,1.6105675577265095,-0.3404865807338484
13.010000000000003,2.5745129152994752,1.588112328051931,-0.3071689202362012
13.019999999999996,2.580510625022246,1.5417707806958083,-0.2794872494313433
13.03,2.5983623820209054,1.5004903685991928,-0.2667464914013147
13.040000000000006,2.617125610209607,1.4569655357637,-0.2627162133363249
13.049999999999995,2.628496015387288,1.4147177836169338,-0.2646204628017273
13.060000000000002,2.620566953686014,1.3766845092140907,-0.2602105610323793
13.070000000000007,2.573031848177343,1.3530973386441134,-0.2468937633702195
13.079999999999998,2.5184803564577605,1.3338474164951446,-0.2218512165978306
13.090000000000003,2.4454544914519247,1.3075610046089676,-0.1768929919118377
13.100000000000009,2.368611322314333,1.2764635391782428,-0.1215041292314809
13.11,2.2961900954407484,1.2389641290248754,-0.058511141921476
13.120000000000005,2.2287732885772416,1.179545753031513,-0.0181607181197569
13.129999999999995,2.1349297080358167,1.126838403959238,0.0316819337258348
13.14,2.039461058124938,1.0706291283227116,0.0841454835236006
13.150000000000006,1.9183697296311888,1.0206072532063064,0.1442044162350991
13.159999999999997,1.7734297008306543,0.9703985843024688,0.2055555876136963
13.170000000000002,1.6400491093367902,0.9264286280038612,0.2767512708582736
13.180000000000009,1.506336804852269,0.8770105535572413,0.3805963796915091
13.189999999999998,1.3753750155597024,0.8235779423202442,0.4973126581184546
13.200000000000005,1.2553157122193594,0.7701339891179253,0.6103571858971597
13.210000000000008,1.125404857009315,0.7232887650109355,0.7183352899350536
13.22,1.004164258394551,0.6607095703241715,0.8181061870745827
13.230000000000004,0.8785224787093177,0.5850047138326409,0.915069812910136
13.239999999999997,0.726935527412414,0.5199271971759905,1.0050727417283585
13.25,0.566958527327054,0.4498896736144878,1.0954923174939923
13.260000000000003,0.3836204301412427,0.3832828343689741,1.1769787367365967
13.269999999999996,0.2292998252997754,0.328538931098864,1.2662886377315985
13.28,0.0869075248566162,0.2562354980496369,1.3662319634134934
13.290000000000006,-0.0505626124118248,0.1899526381332139,1.4597235125916272
13.299999999999995,-0.1743439100285745,0.1119357671806303,1.5706013935349314
13.310000000000002,-0.3098539990622299,0.0385648525720112,1.6879413194639703
13.320000000000007,-0.465710073171359,-0.0375105577240102,1.8078596766978472
13.329999999999998,-0.6294205930699476,-0.1279626333541388,1.9390570241701348
13.340000000000003,-0.7963621292776474,-0.2118515191921169,2.056523077021249
13.350000000000009,-0.9577648912597786,-0.2976449098034547,2.181955136400057
13.36,-1.1213841187071854,-0.3895339397311469,2.305357258344468
13.370000000000005,-1.2983014017356465,-0.4689309362433606,2.431514366547165
13.379999999999995,-1.4927004776817066,-0.5332636888257647,2.5483677276249592
13.39,-1.6903419171229044,-0.5804128219265154,2.665536861755311
13.400000000000006,-1.8861249945239649,-0.6227533124447499,2.772168540710718
13.409999999999997,-2.0909781273838464,-0.6693861854874772,2.874824409129912
13.420000000000002,-2.3138610173908867,-0.711933365757952,2.978120303991385
13.430000000000009,-2.5077256027577914,-0.7791389337138495,3.089538721893584
13.439999999999998,-2.6883958596341397,-0.852306920689113,3.2114887770185647
13.450000000000005,-2.89675775176004,-0.9399494596878032,3.311779134592418
13.460000000000008,-3.080942988811894,-1.0362853278847337,3.398283991088208
13.47,-3.203698409497969,-1.1285956783345867,3.4839133504257056
13.480000000000004,-3.256557589315524,-1.191319827483895,3.5866210992802814
13.489999999999997,-3.2875185276167853,-1.258391086786672,3.697429094787674
13.5,-3.338218609691589,-1.3150071455745664,3.776698975070139
13.510000000000003,-3.394988785750116,-1.3923033228885937,3.8353322918812895
13.519999999999996,-3.4543301906260373,-1.482278726394149,3.889475788666653
13.53,-3.5121278421395528,-1.5797675964061066,3.9028555122947335
13.540000000000006,-3.520523621398896,-1.6790582293233294,3.923870232896652
13.549999999999995,-3.5520022537837965,-1.7911953733541766,3.9507179711242415
13.560000000000002,-3.646202666681939,-1.9164221112744608,3.975253843118659
13.570000000000007,-3.6985527162797065,-2.057495682025049,3.9886385989457698
13.579999999999998,-3.680354887724818,-2.198263473331576,3.995951904525792
13.590000000000003,-3.5853700661980685,-2.342209853370702,4.002443054092377
13.600000000000009,-3.444270078328288,-2.4616741354272222,4.007665489886364
13.61,-3.315864845933425,-2.5745964415460656,3.995392308170632
13.620000000000005,-3.1741979411494823,-2.680696249122634,3.964493898014674
13.629999999999995,-3.040882041129301,-2.7908386184014637,3.939890316716365
13.64,-2.9579386834202186,-2.903719117590009,3.899604723414616
13.650000000000006,-2.887828826314535,-3.015422559920738,3.8566175617023872
13.659999999999997,-2.813209002699735,-3.13370022803222,3.825207149490912
13.670000000000002,-2.739816664540504,-3.239525158486261,3.799823840364151
13.680000000000009,-2.6801775205411333,-3.3445010437512197,3.792387337824753
13.689999999999998,-2.6107821699688527,-3.454107070635295,3.782621240221218
13.700000000000005,-2.539733183965559,-3.559719309859664,3.765141341802295
13.710000000000008,-2.45576866692865,-3.659321373709549,3.731242096994394
13.72,-2.354584873883595,-3.761503699852793,3.6827234737722105
13.730000000000004,-2.230817180783869,-3.833710896532128,3.644477482302816
13.739999999999997,-2.105454195187535,-3.887350458599659,3.5787837845395094
13.75,-1.9952482040800712,-3.929466951820837,3.501003270474279
13.760000000000003,-1.888920628699258,-3.96540423424466,3.408035550653591
13.769999999999996,-1.7990949256240822,-3.9897608868469954,3.316706470017936
13.78,-1.7404225925924046,-3.9930735615542976,3.2351710358487367
13.790000000000006,-1.7134105226547982,-3.988141308110504,3.1532790014127743
13.799999999999995,-1.715156736412658,-3.966146465057791,3.0693560521883883
13.810000000000002,-1.7285560645537852,-3.9369034055433216,3.0001876834472303
13.820000000000007,-1.745825728193772,-3.885533153507994,2.927823521877128
13.829999999999998,-1.7534018992622609,-3.8163587865819126,2.852812918177013
13.840000000000003,-1.7770564319688866,-3.737897117814031,2.790918234550581
13.850000000000009,-1.812665120334749,-3.646529752883692,2.730826627840993
13.86,-1.8691878290500763,-3.5462933940007138,2.6797939042817887
13.870000000000005,-1.9219645862736492,-3.423999114349971,2.641315327590533
13.879999999999995,-1.9673529658695128,-3.297924815590464,2.608277933710249
13.89,-1.9755073681016475,-3.1488634265438176,2.556890174417947
13.900000000000006,-1.9722869425456768,-3.0154239193403902,2.521506929456923
13.909999999999997,-1.975330819657803,-2.875756205620334,2.4751094177346564
13.920000000000002,-1.9808126932605548,-2.7454320972780337,2.419656731634491
13.930000000000009,-1.9711648087427225,-2.6333752575461493,2.359976002105953
13.939999999999998,-1.986892622756805,-2.505995877842276,2.303134893863205
13.950000000000005,-1.9897408751852408,-2.3709683726118187,2.2426718860532904
13.960000000000008,-1.9837518077634528,-2.21874104243459,2.1761559098132657
13.97,-1.969496591521715,-2.045505871153845,2.0970353120440586
13.980000000000004,-1.9964751163675616,-1.8716543001803987,2.002384098023552
13.989999999999997,-2.0236660851568478,-1.69127317362898,1.900119416076768
14.0,-2.0431913339483727,-1.51126674019161,1.7940311244136298
14.010000000000003,-2.0731644386080337,-1.3019202605808775,1.6737032932073146
14.019999999999996,-2.0873302992400107,-1.0924792613018957,1.5608544818380532
14.03,-2.0889238688026284,-0.8446760174299595,1.4620995341521608
14.040000000000006,-2.062433174614448,-0.5768471979920073,1.337537106185849
14.049999999999995,-2.024171779601625,-0.2729031689382807,1.2026584907337536
14.060000000000002,-1.9601680417899237,0.0440148630223419,1.056408753598601
14.070000000000007,-1.878902995024223,0.3711716159314526,0.8957213253421268
14.079999999999998,-1.8034029170489976,0.7064087183287491,0.7403055368140631
14.090000000000003,-1.7282559490797078,1.0516890391684846,0.6055898001993987
14.100000000000009,-1.685308779081088,1.4061608485742048,0.4881953695157839
14.11,-1.6548618264528612,1.771311803782014,0.3748901168881566
14.120000000000005,-1.6238128242699676,2.1545561177705785,0.2622534028251067
14.129999999999995,-1.5666139551209144,2.523986274328366,0.1523158775675702
14.14,-1.493996477673141,2.909685232580183,0.0462687186439182
14.150000000000006,-1.4039330675557498,3.283990076511353,-0.0561885070272262
14.159999999999997,-1.300690687970383,3.643975996663009,-0.1473337217627247
14.170000000000002,-1.201737580031148,3.984944393610322,-0.2347751612594783
14.180000000000009,-1.1235448364510463,4.29919514324646,-0.3210784455708774
14.189999999999998,-1.0576360357706844,4.609124296908159,-0.3997593459507085
14.200000000000005,-1.0072242049305349,4.8968675694452966,-0.4835297155422909
14.210000000000008,-0.9595047384206112,5.1773034980167605,-0.57315953227029
14.22,-0.9242255149531564,5.428746800179799,-0.6714301114640007
14.230000000000004,-0.884116146357932,5.652375619907367,-0.7696697746484248
14.239999999999997,-0.794344942800084,5.872137004480432,-0.8727779692113801
14.25,-0.6713488185396612,6.068540077512308,-0.97550011105592
14.260000000000003,-0.5516183079391765,6.2598596352862685,-1.082709603552805
14.269999999999996,-0.4433263767227967,6.420181858725902,-1.1892511934788204
14.28,-0.3207350894224687,6.55422244424982,-1.2942776627911958
14.290000000000006,-0.2029229197620802,6.672273130945611,-1.408096216477629
14.299999999999995,-0.1018646493408086,6.756708403916506,-1.5412738339581502
14.310000000000002,0.0019241382727968,6.815069046711208,-1.6547760577555113
14.320000000000007,0.1151210307289296,6.828599225162884,-1.7354865911384365
14.329999999999998,0.2274885857710538,6.823720547590399,-1.812782095521244
14.340000000000003,0.3305986949703317,6.792219179885959,-1.8711902841016432
14.350000000000009,0.4733942899847261,6.741990801662278,-1.9308049976094628
14.36,0.6267788370751195,6.6746981598704345,-1.9767792289049035
14.370000000000005,0.7989220600075684,6.59270629564475,-2.0272674430939635
14.379999999999995,1.00804349372207,6.4968963034555225,-2.0586588537932067
14.39,1.2408298024485294,6.392646553818066,-2.0932716383956875
14.400000000000006,1.4906301756035374,6.277214395698685,-2.117316896898182
14.409999999999997,1.753141667056274,6.161731572848836,-2.1320153057628213
14.420000000000002,2.0091442148678373,6.037620198268327,-2.1266650850624456
14.430000000000009,2.224288908539888,5.913724803549841,-2.135229411260081
14.439999999999998,2.386512443456917,5.76265262954403,-2.126875385652944
14.450000000000005,2.573274672905966,5.624641032768929,-2.093639668354171
14.460000000000008,2.760542577823639,5.480669138028233,-2.041534317979287
14.47,2.9257199575124506,5.3386781828213286,-1.9843652189413763
14.480000000000004,3.1081699951469,5.197095286528392,-1.9487355203724577
14.489999999999997,3.232747850074906,5.059225754691923,-1.928822314523384
14.5,3.28424781352909,4.914399576890414,-1.9118141276008933
14.510000000000003,3.2799912625671013,4.754137713828653,-1.8599009580805643
14.519999999999996,3.2757408475930574,4.602693846979003,-1.7895867643373466
14.53,3.3233307922603803,4.442904748168272,-1.6999701668952314
14.540000000000006,3.372830987621118,4.292772687020932,-1.601646553624137
14.549999999999995,3.417476623486189,4.1396439106634,-1.5039714933718709
14.560000000000002,3.4174889678398976,3.973991477863604,-1.4049907270534503
14.570000000000007,3.398404647004799,3.7993784314551102,-1.3165804120190217
14.579999999999998,3.4845844979959564,3.59041986076075,-1.2362793214715535
14.590000000000003,3.531944569892618,3.375804554848304,-1.1322925454429318
14.600000000000009,3.481669813364446,3.155811338689819,-1.0437500622516511
14.61,3.4761098126566323,2.928588360425467,-0.965646673273105
14.620000000000005,3.468926625976579,2.7262772251898726,-0.9010652529435088
14.629999999999995,3.417097094342631,2.5432352301261085,-0.8386033922355782
14.64,3.2923413595478928,2.386476858228538,-0.7652207312289212
14.650000000000006,3.1956027419475963,2.260724845399828,-0.6631479818209742
14.659999999999997,3.141813499659025,2.138620516709957,-0.5294340492412746
14.670000000000002,3.1391682637447937,2.0177932763453423,-0.365127836290943
14.680000000000009,3.180148666052166,1.8886259647244956,-0.1835534168725728
14.689999999999998,3.2478883297760297,1.747399491057817,-0.0084043757129282
14.700000000000005,3.313727372790441,1.6118727534158213,0.1578702381375711
14.710000000000008,3.3358995081398333,1.4916298452866468,0.3022366109547493
14.72,3.3006981745867496,1.380114885095496,0.4311589832262426
14.730000000000004,3.1732763693494253,1.259470274620065,0.5488385786716304
14.739999999999997,3.0526958106436024,1.1680491647114193,0.6616631532545906
14.75,2.9569238711004724,1.078487785052383,0.7832442015547105
14.760000000000003,2.862830900186242,1.025623150036158,0.8989265931357736
14.769999999999996,2.773292067520853,0.993771354354304,1.0062681223246648
14.78,2.715312404571159,0.9626868904170168,1.1030713142119424
14.790000000000006,2.672496225886296,0.9501153660247664,1.1906019714605247
14.799999999999995,2.653976095604408,0.9403517853490776,1.265258125834517
14.810000000000002,2.618401828864818,0.9334889168431793,1.3264662887867935
14.820000000000007,2.5420677246009977,0.9218275684597822,1.3649373619979308
14.829999999999998,2.4347211225847243,0.8908945746234003,1.402330685739436
14.840000000000003,2.3095128310159043,0.8509853242522916,1.4442336151428865
14.850000000000009,2.154824779387751,0.8238022403346674,1.4724131187811644
14.86,1.9915771617408065,0.7810397190219396,1.5029657571070405
14.870000000000005,1.835465418404761,0.7437776559615932,1.5458410083189795
14.879999999999995,1.66767791729789,0.7080659116301898,1.5830947360267358
14.89,1.5168103962491493,0.6765279641162026,1.612462054274273
14.900000000000006,1.3831640559988512,0.6484661669734795,1.6462077738548662
14.909999999999997,1.2689799146689882,0.6449077892842244,1.657406899823684
14.920000000000002,1.1497936774778708,0.6493989472678046,1.670804005581017
14.930000000000009,1.034235886802367,0.6566818623758303,1.6862423671479054
14.939999999999998,0.8923812351695684,0.6755317642963571,1.70408193037409
14.950000000000005,0.7526481933366548,0.6991639197574563,1.740299441273283
14.960000000000008,0.6219154170984971,0.7235038602126979,1.7975379763171075
14.97,0.518928946396287,0.7477250332053053,1.882799362419162
14.980000000000004,0.4345367164826039,0.7908487431804486,1.969857163979294
14.989999999999997,0.3841549211610123,0.8382219415894004,2.060781391822041
15.0,0.339228348536871,0.8850409910571232,2.1410959980841766
15.010000000000003,0.2960905079954686,0.9455861094515812,2.213320774667578
15.019999999999996,0.2523094051953742,0.9969270148373386,2.3173040040878896
15.03,0.2180271865522224,1.0500606916822046,2.433915454344555
15.040000000000006,0.1636676536707262,1.1075151066468003,2.5663998113858333
15.049999999999995,0.0885701173126753,1.1629152452404563,2.7014290510668277
15.060000000000002,-0.0104821696012027,1.2314796734432274,2.8329381097144437
15.070000000000007,-0.111483672938497,1.292685782752699,2.969861654583556
15.079999999999998,-0.226744023132275,1.348428348755414,3.120140972727378
15.090000000000003,-0.3599829123542716,1.3871856958559097,3.2879296804477125
15.100000000000009,-0.4700916277029316,1.4284190220953876,3.44533836662119
15.11,-0.5963519791864155,1.4494350851330018,3.609447248279017
15.120000000000005,-0.7369947392168261,1.470414209260116,3.776779469852376
15.129999999999995,-0.9029139246351718,1.488017997715522,3.9379442327475687
15.14,-1.0921491037337614,1.4870551281160127,4.095983690647799
15.150000000000006,-1.2704665998130444,1.482191775654625,4.254870471835117
15.159999999999997,-1.4545753281822973,1.4563825805530697,4.414222207995221
15.170000000000002,-1.6082732340651908,1.420378692578124,4.538960612425691
15.180000000000009,-1.764410689121994,1.3770101852118355,4.647263068385047
15.189999999999998,-1.9169803903434492,1.3129206973192074,4.736491669104953
15.200000000000005,-2.07109599532158,1.2366487952806602,4.802627723708882
15.210000000000008,-2.197528911992778,1.1352969249792135,4.844249477887849
15.22,-2.292415371681644,1.0238063108360604,4.87962106365209
15.230000000000004,-2.368727198390062,0.8997885151284866,4.908709551679338
15.239999999999997,-2.445854034855673,0.7647033165936739,4.927470619464879
15.25,-2.512853914007301,0.6196283502111869,4.933025757743291
15.260000000000003,-2.5761417081053173,0.4708189730514253,4.937558283638075
15.269999999999996,-2.601912588559252,0.3251790347503617,4.9105599096411385
15.28,-2.59486248157476,0.1875574966912727,4.874541996366352
15.290000000000006,-2.580652710402268,0.0500274122886917,4.831887292795472
15.299999999999995,-2.567568909748734,-0.0925473606521197,4.769780327537809
15.310000000000002,-2.5601742685223767,-0.2178059507383998,4.687431870527658
15.320000000000007,-2.532213689262641,-0.3190983824783453,4.584885475207893
15.329999999999998,-2.4908954611226,-0.3928366186237148,4.478345394379679
15.340000000000003,-2.4786726811073443,-0.454730848733128,4.3673678251787535
15.350000000000009,-2.4751193708375263,-0.4841611053968273,4.254757833415069
15.36,-2.4624634819723936,-0.4988240853690338,4.155588912863082
15.370000000000005,-2.42109469564179,-0.4924233759251184,4.066311561173199
15.379999999999995,-2.365667406202398,-0.4642286680666871,3.963965142057708
15.39,-2.2860793563216357,-0.4093718528870607,3.8587754698619694
15.400000000000006,-2.211149933656261,-0.3146751981870739,3.754834185373898
15.409999999999997,-2.14372216019964,-0.2144392731534534,3.654482123334049
15.420000000000002,-2.072711690185209,-0.10571082282649,3.568247552320328
15.430000000000009,-2.0137596778471543,-0.001493336242085,3.4980763042696363
15.439999999999998,-2.00989465030028,0.0709553870807084,3.444291075650766
15.450000000000005,-2.0374182419104145,0.1224275899754836,3.4143104256014354
15.460000000000008,-2.05281490209457,0.1651760562856806,3.415773120262404
15.47,-2.087471274357461,0.1928776866048932,3.41044876372226
15.480000000000004,-2.140297982207647,0.2156892121202249,3.4123631454072307
15.489999999999997,-2.18529626739193,0.2301776505762735,3.415385167006987
15.5,-2.244344270756539,0.2423220626454297,3.4053009042470506
15.510000000000003,-2.305194889691858,0.2617308556629787,3.383610168850116
15.519999999999996,-2.3564625120314027,0.2610498845438773,3.354796725628075
15.53,-2.3912719113430945,0.2533815507741117,3.332704735623917
15.540000000000006,-2.42440176118064,0.2371870478833266,3.317075963252381
15.549999999999995,-2.456502250031781,0.2150293167298013,3.2845397437729686
15.560000000000002,-2.4923361363922854,0.1741028388955611,3.2515450137701456
15.570000000000007,-2.54009333420197,0.138539673960555,3.2155500411752818
15.579999999999998,-2.5710749542693283,0.0912078489803682,3.186486152482605
15.590000000000003,-2.588675755059897,0.0341612851258765,3.1501500903279136
15.600000000000009,-2.567726448236227,-0.0171002026873649,3.1190186142990504
15.61,-2.506576464461896,-0.0724144683915668,3.0687633666832426
15.620000000000005,-2.402129267816159,-0.127524085603277,3.007491275168194
15.629999999999995,-2.307422825858747,-0.1793611100137372,2.930287692918012
15.64,-2.20991134418262,-0.226315819688967,2.846592337196728
15.650000000000006,-2.07708489157434,-0.2721536260828546,2.7721936323125025
15.659999999999997,-1.956536662843636,-0.3102845375285734,2.698288593808347
15.670000000000002,-1.820603165811235,-0.3496864558373209,2.6168788920330788
15.680000000000009,-1.7111036523419574,-0.3851031501219812,2.528495948140311
15.689999999999998,-1.6134017614527172,-0.4171756638953152,2.4351234294924904
15.700000000000005,-1.52973251281264,-0.4346948293447822,2.3394395590229573
15.710000000000008,-1.4046057634177396,-0.4567446138289417,2.234157565712737
15.72,-1.3128400475157171,-0.4692475958755289,2.126954477602113
15.730000000000004,-1.216257621846588,-0.4637968303513708,1.9994008910624488
15.739999999999997,-1.1538582118873937,-0.4387887715394018,1.857246375757928
15.75,-1.0750005663043296,-0.4032708797227758,1.6902138314826698
15.760000000000003,-0.9903321417721976,-0.3468627777639053,1.5273360210010876
15.769999999999996,-0.9150410821744844,-0.270610964532278,1.3560543105441003
15.78,-0.8531212522022832,-0.1736176086866344,1.1927039277127436
15.790000000000006,-0.801836052920168,-0.0507743282519103,1.0285618144839823
15.799999999999995,-0.7703777976047552,0.0886477822580806,0.8455691100499532
15.810000000000002,-0.7328323711107371,0.2535454364989613,0.6587151062789122
15.820000000000007,-0.6914696030178005,0.4273160539946855,0.4685570610785765
15.829999999999998,-0.6399344774467667,0.6196194353545948,0.2888837312968544
15.840000000000003,-0.5795772054949243,0.8301611371347665,0.11030771784319
15.850000000000009,-0.5303026829599681,1.0397847535240488,-0.0834214838952725
15.86,-0.4827690676562085,1.2620873315131516,-0.2771992217896137
15.870000000000005,-0.432165218407657,1.5057638627506074,-0.4678349537306841
15.879999999999995,-0.36871862224573,1.7517758059118589,-0.6626672179694681
15.89,-0.2812279580166159,2.012484183255923,-0.8493748364680576
15.900000000000006,-0.1652778039276356,2.26919452332184,-1.0517852844625573
15.909999999999997,-0.0424926338613628,2.5373549943113307,-1.2750517381439572
15.920000000000002,0.0869428087989929,2.798719144382055,-1.477043315478178
15.930000000000009,0.2005101971269384,3.060868543426026,-1.683374095452761
15.939999999999998,0.2946700635949357,3.326254766076306,-1.8673933082103629
15.950000000000005,0.3840092656003692,3.577209251679719,-2.0385239160308046
15.960000000000008,0.4782368659812679,3.82829768213558,-2.1907351295773334
15.97,0.5683169452171148,4.07593403091469,-2.3573671698854617
15.980000000000004,0.659877066280464,4.313432049609235,-2.51653916793066
15.989999999999997,0.7544670848873756,4.542611134521897,-2.6772958271452465
16.0,0.8540800192796947,4.745441621596724,-2.8182645311291563
16.010000000000005,0.9330641742068766,4.942761706570559,-2.9348111853750782
16.019999999999996,1.0344733381689648,5.104962409446671,-3.0159031097659628
16.03,1.1434508166076636,5.239151135082511,-3.0674832911370427
16.040000000000006,1.291136626098582,5.34393967714745,-3.110280321457911
16.049999999999997,1.4664658873350758,5.412967658705723,-3.15743543648932
16.060000000000002,1.6516906685580826,5.459354923263237,-3.2071745229867443
16.070000000000007,1.8226487182520523,5.501909674732079,-3.2553209365347864
16.08,1.9819808020945784,5.525158115527754,-3.304029648887598
16.090000000000003,2.136622011943973,5.538686847006047,-3.3385566910571742
16.10000000000001,2.280765991958172,5.527967728005387,-3.3683874511232896
16.11,2.409445621140777,5.515353603659494,-3.388271272866122
