time,Gyr_X,Gyr_Y,Gyr_Z
0.0,0.002924,-0.000754,0.004213
0.0024999999999977,0.003518,-0.000948,0.003211
0.0049999999999954,0.003818,0.001077,0.003339
0.0074999999999931,0.003789,0.002524,0.007495
0.0099999999999909,0.00489,-0.000727,0.003149
0.0124999999999886,0.001799,0.000147,0.002817
0.0149999999999863,0.00528,-0.003128,0.002795
0.017499999999984,0.005008,0.002584,0.00892
0.0199999999999818,0.001535,0.002335,0.004399
0.0224999999999795,0.002535,0.00047,0.001515
0.0249999999999772,0.002427,0.000841,0.004645
0.0274999999999749,0.00686,0.002144,0.004352
0.0300000000000011,0.002149,0.001521,0.003969
0.0324999999999988,0.003681,-0.003101,0.00596
0.0349999999999965,0.00402,-0.001229,0.003117
0.0374999999999943,0.004027,0.003003,0.003352
0.039999999999992,0.002751,0.002046,0.001866
0.0424999999999897,0.004651,-0.000426,0.005542
0.0449999999999874,0.001199,9.6e-05,0.004234
0.0474999999999852,0.005285,-0.000751,0.003552
0.0499999999999829,0.001989,-0.000805,0.003792
0.0524999999999806,0.003552,-0.002576,0.004511
0.0549999999999784,0.001698,0.000154,0.005833
0.0574999999999761,0.00244,0.004026,0.006831
0.0599999999999738,0.002668,0.000494,0.003511
0.0625,0.002068,-0.001781,0.003035
0.0649999999999977,0.002856,-0.000203,0.00345
0.0674999999999954,0.001094,0.000785,0.003437
0.0699999999999931,0.000247,0.00022,0.004672
0.0724999999999909,0.003239,0.001378,0.004434
0.0749999999999886,0.00324,0.005824,0.003838
0.0774999999999863,0.003671,0.005165,0.001649
0.079999999999984,0.002215,0.001303,0.005323
0.0824999999999818,0.004316,-0.00155,0.002163
0.0849999999999795,0.002822,-0.003481,0.004496
0.0874999999999772,0.00084,-0.000286,0.005753
0.0899999999999749,-0.000802,0.000801,0.00511
0.0925000000000011,0.002525,-0.000639,0.003058
0.0949999999999988,-0.000437,0.000306,0.004601
0.0974999999999965,0.005145,0.00046,0.003297
0.0999999999999943,0.004584,0.001829,0.003859
0.102499999999992,0.001877,0.002,0.000887
0.1049999999999897,0.001132,0.000776,0.00199
0.1074999999999875,0.001586,0.004166,0.001373
0.1099999999999852,-0.000645,0.003085,0.002571
0.1124999999999829,0.003675,0.004656,0.003421
0.1149999999999806,0.002978,0.000728,0.005674
0.1174999999999784,0.004524,0.004618,0.001937
0.1199999999999761,0.002319,0.004267,0.001074
0.1224999999999738,0.004772,0.009132,0.004012
0.125,-0.000209,-0.000851,0.00538
0.1274999999999977,0.004653,-0.001767,0.003219
0.1299999999999954,0.002704,0.000203,0.005095
0.1324999999999931,0.003874,0.000811,0.005389
0.1349999999999909,0.005855,-8.8e-05,0.001817
0.1374999999999886,0.003686,0.00177,0.003851
0.1399999999999863,0.000162,0.0021,0.002807
0.142499999999984,0.003672,0.003139,0.005194
0.1449999999999818,0.00472,-0.001547,0.000384
0.1474999999999795,0.003073,0.002079,0.001582
0.1499999999999772,0.000793,0.000734,0.005076
0.152499999999975,0.002493,-0.001575,0.004192
0.1550000000000011,0.000452,0.00039,0.002236
0.1574999999999988,0.003565,0.001685,0.00219
0.1599999999999966,0.005048,0.000478,0.002209
0.1624999999999943,0.001184,0.000987,0.00226
0.164999999999992,0.002762,-0.000659,0.002613
0.1674999999999897,0.002239,0.000461,0.005885
0.1699999999999875,0.003143,-7e-06,0.003549
0.1724999999999852,0.00274,0.000774,0.002206
0.1749999999999829,0.004233,-0.001805,0.004219
0.1774999999999806,0.004751,0.001705,0.004087
0.1799999999999784,-0.000471,0.000406,0.001567
0.1824999999999761,-9.4e-05,-9.5e-05,0.004055
0.1849999999999738,0.005623,0.000145,0.005216
0.1875,0.001544,0.003871,0.005153
0.1899999999999977,0.002874,0.003511,0.005809
0.1924999999999954,0.003245,0.002515,0.004131
0.1949999999999931,0.001483,0.002464,0.003322
0.1974999999999909,0.001866,-0.001957,0.005006
0.1999999999999886,0.004347,-0.000386,0.000704
0.2024999999999863,0.000974,0.000118,0.005307
0.204999999999984,0.000558,-0.001343,0.005185
0.2074999999999818,0.00208,-0.001693,0.002442
0.2099999999999795,0.003559,0.001631,0.00641
0.2124999999999772,0.000186,0.000859,0.006375
0.214999999999975,0.000738,-0.001143,0.001382
0.2175000000000011,0.001939,0.001799,0.004144
0.2199999999999988,0.002491,0.002994,0.002397
0.2224999999999966,0.00223,0.001725,0.00302
0.2249999999999943,0.004388,-0.000359,0.005016
0.227499999999992,0.002839,-0.003085,0.001968
0.2299999999999897,0.001932,-0.000392,0.002401
0.2324999999999875,0.000911,0.001914,0.002614
0.2349999999999852,0.002963,-6e-05,0.003073
0.2374999999999829,0.00098,0.002167,0.004221
0.2399999999999806,0.005011,0.002057,0.003115
0.2424999999999784,0.00178,0.000989,0.005151
0.2449999999999761,0.001781,0.001121,0.004955
0.2474999999999738,0.002363,-0.001447,0.005713
0.25,0.002516,-0.000401,0.002833
0.2524999999999977,0.000312,-0.005057,0.001154
0.2549999999999954,0.00326,-0.001033,0.002637
0.2574999999999932,0.001591,0.001241,0.008456
0.2599999999999909,-0.000936,0.000533,0.004182
0.2624999999999886,0.001509,0.00129,-0.001152
0.2649999999999863,0.002853,-0.000302,0.0033
0.2674999999999841,0.002024,-0.000547,0.003336
0.2699999999999818,-0.001134,0.002345,0.004678
0.2724999999999795,0.002053,0.002912,0.002855
0.2749999999999772,0.001604,0.001017,0.007734
0.277499999999975,0.003364,-5.7e-05,0.004409
0.2800000000000011,0.001118,-0.001043,0.004771
0.2824999999999988,0.002316,0.001653,0.00112
0.2849999999999966,0.002294,0.000124,0.00382
0.2874999999999943,0.004485,0.001302,0.001181
0.289999999999992,0.002521,-1.9e-05,0.004839
0.2924999999999897,0.000224,-0.00091,0.006139
0.2949999999999875,0.003054,-0.000575,0.005115
0.2974999999999852,0.002775,0.000629,0.00627
0.2999999999999829,-0.001766,-0.001076,0.004465
0.3024999999999807,3.2e-05,8.6e-05,0.001682
0.3049999999999784,0.001975,0.001971,0.005112
0.3074999999999761,0.00563,-0.002903,0.004423
0.3099999999999738,0.001312,0.004112,0.007232
0.3125,0.000756,0.000369,0.002634
0.3149999999999977,0.004337,0.004161,0.005009
0.3174999999999954,0.003881,0.004057,0.002026
0.3199999999999932,-0.000864,0.003218,0.001014
0.3224999999999909,0.003358,-0.000882,0.004131
0.3249999999999886,0.001935,-0.001116,0.003902
0.3274999999999863,0.00485,-0.002122,0.005072
0.3299999999999841,-0.000335,0.00206,0.005848
0.3324999999999818,0.003505,-0.000665,0.002541
0.3349999999999795,0.000524,-0.001507,0.00283
0.3374999999999772,0.00189,0.002073,0.000767
0.339999999999975,0.004209,-0.002247,0.005504
0.3425000000000011,0.003544,-0.003117,0.003772
0.3449999999999988,0.001649,0.000811,0.005517
0.3474999999999966,0.002249,0.00072,0.003416
0.3499999999999943,0.003309,-0.00011,0.003781
0.352499999999992,0.003485,-0.00072,0.004933
0.3549999999999897,0.002015,0.002118,0.005024
0.3574999999999875,0.00296,0.004219,0.003373
0.3599999999999852,0.002598,3.9e-05,0.003063
0.3624999999999829,0.00231,-0.001803,-0.000168
0.3649999999999807,0.003398,0.00143,0.003249
0.3674999999999784,0.001294,-0.001234,0.00347
0.3699999999999761,-0.000194,0.000655,0.005303
0.3724999999999738,0.002439,0.001959,0.005002
0.375,0.004024,0.000558,0.004558
0.3774999999999977,0.002953,0.001793,0.004986
0.3799999999999954,-0.001135,-0.000983,0.004527
0.3824999999999932,0.002574,-0.002886,0.005765
0.3849999999999909,0.002799,-0.000839,0.003328
0.3874999999999886,0.002337,0.002562,0.005484
0.3899999999999863,0.002592,0.001306,0.000431
0.3924999999999841,0.002856,0.00077,0.004666
0.3949999999999818,0.002386,0.002367,0.005201
0.3974999999999795,0.004178,0.002549,0.00364
0.3999999999999772,0.003076,0.005532,0.003099
0.402499999999975,0.000751,0.001813,0.005415
0.4050000000000011,0.002424,0.001741,0.004763
0.4074999999999988,0.004182,-0.000131,0.005075
0.4099999999999966,0.003903,0.000567,0.003121
0.4124999999999943,0.004081,0.00117,0.005298
0.414999999999992,0.003473,-0.001495,0.007857
0.4174999999999897,0.003282,0.000427,0.004502
0.4199999999999875,0.003443,-0.001739,0.004513
0.4224999999999852,0.001513,0.000899,0.005654
0.4249999999999829,0.002886,0.002404,0.004587
0.4274999999999807,0.005754,0.001747,0.004578
0.4299999999999784,0.001443,0.002336,0.002747
0.4324999999999761,0.003044,0.000348,0.001987
0.4349999999999738,0.002689,-0.000125,0.003258
0.4375,0.002604,0.003973,0.004456
0.4399999999999977,0.003239,-0.000995,0.005542
0.4424999999999954,0.001546,0.000713,0.003795
0.4449999999999932,-0.001726,0.000421,0.005848
0.4474999999999909,0.0022,-0.002766,0.006909
0.4499999999999886,0.000598,0.000121,0.004124
0.4524999999999863,0.001232,-0.001067,0.002556
0.4549999999999841,0.002446,-0.000158,0.004538
0.4574999999999818,0.000971,-0.001357,0.00115
0.4599999999999795,-0.000677,-0.00021,0.002979
0.4624999999999772,-0.000803,0.001854,0.00437
0.464999999999975,-0.001518,-0.00135,0.003562
0.4675000000000011,-0.001654,-0.000861,0.002941
0.4699999999999988,-0.002293,0.00058,0.003029
0.4724999999999966,-0.002448,0.002088,0.004932
0.4749999999999943,-0.001733,0.000431,0.002708
0.477499999999992,-0.006594,0.000782,-0.000224
0.4799999999999897,-0.002669,0.002842,0.004697
0.4824999999999875,-0.000983,0.000117,0.005012
0.4849999999999852,-0.001724,0.001211,0.002787
0.4874999999999829,-0.001268,0.003131,0.003804
0.4899999999999807,0.002775,-0.000276,0.001694
0.4924999999999784,0.00091,0.001344,-0.00014
0.4949999999999761,-0.001362,-0.000373,0.002459
0.4974999999999738,-0.003967,0.001811,0.003948
0.5,0.000495,0.001471,0.000577
0.5024999999999977,0.001112,0.002155,0.003503
0.5049999999999955,0.00199,0.000999,0.003885
0.5074999999999932,0.003689,6.8e-05,0.003552
0.5099999999999909,0.000495,-0.001813,0.003075
0.5124999999999886,-0.002021,-0.000605,0.003322
0.5149999999999864,0.006088,0.003669,0.006815
0.5174999999999841,0.000676,0.001035,0.001726
0.5199999999999818,-0.001903,0.002054,0.004352
0.5224999999999795,0.002377,-0.000495,0.003403
0.5249999999999773,0.004878,0.002373,0.005948
0.527499999999975,0.002668,0.005279,0.002281
0.5300000000000011,0.002844,0.005943,0.004829
0.5324999999999989,0.005089,0.002245,0.002763
0.5349999999999966,0.002871,0.000621,0.005244
0.5374999999999943,0.002845,-0.000657,0.00321
0.539999999999992,-0.00158,-0.000525,0.0013
0.5424999999999898,0.001125,0.000976,0.002432
0.5449999999999875,0.001095,-0.002335,0.004181
0.5474999999999852,-0.00267,0.002614,0.003453
0.549999999999983,-0.00356,0.004374,0.002783
0.5524999999999807,-0.000963,0.000591,0.004586
0.5549999999999784,-0.001271,0.001754,0.005303
0.5574999999999761,-0.003894,-0.001173,0.004659
0.5599999999999739,-0.007385,0.002689,0.004601
0.5625,-0.00336,0.003358,0.00324
0.5649999999999977,-0.005192,0.001698,0.002079
0.5674999999999955,-0.008316,0.003501,0.005021
0.5699999999999932,-0.009802,0.002331,-0.000817
0.5724999999999909,-0.009947,0.001296,0.004337
0.5749999999999886,-0.012673,0.000811,-0.00028
0.5774999999999864,-0.016181,0.001269,0.003795
0.5799999999999841,-0.020128,0.003912,0.003896
0.5824999999999818,-0.02131,0.001841,0.003558
0.5849999999999795,-0.027618,0.003539,0.004598
0.5874999999999773,-0.026292,0.00596,0.004464
0.589999999999975,-0.02847,0.005417,0.007095
0.5925000000000011,-0.036389,0.004105,0.003526
0.5949999999999989,-0.042936,0.00278,0.004148
0.5974999999999966,-0.044161,0.001135,0.005922
0.5999999999999943,-0.048228,0.001314,0.005379
0.602499999999992,-0.056359,0.003579,0.004043
0.6049999999999898,-0.059298,3.9e-05,0.005249
0.6074999999999875,-0.06291,-0.000252,0.001269
0.6099999999999852,-0.072001,0.002306,-0.000414
0.612499999999983,-0.075005,0.003117,0.000492
0.6149999999999807,-0.078939,0.001238,0.003637
0.6174999999999784,-0.087769,0.004861,0.004269
0.6199999999999761,-0.091483,0.001881,0.003991
0.6224999999999739,-0.097959,-0.001118,0.005301
0.625,-0.10066,0.002787,0.001856
0.6274999999999977,-0.103797,0.001735,0.00397
0.6299999999999955,-0.107519,0.002702,0.000628
0.6324999999999932,-0.112204,0.000554,0.002616
0.6349999999999909,-0.11594,0.003935,0.002844
0.6374999999999886,-0.117594,0.001632,1e-05
0.6399999999999864,-0.12036,-0.000437,0.000978
0.6424999999999841,-0.126562,-0.000726,0.000186
0.6449999999999818,-0.12607,0.000878,0.004751
0.6474999999999795,-0.130925,0.000822,0.002537
0.6499999999999773,-0.129557,-0.002873,0.003629
0.652499999999975,-0.132984,-0.001059,0.001971
0.6550000000000011,-0.134686,-0.001737,0.002303
0.6574999999999989,-0.137107,-0.00318,0.000336
0.6599999999999966,-0.137694,0.000561,-0.000748
0.6624999999999943,-0.137731,-0.001664,0.002965
0.664999999999992,-0.140485,-0.002018,0.003204
0.6674999999999898,-0.139061,-0.000907,0.002315
0.6699999999999875,-0.142424,0.002784,0.000463
0.6724999999999852,-0.140263,0.003322,0.002574
0.674999999999983,-0.14191,0.000211,0.000639
0.6774999999999807,-0.141072,0.002392,0.002909
0.6799999999999784,-0.146769,0.003859,0.002071
0.6824999999999761,-0.150153,0.004476,0.00197
0.6849999999999739,-0.152792,0.000753,0.00105
0.6875,-0.149883,0.001311,0.001521
0.6899999999999977,-0.154005,0.001533,0.004546
0.6924999999999955,-0.152256,0.002021,-0.000605
0.6949999999999932,-0.160222,0.004204,0.002532
0.6974999999999909,-0.163452,0.00186,0.002792
0.6999999999999886,-0.164908,-0.002517,0.000901
0.7024999999999864,-0.167219,0.000914,0.004549
0.7049999999999841,-0.171839,0.001431,0.007738
0.7074999999999818,-0.172217,0.000853,0.001048
0.7099999999999795,-0.18124,-0.001511,0.00309
0.7124999999999773,-0.184284,-0.000343,0.004589
0.714999999999975,-0.188772,0.000689,0.004955
0.7175000000000011,-0.194941,9.2e-05,0.005365
0.7199999999999989,-0.194854,0.002002,0.004578
0.7224999999999966,-0.201279,0.003638,0.005399
0.7249999999999943,-0.207615,0.001917,0.007435
0.727499999999992,-0.210987,-0.000574,0.006314
0.7299999999999898,-0.218581,0.002501,0.007891
0.7324999999999875,-0.225112,0.00143,0.005598
0.7349999999999852,-0.227138,0.005432,0.004483
0.737499999999983,-0.230983,0.00039,0.004438
0.7399999999999807,-0.236477,0.002898,0.004772
0.7424999999999784,-0.247324,0.004704,0.008374
0.7449999999999761,-0.254218,0.002623,0.011238
0.7474999999999739,-0.262107,0.005563,0.006003
0.75,-0.268035,0.002899,0.004827
0.7524999999999977,-0.273523,0.003992,0.008392
0.7549999999999955,-0.284544,0.006584,0.007796
0.7574999999999932,-0.292106,0.004872,0.011875
0.7599999999999909,-0.301783,0.004023,0.006436
0.7624999999999886,-0.3124,0.006347,0.00881
0.7649999999999864,-0.320825,0.004762,0.011434
0.7674999999999841,-0.330612,0.007109,0.009004
0.7699999999999818,-0.344162,-0.000168,0.008173
0.7724999999999795,-0.353368,-0.005306,0.004093
0.7749999999999773,-0.360212,-0.003624,0.003465
0.777499999999975,-0.370897,-0.003143,-0.000887
0.7800000000000011,-0.379512,-0.006646,-0.000414
0.7824999999999989,-0.389211,-0.007433,-0.00193
0.7849999999999966,-0.398059,-0.001834,-0.004834
0.7874999999999943,-0.406532,0.004053,-0.011142
0.789999999999992,-0.412655,-0.00342,-0.008504
0.7924999999999898,-0.427265,0.000881,-0.008073
0.7949999999999875,-0.432476,-0.000443,-0.009529
0.7974999999999852,-0.441378,-0.001141,-0.007753
0.799999999999983,-0.452536,-3e-05,-0.004107
0.8024999999999807,-0.46473,2.3e-05,-0.004034
0.8049999999999784,-0.471056,-0.000577,-0.001933
0.8074999999999761,-0.48504,0.001793,-0.001271
0.8099999999999739,-0.500037,-2.8e-05,0.000884
0.8125,-0.510015,0.00129,0.003178
0.8149999999999977,-0.518145,-0.001167,0.001831
0.8174999999999955,-0.532287,-0.002542,0.003802
0.8199999999999932,-0.54677,-4.9e-05,0.001413
0.8224999999999909,-0.559391,0.000291,0.004777
0.8249999999999886,-0.566779,0.003462,0.009035
0.8274999999999864,-0.581028,0.001746,0.006301
0.8299999999999841,-0.592931,0.003387,0.003746
0.8324999999999818,-0.603871,0.004768,0.006307
0.8349999999999795,-0.615609,0.002589,0.002795
0.8374999999999773,-0.627744,0.004862,0.004653
0.839999999999975,-0.638405,0.003371,0.008427
0.8425000000000011,-0.650162,0.003553,0.007194
0.8449999999999989,-0.662051,0.005544,0.008785
0.8474999999999966,-0.670956,0.003926,0.005323
0.8499999999999943,-0.677854,0.00728,0.004474
0.852499999999992,-0.685394,0.004791,0.004811
0.8549999999999898,-0.696592,0.00551,0.005423
0.8574999999999875,-0.706616,0.004826,0.004947
0.8599999999999852,-0.713274,0.005745,0.001784
0.862499999999983,-0.720979,0.001756,0.001346
0.8649999999999807,-0.729002,0.004033,0.00511
0.8674999999999784,-0.736459,0.006733,0.003389
0.8699999999999761,-0.74793,0.005914,0.003668
0.8724999999999739,-0.750569,0.006818,0.00334
0.875,-0.760934,0.006896,0.005061
0.8774999999999977,-0.763276,0.004903,0.003094
0.8799999999999955,-0.7734,0.004796,-0.000146
0.8824999999999932,-0.777146,0.006461,-0.000189
0.8849999999999909,-0.784601,0.002785,0.000356
0.8874999999999886,-0.792818,0.006161,0.00264
0.8899999999999864,-0.795807,0.004581,0.00293
0.8924999999999841,-0.80387,0.005136,-0.000834
0.8949999999999818,-0.805333,0.01409,-0.001577
0.8974999999999795,-0.810127,0.010092,-0.001396
0.8999999999999773,-0.815874,0.009172,0.00174
0.902499999999975,-0.818536,0.004251,-0.000222
0.9050000000000012,-0.819485,0.010509,-0.002657
0.9074999999999988,-0.826137,0.014619,-0.003797
0.9099999999999966,-0.823277,0.012375,-0.006071
0.9124999999999944,-0.824532,0.013592,-0.006711
0.914999999999992,-0.820631,0.014964,-0.007485
0.9174999999999898,-0.820385,0.016057,-0.008979
0.9199999999999876,-0.81805,0.018048,-0.008722
0.9224999999999852,-0.811687,0.018431,-0.010826
0.924999999999983,-0.809767,0.018015,-0.011179
0.9274999999999808,-0.80605,0.024071,-0.011994
0.9299999999999784,-0.797012,0.026347,-0.010286
0.932499999999976,-0.792718,0.030012,-0.013204
0.934999999999974,-0.786188,0.033627,-0.010467
0.9375,-0.776274,0.03307,-0.009995
0.9399999999999976,-0.767824,0.0351,-0.013392
0.9424999999999956,-0.755674,0.036112,-0.012214
0.9449999999999932,-0.743906,0.03721,-0.013353
0.9474999999999908,-0.738336,0.040296,-0.015742
0.9499999999999886,-0.729252,0.03972,-0.017297
0.9524999999999864,-0.717072,0.037739,-0.018683
0.954999999999984,-0.71189,0.038943,-0.016856
0.9574999999999818,-0.699546,0.038763,-0.021721
0.9599999999999796,-0.691115,0.039302,-0.024103
0.9624999999999772,-0.67431,0.03725,-0.025183
0.964999999999975,-0.665571,0.03157,-0.027342
0.9675000000000012,-0.655155,0.032393,-0.033608
0.9699999999999988,-0.63699,0.034034,-0.040401
0.9724999999999966,-0.628615,0.034841,-0.03604
0.9749999999999944,-0.618729,0.034262,-0.041775
0.977499999999992,-0.605987,0.030423,-0.044221
0.9799999999999898,-0.594845,0.031536,-0.045632
0.9824999999999876,-0.583887,0.032728,-0.049998
0.9849999999999852,-0.568849,0.029909,-0.05184
0.987499999999983,-0.558637,0.034229,-0.055258
0.9899999999999808,-0.545117,0.030693,-0.055727
0.9924999999999784,-0.534797,0.031017,-0.059128
0.994999999999976,-0.521982,0.029445,-0.058158
0.997499999999974,-0.510675,0.034539,-0.059754
1.0,-0.498644,0.03098,-0.062074
1.0024999999999975,-0.49063,0.032732,-0.059673
1.0049999999999957,-0.479694,0.031558,-0.05897
1.0074999999999932,-0.467105,0.036765,-0.058749
1.009999999999991,-0.457221,0.036669,-0.057836
1.0124999999999886,-0.448781,0.034549,-0.054105
1.0149999999999864,-0.436062,0.039528,-0.05642
1.017499999999984,-0.426261,0.036415,-0.052145
1.0199999999999818,-0.414658,0.037771,-0.051489
1.0224999999999795,-0.407293,0.039851,-0.047497
1.0249999999999773,-0.397651,0.039201,-0.046365
1.027499999999975,-0.385699,0.039769,-0.042818
1.0300000000000011,-0.375238,0.035881,-0.040759
1.0324999999999989,-0.370348,0.035521,-0.037044
1.0349999999999966,-0.366099,0.034002,-0.038514
1.0374999999999943,-0.356099,0.036538,-0.034733
1.039999999999992,-0.348084,0.037668,-0.035863
1.0424999999999898,-0.339745,0.038559,-0.03096
1.0449999999999875,-0.333399,0.038026,-0.028896
1.0474999999999852,-0.324397,0.038133,-0.026678
1.049999999999983,-0.319915,0.040027,-0.026567
1.052499999999981,-0.313759,0.037058,-0.019017
1.0549999999999784,-0.30836,0.037373,-0.015402
1.057499999999976,-0.300333,0.041883,-0.017129
1.059999999999974,-0.295696,0.039555,-0.009905
1.0625,-0.289719,0.037815,-0.005937
1.0649999999999975,-0.285845,0.043903,-0.007579
1.0674999999999957,-0.282182,0.042432,-4.9e-05
1.0699999999999932,-0.282604,0.043777,0.001419
1.072499999999991,-0.282098,0.039782,0.003313
1.0749999999999886,-0.275737,0.045779,0.006383
1.0774999999999864,-0.275564,0.03979,0.012224
1.079999999999984,-0.275455,0.038523,0.013014
1.0824999999999818,-0.275804,0.039683,0.016174
1.0849999999999795,-0.278188,0.040726,0.019237
1.0874999999999773,-0.274348,0.040536,0.020266
1.089999999999975,-0.276224,0.037747,0.021086
1.0925000000000011,-0.278115,0.032759,0.025978
1.0949999999999989,-0.281987,0.034256,0.027316
1.0974999999999966,-0.282514,0.027869,0.025145
1.0999999999999943,-0.281537,0.030286,0.02872
1.102499999999992,-0.2828,0.027931,0.029724
1.1049999999999898,-0.285514,0.024085,0.029854
1.1074999999999875,-0.289293,0.024166,0.02814
1.1099999999999852,-0.292633,0.019918,0.028843
1.112499999999983,-0.297827,0.02187,0.031609
1.114999999999981,-0.302915,0.017007,0.029511
1.1174999999999784,-0.306597,0.01839,0.0271
1.119999999999976,-0.315024,0.01611,0.028215
1.122499999999974,-0.317803,0.014529,0.029121
1.125,-0.324015,0.013226,0.025924
1.1274999999999975,-0.329247,0.00932,0.028192
1.1299999999999957,-0.333019,0.006504,0.0272
1.1324999999999932,-0.34393,0.006628,0.022119
1.134999999999991,-0.349537,0.000738,0.024592
1.1374999999999886,-0.358282,0.001494,0.02119
1.1399999999999864,-0.366989,-0.008225,0.016308
1.142499999999984,-0.373775,-0.005858,0.020004
1.1449999999999818,-0.379244,-0.003278,0.017352
1.1474999999999795,-0.388739,-0.006807,0.018279
1.1499999999999773,-0.401157,-0.011441,0.016686
1.152499999999975,-0.40561,-0.011364,0.019479
1.1550000000000011,-0.413778,-0.01169,0.012664
1.1574999999999989,-0.424267,-0.009444,0.017013
1.1599999999999966,-0.435457,-0.010175,0.016702
1.1624999999999943,-0.441372,-0.012798,0.017823
1.164999999999992,-0.449091,-0.014657,0.016762
1.1674999999999898,-0.459428,-0.012712,0.015817
1.1699999999999875,-0.465596,-0.011511,0.017979
1.1724999999999852,-0.476168,-0.014707,0.013544
1.174999999999983,-0.484642,-0.018159,0.014605
1.177499999999981,-0.496754,-0.013202,0.014181
1.1799999999999784,-0.505967,-0.014704,0.0121
1.182499999999976,-0.516072,-0.014459,0.01614
1.184999999999974,-0.524788,-0.015074,0.012978
1.1875,-0.53395,-0.015821,0.011412
1.1899999999999975,-0.54262,-0.014798,0.009304
1.1924999999999957,-0.552984,-0.017272,0.009935
1.1949999999999932,-0.559862,-0.017422,0.011895
1.197499999999991,-0.570409,-0.017543,0.011007
1.1999999999999886,-0.578939,-0.017296,0.010651
1.2024999999999864,-0.585997,-0.022179,0.013141
1.204999999999984,-0.596733,-0.018618,0.011431
1.2074999999999818,-0.610012,-0.022037,0.0115
1.2099999999999795,-0.617409,-0.021733,0.012872
1.2124999999999773,-0.622839,-0.018947,0.013898
1.214999999999975,-0.629737,-0.020809,0.011767
1.2175000000000011,-0.641102,-0.021864,0.01246
1.2199999999999989,-0.648062,-0.022545,0.013039
1.2224999999999966,-0.654922,-0.021194,0.01596
1.2249999999999943,-0.66413,-0.019096,0.018776
1.227499999999992,-0.669958,-0.018905,0.015163
1.2299999999999898,-0.679201,-0.02517,0.013021
1.2324999999999875,-0.686684,-0.019842,0.013221
1.2349999999999852,-0.694053,-0.018586,0.015821
1.237499999999983,-0.701656,-0.01592,0.016015
1.239999999999981,-0.706396,-0.013272,0.01881
1.2424999999999784,-0.713794,-0.012967,0.01625
1.244999999999976,-0.721355,-0.007524,0.018045
1.247499999999974,-0.726937,-0.010604,0.017803
1.25,-0.732842,-0.005847,0.021968
1.2524999999999975,-0.74068,-0.003554,0.019403
1.2549999999999957,-0.745352,-0.002465,0.019006
1.2574999999999932,-0.756705,-0.000758,0.021384
1.259999999999991,-0.758699,0.004604,0.017243
1.2624999999999886,-0.763041,0.002495,0.017198
1.2649999999999864,-0.767672,0.004046,0.022209
1.267499999999984,-0.778985,0.008058,0.01796
1.2699999999999818,-0.781718,0.012722,0.017636
1.2724999999999795,-0.788529,0.011178,0.01686
1.2749999999999773,-0.793445,0.014304,0.015845
1.277499999999975,-0.800154,0.015297,0.017224
1.2800000000000011,-0.802182,0.016222,0.012901
1.2824999999999989,-0.813116,0.014659,0.012108
1.2849999999999966,-0.81776,0.016791,0.013636
1.2874999999999943,-0.820805,0.020189,0.008886
1.289999999999992,-0.82726,0.019548,0.01036
1.2924999999999898,-0.832129,0.017331,0.012328
1.2949999999999875,-0.840278,0.017185,0.008202
1.2974999999999852,-0.846374,0.01724,0.008705
1.299999999999983,-0.854971,0.018767,0.008138
1.302499999999981,-0.852434,0.017955,0.004499
1.3049999999999784,-0.859464,0.016247,0.008208
1.307499999999976,-0.864706,0.015137,0.004526
1.309999999999974,-0.869622,0.015298,0.005772
1.3125,-0.871912,0.015207,0.002972
1.3149999999999975,-0.880781,0.016573,0.003307
1.3174999999999957,-0.884289,0.0154,0.004119
1.3199999999999932,-0.887572,0.014401,0.006356
1.322499999999991,-0.89223,0.01801,0.005995
1.3249999999999886,-0.899335,0.013141,0.006398
1.3274999999999864,-0.900546,0.014979,0.006122
1.329999999999984,-0.905533,0.017724,0.006153
1.3324999999999818,-0.907615,0.013385,0.008368
1.3349999999999795,-0.911106,0.013758,0.00829
1.3374999999999773,-0.915478,0.015827,0.007509
1.339999999999975,-0.923003,0.018745,0.011543
1.3425000000000011,-0.925164,0.018496,0.012954
1.3449999999999989,-0.931229,0.015461,0.010078
1.3474999999999966,-0.932043,0.022552,0.010962
1.3499999999999943,-0.938177,0.019781,0.011437
1.352499999999992,-0.941189,0.019939,0.008065
1.3549999999999898,-0.940374,0.016005,0.014196
1.3574999999999875,-0.948689,0.016682,0.011095
1.3599999999999852,-0.951961,0.017053,0.009593
1.362499999999983,-0.960049,0.017295,0.011092
1.364999999999981,-0.95892,0.01558,0.014789
1.3674999999999784,-0.966041,0.017605,0.009646
1.369999999999976,-0.973186,0.013112,0.012421
1.372499999999974,-0.980813,0.016659,0.00997
1.375,-0.984222,0.013144,0.014455
1.3774999999999975,-0.987943,0.014208,0.013864
1.3799999999999957,-0.990695,0.006891,0.012303
1.3824999999999932,-0.999348,0.00918,0.010223
1.384999999999991,-1.004738,0.012175,0.013234
1.3874999999999886,-1.006723,0.013972,0.012019
1.3899999999999864,-1.010816,0.011892,0.013571
1.392499999999984,-1.019675,0.011791,0.016532
1.3949999999999818,-1.021335,0.008663,0.012951
1.3974999999999795,-1.024419,0.007904,0.01158
1.3999999999999773,-1.032725,0.008529,0.012303
1.402499999999975,-1.031879,0.009818,0.010694
1.4050000000000011,-1.037459,0.007999,0.01573
1.4074999999999989,-1.041605,0.008065,0.012351
1.4099999999999966,-1.047869,0.007672,0.01261
1.4124999999999943,-1.048336,0.009079,0.010637
1.414999999999992,-1.055099,0.012013,0.014395
1.4174999999999898,-1.062496,0.013148,0.011911
1.4199999999999875,-1.062839,0.012202,0.010892
1.4224999999999852,-1.068707,0.015464,0.00946
1.424999999999983,-1.075314,0.018395,0.010587
1.427499999999981,-1.078184,0.018849,0.007478
1.4299999999999784,-1.076772,0.016277,0.012092
1.432499999999976,-1.084097,0.022561,0.011861
1.434999999999974,-1.093671,0.021788,0.010725
1.4375,-1.095705,0.025753,0.010135
1.4399999999999975,-1.095628,0.028982,0.008417
1.4424999999999957,-1.098919,0.031345,0.013538
1.4449999999999932,-1.104302,0.029346,0.009594
1.447499999999991,-1.104436,0.032588,0.009651
1.4499999999999886,-1.112119,0.036145,0.010938
1.4524999999999864,-1.113397,0.035196,0.014948
1.454999999999984,-1.117508,0.035664,0.01161
1.4574999999999818,-1.118401,0.036719,0.010818
1.4599999999999795,-1.124235,0.037272,0.017241
1.4624999999999773,-1.126883,0.042916,0.015434
1.464999999999975,-1.134487,0.044876,0.015131
1.4675000000000011,-1.137181,0.044108,0.014701
1.4699999999999989,-1.138759,0.045017,0.014893
1.4724999999999966,-1.142639,0.043976,0.017538
1.4749999999999943,-1.144705,0.043533,0.017191
1.477499999999992,-1.151513,0.044624,0.014693
1.4799999999999898,-1.147357,0.041182,0.016888
1.4824999999999875,-1.153228,0.041091,0.020781
1.4849999999999852,-1.153751,0.039629,0.018983
1.487499999999983,-1.157541,0.040798,0.019284
1.489999999999981,-1.152605,0.041925,0.02199
1.4924999999999784,-1.157616,0.040086,0.021771
1.494999999999976,-1.158281,0.039328,0.022086
1.497499999999974,-1.15912,0.03283,0.026134
1.5,-1.157988,0.031697,0.02941
1.5024999999999975,-1.156642,0.02666,0.03083
1.5049999999999957,-1.154195,0.023036,0.035401
1.5074999999999932,-1.151264,0.013865,0.037519
1.509999999999991,-1.147789,0.0116,0.042839
1.5124999999999886,-1.142355,0.00084,0.046595
1.5149999999999864,-1.131778,-0.007136,0.050389
1.517499999999984,-1.125843,-0.01515,0.054961
1.5199999999999818,-1.121201,-0.024949,0.059748
1.5224999999999795,-1.114932,-0.036669,0.065083
1.5249999999999773,-1.101438,-0.039996,0.067974
1.527499999999975,-1.095966,-0.051321,0.07176
1.5300000000000011,-1.086216,-0.059551,0.080418
1.5324999999999989,-1.079549,-0.065233,0.079981
1.5349999999999966,-1.074955,-0.071216,0.082237
1.5374999999999943,-1.064848,-0.076574,0.085295
1.539999999999992,-1.056928,-0.078703,0.082969
1.5424999999999898,-1.042612,-0.080001,0.086514
1.5449999999999875,-1.035153,-0.082688,0.084894
1.5474999999999852,-1.024281,-0.082979,0.08238
1.549999999999983,-1.014351,-0.078045,0.080887
1.552499999999981,-1.000268,-0.075643,0.07491
1.5549999999999784,-0.983434,-0.06997,0.065491
1.557499999999976,-0.976487,-0.062397,0.058245
1.559999999999974,-0.960195,-0.058222,0.052997
1.5625,-0.94934,-0.048243,0.041027
1.5649999999999975,-0.935582,-0.037225,0.030891
1.5674999999999957,-0.924723,-0.029515,0.026242
1.5699999999999932,-0.907535,-0.023322,0.021159
1.572499999999991,-0.895646,-0.016016,0.015369
1.5749999999999886,-0.884406,-0.0074,0.010366
1.5774999999999864,-0.868154,-0.001903,0.005084
1.579999999999984,-0.853905,0.002337,0.001908
1.5824999999999818,-0.839082,0.013281,-0.00121
1.5849999999999795,-0.828235,0.013927,-0.002128
1.5874999999999773,-0.818212,0.017176,-0.002477
1.589999999999975,-0.805564,0.017632,-0.004888
1.5925000000000011,-0.791404,0.019147,-0.004104
1.5949999999999989,-0.781053,0.01945,-0.004624
1.5974999999999966,-0.771912,0.015952,-0.006117
1.5999999999999943,-0.762764,0.015029,-0.007127
1.602499999999992,-0.75474,0.013084,-0.006059
1.6049999999999898,-0.74219,0.008086,-0.007133
1.6074999999999875,-0.736126,0.00607,-0.005177
1.6099999999999852,-0.728135,0.006228,-0.001518
1.612499999999983,-0.720082,0.000162,-0.000188
1.614999999999981,-0.713991,-0.004448,0.002781
1.6174999999999784,-0.704207,-0.002134,0.005669
1.619999999999976,-0.698893,-0.005846,0.005103
1.622499999999974,-0.693005,-0.006728,0.008794
1.625,-0.686246,-0.004478,0.006791
1.6274999999999975,-0.679807,-0.005949,0.010384
1.6299999999999957,-0.674008,-0.008169,0.010023
1.6324999999999932,-0.671101,-0.005949,0.0081
1.634999999999991,-0.662248,-0.009187,0.00843
1.6374999999999886,-0.65759,-0.00319,0.006586
1.6399999999999864,-0.653236,-0.000818,0.005584
1.642499999999984,-0.649424,-0.006036,0.008362
1.6449999999999818,-0.644052,-0.002943,0.002339
1.6474999999999795,-0.642374,-0.005409,0.000546
1.6499999999999773,-0.63757,-0.003968,0.001778
1.652499999999975,-0.637058,-0.003925,0.000421
1.6550000000000011,-0.63594,-0.002678,-0.000547
1.6574999999999989,-0.63396,-0.001378,-0.002044
1.6599999999999966,-0.634359,-0.009157,-0.001508
1.6624999999999943,-0.636384,-0.003164,-0.00287
1.664999999999992,-0.637202,-0.003524,-0.005904
1.6674999999999898,-0.636379,-0.007559,-0.002213
1.6699999999999875,-0.635697,-0.00836,-0.007942
1.6724999999999852,-0.637415,-0.007151,-0.007407
1.674999999999983,-0.641984,-0.007968,-0.005585
1.677499999999981,-0.641984,-0.006106,-0.007108
1.6799999999999784,-0.645615,-0.008114,-0.009377
1.682499999999976,-0.648074,-0.01096,-0.007379
1.684999999999974,-0.653157,-0.007716,-0.005771
1.6875,-0.655362,-0.007811,-0.007349
1.6899999999999975,-0.664839,-0.008753,-0.007437
1.6924999999999957,-0.667806,-0.004785,-0.004996
1.6949999999999932,-0.670502,-0.007157,-0.004846
1.697499999999991,-0.67928,-0.009705,-0.005066
1.6999999999999886,-0.679343,-0.009768,-0.005387
1.7024999999999864,-0.683272,-0.007778,-0.005525
1.704999999999984,-0.690502,-0.007613,-0.003907
1.7074999999999818,-0.696904,-0.005913,-0.004146
1.7099999999999795,-0.701988,-0.009349,-0.00371
1.7124999999999773,-0.704026,-0.007388,-0.002916
1.714999999999975,-0.70682,-0.0026,-5.8e-05
1.7175000000000011,-0.713883,-0.009079,0.000235
1.7199999999999989,-0.719632,-0.005285,-0.001048
1.7224999999999966,-0.731433,-0.011723,-0.000104
1.7249999999999943,-0.733903,-0.012437,0.001659
1.727499999999992,-0.738569,-0.005996,0.002588
1.7299999999999898,-0.743704,-0.011384,0.001936
1.7324999999999875,-0.750041,-0.006588,0.001057
1.7349999999999852,-0.757566,-0.009508,0.002313
1.737499999999983,-0.759038,-0.010948,0.000785
1.739999999999981,-0.766002,-0.007454,0.000756
1.7424999999999784,-0.770219,-0.015062,0.001843
1.744999999999976,-0.778031,-0.00909,0.001457
1.747499999999974,-0.786388,-0.010163,0.000305
1.75,-0.78716,-0.006859,9.8e-05
1.7524999999999975,-0.792477,-0.009914,0.001656
1.7549999999999957,-0.79577,-0.007574,-0.000435
1.7574999999999932,-0.803982,-0.009917,-0.000894
1.759999999999991,-0.809126,-0.005801,0.001141
1.7624999999999886,-0.810257,-0.007601,0.00012
1.7649999999999864,-0.81728,-0.008106,0.000592
1.767499999999984,-0.820507,-0.004151,-0.00256
1.7699999999999818,-0.82138,-0.006139,0.001913
1.7724999999999795,-0.829174,-0.005619,0.000537
1.7749999999999773,-0.830503,-0.007348,-0.001068
1.777499999999975,-0.838132,-0.004442,-0.000373
1.7800000000000011,-0.838748,-0.007658,0.003421
1.7824999999999989,-0.846474,-0.00709,-0.002764
1.7849999999999966,-0.849517,-0.006557,-0.005884
1.7874999999999943,-0.854709,-0.007716,-0.003465
1.789999999999992,-0.8597,-0.009133,-0.000821
1.7924999999999898,-0.862439,-0.006559,-0.001211
1.7949999999999875,-0.863882,-0.006554,0.00057
1.7974999999999852,-0.869122,-0.007154,-0.000156
1.799999999999983,-0.874284,-0.011519,9.8e-05
1.802499999999981,-0.875671,-0.005169,0.001786
1.8049999999999784,-0.875247,-0.003421,0.002263
1.807499999999976,-0.882107,-0.008358,0.003863
1.8099999999999736,-0.88121,-0.006524,0.004333
1.8125,-0.888537,-0.007355,0.002676
1.8149999999999975,-0.891502,-0.00371,0.004854
1.8174999999999957,-0.89422,-0.005226,0.002898
1.8199999999999927,-0.893812,-0.009087,0.00212
1.822499999999991,-0.900187,-0.005928,0.003221
1.8249999999999889,-0.901954,-0.006415,0.003078
1.8274999999999864,-0.903453,-0.007629,0.001187
1.829999999999984,-0.910951,-0.006166,0.004771
1.8324999999999816,-0.913285,-0.005686,0.002656
1.8349999999999795,-0.915307,-0.003764,0.006572
1.8374999999999773,-0.917286,-0.001542,0.007097
1.839999999999975,-0.92295,-0.000276,0.008003
1.8425000000000007,-0.923428,-0.000633,0.004645
1.8449999999999989,-0.927647,-0.00225,0.004257
1.8474999999999968,-0.930931,-0.005879,0.005598
1.8499999999999943,-0.934816,-0.00381,0.0069
1.852499999999992,-0.940314,-0.002913,0.001738
1.8549999999999895,-0.940025,-0.001296,0.003583
1.8574999999999875,-0.947352,-0.00051,0.004356
1.8599999999999848,-0.949136,-0.003165,0.003577
1.862499999999983,-0.95305,-0.000891,0.00554
1.864999999999981,-0.956656,-0.001204,0.006744
1.8674999999999784,-0.961849,-0.00128,0.00487
1.869999999999976,-0.965424,0.000326,0.006428
1.8724999999999736,-0.967989,-0.001743,0.005927
1.875,-0.973439,0.000186,0.00696
1.8774999999999975,-0.974401,0.002052,0.007313
1.8799999999999957,-0.980056,-0.001998,0.005209
1.8824999999999927,-0.98126,-0.001039,0.007401
1.884999999999991,-0.985295,-0.000717,0.007144
1.8874999999999889,-0.992857,0.000522,0.008463
1.8899999999999864,-0.994239,-0.003925,0.010534
1.892499999999984,-0.995559,-0.002123,0.003152
1.8949999999999816,-0.998927,-0.001708,0.004541
1.8974999999999795,-0.999587,0.002009,0.004845
1.8999999999999773,-1.005391,-0.000731,0.003761
1.902499999999975,-1.007682,-0.001012,0.004344
1.9050000000000007,-1.007595,-0.000983,0.008006
1.9074999999999989,-1.013342,-0.00196,0.007211
1.9099999999999968,-1.015106,-0.003605,0.011934
1.9124999999999943,-1.020544,-0.001223,0.005584
1.914999999999992,-1.023224,0.00283,0.00967
1.9174999999999895,-1.026994,-0.001599,0.00766
1.9199999999999875,-1.029909,-0.001439,0.011105
1.9224999999999848,-1.03491,-0.006329,0.005893
1.924999999999983,-1.036683,-0.003855,0.006502
1.927499999999981,-1.035078,-0.003913,0.007234
1.9299999999999784,-1.040887,-0.006373,0.003635
1.932499999999976,-1.043797,-0.001086,0.002291
1.9349999999999736,-1.049,-0.001942,0.004175
1.9375,-1.05031,-0.00038,0.003093
1.9399999999999975,-1.055555,0.001844,0.002169
1.9424999999999957,-1.058628,-0.003462,0.00444
1.9449999999999927,-1.058837,-0.003615,0.004131
1.947499999999991,-1.067829,-0.00125,0.004557
1.9499999999999889,-1.068105,-0.001703,0.00549
1.9524999999999864,-1.074011,-0.00511,0.003014
1.954999999999984,-1.077706,-0.004597,0.001395
1.9574999999999816,-1.080217,-0.005732,0.002941
1.9599999999999795,-1.086302,-0.002538,-0.000809
1.9624999999999773,-1.087153,-0.008611,-0.001538
1.964999999999975,-1.094887,-0.003503,0.003692
1.9675000000000007,-1.094753,-0.005217,5e-05
1.9699999999999989,-1.096003,-0.005056,-0.002736
1.9724999999999968,-1.103142,-0.006577,-0.001055
1.9749999999999943,-1.108085,-0.005046,-0.001186
1.977499999999992,-1.106376,-0.006522,0.000609
1.9799999999999895,-1.112286,-0.00447,0.001774
1.9824999999999875,-1.110676,-0.007761,-0.002214
1.9849999999999848,-1.115437,-0.005127,-0.000931
1.987499999999983,-1.115649,-0.004525,-0.003184
1.989999999999981,-1.116962,-0.003797,-0.002497
1.9924999999999784,-1.119464,-0.002827,-0.001664
1.994999999999976,-1.119462,-0.002514,-0.00162
1.9974999999999736,-1.123195,-0.003745,-0.002658
2.0,-1.124153,-0.001331,0.003659
2.0024999999999977,-1.12017,-0.003035,-0.002556
2.0049999999999955,-1.122568,0.000583,0.002534
2.007499999999993,-1.122778,-0.002593,0.001236
2.009999999999991,-1.128249,-0.007787,-0.002249
2.0124999999999886,-1.130409,-0.001791,-0.000648
2.0149999999999864,-1.133591,-0.002295,0.000639
2.017499999999984,-1.130137,-0.000937,0.001823
2.019999999999982,-1.132596,0.000776,0.000565
2.0224999999999795,-1.135152,-0.002126,0.000165
2.0249999999999773,-1.137916,-0.001487,0.000349
2.027499999999975,-1.139719,-0.001542,0.002266
2.030000000000001,-1.140452,-0.00516,0.006879
2.032499999999999,-1.142203,-0.003593,0.003655
2.0349999999999966,-1.145502,-0.003897,0.002664
2.0374999999999943,-1.146341,-0.004946,0.002485
2.039999999999992,-1.15245,-0.005101,0.004987
2.0424999999999898,-1.151476,-0.007564,0.003371
2.0449999999999875,-1.155012,-0.004253,0.001899
2.047499999999985,-1.157573,-0.004797,0.002008
2.049999999999983,-1.156962,-0.006106,0.001457
2.0524999999999807,-1.158101,-0.0044,0.003325
2.0549999999999784,-1.160941,-0.005624,0.002418
2.057499999999976,-1.164295,-0.00174,0.004535
2.059999999999974,-1.165273,-0.002998,0.002874
2.0625,-1.164654,-0.001349,0.006399
2.0649999999999977,-1.16627,-0.000674,0.004757
2.0674999999999955,-1.165917,0.000253,0.005522
2.069999999999993,-1.168503,0.000643,0.008328
2.072499999999991,-1.164712,-0.001062,0.003102
2.0749999999999886,-1.166314,0.002759,0.010265
2.0774999999999864,-1.162395,0.004498,0.009202
2.079999999999984,-1.163261,-0.000343,0.008216
2.082499999999982,-1.163938,0.002711,0.013527
2.0849999999999795,-1.162248,0.005644,0.012632
2.0874999999999773,-1.166572,0.000346,0.014488
2.089999999999975,-1.164674,0.005729,0.008761
2.092500000000001,-1.160737,0.006593,0.014327
2.094999999999999,-1.164677,0.00483,0.013671
2.0974999999999966,-1.160627,0.006288,0.01683
2.0999999999999943,-1.160093,0.00558,0.015839
2.102499999999992,-1.155821,0.00281,0.015818
2.1049999999999898,-1.15881,0.004644,0.019557
2.1074999999999875,-1.160715,0.004835,0.018915
2.109999999999985,-1.155928,0.004489,0.015547
2.112499999999983,-1.154739,0.005067,0.01295
2.1149999999999807,-1.15514,0.004125,0.013842
2.1174999999999784,-1.154814,0.004154,0.013211
2.119999999999976,-1.149865,-0.001118,0.013215
2.122499999999974,-1.151993,0.002692,0.012132
2.125,-1.15036,0.002854,0.0081
2.1274999999999977,-1.147792,0.004519,0.012156
2.1299999999999955,-1.148452,-0.001997,0.011564
2.132499999999993,-1.145049,0.001208,0.010494
2.134999999999991,-1.141483,-0.001536,0.009381
2.1374999999999886,-1.141735,0.002392,0.005417
2.1399999999999864,-1.140621,-0.000734,0.007243
2.142499999999984,-1.139562,0.00447,0.005203
2.144999999999982,-1.136092,0.000533,0.006906
2.1474999999999795,-1.139224,0.001843,0.00382
2.1499999999999773,-1.134764,0.003061,0.005734
2.152499999999975,-1.126533,0.002719,0.008074
2.155000000000001,-1.126451,0.003224,0.002258
2.157499999999999,-1.122399,0.000507,0.003862
2.1599999999999966,-1.122441,0.004642,0.002977
2.1624999999999943,-1.11713,0.001685,0.004234
2.164999999999992,-1.11267,0.001643,0.003039
2.1674999999999898,-1.111666,0.00559,0.009631
2.1699999999999875,-1.106582,0.007736,0.007721
2.172499999999985,-1.101078,0.00814,0.007119
2.174999999999983,-1.095194,0.006729,0.008249
2.1774999999999807,-1.088705,0.005635,0.011269
2.1799999999999784,-1.087,0.011236,0.009087
2.182499999999976,-1.077417,0.009387,0.010935
2.184999999999974,-1.072418,0.012567,0.013372
2.1875,-1.067597,0.013479,0.009742
2.1899999999999977,-1.060798,0.015122,0.010142
2.1924999999999955,-1.055491,0.010595,0.006684
2.194999999999993,-1.048576,0.014182,0.007642
2.197499999999991,-1.042134,0.013495,0.004736
2.1999999999999886,-1.034029,0.012962,0.003826
2.2024999999999864,-1.027303,0.011013,0.003643
2.204999999999984,-1.018507,0.010905,0.001431
2.207499999999982,-1.01514,0.017241,0.001566
2.2099999999999795,-1.003309,0.01724,0.002152
2.2124999999999773,-0.999369,0.012823,0.001173
2.214999999999975,-0.991856,0.012869,-0.002761
2.217500000000001,-0.983611,0.009584,0.000674
2.219999999999999,-0.974559,0.010476,-0.003938
2.2224999999999966,-0.971301,0.003991,-0.005421
2.2249999999999943,-0.967063,0.008353,-0.003812
2.227499999999992,-0.961884,0.006201,-0.003393
2.2299999999999898,-0.954084,0.011056,-0.003298
2.2324999999999875,-0.949349,7.2e-05,-0.003026
2.234999999999985,-0.945105,0.00427,-0.00241
2.237499999999983,-0.938751,0.001947,0.000217
2.2399999999999807,-0.934041,0.002197,-0.001255
2.2424999999999784,-0.93026,0.002191,-0.001298
2.244999999999976,-0.924698,-0.002621,-0.003971
2.247499999999974,-0.919445,0.00178,-0.001754
2.25,-0.918683,0.002772,-0.001609
2.2524999999999977,-0.909801,-0.004296,-0.002474
2.2549999999999955,-0.907214,3.8e-05,9.6e-05
2.257499999999993,-0.901358,-0.005925,0.001725
2.259999999999991,-0.895357,-0.002776,-0.00197
2.2624999999999886,-0.892644,-0.003268,-0.003827
2.2649999999999864,-0.889278,0.003009,-0.002246
2.267499999999984,-0.883962,-6e-05,-0.002967
2.269999999999982,-0.876655,0.001929,-0.004454
2.2724999999999795,-0.87605,-0.001603,-0.004454
2.2749999999999773,-0.872624,0.003234,-0.004755
2.277499999999975,-0.862959,-0.001295,-0.002578
2.280000000000001,-0.857687,0.000942,-0.006358
2.282499999999999,-0.854126,0.000594,-0.006431
2.2849999999999966,-0.852481,0.001382,-0.002828
2.2874999999999943,-0.845041,0.004364,-0.005254
2.289999999999992,-0.840528,0.001901,-0.006434
2.2924999999999898,-0.839651,0.004835,-0.008088
2.2949999999999875,-0.834391,-0.002317,-0.007536
2.297499999999985,-0.829522,0.004832,-0.006212
2.299999999999983,-0.825061,0.002564,-0.005829
2.3024999999999807,-0.815559,0.001132,-0.002547
2.3049999999999784,-0.815635,-0.002505,-0.00477
2.307499999999976,-0.811893,-0.001779,-0.00395
2.309999999999974,-0.807856,0.001746,-0.004497
2.3125,-0.805766,0.002592,-0.001942
2.3149999999999977,-0.802259,0.002024,-0.003269
2.3174999999999955,-0.798545,-0.005633,-0.003216
2.319999999999993,-0.79549,-0.001311,0.002039
2.322499999999991,-0.791739,0.001606,0.002704
2.3249999999999886,-0.793456,0.000779,0.002525
2.3274999999999864,-0.787239,-0.00181,-0.001676
2.329999999999984,-0.789438,-0.000364,-0.001501
2.332499999999982,-0.786106,0.002157,-0.000212
2.3349999999999795,-0.780673,0.002412,-0.00181
2.3374999999999773,-0.782529,-0.00219,0.000962
2.339999999999975,-0.777079,-0.001553,7.2e-05
2.342500000000001,-0.774385,-0.002247,-0.000179
2.344999999999999,-0.775077,0.00133,0.000865
2.3474999999999966,-0.7715,0.0011,0.000504
2.3499999999999943,-0.77035,0.000712,-0.000228
2.352499999999992,-0.764454,0.000697,-0.003543
2.3549999999999898,-0.758627,-0.001986,0.00539
2.3574999999999875,-0.757814,2.2e-05,0.001282
2.359999999999985,-0.757118,0.000181,0.004406
2.362499999999983,-0.753893,0.000672,-0.000308
2.3649999999999807,-0.747185,-0.002666,0.003017
2.3674999999999784,-0.748563,-0.000918,0.001138
2.369999999999976,-0.745309,0.000542,0.003273
2.372499999999974,-0.738786,-3.6e-05,0.007469
2.375,-0.734575,-0.00027,0.006003
2.3774999999999977,-0.73268,0.000607,0.006575
2.3799999999999955,-0.731842,0.004014,0.011117
2.382499999999993,-0.72972,0.000905,0.011442
2.384999999999991,-0.724059,0.006143,0.010686
2.3874999999999886,-0.725621,0.002732,0.009342
2.3899999999999864,-0.722672,0.005924,0.009111
2.392499999999984,-0.719327,0.008247,0.012044
2.394999999999982,-0.715122,0.007794,0.010911
2.3974999999999795,-0.71421,0.006499,0.009116
2.3999999999999773,-0.714783,0.006596,0.01008
2.402499999999975,-0.707664,0.009184,0.00977
2.405000000000001,-0.702022,0.007694,0.012747
2.407499999999999,-0.703527,0.009152,0.009737
2.4099999999999966,-0.699666,0.009977,0.008372
2.4124999999999943,-0.698288,0.008649,0.011436
2.414999999999992,-0.6946,0.00898,0.013859
2.4174999999999898,-0.685467,0.007466,0.011181
2.4199999999999875,-0.687987,0.007398,0.011314
2.422499999999985,-0.684919,0.007757,0.014412
2.424999999999983,-0.682427,0.005537,0.013419
2.4274999999999807,-0.679824,0.003766,0.015458
2.4299999999999784,-0.678155,0.00743,0.014118
2.432499999999976,-0.674373,0.002015,0.015079
2.434999999999974,-0.672209,0.002644,0.01472
2.4375,-0.668374,0.005005,0.015529
2.4399999999999977,-0.667189,0.00414,0.013795
2.4424999999999955,-0.66545,0.003516,0.018188
2.444999999999993,-0.661245,0.001913,0.017845
2.447499999999991,-0.657445,0.003987,0.018925
2.4499999999999886,-0.658487,0.003339,0.01371
2.4524999999999864,-0.658482,0.00219,0.011856
2.454999999999984,-0.653006,0.004525,0.013193
2.457499999999982,-0.649941,0.002485,0.015993
2.4599999999999795,-0.645813,0.003288,0.013361
2.4624999999999773,-0.643326,0.002877,0.011513
2.464999999999975,-0.646252,0.002372,0.011858
2.467500000000001,-0.639008,0.006697,0.01241
2.469999999999999,-0.636226,0.003394,0.011713
2.4724999999999966,-0.636531,0.006996,0.009947
2.4749999999999943,-0.633967,0.007529,0.008997
2.477499999999992,-0.63203,0.004502,0.00383
2.4799999999999898,-0.627643,0.007152,0.007955
2.4824999999999875,-0.626806,0.009795,0.006492
2.484999999999985,-0.627183,0.0022,0.007915
2.487499999999983,-0.624663,0.000923,0.007523
2.4899999999999807,-0.622906,0.003008,0.008685
2.4924999999999784,-0.620879,0.005711,0.007025
2.494999999999976,-0.61955,0.002823,0.008126
2.497499999999974,-0.615326,0.00597,0.00974
2.5,-0.615716,0.000115,0.009491
2.5024999999999977,-0.610168,0.004891,0.004964
2.5049999999999955,-0.612457,0.00289,0.005475
2.507499999999993,-0.611612,0.003395,0.002076
2.509999999999991,-0.604123,0.002397,0.006027
2.5124999999999886,-0.608385,0.0021,0.004706
2.5149999999999864,-0.605103,0.000264,0.00554
2.517499999999984,-0.600278,0.000777,0.006521
2.519999999999982,-0.597881,0.002714,-0.000283
2.5224999999999795,-0.598353,0.003243,9e-05
2.5249999999999773,-0.594093,0.006253,0.001968
2.527499999999975,-0.58936,0.003866,0.000406
2.530000000000001,-0.592947,0.00452,0.002351
2.532499999999999,-0.591257,0.002655,0.003485
2.5349999999999966,-0.583376,0.00286,0.00942
2.5374999999999943,-0.580709,0.007472,0.00219
2.539999999999992,-0.579135,0.005323,0.001992
2.5424999999999898,-0.57867,0.005531,-0.0003
2.5449999999999875,-0.574669,0.007685,3.8e-05
2.547499999999985,-0.571931,0.002173,0.001016
2.549999999999983,-0.571236,0.0053,-0.000668
2.5524999999999807,-0.566685,0.007383,-0.001091
2.5549999999999784,-0.566702,0.005955,-0.003168
2.557499999999976,-0.564362,0.00575,-0.002168
2.559999999999974,-0.562152,0.008001,-0.001882
2.5625,-0.564371,0.008214,0.000256
2.5649999999999977,-0.563926,0.008351,0.000159
2.5674999999999955,-0.559943,0.005084,0.000704
2.569999999999993,-0.553608,0.001545,-0.001165
2.572499999999991,-0.555292,0.005894,-0.001769
2.5749999999999886,-0.556776,0.006027,0.002747
2.5774999999999864,-0.55545,0.006894,-0.002992
2.579999999999984,-0.554064,0.005118,-0.003143
2.582499999999982,-0.552428,0.006925,-0.005206
2.5849999999999795,-0.548431,0.00292,-0.000513
2.5874999999999773,-0.55072,0.00451,-0.000107
2.589999999999975,-0.546743,0.001429,-0.002538
2.592500000000001,-0.540043,0.005022,-0.000818
2.594999999999999,-0.540042,0.000306,-0.001794
2.5974999999999966,-0.534974,0.006353,0.004176
2.5999999999999943,-0.535905,0.004814,0.001664
2.602499999999992,-0.528134,0.006611,0.006314
2.6049999999999898,-0.52862,0.006271,0.001334
2.6074999999999875,-0.525215,0.00805,0.00473
2.609999999999985,-0.520559,0.001844,0.004149
2.612499999999983,-0.520797,0.003139,-0.000878
2.6149999999999807,-0.51772,0.002604,0.001561
2.6174999999999784,-0.516199,0.000726,0.000335
2.619999999999976,-0.512478,0.008226,-0.000434
2.622499999999974,-0.509673,0.009158,0.002871
2.625,-0.503914,0.003605,0.005739
2.6274999999999977,-0.503327,0.004204,0.005885
2.6299999999999955,-0.505169,0.002956,-0.000636
2.632499999999993,-0.498983,0.007825,3.1e-05
2.634999999999991,-0.497361,0.007271,0.005347
2.6374999999999886,-0.495192,0.004341,0.001376
2.6399999999999864,-0.492424,0.005741,0.002258
2.642499999999984,-0.486469,0.004391,0.000893
2.644999999999982,-0.483677,0.00805,0.005106
2.6474999999999795,-0.480232,0.009864,0.001349
2.6499999999999773,-0.473653,0.012163,0.001759
2.652499999999975,-0.463863,0.015431,0.003246
2.655000000000001,-0.444096,0.017225,0.00234
2.657499999999999,-0.419428,0.019144,0.007946
2.6599999999999966,-0.38963,0.027584,0.003322
2.6624999999999943,-0.355385,0.026271,0.002041
2.664999999999992,-0.308676,0.033491,0.002254
2.6674999999999898,-0.272392,0.036908,-0.000615
2.6699999999999875,-0.228189,0.038647,0.002866
2.672499999999985,-0.18473,0.044369,0.011567
2.674999999999983,-0.149955,0.049437,0.015312
2.6774999999999807,-0.121754,0.050288,0.022871
2.6799999999999784,-0.094698,0.043889,0.034159
2.682499999999976,-0.075254,0.046746,0.040058
2.684999999999974,-0.057417,0.039677,0.040913
2.6875,-0.035989,0.040857,0.041711
2.6899999999999977,-0.014803,0.0315,0.037029
2.6924999999999955,-0.000492,0.025211,0.034518
2.694999999999993,0.010932,0.016547,0.023707
2.697499999999991,0.024494,0.007648,0.021226
2.6999999999999886,0.029803,-0.003275,0.016973
2.7024999999999864,0.032092,-0.002216,0.013117
2.704999999999984,0.033942,-0.010432,0.00747
2.707499999999982,0.036245,-0.009504,0.007708
2.7099999999999795,0.031016,-0.01681,0.001734
2.7124999999999773,0.028653,-0.017335,0.001276
2.714999999999975,0.031251,-0.018869,-0.000966
2.717500000000001,0.024373,-0.015575,-0.002423
2.719999999999999,0.016903,-0.013088,-0.003572
2.7224999999999966,0.014477,-0.008322,-0.000229
2.7249999999999943,0.011346,-0.006984,-0.003253
2.727499999999992,0.009061,-0.003657,-0.003067
2.7299999999999898,0.006299,0.001053,-0.001541
2.7324999999999875,0.003993,0.002149,-0.000902
2.734999999999985,0.00548,0.003099,-0.001375
2.737499999999983,0.003297,0.006447,-0.001423
2.7399999999999807,0.00074,0.004768,-0.000942
2.7424999999999784,0.006343,-0.000362,-0.001605
2.744999999999976,0.001936,-0.002527,-0.001335
2.747499999999974,0.003786,-0.001515,0.001047
2.75,0.006305,-0.003894,-0.000663
2.7524999999999977,0.006747,-0.007507,0.002012
2.7549999999999955,0.005155,-0.00696,0.001621
2.757499999999993,0.010581,-0.007267,0.00039
2.759999999999991,0.013015,-0.008821,0.003836
2.7624999999999886,0.010867,-0.007236,0.0025
2.7649999999999864,0.010579,-0.003783,-0.000186
2.767499999999984,0.011691,-0.002891,0.001756
2.769999999999982,0.010253,-0.007124,0.003295
2.7724999999999795,0.008517,-0.005099,0.00285
2.7749999999999773,0.009459,-0.002763,0.001862
2.777499999999975,0.006592,-0.001292,0.00071
2.780000000000001,0.001471,0.0011,0.003421
2.782499999999999,0.001123,-0.003253,0.000589
2.7849999999999966,0.003443,-0.002253,0.003619
2.7874999999999943,0.002553,0.002528,0.004635
2.789999999999992,0.001358,0.001907,0.002376
2.7924999999999898,-0.003253,-0.001003,0.00461
2.7949999999999875,0.002878,-0.001949,0.004978
2.797499999999985,0.000856,-0.000176,0.000811
2.799999999999983,-0.00094,-0.00452,0.000913
2.8024999999999807,0.000424,-0.001694,0.001698
2.8049999999999784,-0.000411,0.000168,0.003325
2.807499999999976,0.000834,-0.003046,0.005241
2.809999999999974,0.001635,-0.000845,0.006055
2.8125,0.002808,-0.003256,0.007784
2.8149999999999977,-0.001919,0.001351,0.005405
2.8174999999999955,-0.000538,0.000634,0.006066
2.819999999999993,-0.00186,0.000124,0.002884
2.822499999999991,0.002221,0.001984,0.003848
2.8249999999999886,-0.002515,0.000624,0.000886
2.8274999999999864,-0.002493,0.00018,0.005672
2.829999999999984,-0.001398,0.001889,0.006206
2.832499999999982,0.000326,6.5e-05,0.00399
2.8349999999999795,0.000765,0.001872,0.005845
2.8374999999999773,-0.001252,-0.000817,0.00312
2.839999999999975,-0.002734,2.6e-05,0.003058
2.842500000000001,-0.003344,0.003209,0.007104
2.844999999999999,-0.008564,0.003409,0.00413
2.8474999999999966,-0.00446,0.004957,0.005723
2.8499999999999943,-0.001912,0.000789,0.003614
2.852499999999992,-0.003727,0.001351,0.005636
2.8549999999999898,-0.00546,0.003875,0.002923
2.8574999999999875,-0.003812,0.002079,0.004499
2.859999999999985,-0.001617,0.00217,0.005653
2.862499999999983,-0.003082,-0.000316,0.004443
2.8649999999999807,-0.000601,0.003762,0.005343
2.8674999999999784,-0.005294,0.001692,0.006873
2.869999999999976,-0.001813,0.007454,0.004143
2.872499999999974,0.000385,0.001169,-0.00037
2.875,-0.003703,0.00157,0.002881
2.8774999999999977,-0.002125,0.001266,0.00354
2.8799999999999955,-0.000994,0.006223,0.000913
2.882499999999993,0.000609,0.002532,0.00143
2.884999999999991,0.001948,0.001708,-0.000174
2.8874999999999886,0.0014,0.001187,0.00226
2.8899999999999864,-0.00124,0.001217,0.003248
2.892499999999984,0.004417,0.001153,0.003374
2.894999999999982,0.007003,0.001817,0.002661
2.8974999999999795,0.003057,-0.001295,0.002221
2.8999999999999773,0.003601,-0.001664,-0.0003
2.902499999999975,0.0032,-0.001869,0.006671
2.905000000000001,0.005659,0.000615,0.000825
2.907499999999999,0.005592,0.00226,0.000381
2.9099999999999966,0.006469,0.000218,0.003257
2.9124999999999943,0.004446,0.00511,0.002875
2.914999999999992,0.007268,-0.002058,0.001114
2.9174999999999898,0.002756,-0.000383,0.000719
2.9199999999999875,0.005453,-0.001499,0.000123
2.922499999999985,0.006292,0.001962,0.003807
2.924999999999983,0.006468,-0.001603,0.004175
2.9274999999999807,0.007903,0.000509,0.001543
2.9299999999999784,0.008205,0.000223,-0.000115
2.932499999999976,0.007772,-0.000387,0.001992
2.934999999999974,0.007131,-0.000176,0.007124
2.9375,0.006536,-0.001088,0.000451
2.9399999999999977,0.004388,-0.000571,0.002145
2.9424999999999955,0.005577,0.0003,-0.000177
2.944999999999993,0.008168,-0.000927,0.003586
2.947499999999991,0.003586,0.003424,-0.001606
2.9499999999999886,0.002525,-0.001793,-0.001349
2.9524999999999864,0.005063,0.002559,0.000342
2.954999999999984,0.008378,-0.002122,-3.7e-05
2.957499999999982,0.006042,0.002246,-0.000747
2.9599999999999795,0.007302,0.000476,0.000917
2.9624999999999773,0.009445,-0.000711,0.002325
2.964999999999975,0.005024,-0.000656,0.00022
2.967500000000001,0.006273,0.001004,0.000305
2.969999999999999,0.006526,0.000145,0.00109
2.9724999999999966,0.008971,0.00146,0.000621
2.9749999999999943,0.006207,-0.000528,0.004559
2.977499999999992,0.002039,0.002437,0.008918
2.9799999999999898,-0.008148,0.001857,0.009596
2.9824999999999875,-0.009598,0.000121,0.009065
2.984999999999985,-0.004673,-0.002871,0.006198
2.987499999999983,-0.007536,0.003817,0.001588
2.9899999999999807,-0.009423,0.000142,0.000463
2.9924999999999784,-0.008316,-8e-05,0.000457
2.994999999999976,0.000537,0.004386,0.005209
2.997499999999974,0.005508,0.003243,0.005145
3.0,0.004744,0.000498,0.007427
3.0024999999999977,0.003385,-0.001058,0.003246
3.0049999999999955,0.004379,-0.001937,0.004605
3.007499999999993,0.00817,-0.001197,0.004617
3.009999999999991,0.008675,-0.001185,0.001986
3.0124999999999886,0.005198,0.000415,0.004964
3.0149999999999864,0.005717,0.000335,0.005386
3.017499999999984,-0.000535,0.001851,0.005534
3.019999999999982,-0.003879,0.001393,0.0021
3.0224999999999795,-0.003408,0.004915,0.002611
3.0249999999999773,0.00267,0.004188,0.003351
3.027499999999975,-0.001173,0.00333,0.002969
3.030000000000001,-0.004794,0.004978,0.002915
3.032499999999999,-0.000288,0.00492,0.005526
3.0349999999999966,-0.002949,0.00238,0.005832
3.0374999999999943,0.000405,0.001147,0.003821
3.039999999999992,-0.002778,0.001683,0.003675
3.0424999999999898,0.002631,-0.001067,0.005091
3.0449999999999875,0.00188,-0.001313,0.003595
3.047499999999985,0.004426,-0.000878,0.001416
3.049999999999983,0.003432,0.001086,0.003663
3.0524999999999807,0.001148,3.4e-05,0.004009
3.0549999999999784,0.001176,-0.000671,0.005322
3.057499999999976,0.004282,-0.000817,0.003085
3.059999999999974,0.004164,-0.000127,0.001978
3.0625,0.003644,-0.000837,0.002106
3.0649999999999977,0.002065,-0.00219,0.001923
3.0674999999999955,0.000923,0.001848,0.003279
3.069999999999993,0.001978,-0.001439,0.001846
3.072499999999991,-0.000472,0.000133,0.002893
3.0749999999999886,0.005058,-0.000271,0.001546
3.0774999999999864,0.00238,0.002142,0.001166
3.079999999999984,-0.000529,0.001267,0.002367
3.082499999999982,0.000913,-0.002344,0.003842
3.0849999999999795,0.003605,-0.001587,0.004139
3.0874999999999773,0.002273,-0.001401,0.002522
3.089999999999975,0.003109,0.000215,0.00586
3.092500000000001,0.001869,0.00179,0.00545
3.094999999999999,0.000791,-0.001465,0.002559
3.0974999999999966,0.002339,0.000136,0.006736
3.0999999999999943,0.005535,0.001419,0.006936
3.102499999999992,0.003374,0.002248,0.004181
3.1049999999999898,0.002534,-4.2e-05,0.001699
3.1074999999999875,0.002403,0.000551,0.004669
3.109999999999985,0.003203,0.001233,-0.000477
3.112499999999983,0.000224,-0.000671,0.00319
3.1149999999999807,0.003292,-0.000294,0.003415
3.1174999999999784,0.00454,0.000217,0.001525
3.119999999999976,0.000507,0.002386,0.00103
3.122499999999974,0.002372,0.00144,0.002804
3.125,0.0034,3.4e-05,0.004012
3.1274999999999977,0.00272,-0.000277,0.004373
3.1299999999999955,-0.000142,0.002778,0.003564
3.132499999999993,0.000565,-6.6e-05,0.005143
3.134999999999991,0.001135,-0.001968,0.003286
3.1374999999999886,0.002524,0.000376,0.002775
3.1399999999999864,0.001655,-0.000374,0.004435
3.142499999999984,0.001318,0.001983,0.005851
3.144999999999982,7.2e-05,-0.000183,0.004559
3.1474999999999795,0.001521,0.001267,0.002579
3.1499999999999773,0.004788,-0.000151,0.002546
3.152499999999975,0.003133,-0.001089,0.003276
3.155000000000001,0.000242,0.00319,0.00178
3.157499999999999,0.002448,-0.000435,0.003148
3.1599999999999966,0.002665,0.002819,0.005054
3.1624999999999943,0.00276,0.000802,0.001886
3.164999999999992,0.002692,0.001568,0.004768
3.1674999999999898,0.001853,0.002066,0.00507
3.1699999999999875,0.001428,0.002293,0.004499
3.172499999999985,0.004969,0.001828,-0.000322
3.174999999999983,0.006986,0.001631,0.004905
3.1774999999999807,0.005011,-0.000738,0.002132
3.1799999999999784,0.001492,0.001804,0.002313
3.182499999999976,0.005443,0.002225,0.006901
3.184999999999974,0.006487,1e-06,0.005693
3.1875,0.002871,-0.00187,0.004537
3.1899999999999977,-0.000262,0.000568,0.002474
3.1924999999999955,0.002592,-0.001553,0.005985
3.194999999999993,0.004803,-0.002396,0.002091
3.197499999999991,0.005572,0.001457,0.003285
3.1999999999999886,0.003066,-0.001596,0.002556
3.2024999999999864,0.00271,-0.00104,0.001989
3.204999999999984,0.000719,0.001887,0.003801
3.207499999999982,0.001196,0.002616,0.002723
3.2099999999999795,-0.001712,0.00286,0.000568
3.2124999999999773,0.003614,0.00255,0.003197
3.214999999999975,0.003076,0.003236,0.002847
3.217500000000001,0.00274,-0.000833,0.003383
3.219999999999999,0.002944,-5.8e-05,0.003662
3.2224999999999966,0.003529,0.002296,0.005353
3.2249999999999943,0.004136,0.003562,0.005382
3.227499999999992,0.000603,0.001266,0.00324
3.2299999999999898,0.000548,0.004112,0.002896
3.2324999999999875,0.002233,0.003646,0.001866
3.234999999999985,0.003419,0.003269,0.00389
3.237499999999983,0.001877,-0.000238,0.003599
3.2399999999999807,0.004327,-0.000438,0.001431
3.2424999999999784,0.00199,-0.000365,0.003051
3.244999999999976,0.004149,0.001299,0.003739
3.247499999999974,0.00289,0.002535,0.002248
3.25,0.003419,0.00168,0.005362
3.2524999999999977,0.001039,0.003128,0.002604
3.2549999999999955,0.00468,-0.002804,0.006925
3.257499999999993,0.002236,-0.001965,0.002288
3.259999999999991,0.0014,0.000124,0.001202
3.2624999999999886,0.001999,0.002488,0.006772
3.2649999999999864,0.002477,0.001699,0.004645
3.267499999999984,0.002377,0.001781,0.004036
3.269999999999982,0.001679,0.002728,0.001662
3.2724999999999795,0.002321,0.00191,0.003818
3.2749999999999773,0.003854,-0.000505,0.002228
3.277499999999975,0.002269,0.000926,0.00227
3.280000000000001,0.001641,0.000747,0.000948
3.282499999999999,0.002863,0.000856,0.002881
3.2849999999999966,0.002984,-0.000606,0.002017
3.2874999999999943,0.002957,-0.000662,-0.0017
3.289999999999992,0.002906,0.002175,0.001716
3.2924999999999898,0.001135,0.001212,0.001166
3.2949999999999875,0.003033,-0.000745,0.005283
3.297499999999985,0.003607,0.000126,0.005118
3.299999999999983,0.004385,0.002956,0.001618
3.3024999999999807,0.002275,0.000938,0.003844
3.3049999999999784,0.000285,0.003202,0.00241
3.307499999999976,0.002163,0.002239,0.004373
3.309999999999974,0.004049,0.002972,0.002789
3.3125,0.001607,-0.000131,0.00569
3.3149999999999977,0.000636,-0.001124,0.002969
3.3174999999999955,0.001314,0.002006,-0.000203
3.319999999999993,0.002461,0.001321,0.004748
3.322499999999991,0.001704,0.000922,0.001163
3.3249999999999886,0.004327,-0.000152,0.004677
3.3274999999999864,0.001613,-0.000168,0.001775
3.329999999999984,0.000378,-0.002615,0.002012
3.332499999999982,0.001342,-0.000884,0.004541
3.3349999999999795,0.003321,-0.000188,0.00276
3.3374999999999773,0.000892,-0.003366,0.002377
3.339999999999975,0.003334,-0.002691,0.005231
3.342500000000001,0.002942,0.000674,0.004094
3.344999999999999,0.00354,0.003413,0.000248
3.3474999999999966,-0.00083,0.001656,0.002155
3.3499999999999943,0.002346,-0.000983,0.001545
3.352499999999992,0.000878,0.000126,0.006802
3.3549999999999898,-0.003694,0.000363,0.002974
3.3574999999999875,0.004055,0.003899,0.00327
3.359999999999985,0.003252,-0.000778,0.003777
3.362499999999983,0.00362,0.000378,0.005119
3.3649999999999807,0.003725,0.000533,0.00236
3.3674999999999784,0.001038,0.000588,0.002346
3.369999999999976,0.001078,0.004335,0.005925
3.372499999999974,0.004815,0.003805,0.002643
3.375,0.002452,-0.001921,0.003865
3.3774999999999977,0.004023,-0.000916,0.006663
