time,Gyr_X,Gyr_Y,Gyr_Z
0.0,-0.011513,0.00172,0.011282
0.0024999999999977,-0.013956,0.002859,0.013589
0.0050000000000096,-0.015818,0.001211,0.01012
0.0075000000000073,-0.017527,0.003017,0.008694
0.0100000000000051,-0.023495,-0.000654,0.00797
0.0125000000000028,-0.027479,0.002532,0.004912
0.0150000000000005,-0.025529,0.001531,0.003929
0.0174999999999982,-0.028059,0.002129,0.003961
0.019999999999996,-0.031951,-0.001206,0.000989
0.0225000000000079,-0.035074,0.00117,0.00015
0.0250000000000056,-0.033727,0.003189,4.6e-05
0.0275000000000034,-0.037479,0.002018,7.4e-05
0.0300000000000011,-0.037375,-0.001673,0.003599
0.0324999999999988,-0.040951,0.004873,0.004069
0.0349999999999965,-0.041661,0.004485,0.002148
0.0375000000000085,-0.047106,0.003798,0.005139
0.0400000000000062,-0.045191,0.001251,0.00223
0.0425000000000039,-0.050864,0.003866,0.007553
0.0450000000000017,-0.050479,0.004805,0.00658
0.0474999999999994,-0.048365,0.00167,0.006051
0.0499999999999971,-0.052334,0.002914,0.007988
0.052500000000009,-0.055012,0.004136,0.00721
0.0550000000000068,-0.059047,0.000977,0.006964
0.0575000000000045,-0.057541,0.001539,0.005734
0.0600000000000022,-0.055698,0.003511,0.0104
0.0625,-0.056596,0.007538,0.007936
0.0649999999999977,-0.059468,0.001118,0.00785
0.0675000000000096,-0.06032,0.001238,0.005936
0.0700000000000073,-0.061381,0.003783,0.00724
0.0725000000000051,-0.060132,-0.000846,0.006808
0.0750000000000028,-0.060748,0.002547,0.006925
0.0775000000000005,-0.0632,0.001728,0.008377
0.0799999999999983,-0.060306,-0.001465,0.005934
0.082499999999996,-0.062454,-0.00504,0.004486
0.0850000000000079,-0.057924,-0.000636,0.005945
0.0875000000000056,-0.055493,-0.002755,0.005799
0.0900000000000034,-0.055364,0.001427,0.007343
0.0925000000000011,-0.052877,-0.001587,0.007016
0.0949999999999988,-0.049071,0.002351,0.007673
0.0974999999999965,-0.047457,-0.001279,0.006103
0.1000000000000085,-0.048006,0.000519,0.00818
0.1025000000000062,-0.048991,0.000557,0.007667
0.1050000000000039,-0.05092,-0.000201,0.007815
0.1075000000000017,-0.044762,-0.000219,0.008563
0.1099999999999994,-0.038607,0.002924,0.008855
0.1124999999999971,-0.04079,0.000275,0.008173
0.1150000000000091,-0.037365,0.000726,0.008593
0.1175000000000068,-0.03586,0.002825,0.007085
0.1200000000000045,-0.036819,-0.002582,0.008195
0.1225000000000022,-0.034854,0.002717,0.008736
0.125,-0.036874,0.001287,0.009387
0.1274999999999977,-0.034654,-7.9e-05,0.010074
0.1300000000000096,-0.033529,-0.001962,0.00797
0.1325000000000074,-0.031663,0.001209,0.009706
0.1350000000000051,-0.029168,-1.8e-05,0.00683
0.1375000000000028,-0.028886,-0.001271,0.009484
0.1400000000000005,-0.026529,0.005523,0.010017
0.1424999999999983,-0.025317,0.001324,0.00739
0.144999999999996,-0.020382,0.001349,0.009248
0.1475000000000079,-0.020386,-0.000222,0.008687
0.1500000000000056,-0.022361,0.003131,0.008732
0.1525000000000034,-0.017951,0.000929,0.007876
0.1550000000000011,-0.016698,0.001077,0.007869
0.1574999999999988,-0.016961,0.003821,0.009791
0.1599999999999966,-0.015402,0.000694,0.01011
0.1625000000000085,-0.013201,0.000321,0.007383
0.1650000000000062,-0.012207,0.00333,0.008748
0.1675000000000039,-0.010428,0.004341,0.008705
0.1700000000000017,-0.010064,0.002354,0.009102
0.1724999999999994,-0.010048,0.001743,0.009524
0.1749999999999971,-0.005719,0.001778,0.009489
0.1775000000000091,-0.005209,-0.000487,0.010086
0.1800000000000068,-0.005302,0.002877,0.009811
0.1825000000000045,-0.002277,0.003108,0.008508
0.1850000000000022,0.000887,0.001951,0.010478
0.1875,0.00161,0.00065,0.009505
0.1899999999999977,0.001014,-0.000761,0.007451
0.1925000000000096,0.002112,0.00326,0.011896
0.1950000000000074,0.003152,0.004692,0.011969
0.1975000000000051,0.005887,0.000974,0.009266
0.2000000000000028,0.008663,0.001299,0.011461
0.2025000000000005,0.00776,0.002871,0.008615
0.2049999999999983,0.00908,0.000932,0.011084
0.207499999999996,0.013291,0.003453,0.0104
0.2100000000000079,0.009599,0.0009,0.011906
0.2125000000000056,0.014595,0.001683,0.008579
0.2150000000000034,0.015555,0.001531,0.010154
0.2175000000000011,0.017928,0.003114,0.009615
0.2199999999999988,0.015406,0.002962,0.009405
0.2224999999999966,0.016122,0.001891,0.009046
0.2250000000000085,0.01943,0.001568,0.010856
0.2275000000000062,0.018169,0.003153,0.007923
0.2300000000000039,0.017784,0.005864,0.007612
0.2325000000000017,0.023527,0.005037,0.008292
0.2349999999999994,0.02416,0.003637,0.008967
0.2374999999999971,0.023512,0.003078,0.009289
0.2400000000000091,0.025462,0.000547,0.008242
0.2425000000000068,0.02756,-0.000916,0.009529
0.2450000000000045,0.027253,0.004862,0.007389
0.2475000000000022,0.025921,0.003893,0.007018
0.25,0.026119,0.002487,0.009313
0.2524999999999977,0.029978,0.002371,0.009051
0.2550000000000096,0.029333,0.002553,0.008726
0.2575000000000074,0.023422,0.002518,0.009828
0.2600000000000051,0.031421,0.003793,0.011594
0.2625000000000028,0.033535,0.003274,0.009766
0.2650000000000005,0.029422,0.004136,0.011279
0.2674999999999983,0.028543,0.001967,0.01184
0.269999999999996,0.029304,0.003932,0.008527
0.2725000000000079,0.027584,0.001362,0.010227
0.2750000000000057,0.029102,0.003394,0.006923
0.2775000000000034,0.030106,0.005422,0.009573
0.2800000000000011,0.031128,0.002206,0.00936
0.2824999999999988,0.029414,0.002564,0.007144
0.2849999999999966,0.02631,0.003561,0.008807
0.2875000000000085,0.026064,0.004108,0.010141
0.2900000000000062,0.030537,0.001778,0.00691
0.292500000000004,0.02596,0.004109,0.008719
0.2950000000000017,0.02506,0.003567,0.007493
0.2974999999999994,0.021864,0.001736,0.012827
0.2999999999999971,0.023311,0.001673,0.006913
0.3025000000000091,0.022765,0.001869,0.008135
0.3050000000000068,0.021052,0.000765,0.006654
0.3075000000000045,0.020532,0.004633,0.009993
0.3100000000000023,0.017613,0.002377,0.010809
0.3125,0.021216,0.005429,0.009754
0.3149999999999977,0.015921,0.003427,0.011557
0.3175000000000096,0.013588,0.003533,0.008091
0.3200000000000074,0.017973,0.002956,0.009247
0.3225000000000051,0.010488,0.00123,0.008333
0.3250000000000028,0.010682,-0.000829,0.006854
0.3275000000000005,0.011908,0.000644,0.006986
0.3299999999999983,0.007205,0.00285,0.007699
0.332499999999996,0.007875,0.002427,0.009438
0.3350000000000079,0.00344,-0.000368,0.011779
0.3375000000000057,0.007736,0.000652,0.006401
0.3400000000000034,0.005127,0.000986,0.00846
0.3425000000000011,0.005855,0.003427,0.00871
0.3449999999999988,0.001208,0.007824,0.010673
0.3474999999999966,-0.002421,0.002228,0.005408
0.3500000000000085,-0.000694,0.003227,0.012545
0.3525000000000062,0.000822,-0.001752,0.01063
0.355000000000004,-0.001737,0.003321,0.008235
0.3575000000000017,-0.00228,0.00368,0.010603
0.3599999999999994,-0.006005,0.000747,0.009336
0.3624999999999971,-0.00784,0.002997,0.011493
0.3650000000000091,-0.008304,0.003718,0.010583
0.3675000000000068,-0.010468,0.003683,0.010446
0.3700000000000045,-0.008991,0.003137,0.009339
0.3725000000000023,-0.008705,0.000979,0.009315
0.375,-0.008607,0.001407,0.006791
0.3774999999999977,-0.009671,0.000406,0.006782
0.3800000000000096,-0.012641,0.001083,0.010762
0.3825000000000074,-0.008737,0.005525,0.008582
0.3850000000000051,-0.0129,0.000239,0.008019
0.3875000000000028,-0.011319,0.003219,0.008782
0.3900000000000005,-0.007223,0.0,0.00692
0.3924999999999983,-0.009264,-0.000137,0.007658
0.394999999999996,-0.009841,0.003,0.00613
0.3975000000000079,-0.012295,0.002973,0.008674
0.4000000000000057,-0.010854,0.003126,0.006386
0.4025000000000034,-0.008596,0.001984,0.009104
0.4050000000000011,-0.009927,0.003146,0.010863
0.4074999999999988,-0.007629,0.005197,0.008073
0.4099999999999966,-0.005712,0.004787,0.008232
0.4125000000000085,-0.007865,0.00229,0.009899
0.4150000000000062,-0.007592,0.00141,0.009415
0.417500000000004,-0.009233,0.000391,0.008743
0.4200000000000017,-0.006397,0.00292,0.011548
0.4224999999999994,-0.004078,0.001156,0.011535
0.4249999999999971,-0.005244,0.003204,0.009721
0.4275000000000091,-0.003882,0.00497,0.007197
0.4300000000000068,-0.004041,0.000941,0.008739
0.4325000000000045,-0.003177,0.000457,0.008736
0.4350000000000023,-0.003363,0.004315,0.009521
0.4375,-0.001474,0.001269,0.011054
0.4399999999999977,-0.002976,0.002031,0.0121
0.4425000000000096,0.002333,0.005186,0.007532
0.4450000000000074,0.008789,0.004023,0.013337
0.4475000000000051,0.005925,-0.003378,0.012546
0.4500000000000028,0.007357,-0.004429,0.00909
0.4525000000000005,0.002285,0.000495,0.009461
0.4549999999999983,0.002901,0.006869,0.012342
0.457499999999996,0.010642,0.003326,0.01239
0.4600000000000079,0.011427,0.008706,0.008307
0.4625000000000057,0.010337,0.007999,0.008374
0.4650000000000034,0.00967,0.00127,0.006237
0.4675000000000011,0.010911,-0.001065,0.004972
0.4699999999999988,0.012911,0.000813,0.008772
0.4724999999999966,0.013704,0.003614,0.00916
0.4750000000000085,0.017295,0.002547,0.013476
0.4775000000000062,0.023524,0.009015,0.010461
0.480000000000004,0.020029,-0.001413,0.012497
0.4825000000000017,0.020405,-9.7e-05,0.014997
0.4849999999999994,0.021996,-0.000961,0.01341
0.4874999999999971,0.023586,0.004382,0.016005
0.4900000000000091,0.024191,0.005346,0.018842
0.4925000000000068,0.024266,0.009312,0.016017
0.4950000000000045,0.030608,0.00435,0.009679
0.4975000000000023,0.025623,0.001913,0.012287
0.5,0.024778,0.001618,0.006007
0.5024999999999977,0.028333,0.000523,0.007513
0.5050000000000097,0.028732,0.002448,0.006825
0.5075000000000074,0.035327,0.003064,0.009701
0.5100000000000051,0.035719,0.008253,0.00653
0.5125000000000028,0.034409,0.004593,0.005285
0.5150000000000006,0.035971,0.003057,0.007235
0.5174999999999983,0.03745,0.000919,0.010573
0.519999999999996,0.038654,0.003713,0.006146
0.522500000000008,0.038468,0.00413,0.010311
0.5250000000000057,0.039872,0.005699,0.011089
0.5275000000000034,0.041807,0.005201,0.013217
0.5300000000000011,0.045381,0.007672,0.010332
0.5324999999999989,0.042097,0.002337,0.011157
0.5349999999999966,0.045169,0.001606,0.012418
0.5375000000000085,0.044817,-0.002016,0.009096
0.5400000000000063,0.043831,0.004158,0.011165
0.542500000000004,0.046972,0.002211,0.01167
0.5450000000000017,0.04274,0.004179,0.009257
0.5474999999999994,0.044855,0.003741,0.008669
0.5499999999999972,0.041882,0.004371,0.007004
0.5525000000000091,0.037526,0.00579,0.008022
0.5550000000000068,0.041453,0.005645,0.007636
0.5575000000000045,0.038914,0.003458,0.009977
0.5600000000000023,0.039408,0.003216,0.007425
0.5625,0.035007,0.006097,0.013261
0.5649999999999977,0.035004,0.001156,0.010134
0.5675000000000097,0.030529,-0.002576,0.00887
0.5700000000000074,0.027465,0.002148,0.010631
0.5725000000000051,0.029218,0.006981,0.010902
0.5750000000000028,0.026195,0.004268,0.013065
0.5775000000000006,0.023107,0.005333,0.012723
0.5799999999999983,0.021914,0.0048,0.009874
0.582499999999996,0.019622,0.005482,0.009476
0.585000000000008,0.018359,0.000758,0.00987
0.5875000000000057,0.017519,0.004034,0.006415
0.5900000000000034,0.01856,0.002747,0.005879
0.5925000000000011,0.01534,0.003014,0.001796
0.5949999999999989,0.018013,0.004698,0.002155
0.5974999999999966,0.01132,-0.000767,0.003942
0.6000000000000085,0.012081,0.001732,0.003272
0.6025000000000063,0.009217,0.008137,0.00379
0.605000000000004,0.006117,0.000882,0.000724
0.6075000000000017,0.008947,0.002825,0.00502
0.6099999999999994,0.008804,0.003681,0.00247
0.6124999999999972,0.00848,0.005706,0.004857
0.6150000000000091,0.009393,0.003871,0.003172
0.6175000000000068,0.011692,0.003054,0.002322
0.6200000000000045,0.009217,0.002051,0.001899
0.6225000000000023,0.009727,-0.000544,-0.000958
0.625,0.013091,0.004413,-0.000755
0.6274999999999977,0.015475,0.000475,-0.001386
0.6300000000000097,0.019754,0.002439,-0.004123
0.6325000000000074,0.016505,0.004416,-0.005588
0.6350000000000051,0.02306,0.00276,-0.009024
0.6375000000000028,0.022107,0.004555,-0.00855
0.6400000000000006,0.02318,0.002856,-0.013126
0.6424999999999983,0.030177,0.00499,-0.010499
0.644999999999996,0.026282,0.002591,-0.016101
0.647500000000008,0.03485,0.005225,-0.015616
0.6500000000000057,0.032024,0.002995,-0.017628
0.6525000000000034,0.035983,0.005382,-0.020169
0.6550000000000011,0.040193,0.001475,-0.023476
0.6574999999999989,0.043736,0.003149,-0.02231
0.6599999999999966,0.048261,0.002616,-0.027241
0.6625000000000085,0.048243,0.005884,-0.02804
0.6650000000000063,0.051492,0.002897,-0.03013
0.667500000000004,0.059231,0.003973,-0.031593
0.6700000000000017,0.059403,0.010796,-0.034734
0.6724999999999994,0.06407,0.006638,-0.040263
0.6749999999999972,0.066593,0.010028,-0.041278
0.6775000000000091,0.069064,0.009587,-0.046026
0.6800000000000068,0.071693,0.008722,-0.046365
0.6825000000000045,0.073874,0.013527,-0.05081
0.6850000000000023,0.081135,0.011673,-0.056855
0.6875,0.082912,0.014599,-0.065573
0.6899999999999977,0.086445,0.009205,-0.066271
0.6925000000000097,0.093289,0.008456,-0.075106
0.6950000000000074,0.096039,0.010008,-0.079107
0.6975000000000051,0.099376,0.008465,-0.084583
0.7000000000000028,0.09999,0.004035,-0.090973
0.7025000000000006,0.104538,0.003842,-0.101784
0.7049999999999983,0.108192,0.001397,-0.112455
0.707499999999996,0.110539,0.000616,-0.123087
0.710000000000008,0.111442,-0.003409,-0.131802
0.7125000000000057,0.113881,-0.003651,-0.142799
0.7150000000000034,0.111812,-0.000979,-0.155857
0.7175000000000011,0.117116,-0.006248,-0.168908
0.7199999999999989,0.116388,-0.007817,-0.182864
0.7224999999999966,0.118244,-0.01476,-0.194643
0.7250000000000085,0.116325,-0.012709,-0.210996
0.7275000000000063,0.120509,-0.015265,-0.226218
0.730000000000004,0.117477,-0.01374,-0.242084
0.7325000000000017,0.110387,-0.016718,-0.255519
0.7349999999999994,0.109374,-0.014858,-0.274676
0.7374999999999972,0.106377,-0.008139,-0.287791
0.7400000000000091,0.096605,-0.008236,-0.294769
0.7425000000000068,0.092433,-0.003326,-0.308745
0.7450000000000045,0.083744,0.007004,-0.320433
0.7475000000000023,0.075118,0.015546,-0.330487
0.75,0.06377,0.02264,-0.342917
0.7524999999999977,0.056771,0.026425,-0.350754
0.7550000000000097,0.039239,0.040619,-0.359344
0.7575000000000074,0.026197,0.050711,-0.365902
0.7600000000000051,0.01299,0.059503,-0.374873
0.7625000000000028,0.002966,0.071303,-0.379483
0.7650000000000006,-0.011486,0.081987,-0.385086
0.7674999999999983,-0.026596,0.08847,-0.388569
0.769999999999996,-0.038208,0.099347,-0.397378
0.772500000000008,-0.052911,0.106584,-0.400916
0.7750000000000057,-0.06482,0.115044,-0.403698
0.7775000000000034,-0.08139,0.116748,-0.408272
0.7800000000000011,-0.089197,0.121538,-0.411521
0.7824999999999989,-0.098631,0.126354,-0.414076
0.7849999999999966,-0.10841,0.129768,-0.416799
0.7875000000000085,-0.115266,0.134485,-0.415866
0.7900000000000063,-0.120069,0.136816,-0.421801
0.792500000000004,-0.134853,0.13385,-0.424825
0.7950000000000017,-0.136074,0.135696,-0.42569
0.7974999999999994,-0.141574,0.135971,-0.432108
0.7999999999999972,-0.145425,0.13224,-0.434665
0.8025000000000091,-0.146869,0.130817,-0.437596
0.8050000000000068,-0.151512,0.128094,-0.442113
0.8075000000000045,-0.152503,0.12219,-0.446741
0.8100000000000023,-0.149086,0.12087,-0.451008
0.8125,-0.150493,0.114074,-0.45526
0.8149999999999977,-0.146523,0.107668,-0.463049
0.8175000000000097,-0.143047,0.09808,-0.469244
0.8200000000000074,-0.139579,0.090923,-0.472291
0.8225000000000051,-0.139403,0.086734,-0.478199
0.8250000000000028,-0.133522,0.077413,-0.487514
0.8275000000000006,-0.129739,0.069503,-0.495262
0.8299999999999983,-0.124897,0.060291,-0.501053
0.832499999999996,-0.115895,0.050225,-0.506876
0.835000000000008,-0.115174,0.04679,-0.517325
0.8375000000000057,-0.107104,0.038739,-0.525606
0.8400000000000034,-0.101845,0.027509,-0.530352
0.8425000000000011,-0.100179,0.018614,-0.542741
0.8449999999999989,-0.096451,0.017062,-0.544763
0.8474999999999966,-0.096156,0.007025,-0.550646
0.8500000000000085,-0.08713,0.001277,-0.557479
0.8525000000000063,-0.083965,-0.007452,-0.562117
0.855000000000004,-0.082089,-0.009906,-0.570616
0.8575000000000017,-0.077938,-0.015113,-0.577597
0.8599999999999994,-0.075701,-0.020225,-0.583606
0.8624999999999972,-0.072947,-0.024371,-0.588048
0.8650000000000091,-0.072125,-0.030065,-0.59564
0.8675000000000068,-0.078937,-0.032505,-0.601541
0.8700000000000045,-0.073452,-0.033806,-0.607675
0.8725000000000023,-0.071155,-0.037584,-0.612821
0.875,-0.074732,-0.042458,-0.621496
0.8774999999999977,-0.073826,-0.045654,-0.625533
0.8800000000000097,-0.076808,-0.047363,-0.633757
0.8825000000000074,-0.080681,-0.048846,-0.636447
0.8850000000000051,-0.08346,-0.049043,-0.646521
0.8875000000000028,-0.085939,-0.052856,-0.64711
0.8900000000000006,-0.088966,-0.055544,-0.657693
0.8924999999999983,-0.094871,-0.052199,-0.661096
0.894999999999996,-0.09395,-0.051454,-0.669609
0.897500000000008,-0.099894,-0.050835,-0.677742
0.9000000000000057,-0.103544,-0.046109,-0.679969
0.9025000000000034,-0.111105,-0.045544,-0.688531
0.9050000000000012,-0.111043,-0.041679,-0.692602
0.9074999999999988,-0.119384,-0.04171,-0.700682
0.9099999999999966,-0.12612,-0.036219,-0.706807
0.9125000000000084,-0.128742,-0.031696,-0.716074
0.9150000000000064,-0.134066,-0.028887,-0.721099
0.917500000000004,-0.138867,-0.029369,-0.730686
0.9200000000000016,-0.144716,-0.022304,-0.737941
0.9224999999999994,-0.148548,-0.017777,-0.743787
0.9249999999999972,-0.153001,-0.015186,-0.749934
0.9275000000000092,-0.157322,-0.009982,-0.756037
0.9300000000000068,-0.157753,-0.007816,-0.766003
0.9325000000000044,-0.162597,-0.005558,-0.771374
0.9350000000000024,-0.167483,-0.003247,-0.778917
0.9375,-0.167777,0.000317,-0.789303
0.9399999999999976,-0.170006,0.005645,-0.792427
0.9425000000000096,-0.177823,0.006682,-0.800522
0.9450000000000074,-0.174837,0.009129,-0.810068
0.9475000000000052,-0.178774,0.014734,-0.817564
0.9500000000000028,-0.182347,0.013749,-0.822966
0.9525000000000006,-0.185064,0.01661,-0.828239
0.9549999999999984,-0.185425,0.021625,-0.838097
0.957499999999996,-0.183569,0.022616,-0.84087
0.960000000000008,-0.189075,0.024418,-0.846429
0.9625000000000056,-0.190388,0.02837,-0.857599
0.9650000000000034,-0.193456,0.029307,-0.865032
0.9675000000000012,-0.191653,0.026973,-0.871641
0.9699999999999988,-0.190169,0.028944,-0.876491
0.9724999999999966,-0.196417,0.032859,-0.882061
0.9750000000000084,-0.195763,0.034615,-0.888346
0.9775000000000064,-0.194348,0.035033,-0.892623
0.980000000000004,-0.195386,0.034738,-0.898956
0.9825000000000016,-0.196393,0.037242,-0.90684
0.9849999999999994,-0.200985,0.034109,-0.909935
0.9874999999999972,-0.199349,0.037294,-0.912038
0.9900000000000092,-0.198327,0.042082,-0.920096
0.9925000000000068,-0.203675,0.040934,-0.923422
0.9950000000000044,-0.200337,0.039158,-0.930222
0.9975000000000024,-0.197996,0.036093,-0.93574
1.0,-0.200161,0.04093,-0.941223
1.0024999999999975,-0.200807,0.036194,-0.946993
1.0050000000000097,-0.200298,0.036737,-0.954098
1.0075000000000074,-0.20251,0.035995,-0.958118
1.0100000000000051,-0.201596,0.038142,-0.963255
1.0125000000000028,-0.202052,0.041197,-0.969653
1.0150000000000006,-0.20469,0.041074,-0.975783
1.0174999999999983,-0.203317,0.039717,-0.978032
1.019999999999996,-0.20669,0.045668,-0.984317
1.022500000000008,-0.208402,0.046822,-0.990705
1.0250000000000057,-0.211604,0.046285,-0.995671
1.0275000000000034,-0.209968,0.050133,-1.001306
1.0300000000000011,-0.214098,0.051717,-1.004886
1.0324999999999989,-0.213188,0.051851,-1.013807
1.0349999999999966,-0.217749,0.05426,-1.019579
1.0375000000000083,-0.217661,0.053475,-1.023197
1.0400000000000065,-0.224924,0.052173,-1.025945
1.042500000000004,-0.225964,0.050417,-1.034504
1.0450000000000017,-0.225118,0.049073,-1.036713
1.0474999999999994,-0.227903,0.048506,-1.043298
1.0499999999999972,-0.232653,0.046344,-1.046015
1.052500000000009,-0.234428,0.04727,-1.049459
1.0550000000000068,-0.237697,0.042875,-1.051931
1.0575000000000043,-0.23936,0.04233,-1.054773
1.0600000000000025,-0.240445,0.043919,-1.059124
1.0625,-0.244522,0.042958,-1.061096
1.0649999999999975,-0.250661,0.044958,-1.063288
1.0675000000000097,-0.252305,0.046171,-1.063574
1.0700000000000074,-0.255308,0.046789,-1.067841
1.0725000000000051,-0.261678,0.049876,-1.072257
1.0750000000000028,-0.265542,0.054032,-1.075
1.0775000000000006,-0.270324,0.053536,-1.075992
1.0799999999999983,-0.272118,0.054779,-1.080191
1.082499999999996,-0.273977,0.059231,-1.082002
1.085000000000008,-0.27888,0.062629,-1.089679
1.0875000000000057,-0.277288,0.064568,-1.087954
1.0900000000000034,-0.283235,0.064793,-1.092752
1.0925000000000011,-0.283665,0.067892,-1.097712
1.0949999999999989,-0.286658,0.069202,-1.102657
1.0974999999999966,-0.289136,0.071362,-1.10663
1.1000000000000083,-0.289822,0.070886,-1.108876
1.1025000000000065,-0.291599,0.073981,-1.114561
1.105000000000004,-0.293625,0.070555,-1.116418
1.1075000000000017,-0.297381,0.072408,-1.120925
1.1099999999999994,-0.297496,0.070468,-1.125048
1.1124999999999972,-0.297453,0.071598,-1.127741
1.115000000000009,-0.299218,0.072385,-1.127254
1.1175000000000068,-0.300615,0.070164,-1.128731
1.1200000000000043,-0.299773,0.070592,-1.130696
1.1225000000000025,-0.301761,0.068884,-1.137068
1.125,-0.304918,0.066347,-1.139197
1.1274999999999975,-0.305684,0.067768,-1.137239
1.1300000000000097,-0.306831,0.062867,-1.141163
1.1325000000000074,-0.306727,0.064921,-1.144784
1.1350000000000051,-0.306183,0.062198,-1.147263
1.1375000000000028,-0.307877,0.064511,-1.147788
1.1400000000000006,-0.307886,0.060945,-1.150246
1.1424999999999983,-0.309354,0.062902,-1.153905
1.144999999999996,-0.309593,0.064388,-1.158454
1.147500000000008,-0.312367,0.064024,-1.160956
1.1500000000000057,-0.313754,0.064085,-1.164227
1.1525000000000034,-0.310983,0.062903,-1.167162
1.1550000000000011,-0.3105,0.063379,-1.168365
1.1574999999999989,-0.313541,0.064588,-1.171612
1.1599999999999966,-0.313544,0.06512,-1.174583
1.1625000000000083,-0.315338,0.068698,-1.179642
1.1650000000000065,-0.317727,0.071057,-1.182725
1.167500000000004,-0.317565,0.066754,-1.187133
1.1700000000000017,-0.324176,0.071298,-1.188468
1.1724999999999994,-0.321889,0.073195,-1.190141
1.1749999999999972,-0.322402,0.072638,-1.195054
1.177500000000009,-0.324668,0.07569,-1.198471
1.1800000000000068,-0.32561,0.076235,-1.201281
1.1825000000000043,-0.328785,0.077242,-1.205962
1.1850000000000025,-0.33069,0.0748,-1.205579
1.1875,-0.331202,0.07677,-1.208164
1.1899999999999975,-0.33102,0.078585,-1.209349
1.1925000000000097,-0.333375,0.074393,-1.216139
1.1950000000000074,-0.335638,0.075299,-1.215515
1.1975000000000051,-0.335851,0.075031,-1.219939
1.2000000000000028,-0.338045,0.076872,-1.223089
1.2025000000000006,-0.340221,0.07598,-1.225811
1.2049999999999983,-0.343996,0.076265,-1.228804
1.207499999999996,-0.344901,0.074647,-1.230658
1.210000000000008,-0.347489,0.073061,-1.235904
1.2125000000000057,-0.346084,0.077514,-1.238403
1.2150000000000034,-0.350374,0.075512,-1.239366
1.2175000000000011,-0.35736,0.074429,-1.242517
1.2199999999999989,-0.35682,0.076681,-1.247699
1.2224999999999966,-0.358217,0.072647,-1.251259
1.2250000000000083,-0.362034,0.073952,-1.249946
1.2275000000000065,-0.363475,0.074618,-1.25628
1.230000000000004,-0.365043,0.07649,-1.259925
1.2325000000000017,-0.367914,0.073863,-1.262437
1.2349999999999994,-0.368595,0.077941,-1.264093
1.2374999999999972,-0.369623,0.073247,-1.265684
1.240000000000009,-0.375641,0.073401,-1.26904
1.2425000000000068,-0.373472,0.071185,-1.274622
1.2450000000000043,-0.378409,0.072583,-1.277808
1.2475000000000025,-0.38141,0.073402,-1.27913
1.25,-0.380291,0.073979,-1.283913
1.2524999999999975,-0.381479,0.071985,-1.288432
1.2550000000000097,-0.382662,0.070529,-1.290112
1.2575000000000074,-0.383057,0.075042,-1.295017
1.2600000000000051,-0.38321,0.072125,-1.297834
1.2625000000000028,-0.3861,0.072279,-1.299699
1.2650000000000006,-0.381202,0.068139,-1.304314
1.2674999999999983,-0.387013,0.067125,-1.304703
1.269999999999996,-0.387259,0.063936,-1.310893
1.272500000000008,-0.388514,0.064751,-1.313425
1.2750000000000057,-0.390771,0.0668,-1.317017
1.2775000000000034,-0.39471,0.066603,-1.317973
1.2800000000000011,-0.391802,0.058115,-1.320911
1.2824999999999989,-0.395048,0.058389,-1.3216
1.2849999999999966,-0.397444,0.057163,-1.325376
1.2875000000000083,-0.397906,0.054822,-1.331275
1.2900000000000065,-0.394842,0.058674,-1.331185
1.292500000000004,-0.395628,0.058878,-1.336332
1.2950000000000017,-0.400083,0.057128,-1.333787
1.2974999999999994,-0.401392,0.056247,-1.337115
1.2999999999999972,-0.402303,0.056983,-1.340619
1.302500000000009,-0.403469,0.057053,-1.344468
1.3050000000000068,-0.404777,0.059675,-1.345811
1.3075000000000043,-0.407994,0.060379,-1.350463
1.3100000000000025,-0.40385,0.061032,-1.356035
1.3125,-0.407498,0.064723,-1.358489
1.3149999999999975,-0.405999,0.064866,-1.357328
1.3175000000000097,-0.412125,0.067443,-1.361643
1.3200000000000074,-0.408942,0.067999,-1.370295
1.3225000000000051,-0.408778,0.066548,-1.377221
1.3250000000000028,-0.410727,0.067718,-1.37933
1.3275000000000006,-0.409883,0.072181,-1.383709
1.3299999999999983,-0.410719,0.073686,-1.387935
1.332499999999996,-0.41005,0.070795,-1.390668
1.335000000000008,-0.409743,0.076287,-1.397453
1.3375000000000057,-0.413397,0.078501,-1.399443
1.3400000000000034,-0.414478,0.081641,-1.405833
1.3425000000000011,-0.418167,0.080779,-1.408164
1.3449999999999989,-0.417392,0.086752,-1.409697
1.3474999999999966,-0.415983,0.086536,-1.415279
1.3500000000000083,-0.419453,0.086766,-1.418971
1.3525000000000065,-0.419194,0.089416,-1.424771
1.355000000000004,-0.419805,0.094105,-1.426561
1.3575000000000017,-0.420158,0.101563,-1.429194
1.3599999999999994,-0.428693,0.103568,-1.434491
1.3624999999999972,-0.429692,0.10249,-1.435339
1.365000000000009,-0.433411,0.10818,-1.443122
1.3675000000000068,-0.438595,0.111311,-1.442298
1.3700000000000043,-0.439087,0.115202,-1.445576
1.3725000000000025,-0.44491,0.121218,-1.445518
1.375,-0.44543,0.121205,-1.446692
1.3774999999999975,-0.447512,0.129114,-1.45006
1.3800000000000097,-0.455955,0.13179,-1.452997
1.3825000000000074,-0.457818,0.139158,-1.452284
1.3850000000000051,-0.46202,0.139553,-1.460447
1.3875000000000028,-0.463499,0.147777,-1.461791
1.3900000000000006,-0.469531,0.151204,-1.465943
1.3924999999999983,-0.471601,0.154838,-1.466587
1.394999999999996,-0.476234,0.156777,-1.471587
1.397500000000008,-0.47924,0.16051,-1.474006
1.4000000000000057,-0.482779,0.167842,-1.476235
1.4025000000000034,-0.485881,0.169761,-1.480507
1.4050000000000011,-0.490234,0.172634,-1.48449
1.4074999999999989,-0.493974,0.174038,-1.487986
1.4099999999999966,-0.496032,0.181376,-1.492361
1.4125000000000083,-0.500174,0.181664,-1.492393
1.4150000000000065,-0.503822,0.187657,-1.495946
1.417500000000004,-0.506179,0.191765,-1.496377
1.4200000000000017,-0.507338,0.199817,-1.50141
1.4224999999999994,-0.50886,0.200537,-1.499514
1.4249999999999972,-0.506859,0.205069,-1.495102
1.427500000000009,-0.499288,0.212467,-1.492439
1.4300000000000068,-0.485835,0.214831,-1.485393
1.4325000000000043,-0.463563,0.226491,-1.476216
1.4350000000000025,-0.434552,0.230829,-1.461145
1.4375,-0.396493,0.243858,-1.444186
1.4399999999999975,-0.346613,0.255513,-1.417605
1.4425000000000097,-0.29158,0.275968,-1.380049
1.4450000000000074,-0.227436,0.295957,-1.339702
1.4475000000000051,-0.168763,0.316887,-1.298617
1.4500000000000028,-0.127529,0.331418,-1.265696
1.4525000000000006,-0.097658,0.34074,-1.234554
1.4549999999999983,-0.076497,0.352989,-1.217814
1.457499999999996,-0.054628,0.364702,-1.20086
1.460000000000008,-0.034781,0.378546,-1.192205
1.4625000000000057,-0.008605,0.389547,-1.183202
1.4650000000000034,0.020383,0.401186,-1.172126
1.4675000000000011,0.056098,0.408531,-1.161129
1.4699999999999989,0.087441,0.410887,-1.14988
1.4724999999999966,0.120432,0.415573,-1.132377
1.4750000000000083,0.142785,0.416611,-1.116029
1.4775000000000065,0.165329,0.414833,-1.101447
1.480000000000004,0.178347,0.41458,-1.084194
1.4825000000000017,0.187174,0.41324,-1.067742
1.4849999999999994,0.191765,0.409829,-1.050489
1.4874999999999972,0.186693,0.407582,-1.03629
1.490000000000009,0.184082,0.4042,-1.018061
1.4925000000000068,0.172637,0.39892,-1.003972
1.4950000000000043,0.164928,0.392137,-0.987448
1.4975000000000025,0.153894,0.389581,-0.970005
1.5,0.145658,0.386011,-0.956345
1.5024999999999975,0.132295,0.384899,-0.942557
1.5050000000000097,0.121205,0.380894,-0.928974
1.5075000000000074,0.113233,0.374901,-0.915969
1.5100000000000051,0.100074,0.375686,-0.908005
1.5125000000000028,0.087587,0.371684,-0.89487
1.5150000000000006,0.075652,0.369255,-0.886831
1.5174999999999983,0.065246,0.366899,-0.881888
1.519999999999996,0.053955,0.364997,-0.875525
1.522500000000008,0.042222,0.364935,-0.86523
1.5250000000000057,0.030492,0.364032,-0.859869
1.5275000000000034,0.020738,0.359926,-0.85713
1.5300000000000011,0.011293,0.360119,-0.853075
1.5324999999999989,0.001398,0.35778,-0.849459
1.5349999999999966,-0.006537,0.358871,-0.843808
1.5375000000000083,-0.017995,0.355402,-0.840084
1.5400000000000065,-0.025203,0.352217,-0.836539
1.542500000000004,-0.033326,0.349546,-0.835487
1.5450000000000017,-0.040384,0.341291,-0.832427
1.5474999999999994,-0.048326,0.336576,-0.827649
1.5499999999999972,-0.05191,0.330576,-0.823257
1.552500000000009,-0.060943,0.32461,-0.819457
1.5550000000000068,-0.064123,0.315039,-0.817733
1.5575000000000043,-0.067379,0.303825,-0.811741
1.5600000000000025,-0.071917,0.296251,-0.805149
1.5625,-0.074671,0.282251,-0.797066
1.5649999999999975,-0.080866,0.267736,-0.789599
1.5675000000000097,-0.081903,0.259181,-0.78131
1.5700000000000074,-0.086331,0.246546,-0.775953
1.5725000000000051,-0.086585,0.227747,-0.763789
1.5750000000000028,-0.093479,0.213332,-0.756435
1.5775000000000006,-0.09483,0.205468,-0.749189
1.5799999999999983,-0.099326,0.195435,-0.741048
1.582499999999996,-0.092809,0.185939,-0.731965
1.585000000000008,-0.093713,0.179319,-0.727067
1.5875000000000057,-0.091881,0.169971,-0.719825
1.5900000000000034,-0.095426,0.164928,-0.713857
1.5925000000000011,-0.095236,0.155229,-0.708136
1.5949999999999989,-0.091921,0.155284,-0.707667
1.5974999999999966,-0.090118,0.141742,-0.699654
1.6000000000000083,-0.090525,0.132719,-0.694722
1.6025000000000065,-0.089796,0.125917,-0.692369
1.605000000000004,-0.0893,0.120186,-0.68624
1.6075000000000017,-0.089975,0.111388,-0.682291
1.6099999999999994,-0.087102,0.105263,-0.673954
1.6124999999999972,-0.084585,0.094999,-0.670892
1.615000000000009,-0.081015,0.088791,-0.667086
1.6175000000000068,-0.079724,0.081737,-0.65805
1.6200000000000043,-0.077087,0.073197,-0.654945
1.6225000000000025,-0.075358,0.067354,-0.648843
1.625,-0.071457,0.062519,-0.644742
1.6274999999999975,-0.069964,0.054144,-0.639007
1.6300000000000097,-0.064123,0.051627,-0.630394
1.6325000000000074,-0.054152,0.047197,-0.625883
1.6350000000000051,-0.053222,0.045887,-0.616731
1.6375000000000028,-0.049897,0.044706,-0.605469
1.6400000000000006,-0.037819,0.046072,-0.594065
1.6424999999999983,-0.026275,0.048658,-0.584915
1.644999999999996,-0.018467,0.057495,-0.575766
1.647500000000008,-0.001848,0.063875,-0.560546
1.6500000000000057,0.011412,0.072102,-0.546448
1.6525000000000034,0.028364,0.082789,-0.53051
1.6550000000000011,0.046013,0.091252,-0.514983
1.6574999999999989,0.066506,0.099788,-0.501545
1.6599999999999966,0.088841,0.108563,-0.489624
1.6625000000000083,0.110108,0.117821,-0.478491
1.6650000000000065,0.131536,0.126088,-0.471166
1.667500000000004,0.146537,0.135539,-0.458607
1.6700000000000017,0.157566,0.138947,-0.447376
1.6724999999999994,0.170422,0.14848,-0.434068
1.6749999999999972,0.176536,0.152702,-0.422403
1.677500000000009,0.182405,0.160061,-0.411618
1.6800000000000068,0.186998,0.160564,-0.405094
1.6825000000000043,0.192729,0.166336,-0.397174
1.6850000000000025,0.188626,0.172436,-0.388142
1.6875,0.183927,0.176481,-0.377777
1.6899999999999975,0.182269,0.186186,-0.372608
1.6925000000000097,0.17572,0.186812,-0.36035
1.6950000000000074,0.169008,0.190979,-0.356087
1.6975000000000051,0.160838,0.190208,-0.34968
1.7000000000000028,0.156118,0.192226,-0.349213
1.7025000000000006,0.153426,0.194847,-0.344262
1.7049999999999983,0.140717,0.195337,-0.340416
1.707499999999996,0.130817,0.195072,-0.337501
1.710000000000008,0.124677,0.194594,-0.333699
1.7125000000000057,0.113753,0.194062,-0.32822
1.7150000000000034,0.10388,0.194657,-0.331043
1.7175000000000011,0.095396,0.194364,-0.329471
1.7199999999999989,0.088437,0.193499,-0.325711
1.7224999999999966,0.081427,0.198195,-0.32758
1.7250000000000083,0.075864,0.194203,-0.327826
1.7275000000000065,0.069914,0.197222,-0.324781
1.730000000000004,0.067141,0.191733,-0.325739
1.7325000000000017,0.065147,0.190098,-0.325255
1.7349999999999994,0.066344,0.185103,-0.326943
1.7374999999999972,0.071361,0.183208,-0.328156
1.740000000000009,0.078505,0.181279,-0.325613
1.7425000000000068,0.082097,0.179613,-0.328289
1.7450000000000043,0.085626,0.175602,-0.327313
1.7475000000000025,0.085709,0.176229,-0.326282
1.75,0.092269,0.17403,-0.327718
1.7524999999999975,0.092825,0.173601,-0.328268
1.7550000000000097,0.091366,0.177848,-0.334321
1.7575000000000074,0.090253,0.181716,-0.333308
1.7600000000000051,0.091488,0.181503,-0.332953
1.7625000000000028,0.087955,0.184356,-0.335895
1.7650000000000006,0.09121,0.185253,-0.334705
1.7674999999999983,0.088657,0.185753,-0.337243
1.769999999999996,0.091343,0.188563,-0.338051
1.772500000000008,0.091458,0.189992,-0.33851
1.7750000000000057,0.088308,0.192512,-0.342482
1.7775000000000034,0.093363,0.19187,-0.343929
1.7800000000000011,0.093513,0.192782,-0.344192
1.7824999999999989,0.096212,0.192542,-0.347155
1.7849999999999966,0.091495,0.189126,-0.348037
1.7875000000000083,0.097296,0.191525,-0.351925
1.7900000000000065,0.100045,0.191772,-0.354546
1.792500000000004,0.098252,0.191364,-0.356148
1.7950000000000017,0.098778,0.188997,-0.357606
1.7974999999999994,0.100038,0.193494,-0.356345
1.7999999999999972,0.103047,0.192071,-0.36145
1.802500000000009,0.10137,0.194336,-0.360748
1.8050000000000068,0.101001,0.193461,-0.365777
1.8075000000000043,0.104368,0.193088,-0.366104
1.8100000000000025,0.10503,0.190387,-0.364821
1.8125,0.105223,0.19275,-0.365859
1.8149999999999975,0.105543,0.193065,-0.370888
1.8175000000000097,0.107294,0.197706,-0.370534
1.8200000000000076,0.103997,0.195488,-0.37086
1.822500000000005,0.111429,0.196274,-0.375825
1.8250000000000028,0.108644,0.197082,-0.377707
1.8275000000000008,0.110561,0.198797,-0.378384
1.8299999999999983,0.112932,0.195768,-0.381838
1.832499999999996,0.109503,0.20024,-0.382966
1.835000000000008,0.112703,0.199411,-0.388375
1.8375000000000057,0.117295,0.200168,-0.388455
1.8400000000000036,0.113853,0.202212,-0.393777
1.8425000000000007,0.11723,0.202968,-0.394575
1.8449999999999989,0.121301,0.204892,-0.398992
1.8474999999999968,0.122081,0.203841,-0.398046
1.8500000000000083,0.122529,0.210442,-0.403011
1.8525000000000065,0.125844,0.209833,-0.409499
1.855000000000004,0.127066,0.206409,-0.408138
1.8575000000000017,0.128943,0.206868,-0.408462
1.8599999999999997,0.126834,0.214799,-0.415711
1.8624999999999967,0.132417,0.213183,-0.42176
1.865000000000009,0.127409,0.207435,-0.420579
1.8675000000000068,0.129182,0.218048,-0.4206
1.8700000000000043,0.134233,0.217465,-0.422569
1.8725000000000025,0.130562,0.218578,-0.426555
1.875,0.13048,0.219945,-0.427936
1.8774999999999975,0.137603,0.221146,-0.432165
1.8800000000000097,0.130516,0.228289,-0.433205
1.8825000000000076,0.132047,0.225028,-0.435539
1.885000000000005,0.130706,0.230987,-0.43862
1.8875000000000028,0.134239,0.231662,-0.438173
1.8900000000000008,0.130708,0.233602,-0.44066
1.8924999999999983,0.130186,0.232438,-0.444856
1.894999999999996,0.126796,0.23217,-0.446288
1.897500000000008,0.132706,0.237391,-0.445709
1.9000000000000057,0.127205,0.241422,-0.448658
1.9025000000000036,0.125069,0.247031,-0.451653
1.9050000000000007,0.13097,0.248063,-0.454313
1.9074999999999989,0.128143,0.249711,-0.455943
1.9099999999999968,0.128663,0.252035,-0.458407
1.9125000000000083,0.125374,0.251883,-0.455955
1.9150000000000065,0.128116,0.252944,-0.458826
1.917500000000004,0.126924,0.256231,-0.456536
1.9200000000000017,0.125389,0.260995,-0.458042
1.9224999999999997,0.12705,0.265131,-0.45976
1.9249999999999967,0.124633,0.262556,-0.459656
1.927500000000009,0.126587,0.26014,-0.462458
1.9300000000000068,0.127738,0.268767,-0.462142
1.9325000000000043,0.127993,0.272854,-0.465938
1.9350000000000025,0.13065,0.270236,-0.469986
1.9375,0.128173,0.272243,-0.470464
1.9399999999999975,0.127519,0.272424,-0.467157
1.9425000000000097,0.130364,0.276467,-0.471807
1.9450000000000076,0.128696,0.277292,-0.474924
1.947500000000005,0.134719,0.27942,-0.475985
1.9500000000000028,0.132807,0.28177,-0.47905
1.9525000000000008,0.137179,0.284431,-0.480099
1.9549999999999983,0.13537,0.286842,-0.481091
1.957499999999996,0.133412,0.287894,-0.485612
1.960000000000008,0.134552,0.289657,-0.485659
1.9625000000000057,0.138127,0.285579,-0.49037
1.9650000000000036,0.137282,0.293387,-0.490356
1.9675000000000007,0.137442,0.296456,-0.489534
1.9699999999999989,0.137197,0.296218,-0.491218
1.9724999999999968,0.135953,0.298641,-0.495558
1.9750000000000083,0.140015,0.299414,-0.496259
1.9775000000000065,0.137269,0.299955,-0.497089
1.980000000000004,0.136264,0.301868,-0.500535
1.9825000000000017,0.138107,0.30195,-0.50083
1.9849999999999997,0.137545,0.302623,-0.501463
1.9874999999999967,0.136565,0.303245,-0.504211
1.990000000000009,0.138474,0.305548,-0.50583
1.9925000000000068,0.138991,0.305512,-0.506645
1.9950000000000043,0.13755,0.307027,-0.504929
1.9975000000000025,0.139765,0.306154,-0.511062
2.0,0.138883,0.301598,-0.511574
2.0024999999999977,0.140552,0.303659,-0.515337
2.0050000000000097,0.14204,0.302535,-0.515722
2.0075000000000074,0.14581,0.3026,-0.517239
2.010000000000005,0.147221,0.303882,-0.521669
2.012500000000003,0.145996,0.306416,-0.523092
2.015000000000001,0.148154,0.304057,-0.524671
2.0174999999999983,0.150067,0.306658,-0.526425
2.019999999999996,0.151696,0.307816,-0.526635
2.022500000000008,0.149644,0.310729,-0.526154
2.0250000000000057,0.149437,0.313408,-0.528395
2.0275000000000034,0.152866,0.313636,-0.528324
2.030000000000001,0.153705,0.315105,-0.532557
2.032499999999999,0.158555,0.317796,-0.534281
2.0349999999999966,0.159463,0.320943,-0.537475
2.0375000000000085,0.161008,0.319333,-0.535025
2.0400000000000063,0.161224,0.321148,-0.54131
2.042500000000004,0.162434,0.323843,-0.544395
2.0450000000000017,0.163639,0.325996,-0.545347
2.0474999999999994,0.163967,0.329485,-0.548986
2.049999999999997,0.166393,0.331324,-0.551741
2.052500000000009,0.167308,0.330143,-0.551428
2.055000000000007,0.16528,0.333152,-0.553842
2.0575000000000045,0.170776,0.33564,-0.555918
2.0600000000000023,0.166603,0.338153,-0.556132
2.0625,0.17026,0.338451,-0.560628
2.0649999999999977,0.16742,0.344995,-0.560843
2.0675000000000097,0.167424,0.34192,-0.561215
2.0700000000000074,0.162462,0.34598,-0.564781
2.072500000000005,0.161599,0.34432,-0.563814
2.075000000000003,0.16306,0.351878,-0.563747
2.077500000000001,0.162829,0.349731,-0.564843
2.0799999999999983,0.157359,0.350898,-0.56598
2.082499999999996,0.161619,0.355525,-0.568068
2.085000000000008,0.161327,0.355218,-0.569606
2.0875000000000057,0.164574,0.359366,-0.57175
2.0900000000000034,0.16272,0.360692,-0.570341
2.092500000000001,0.16361,0.358421,-0.573193
2.094999999999999,0.161218,0.36014,-0.576657
2.0974999999999966,0.16318,0.360458,-0.577334
2.1000000000000085,0.164903,0.357551,-0.580154
2.1025000000000063,0.166645,0.358399,-0.577599
2.105000000000004,0.164973,0.359137,-0.582106
2.1075000000000017,0.166429,0.360902,-0.581168
2.1099999999999994,0.165669,0.358982,-0.585885
2.112499999999997,0.169262,0.358603,-0.58835
2.115000000000009,0.169418,0.361363,-0.590378
2.117500000000007,0.16642,0.355548,-0.591323
2.1200000000000045,0.171549,0.361366,-0.59453
2.1225000000000023,0.171017,0.360832,-0.597467
2.125,0.170473,0.360129,-0.595987
2.1274999999999977,0.168984,0.360465,-0.597727
2.1300000000000097,0.170236,0.363066,-0.600684
2.1325000000000074,0.172649,0.360858,-0.602743
2.135000000000005,0.17196,0.363549,-0.600851
2.137500000000003,0.174323,0.363713,-0.603928
2.140000000000001,0.17386,0.364965,-0.606562
2.1424999999999983,0.174878,0.365198,-0.606616
2.144999999999996,0.171382,0.368712,-0.608665
2.147500000000008,0.174571,0.368188,-0.610721
2.1500000000000057,0.176083,0.363938,-0.615707
2.1525000000000034,0.175368,0.367274,-0.614679
2.155000000000001,0.178131,0.369326,-0.614999
2.157499999999999,0.174131,0.369,-0.614733
2.1599999999999966,0.175253,0.369633,-0.619318
2.1625000000000085,0.176448,0.373004,-0.620723
2.1650000000000063,0.173735,0.370463,-0.621061
2.167500000000004,0.170299,0.372013,-0.621082
2.1700000000000017,0.171008,0.371527,-0.619361
2.1724999999999994,0.171682,0.373849,-0.625922
2.174999999999997,0.172474,0.373558,-0.624165
2.177500000000009,0.171221,0.374285,-0.623703
2.180000000000007,0.172813,0.374863,-0.628942
2.1825000000000045,0.171245,0.375146,-0.625363
2.1850000000000023,0.169366,0.372648,-0.625089
2.1875,0.16572,0.37617,-0.6259
2.1899999999999977,0.167222,0.380015,-0.62733
2.1925000000000097,0.164708,0.378012,-0.62688
2.1950000000000074,0.166869,0.374921,-0.625942
2.197500000000005,0.165138,0.378151,-0.62654
2.200000000000003,0.165721,0.379907,-0.629832
2.202500000000001,0.16513,0.376999,-0.628449
2.2049999999999983,0.164384,0.380603,-0.628078
2.207499999999996,0.160965,0.3787,-0.62747
2.210000000000008,0.161552,0.378443,-0.62685
2.2125000000000057,0.159658,0.380302,-0.624587
2.2150000000000034,0.161254,0.37609,-0.626057
2.217500000000001,0.162547,0.375342,-0.627181
2.219999999999999,0.161392,0.375442,-0.622816
2.2224999999999966,0.159811,0.374592,-0.622009
2.2250000000000085,0.157005,0.371727,-0.620458
2.2275000000000063,0.157387,0.3708,-0.621834
2.230000000000004,0.156616,0.377037,-0.618392
2.2325000000000017,0.157691,0.371768,-0.617658
2.2349999999999994,0.156013,0.372904,-0.618388
2.237499999999997,0.154337,0.374556,-0.615355
2.240000000000009,0.155171,0.375795,-0.613828
2.242500000000007,0.154685,0.375756,-0.611207
2.2450000000000045,0.158612,0.373032,-0.611326
2.2475000000000023,0.154743,0.375057,-0.613527
2.25,0.157813,0.374333,-0.61141
2.2524999999999977,0.163051,0.374743,-0.61001
2.2550000000000097,0.159917,0.376356,-0.607646
2.2575000000000074,0.161397,0.375099,-0.608847
2.260000000000005,0.159849,0.378151,-0.611252
2.262500000000003,0.161878,0.378675,-0.607513
2.265000000000001,0.164807,0.380985,-0.610152
2.2674999999999983,0.162566,0.378514,-0.612462
2.269999999999996,0.163118,0.379256,-0.608848
2.272500000000008,0.163742,0.37794,-0.611535
2.2750000000000057,0.163648,0.380669,-0.610122
2.2775000000000034,0.160988,0.38215,-0.611678
2.280000000000001,0.158715,0.383411,-0.610358
2.282499999999999,0.157284,0.386337,-0.60766
2.2849999999999966,0.160917,0.385948,-0.606214
2.2875000000000085,0.157809,0.382898,-0.613919
2.2900000000000063,0.156156,0.382688,-0.612442
2.292500000000004,0.154976,0.386977,-0.611806
2.2950000000000017,0.157347,0.387441,-0.611685
2.2974999999999994,0.157476,0.382627,-0.614637
2.299999999999997,0.152128,0.382719,-0.612584
2.302500000000009,0.151689,0.384181,-0.611945
2.305000000000007,0.153089,0.385375,-0.611243
2.3075000000000045,0.15297,0.381682,-0.609231
2.3100000000000023,0.153584,0.381934,-0.610104
2.3125,0.148229,0.380195,-0.613764
2.3149999999999977,0.151051,0.378261,-0.615467
2.3175000000000097,0.149933,0.376908,-0.616716
2.3200000000000074,0.150032,0.377323,-0.613038
2.322500000000005,0.153328,0.374561,-0.613754
2.325000000000003,0.152496,0.372791,-0.614378
2.327500000000001,0.148205,0.373539,-0.613375
2.3299999999999983,0.149017,0.372835,-0.617282
2.332499999999996,0.146583,0.371347,-0.612605
2.335000000000008,0.147639,0.370611,-0.614239
2.3375000000000057,0.143071,0.36815,-0.612877
2.3400000000000034,0.147709,0.369234,-0.612207
2.342500000000001,0.145633,0.371596,-0.613397
2.344999999999999,0.141583,0.366008,-0.610377
2.3474999999999966,0.144526,0.36326,-0.609218
2.3500000000000085,0.141864,0.365307,-0.607137
2.3525000000000063,0.140192,0.362534,-0.609288
2.355000000000004,0.139854,0.370307,-0.607254
2.3575000000000017,0.139352,0.36178,-0.606948
2.3599999999999994,0.136217,0.354978,-0.603515
2.362499999999997,0.134864,0.357924,-0.603151
2.365000000000009,0.139324,0.358714,-0.598544
2.367500000000007,0.136649,0.356632,-0.596823
2.3700000000000045,0.135601,0.351278,-0.595437
2.3725000000000023,0.140648,0.347913,-0.593035
2.375,0.137881,0.351668,-0.592792
2.3774999999999977,0.137772,0.348584,-0.591315
2.3800000000000097,0.140166,0.34596,-0.587556
2.3825000000000074,0.135238,0.344523,-0.587773
2.385000000000005,0.132775,0.34368,-0.585219
2.387500000000003,0.1359,0.342867,-0.58464
2.390000000000001,0.137315,0.340483,-0.582168
2.3924999999999983,0.133438,0.342592,-0.579035
2.394999999999996,0.13509,0.341567,-0.578234
2.397500000000008,0.137009,0.34247,-0.576136
2.4000000000000057,0.134677,0.342133,-0.576173
2.4025000000000034,0.134974,0.337402,-0.57092
2.405000000000001,0.132687,0.341209,-0.57054
2.407499999999999,0.133092,0.338148,-0.56992
2.4099999999999966,0.129218,0.339408,-0.569262
2.4125000000000085,0.129048,0.333979,-0.566304
2.4150000000000063,0.123223,0.334451,-0.563967
2.417500000000004,0.125765,0.334988,-0.56414
2.4200000000000017,0.124548,0.331018,-0.556897
2.4224999999999994,0.123016,0.331052,-0.561605
2.424999999999997,0.123509,0.334547,-0.56494
2.427500000000009,0.120766,0.341671,-0.565724
2.430000000000007,0.118011,0.330287,-0.561619
2.4325000000000045,0.122704,0.325819,-0.561345
2.4350000000000023,0.118466,0.33792,-0.564522
2.4375,0.120354,0.32542,-0.567183
2.4399999999999977,0.121269,0.322364,-0.567065
2.4425000000000097,0.120505,0.328866,-0.56477
2.4450000000000074,0.120827,0.330698,-0.566465
2.447500000000005,0.120591,0.33141,-0.56705
2.450000000000003,0.119682,0.331686,-0.568545
2.452500000000001,0.12067,0.329322,-0.568412
2.4549999999999983,0.120825,0.332765,-0.573905
2.457499999999996,0.118097,0.329535,-0.57043
2.460000000000008,0.120183,0.330197,-0.569113
2.4625000000000057,0.120422,0.331802,-0.575377
2.4650000000000034,0.118478,0.330443,-0.576861
2.467500000000001,0.115641,0.328777,-0.574853
2.469999999999999,0.116978,0.335474,-0.576823
2.4724999999999966,0.117052,0.335262,-0.580722
2.4750000000000085,0.118872,0.335287,-0.582048
2.4775000000000063,0.117508,0.335144,-0.581741
2.480000000000004,0.117921,0.338327,-0.582619
2.4825000000000017,0.123239,0.334358,-0.586425
2.4849999999999994,0.119912,0.335416,-0.589201
2.487499999999997,0.118843,0.336118,-0.590761
2.490000000000009,0.120328,0.338692,-0.590989
2.492500000000007,0.118845,0.339662,-0.591758
2.4950000000000045,0.115963,0.339671,-0.589299
2.4975000000000023,0.116595,0.341217,-0.591968
2.5,0.116087,0.341415,-0.591713
2.5024999999999977,0.115042,0.341585,-0.592558
2.5050000000000097,0.113525,0.338911,-0.590061
2.5075000000000074,0.114018,0.33975,-0.593917
2.510000000000005,0.114877,0.340038,-0.59256
2.512500000000003,0.115424,0.336406,-0.597534
2.515000000000001,0.112347,0.339578,-0.59927
2.5174999999999983,0.109882,0.339501,-0.595142
2.519999999999996,0.110716,0.33745,-0.595121
2.522500000000008,0.110302,0.337421,-0.597911
2.5250000000000057,0.10482,0.341191,-0.597328
2.5275000000000034,0.105032,0.339326,-0.59624
2.530000000000001,0.103465,0.338864,-0.599966
2.532499999999999,0.103302,0.336555,-0.599104
2.5349999999999966,0.10362,0.337052,-0.596559
2.5375000000000085,0.097447,0.336193,-0.598788
2.5400000000000063,0.094632,0.334246,-0.599347
2.542500000000004,0.095903,0.335119,-0.596951
2.5450000000000017,0.094368,0.337624,-0.597325
2.5474999999999994,0.092947,0.337613,-0.598517
2.549999999999997,0.094643,0.338452,-0.597709
2.552500000000009,0.093286,0.335864,-0.594972
2.555000000000007,0.091445,0.334149,-0.595486
2.5575000000000045,0.090154,0.333167,-0.592546
2.5600000000000023,0.090071,0.334966,-0.588846
2.5625,0.08924,0.335848,-0.590906
2.5649999999999977,0.090435,0.33173,-0.593643
2.5675000000000097,0.087407,0.333013,-0.588385
2.5700000000000074,0.091375,0.333976,-0.590147
2.572500000000005,0.090492,0.333655,-0.588767
2.575000000000003,0.091077,0.331105,-0.585914
2.577500000000001,0.089341,0.333975,-0.587908
2.5799999999999983,0.088102,0.333002,-0.584506
2.582499999999996,0.089286,0.331166,-0.586008
2.585000000000008,0.085507,0.332824,-0.587562
2.5875000000000057,0.085305,0.334612,-0.586693
2.5900000000000034,0.085603,0.328559,-0.585364
2.592500000000001,0.088137,0.325374,-0.584269
2.594999999999999,0.086243,0.328534,-0.587396
2.5974999999999966,0.087526,0.329161,-0.587863
2.6000000000000085,0.089221,0.326815,-0.584981
2.6025000000000063,0.090509,0.327798,-0.590172
2.605000000000004,0.090135,0.328397,-0.589803
2.6075000000000017,0.091327,0.327481,-0.590172
2.6099999999999994,0.094888,0.331413,-0.594775
2.612499999999997,0.091742,0.329679,-0.596806
2.615000000000009,0.094771,0.334685,-0.59658
2.617500000000007,0.092181,0.333893,-0.602827
2.6200000000000045,0.094212,0.332382,-0.603838
2.6225000000000023,0.096532,0.336958,-0.609033
2.625,0.092917,0.334857,-0.607024
2.6274999999999977,0.090473,0.336907,-0.609957
2.6300000000000097,0.091904,0.3394,-0.61367
2.6325000000000074,0.092625,0.340279,-0.614794
2.635000000000005,0.091293,0.338271,-0.616172
2.637500000000003,0.094806,0.34307,-0.621095
2.640000000000001,0.09068,0.344341,-0.625245
2.6424999999999983,0.091835,0.346271,-0.628093
2.644999999999996,0.086749,0.348299,-0.631863
2.647500000000008,0.083809,0.347749,-0.63194
2.6500000000000057,0.086244,0.35386,-0.637014
2.6525000000000034,0.083175,0.354522,-0.641537
2.655000000000001,0.084528,0.35652,-0.645429
2.657499999999999,0.080917,0.356311,-0.651236
2.6599999999999966,0.075635,0.35583,-0.652801
2.6625000000000085,0.075097,0.35988,-0.657413
2.6650000000000063,0.075378,0.359202,-0.657293
2.667500000000004,0.077426,0.36399,-0.66306
2.6700000000000017,0.072671,0.358138,-0.663713
2.6724999999999994,0.075441,0.36369,-0.668752
2.674999999999997,0.069236,0.365258,-0.672957
2.677500000000009,0.069689,0.367912,-0.672716
2.680000000000007,0.065417,0.362546,-0.673311
2.6825000000000045,0.065183,0.367837,-0.675823
2.6850000000000023,0.062325,0.369642,-0.679538
2.6875,0.063679,0.368377,-0.682671
2.6899999999999977,0.06484,0.370715,-0.683798
2.6925000000000097,0.064936,0.373974,-0.68631
2.6950000000000074,0.063174,0.37178,-0.685573
2.697500000000005,0.059182,0.37547,-0.688274
2.700000000000003,0.057589,0.372788,-0.693585
2.702500000000001,0.056287,0.374054,-0.693575
2.7049999999999983,0.058893,0.373978,-0.695624
2.707499999999996,0.058425,0.376047,-0.693798
2.710000000000008,0.052626,0.379007,-0.69799
2.7125000000000057,0.057278,0.381946,-0.699866
2.7150000000000034,0.058428,0.378852,-0.697596
2.717500000000001,0.057953,0.379755,-0.695819
2.719999999999999,0.058466,0.375663,-0.696956
2.7224999999999966,0.058819,0.374664,-0.694676
2.7250000000000085,0.06232,0.373522,-0.69464
2.7275000000000063,0.063898,0.368276,-0.690383
2.730000000000004,0.062972,0.371938,-0.684013
2.7325000000000017,0.061695,0.364336,-0.680618
2.7349999999999994,0.067177,0.365713,-0.680211
2.737499999999997,0.06577,0.360634,-0.675705
2.740000000000009,0.071142,0.362767,-0.670916
2.742500000000007,0.066864,0.360376,-0.663804
2.7450000000000045,0.064722,0.359165,-0.65897
2.7475000000000023,0.065743,0.355022,-0.648515
2.75,0.067431,0.35196,-0.641584
2.7524999999999977,0.067676,0.349537,-0.631228
2.7550000000000097,0.0668,0.350521,-0.618845
2.7575000000000074,0.070807,0.347107,-0.607072
2.760000000000005,0.076006,0.343954,-0.596733
2.762500000000003,0.074885,0.342398,-0.581582
2.765000000000001,0.081024,0.339628,-0.567447
2.7674999999999983,0.082391,0.333016,-0.550291
2.769999999999996,0.086224,0.335942,-0.533155
2.772500000000008,0.088294,0.326186,-0.517616
2.7750000000000057,0.088025,0.325588,-0.500068
2.7775000000000034,0.093389,0.321927,-0.48361
2.780000000000001,0.089536,0.316776,-0.470761
2.782499999999999,0.091179,0.311524,-0.449045
2.7849999999999966,0.088809,0.309182,-0.431609
2.7875000000000085,0.091755,0.303385,-0.415607
2.7900000000000063,0.089834,0.292347,-0.39539
2.792500000000004,0.084675,0.281588,-0.376166
2.7950000000000017,0.079206,0.278598,-0.353742
2.7974999999999994,0.076357,0.261246,-0.325727
2.799999999999997,0.068897,0.253196,-0.304925
2.802500000000009,0.063036,0.23853,-0.273517
2.805000000000007,0.056256,0.21906,-0.249445
2.8075000000000045,0.043762,0.205623,-0.221148
2.8100000000000023,0.034476,0.185447,-0.193956
2.8125,0.024156,0.1644,-0.167993
2.8149999999999977,0.016827,0.14507,-0.141279
2.8175000000000097,0.008535,0.124218,-0.115161
2.8200000000000074,0.000783,0.108831,-0.090018
2.822500000000005,-0.009467,0.086964,-0.066806
2.825000000000003,-0.012532,0.064997,-0.04728
2.827500000000001,-0.013202,0.049516,-0.023057
2.8299999999999983,-0.016944,0.026887,-0.001919
2.832499999999996,-0.012022,0.012412,0.01376
2.835000000000008,-0.017102,0.001683,0.036622
2.8375000000000057,-0.012688,-0.027466,0.053088
2.8400000000000034,-0.009669,-0.037044,0.068573
2.842500000000001,-0.009772,-0.057563,0.085064
2.844999999999999,-0.00807,-0.066632,0.096833
2.8474999999999966,-0.011244,-0.074638,0.103385
2.8500000000000085,-0.006393,-0.081916,0.110594
2.8525000000000063,-0.00951,-0.09279,0.115844
2.855000000000004,-0.010538,-0.096714,0.119854
2.8575000000000017,-0.014724,-0.099823,0.127933
2.8599999999999994,-0.016855,-0.10245,0.1306
2.862499999999997,-0.022018,-0.107925,0.129805
2.865000000000009,-0.024514,-0.100215,0.13079
2.867500000000007,-0.022237,-0.102746,0.131864
2.8700000000000045,-0.022927,-0.095202,0.128444
2.8725000000000023,-0.02612,-0.094575,0.12482
2.875,-0.025663,-0.086144,0.126386
2.8774999999999977,-0.026108,-0.084719,0.120588
2.8800000000000097,-0.028399,-0.079721,0.124411
2.8825000000000074,-0.026134,-0.076091,0.11482
2.885000000000005,-0.026315,-0.068778,0.111502
2.887500000000003,-0.02611,-0.062758,0.104716
2.890000000000001,-0.020248,-0.061084,0.098408
2.8924999999999983,-0.019731,-0.053132,0.094739
2.894999999999996,-0.017713,-0.049502,0.088838
2.897500000000008,-0.016135,-0.04328,0.084227
2.9000000000000057,-0.017534,-0.038874,0.074474
2.9025000000000034,-0.016038,-0.039525,0.070999
2.905000000000001,-0.013395,-0.032945,0.063618
2.907499999999999,-0.009164,-0.030702,0.057682
2.9099999999999966,-0.010528,-0.023025,0.050367
2.9125000000000085,-0.005777,-0.022346,0.043424
2.9150000000000063,-0.005247,-0.02405,0.032575
2.917500000000004,-0.007775,-0.016809,0.029973
2.9200000000000017,-0.004469,-0.015496,0.023565
2.9224999999999994,-0.002547,-0.010778,0.016902
2.924999999999997,-0.005493,-0.008859,0.009335
2.927500000000009,0.000247,-0.003439,0.004869
2.930000000000007,0.001488,-0.001621,-0.00466
2.9325000000000045,0.00089,0.000364,-0.006659
2.9350000000000023,0.000376,0.00385,-0.011866
2.9375,0.007599,0.00698,-0.021301
2.9399999999999977,0.007274,0.012659,-0.02363
2.9425000000000097,0.009354,0.018374,-0.0314
2.9450000000000074,0.009245,0.022443,-0.034483
2.947500000000005,0.011174,0.027638,-0.037275
2.950000000000003,0.008058,0.031269,-0.041477
2.952500000000001,0.013218,0.036939,-0.046343
2.9549999999999983,0.013767,0.039978,-0.048587
2.957499999999996,0.013117,0.047445,-0.053565
2.960000000000008,0.015254,0.049152,-0.05762
2.9625000000000057,0.018506,0.052415,-0.057986
2.9650000000000034,0.018512,0.056279,-0.062136
2.967500000000001,0.018237,0.06099,-0.066224
2.969999999999999,0.018866,0.060645,-0.066181
2.9724999999999966,0.020301,0.06454,-0.067961
2.9750000000000085,0.017571,0.06981,-0.067249
2.9775000000000063,0.018945,0.071684,-0.070204
2.980000000000004,0.020327,0.074097,-0.070323
2.9825000000000017,0.021065,0.074648,-0.069314
2.9849999999999994,0.021403,0.072514,-0.068612
2.987499999999997,0.023713,0.074882,-0.067469
2.990000000000009,0.017218,0.075188,-0.066461
2.992500000000007,0.017806,0.074937,-0.063695
2.9950000000000045,0.019557,0.073022,-0.06392
2.9975000000000023,0.017074,0.071656,-0.063883
3.0,0.017764,0.070821,-0.060698
3.0024999999999977,0.018396,0.066958,-0.057288
3.0050000000000097,0.016726,0.068843,-0.053708
3.0075000000000074,0.014728,0.065117,-0.050023
3.010000000000005,0.017712,0.064706,-0.048186
3.012500000000003,0.01658,0.057761,-0.045285
3.015000000000001,0.014041,0.057142,-0.041394
3.0174999999999983,0.015024,0.051842,-0.03947
3.019999999999996,0.012334,0.046255,-0.036377
3.022500000000008,0.012282,0.043266,-0.031492
3.0250000000000057,0.013427,0.041843,-0.02529
3.0275000000000034,0.011963,0.034804,-0.0211
3.030000000000001,0.012016,0.032634,-0.01958
3.032499999999999,0.008815,0.031114,-0.017357
3.0349999999999966,0.00898,0.027376,-0.013176
3.0375000000000085,0.00778,0.020915,-0.010258
3.0400000000000063,0.008736,0.023527,-0.007845
3.042500000000004,0.004964,0.017209,-0.003605
3.0450000000000017,0.003793,0.01008,-0.000978
3.0474999999999994,0.003398,0.009833,0.001449
3.049999999999997,0.005653,0.007393,0.002704
3.052500000000009,0.002419,0.006551,0.006384
3.055000000000007,0.004212,0.002172,0.008311
3.0575000000000045,-0.001535,0.001691,0.012592
3.0600000000000023,0.002245,-0.001006,0.014084
3.0625,0.001729,-0.003111,0.012559
3.0649999999999977,-0.000848,0.001583,0.011437
3.0675000000000097,-0.000136,-0.004059,0.01597
3.0700000000000074,-0.001472,-0.005172,0.014386
3.072500000000005,0.003097,-0.006202,0.016815
3.075000000000003,0.00361,-0.004274,0.016709
3.077500000000001,0.000697,-0.003205,0.013209
3.0799999999999983,0.00085,-0.003354,0.016237
3.082499999999996,-0.001678,-0.006592,0.014731
3.085000000000008,0.001926,-0.00291,0.010767
3.0875000000000057,0.00261,-0.002791,0.009236
3.0900000000000034,0.001249,-0.00163,0.010774
3.092500000000001,0.000953,0.001071,0.011159
3.094999999999999,0.002237,0.002144,0.008451
3.0974999999999966,8.6e-05,0.003863,0.00887
3.1000000000000085,-0.000818,0.002993,0.007302
3.1025000000000063,0.003579,0.007073,0.005072
3.105000000000004,0.004668,0.008429,0.000397
3.1075000000000017,-0.000642,0.012969,0.001305
3.1099999999999994,0.002516,0.007869,0.003278
3.112499999999997,0.000232,0.009417,0.004295
3.115000000000009,0.005061,0.009718,0.004824
3.117500000000007,0.002099,0.006998,0.003887
3.1200000000000045,0.002433,0.010533,0.004562
3.1225000000000023,9.3e-05,0.009439,0.004513
3.125,0.005955,0.009847,0.002084
3.1274999999999977,0.003248,0.004513,-0.000712
3.1300000000000097,0.004411,0.003561,0.003807
3.1325000000000074,0.002513,0.002427,0.004262
3.135000000000005,0.001434,0.005718,0.002835
3.137500000000003,-0.001498,0.001589,0.00622
3.140000000000001,0.002465,0.003313,0.003106
3.1424999999999983,0.001561,0.001626,0.003719
3.144999999999996,0.004577,-0.0036,0.003039
3.1474999999999937,0.004978,0.000214,0.006074
3.1499999999999915,0.002073,0.00179,0.003197
3.152499999999989,0.004407,0.000877,0.006535
3.155000000000016,8.9e-05,0.001282,0.006592
3.157500000000013,0.002762,-0.001436,0.007793
3.160000000000011,0.002118,0.001832,0.006942
3.1625000000000085,-4.5e-05,0.003687,0.007955
3.1650000000000063,0.000937,0.005703,0.008593
3.167500000000004,0.001924,-0.001077,0.006863
3.1700000000000017,0.00274,0.004584,0.009762
3.1724999999999994,0.001384,0.002503,0.008293
3.174999999999997,-0.000811,0.007799,0.010399
3.177499999999995,0.00312,-0.002961,0.007968
3.1799999999999926,0.002784,0.003376,0.010326
3.1824999999999903,-0.002292,0.005514,0.010293
3.1850000000000165,0.005939,0.002963,0.009201
3.187500000000014,0.003272,0.0024,0.007208
3.190000000000012,0.006325,0.002194,0.005896
3.1925000000000097,0.000951,0.007973,0.011045
3.1950000000000074,0.00224,0.006426,0.006068
3.197500000000005,0.00423,0.0071,0.002261
3.200000000000003,0.001365,0.005858,0.006269
3.202500000000001,-0.000419,0.007188,0.007261
3.2049999999999983,0.002947,0.010949,0.000825
3.207499999999996,0.0053,0.008786,0.003684
3.2099999999999937,0.00361,0.009377,0.002233
3.2124999999999915,0.004946,0.009573,0.00523
3.214999999999989,0.003781,0.009551,0.004869
3.217500000000016,0.00534,0.01253,0.005006
3.220000000000013,0.00407,0.013376,0.005382
3.222500000000011,0.005197,0.015161,0.003199
3.2250000000000085,0.003903,0.00718,0.002357
3.2275000000000063,0.007578,0.01043,0.002565
3.230000000000004,0.002757,0.010905,0.006131
3.2325000000000017,0.002194,0.010427,0.006992
3.2349999999999994,0.00233,0.012212,0.00483
3.237499999999997,0.000446,0.011454,0.00729
3.239999999999995,0.006699,0.011186,0.007587
3.2424999999999926,0.003079,0.011758,0.008119
3.2449999999999903,0.00542,0.01365,0.009523
3.2475000000000165,0.004784,0.00891,0.006767
3.250000000000014,0.003273,0.008061,0.007733
3.252500000000012,0.001077,0.010461,0.011138
3.2550000000000097,0.000689,0.00705,0.009593
3.2575000000000074,0.004632,0.008506,0.008737
3.260000000000005,-0.000933,0.009083,0.009713
3.262500000000003,0.003468,0.00953,0.008986
3.265000000000001,0.002287,0.008885,0.003926
3.2674999999999983,0.00299,0.008915,0.008198
3.269999999999996,0.000641,0.006554,0.005627
3.2724999999999937,0.001911,0.009414,0.007439
3.2749999999999915,0.003136,0.006702,0.005568
3.277499999999989,0.003888,0.011002,0.004735
3.280000000000016,0.004283,0.010169,0.004546
3.282500000000013,0.004569,0.009923,0.003067
3.285000000000011,0.003531,0.009867,0.003914
3.2875000000000085,0.004922,0.011049,0.003558
3.2900000000000063,0.00555,0.013673,0.001728
3.292500000000004,0.003319,0.01331,8.7e-05
3.2950000000000017,0.004778,0.013245,0.000521
3.2974999999999994,0.003837,0.011028,0.000431
3.299999999999997,0.003158,0.007736,0.002455
3.302499999999995,0.007621,0.012671,0.00317
3.3049999999999926,0.003456,0.01237,0.003738
3.3074999999999903,0.003592,0.013999,0.003739
3.3100000000000165,0.003637,0.010999,0.004151
3.312500000000014,0.001242,0.013062,0.002099
3.315000000000012,0.00355,0.00632,0.004902
3.3175000000000097,0.003766,0.012251,0.003461
3.3200000000000074,0.000433,0.008378,0.006398
3.322500000000005,0.005518,0.008915,0.006625
3.325000000000003,0.004963,0.010959,0.007517
3.327500000000001,0.003193,0.010193,0.007076
3.3299999999999983,0.002939,0.005277,0.00603
3.332499999999996,0.002297,0.005155,0.008634
3.3349999999999937,0.0007,0.004449,0.007495
3.3374999999999915,0.000656,0.005185,0.008062
3.339999999999989,-0.000182,0.003358,0.013072
3.342500000000016,-0.000459,0.000922,0.011002
3.345000000000013,0.001691,0.000473,0.008257
3.347500000000011,0.00102,0.001267,0.011336
3.3500000000000085,0.001397,-0.001234,0.011194
3.3525000000000063,0.002364,0.000242,0.010847
3.355000000000004,0.001105,0.001591,0.008916
3.3575000000000017,0.000847,0.001226,0.010594
3.3599999999999994,0.002079,0.001096,0.011928
3.362499999999997,0.003115,-0.000586,0.010686
3.364999999999995,0.000694,0.001105,0.010005
3.3674999999999926,7.5e-05,-9e-06,0.013291
3.3699999999999903,0.003045,0.001227,0.010435
3.3725000000000165,0.003318,-0.000653,0.011424
3.375000000000014,0.001388,0.001558,0.00992
3.377500000000012,0.001492,0.003099,0.008918
3.3800000000000097,0.0005,0.00497,0.00873
3.3825000000000074,0.002212,0.000835,0.007845
3.385000000000005,0.001141,0.00296,0.007381
3.387500000000003,-0.000662,-4.6e-05,0.009863
3.390000000000001,-0.001605,0.002288,0.008484
3.3924999999999983,0.003227,0.002518,0.009171
3.394999999999996,0.000509,0.002954,0.01144
3.3974999999999937,-0.003232,0.002906,0.008216
3.3999999999999915,0.001555,0.004069,0.006662
3.402499999999989,-0.001204,0.003643,0.009646
3.405000000000016,-0.002837,0.004389,0.01016
3.407500000000013,0.001448,0.005875,0.010195
3.410000000000011,0.003453,0.004078,0.007478
3.4125000000000085,0.001951,0.005671,0.006992
3.4150000000000063,0.001907,0.003304,0.010217
3.417500000000004,-0.003152,0.004763,0.011655
3.4200000000000017,0.005957,0.002594,0.005666
3.4224999999999994,0.001594,0.004204,0.009257
3.424999999999997,0.001172,0.006514,0.009588
3.427499999999995,0.002404,-0.000207,0.006784
3.4299999999999926,0.001196,0.006431,0.009791
3.4324999999999903,0.00573,0.001083,0.007858
3.4350000000000165,0.002595,-0.001495,0.011849
3.437500000000014,0.002376,0.00192,0.006903
3.440000000000012,0.003395,0.00279,0.009587
3.4425000000000097,0.001322,0.005471,0.00964
3.4450000000000074,0.00046,0.005316,0.006782
3.447500000000005,0.00198,0.002555,0.00835
3.450000000000003,-0.000659,0.005469,0.008965
3.452500000000001,-0.000234,0.002395,0.005505
3.4549999999999983,0.001138,0.00089,0.005541
3.457499999999996,0.001926,0.002328,0.009369
3.4599999999999937,0.00154,0.001904,0.010294
3.4624999999999915,0.002144,0.003891,0.006896
3.464999999999989,0.0014,0.000576,0.007442
3.467500000000016,0.000434,0.001609,0.009535
3.470000000000013,-0.000466,0.005398,0.00772
3.472500000000011,0.003337,0.005736,0.010172
3.4750000000000085,-0.000484,0.00258,0.010592
3.4775000000000063,0.000782,0.001859,0.010905
3.480000000000004,-6e-06,0.005347,0.010001
3.4825000000000017,0.001308,0.006174,0.008962
3.4849999999999994,0.002982,0.002491,0.011571
3.487499999999997,0.001728,0.00115,0.007137
3.489999999999995,-0.001262,0.004604,0.007113
3.4924999999999926,0.000296,0.004128,0.0105
3.4949999999999903,-0.000672,0.003605,0.010363
3.4975000000000165,0.001571,0.003663,0.008183
3.500000000000014,0.000875,0.003725,0.006761
3.502500000000012,0.001688,0.00687,0.007292
3.5050000000000097,0.001029,0.004499,0.008678
3.5075000000000074,-0.00398,-0.000142,0.008903
3.510000000000005,-0.000402,0.004021,0.007211
3.512500000000003,-0.000234,0.003467,0.009059
3.515000000000001,0.001812,0.000165,0.006744
3.5174999999999983,0.003091,0.001527,0.009067
3.519999999999996,0.000619,0.003623,0.007214
3.5224999999999937,-0.000124,0.007256,0.010895
3.5249999999999915,0.003632,0.004254,0.006864
3.527499999999989,-0.000329,0.004552,0.007061
3.530000000000016,-0.000104,0.000859,0.007332
3.532500000000013,-0.002025,0.005656,0.009837
3.535000000000011,0.00078,0.002385,0.006751
3.5375000000000085,0.001442,0.000111,0.009773
3.5400000000000063,0.002026,0.001361,0.010798
3.542500000000004,0.004298,0.005069,0.006562
3.5450000000000017,-0.000143,0.004909,0.008572
3.5474999999999994,0.001872,-0.000405,0.012996
3.549999999999997,0.00141,0.002674,0.011352
3.552499999999995,4.7e-05,0.005186,0.007857
3.5549999999999926,0.000859,0.004833,0.008097
