time,Gyr_X,Gyr_Y,Gyr_Z
0.0,0.0,0.0,0.0074577918937717
0.0035000000000025,0.0010646508437165,-0.0042603487041181,0.0074577918937717
0.0069999999999978,0.0,0.0010646508437165,0.0063913957208032
0.0105000000000003,0.0010646508437165,0.0010646508437165,0.0085224427374883
0.0140000000000028,0.0010646508437165,-0.002131047016685,0.0063913957208032
0.0174999999999982,0.0,-0.002131047016685,0.0074577918937717
0.0210000000000007,0.0031956978604016,0.0,0.0085224427374883
0.0245000000000032,0.002131047016685,-0.0010646508437165,0.0085224427374883
0.0279999999999986,0.0,-0.0042603487041181,0.0117181405978899
0.0315000000000011,-0.0010646508437165,0.0,0.0074577918937717
0.0350000000000036,0.0010646508437165,0.0,0.0085224427374883
0.038499999999999,-0.002131047016685,-0.0031956978604016,0.0053267448770866
0.0420000000000015,0.0,-0.0010646508437165,0.0085224427374883
0.045500000000004,-0.0010646508437165,-0.0042603487041181,0.0106534897541733
0.0489999999999994,0.0,-0.0031956978604016,0.0085224427374883
0.0525000000000019,-0.002131047016685,-0.0010646508437165,0.0106534897541733
0.0559999999999973,-0.0010646508437165,0.0,0.0117181405978899
0.0594999999999998,-0.0031956978604016,0.0,0.0095870935812048
0.0630000000000023,0.0,0.0,0.0106534897541733
0.0664999999999977,0.0010646508437165,-0.0031956978604016,0.0074577918937717
0.0700000000000002,0.0010646508437165,-0.002131047016685,0.0053267448770866
0.0735000000000027,-0.0042603487041181,-0.002131047016685,0.0117181405978899
0.0769999999999981,-0.0010646508437165,0.0010646508437165,0.0106534897541733
0.0805000000000006,-0.0010646508437165,0.0,0.0063913957208032
0.0840000000000031,0.002131047016685,0.0010646508437165,0.0085224427374883
0.0874999999999985,0.0,0.002131047016685,0.0085224427374883
0.091000000000001,0.0,-0.0010646508437165,0.0074577918937717
0.0945000000000035,0.0,0.0010646508437165,0.0063913957208032
0.0979999999999989,-0.0010646508437165,0.0063913957208032,0.0085224427374883
0.1015000000000014,-0.0085224427374883,0.0042603487041181,0.0074577918937717
0.1050000000000039,-0.002131047016685,0.0085224427374883,0.0085224427374883
0.1084999999999993,-0.0053267448770866,0.013849187614575,0.013849187614575
0.1120000000000018,-0.0074577918937717,0.0106534897541733,0.0095870935812048
0.1155000000000043,-0.0031956978604016,0.0149138384582915,0.0053267448770866
0.1189999999999997,-0.0031956978604016,0.0170448854749766,0.0127827914416064
0.1225000000000022,-0.0010646508437165,0.0181095363186931,0.0127827914416064
0.1259999999999976,-0.0010646508437165,0.0181095363186931,0.0117181405978899
0.1295000000000001,-0.002131047016685,0.0202405833353782,0.0074577918937717
0.1330000000000026,-0.0106534897541733,0.0127827914416064,0.0095870935812048
0.136499999999998,-0.0095870935812048,0.0170448854749766,0.0095870935812048
0.1400000000000005,0.002131047016685,0.0031956978604016,0.0074577918937717
0.143500000000003,0.0053267448770866,0.0053267448770866,0.0117181405978899
0.1469999999999984,-0.0074577918937717,0.0127827914416064,0.0085224427374883
0.1505000000000009,-0.0117181405978899,0.0010646508437165,0.0042603487041181
0.1540000000000034,-0.013849187614575,-0.002131047016685,0.0074577918937717
0.1574999999999988,-0.013849187614575,-0.0010646508437165,0.0053267448770866
0.1610000000000013,-0.0031956978604016,0.0,0.0053267448770866
0.1645000000000038,0.0053267448770866,-0.0095870935812048,0.0085224427374883
0.1679999999999992,0.0095870935812048,-0.0095870935812048,0.0117181405978899
0.1715000000000017,-0.0031956978604016,-0.013849187614575,0.0074577918937717
0.1750000000000042,-0.0042603487041181,-0.0245026773687483,0.0074577918937717
0.1784999999999996,0.01598023463126,-0.0170448854749766,0.0106534897541733
0.1820000000000021,0.0127827914416064,-0.0181095363186931,0.0095870935812048
0.1854999999999975,0.0117181405978899,-0.0234362811957798,0.013849187614575
0.189,0.0095870935812048,-0.0202405833353782,0.0127827914416064
0.1925000000000025,0.0042603487041181,-0.0223716303520633,0.0063913957208032
0.1959999999999979,0.0053267448770866,-0.0149138384582915,0.0085224427374883
0.1995000000000004,0.0117181405978899,-0.0202405833353782,0.0095870935812048
0.2030000000000029,0.0053267448770866,-0.0202405833353782,0.0127827914416064
0.2064999999999983,-0.0010646508437165,-0.0149138384582915,0.0106534897541733
0.2100000000000008,0.002131047016685,-0.0074577918937717,0.0053267448770866
0.2135000000000033,0.0053267448770866,-0.0074577918937717,0.0053267448770866
0.2169999999999987,-0.0010646508437165,-0.002131047016685,0.0074577918937717
0.2205000000000012,-0.0031956978604016,-0.0063913957208032,0.0085224427374883
0.2240000000000037,0.0042603487041181,0.002131047016685,0.0127827914416064
0.2274999999999991,0.002131047016685,0.0,0.0117181405978899
0.2310000000000016,-0.0031956978604016,0.0042603487041181,0.0085224427374883
0.2345000000000041,0.0,0.0031956978604016,0.0085224427374883
0.2379999999999995,-0.0095870935812048,-0.0010646508437165,0.0106534897541733
0.241500000000002,-0.0085224427374883,0.0042603487041181,0.0117181405978899
0.2449999999999974,-0.0095870935812048,0.002131047016685,0.0074577918937717
0.2484999999999999,-0.01598023463126,0.0042603487041181,0.0063913957208032
0.2520000000000024,-0.0149138384582915,0.0031956978604016,0.0074577918937717
0.2554999999999978,-0.0149138384582915,0.0,0.0106534897541733
0.2590000000000003,-0.0106534897541733,0.0,0.0095870935812048
0.2625000000000028,-0.0053267448770866,-0.002131047016685,0.0063913957208032
0.2659999999999982,0.0053267448770866,0.0010646508437165,0.0095870935812048
0.2695000000000007,0.0031956978604016,-0.0031956978604016,0.0085224427374883
0.2730000000000032,0.0042603487041181,-0.0074577918937717,0.0106534897541733
0.2764999999999986,0.0095870935812048,-0.002131047016685,0.0085224427374883
0.2800000000000011,0.0095870935812048,-0.0074577918937717,0.0074577918937717
0.2835000000000036,0.0074577918937717,-0.0053267448770866,0.0117181405978899
0.286999999999999,0.0074577918937717,-0.0063913957208032,0.013849187614575
0.2905000000000015,0.002131047016685,-0.0031956978604016,0.0095870935812048
0.294000000000004,-0.002131047016685,0.002131047016685,0.0117181405978899
0.2974999999999994,0.0063913957208032,-0.0010646508437165,0.0106534897541733
0.3010000000000019,0.013849187614575,-0.002131047016685,0.01598023463126
0.3045000000000044,0.0053267448770866,-0.002131047016685,0.0117181405978899
0.3079999999999998,0.0042603487041181,0.0010646508437165,0.0042603487041181
0.3115000000000023,0.0095870935812048,0.0074577918937717,0.0095870935812048
0.3149999999999977,0.0031956978604016,0.0,0.0063913957208032
0.3185000000000002,-0.002131047016685,0.0,0.0074577918937717
0.3220000000000027,0.0010646508437165,0.0053267448770866,0.0106534897541733
0.3254999999999981,-0.0042603487041181,0.0031956978604016,0.0074577918937717
0.3290000000000006,-0.0181095363186931,0.0074577918937717,0.0074577918937717
0.3325000000000031,-0.01598023463126,0.0063913957208032,0.0085224427374883
0.3359999999999985,-0.0149138384582915,0.0042603487041181,0.0106534897541733
0.339500000000001,-0.0053267448770866,0.0042603487041181,0.0095870935812048
0.3430000000000035,0.0010646508437165,-0.0010646508437165,0.0074577918937717
0.3464999999999989,-0.0031956978604016,-0.0031956978604016,0.0053267448770866
0.3500000000000014,-0.0053267448770866,-0.0063913957208032,0.0063913957208032
0.3535000000000039,0.0,-0.0031956978604016,0.0085224427374883
0.3569999999999993,0.0042603487041181,0.0,0.0042603487041181
0.3605000000000018,0.0042603487041181,0.0074577918937717,0.0085224427374883
0.3640000000000043,0.0031956978604016,0.0106534897541733,0.0095870935812048
0.3674999999999997,0.0,0.0053267448770866,0.0042603487041181
0.3710000000000022,-0.0010646508437165,0.0010646508437165,0.0074577918937717
0.3744999999999976,0.0053267448770866,-0.0031956978604016,0.0042603487041181
0.3780000000000001,0.0063913957208032,-0.0117181405978899,0.0127827914416064
0.3815000000000026,0.0106534897541733,-0.0042603487041181,0.0074577918937717
0.384999999999998,0.0117181405978899,-0.0042603487041181,0.0085224427374883
0.3885000000000005,0.0042603487041181,-0.0042603487041181,0.0063913957208032
0.392000000000003,0.0,-0.0010646508437165,0.0063913957208032
0.3954999999999984,0.002131047016685,-0.002131047016685,0.0117181405978899
0.3990000000000009,0.0,-0.0031956978604016,0.0074577918937717
0.4025000000000034,0.0,-0.0042603487041181,0.0095870935812048
0.4059999999999988,-0.0063913957208032,-0.002131047016685,0.0106534897541733
0.4095000000000013,-0.0053267448770866,0.0010646508437165,0.0063913957208032
0.4130000000000038,-0.0042603487041181,-0.0031956978604016,0.0117181405978899
0.4164999999999992,-0.0053267448770866,-0.0042603487041181,0.0106534897541733
0.4200000000000017,0.0053267448770866,-0.0117181405978899,0.0095870935812048
0.4235000000000042,0.0127827914416064,-0.0191759324916617,0.0117181405978899
0.4269999999999996,0.0127827914416064,-0.0266319790561814,0.0074577918937717
0.4305000000000021,0.0085224427374883,-0.0319587239332681,0.0095870935812048
0.4339999999999975,0.0053267448770866,-0.0213052341790947,0.0085224427374883
0.4375,0.0042603487041181,-0.0127827914416064,0.0095870935812048
0.4410000000000025,-0.0010646508437165,0.0,0.0117181405978899
0.4444999999999979,0.0,0.0031956978604016,0.0063913957208032
0.4480000000000004,0.0085224427374883,0.0,0.0117181405978899
0.4515000000000029,0.013849187614575,-0.0031956978604016,0.013849187614575
0.4549999999999983,0.0245026773687483,-0.002131047016685,0.0106534897541733
0.4585000000000008,0.029827676916583,-0.0053267448770866,0.0117181405978899
0.4620000000000033,0.0308940730895516,0.0,0.0127827914416064
0.4654999999999987,0.0330233747769847,0.0010646508437165,0.0095870935812048
0.4690000000000012,0.029827676916583,0.002131047016685,0.0085224427374883
0.4725000000000037,0.0170448854749766,0.0031956978604016,0.0095870935812048
0.4759999999999991,0.0053267448770866,0.0042603487041181,0.013849187614575
0.4795000000000016,-0.0042603487041181,0.0063913957208032,0.0127827914416064
0.4830000000000041,-0.0149138384582915,0.013849187614575,0.0117181405978899
0.4864999999999995,-0.0191759324916617,0.0117181405978899,0.0095870935812048
0.490000000000002,-0.0191759324916617,0.01598023463126,0.0095870935812048
0.4934999999999974,-0.0234362811957798,0.0117181405978899,0.0063913957208032
0.4969999999999999,-0.0213052341790947,0.0181095363186931,0.0010646508437165
0.5005000000000024,-0.0170448854749766,0.0223716303520633,0.0042603487041181
0.5039999999999978,-0.0117181405978899,0.0234362811957798,0.0
0.5075000000000003,-0.0063913957208032,0.0266319790561814,0.0042603487041181
0.5110000000000028,-0.0063913957208032,0.0287630260728665,0.0053267448770866
0.5144999999999982,-0.0031956978604016,0.0245026773687483,0.0042603487041181
0.5180000000000007,-0.0085224427374883,0.0223716303520633,0.0106534897541733
0.5215000000000032,-0.0042603487041181,0.029827676916583,0.0042603487041181
0.5249999999999986,-0.0085224427374883,0.0330233747769847,0.002131047016685
0.5285000000000011,-0.0095870935812048,0.0372854688103548,0.0063913957208032
0.5320000000000036,-0.0181095363186931,0.0404811666707564,0.002131047016685
0.535499999999999,-0.0255673282124649,0.0436768645311581,0.002131047016685
0.5390000000000015,-0.0181095363186931,0.0468725623915597,0.0031956978604016
0.542500000000004,-0.0063913957208032,0.0447432607041266,0.0053267448770866
0.5459999999999994,-0.0074577918937717,0.0468725623915597,0.0085224427374883
0.5495000000000019,-0.0063913957208032,0.0447432607041266,0.0031956978604016
0.5530000000000044,0.0127827914416064,0.0404811666707564,0.0117181405978899
0.5564999999999998,0.0191759324916617,0.0351544217936697,0.0095870935812048
0.5600000000000023,-0.013849187614575,0.0191759324916617,0.0053267448770866
0.5634999999999977,-0.0063913957208032,0.0245026773687483,0.002131047016685
0.5670000000000002,0.0266319790561814,0.0458079115478431,0.0
0.5705000000000027,0.0170448854749766,0.0404811666707564,0.0063913957208032
0.5739999999999981,-0.0170448854749766,0.0255673282124649,0.0031956978604016
0.5775000000000006,-0.0351544217936697,0.0127827914416064,0.0042603487041181
0.5810000000000031,-0.0202405833353782,0.002131047016685,0.0010646508437165
0.5844999999999985,-0.0117181405978899,-0.0010646508437165,0.0031956978604016
0.588000000000001,-0.0234362811957798,-0.0010646508437165,-0.0063913957208032
0.5915000000000035,-0.0383501196540714,-0.0053267448770866,-0.013849187614575
0.5949999999999989,-0.0468725623915597,-0.002131047016685,-0.0074577918937717
0.5985000000000014,-0.0404811666707564,0.0053267448770866,-0.0106534897541733
0.6020000000000039,-0.0223716303520633,0.0074577918937717,-0.0085224427374883
0.6054999999999993,-0.0127827914416064,0.0127827914416064,-0.0042603487041181
0.6090000000000018,-0.0117181405978899,0.0095870935812048,0.0053267448770866
0.6125000000000043,-0.0117181405978899,0.0031956978604016,0.0127827914416064
0.6159999999999997,0.0117181405978899,0.0074577918937717,0.013849187614575
0.6195000000000022,0.02769837522915,0.0149138384582915,0.0117181405978899
0.6229999999999976,0.0191759324916617,0.002131047016685,0.0042603487041181
0.6265000000000001,0.013849187614575,-0.0010646508437165,0.002131047016685
0.6300000000000026,0.0106534897541733,0.0,0.0031956978604016
0.633499999999998,0.0053267448770866,0.0085224427374883,0.0053267448770866
0.6370000000000005,-0.0106534897541733,0.0149138384582915,0.0042603487041181
0.640500000000003,-0.013849187614575,0.0202405833353782,0.0085224427374883
0.6439999999999984,-0.0170448854749766,0.0181095363186931,0.0095870935812048
0.6475000000000009,-0.0223716303520633,0.0245026773687483,0.0127827914416064
0.6510000000000034,-0.0330233747769847,0.0362208179666383,0.0095870935812048
0.6544999999999987,-0.0266319790561814,0.0351544217936697,0.0085224427374883
0.6580000000000013,-0.0149138384582915,0.0372854688103548,0.0117181405978899
0.6615000000000038,0.0,0.0394165158270399,0.0127827914416064
0.6649999999999991,0.0042603487041181,0.041545817514473,0.0202405833353782
0.6685000000000016,0.0106534897541733,0.0426122136874415,0.0213052341790947
0.6720000000000041,0.0191759324916617,0.0404811666707564,0.0287630260728665
0.6754999999999995,0.0170448854749766,0.0394165158270399,0.0255673282124649
0.679000000000002,0.0063913957208032,0.0458079115478431,0.0308940730895516
0.6824999999999974,-0.0085224427374883,0.0511346564249298,0.0234362811957798
0.6859999999999999,-0.0149138384582915,0.0596570991624181,0.0191759324916617
0.6895000000000024,-0.0117181405978899,0.0596570991624181,0.0181095363186931
0.6929999999999978,-0.0245026773687483,0.0724398906040246,0.01598023463126
0.6965000000000003,-0.02769837522915,0.069244192743623,0.0181095363186931
0.7000000000000028,-0.029827676916583,0.0628527970228197,0.0170448854749766
0.7034999999999982,-0.0255673282124649,0.055395005129048,0.0170448854749766
0.7070000000000007,-0.0106534897541733,0.0543303542853314,0.0234362811957798
0.7105000000000032,-0.0042603487041181,0.0564614013020165,0.0287630260728665
0.7139999999999986,0.013849187614575,0.055395005129048,0.02769837522915
0.7175000000000011,0.0330233747769847,0.0585907029894496,0.0308940730895516
0.7210000000000036,0.0468725623915597,0.0628527970228197,0.0383501196540714
0.724499999999999,0.0436768645311581,0.0767019846373948,0.0340897709499532
0.7280000000000015,0.0319587239332681,0.0916158230956863,0.0372854688103548
0.731500000000004,0.0255673282124649,0.0958761717998045,0.0351544217936697
0.7349999999999994,0.029827676916583,0.096942567972773,0.0436768645311581
0.7385000000000019,0.0266319790561814,0.1033339636935762,0.0426122136874415
0.7420000000000044,0.0,0.1267702448893561,0.0447432607041266
0.7454999999999998,-0.013849187614575,0.136357338470561,0.0308940730895516
0.7490000000000023,-0.01598023463126,0.1427504795206162,0.0223716303520633
0.7524999999999977,-0.0074577918937717,0.1470108282247343,0.0234362811957798
0.7560000000000002,-0.0085224427374883,0.1512729222581045,0.0255673282124649
0.7595000000000027,-0.0149138384582915,0.1480754790684509,0.02769837522915
0.7629999999999981,-0.0063913957208032,0.1459461773810178,0.0287630260728665
0.7665000000000006,-0.0010646508437165,0.1587289688226243,0.02769837522915
0.7700000000000031,-0.0117181405978899,0.1693824585767977,0.0213052341790947
0.7734999999999985,-0.0181095363186931,0.177904901314286,0.0117181405978899
0.777000000000001,-0.0063913957208032,0.1821652500184041,0.0170448854749766
0.7805000000000035,-0.0170448854749766,0.1811005991746876,0.0202405833353782
0.7839999999999989,-0.0479389585645282,0.1725781564371993,0.01598023463126
0.7875000000000014,-0.055395005129048,0.1651203645434275,0.0106534897541733
0.7910000000000039,-0.0372854688103548,0.1725781564371993,0.0191759324916617
0.7944999999999993,-0.0447432607041266,0.1768385051413174,0.01598023463126
0.7980000000000018,-0.0617864008498512,0.1757738542976009,0.0010646508437165
0.8015000000000043,-0.0500682602519613,0.1736428072809158,0.0031956978604016
0.8049999999999997,-0.0245026773687483,0.1725781564371993,0.0106534897541733
0.8085000000000022,-0.0308940730895516,0.1768385051413174,0.0074577918937717
0.8119999999999976,-0.0703088435873395,0.180035948330971,-0.0042603487041181
0.8155000000000001,-0.0447432607041266,0.1715135055934827,-0.0063913957208032
0.8190000000000026,-0.0010646508437165,0.1619246666830259,0.0042603487041181
0.822499999999998,-0.0287630260728665,0.1683160624038291,0.0010646508437165
0.8260000000000005,-0.0490036094082447,0.1619246666830259,-0.0085224427374883
0.829500000000003,-0.0543303542853314,0.1640557136997109,-0.0106534897541733
0.8329999999999984,-0.0447432607041266,0.1534022239455376,-0.013849187614575
0.8365000000000009,-0.0330233747769847,0.1672514115601126,-0.0063913957208032
0.8400000000000034,-0.0713752397603081,0.1683160624038291,-0.002131047016685
0.8434999999999988,-0.0990718696602061,0.1480754790684509,-0.0042603487041181
0.8470000000000013,-0.1065296615539778,0.1278348957330726,0.0053267448770866
0.8505000000000038,-0.0958761717998045,0.124639197872671,0.013849187614575
0.8539999999999992,-0.0628527970228197,0.1203788491685528,0.0245026773687483
0.8575000000000017,-0.0649838440395048,0.1257055940456395,0.0213052341790947
0.8610000000000042,-0.0958761717998045,0.1118564064310645,0.0181095363186931
0.8644999999999996,-0.0937468701123714,0.1033339636935762,0.0223716303520633
0.8680000000000021,-0.1129210572747811,0.096942567972773,0.029827676916583
0.8714999999999975,-0.1182478021518678,0.0777666354811113,0.0319587239332681
0.875,-0.0862890782185996,0.083093380358198,0.0479389585645282
0.8785000000000025,-0.0948115209560879,0.0980072188164895,0.0585907029894496
0.8819999999999979,-0.1555332709622227,0.0990718696602061,0.0436768645311581
0.8855000000000004,-0.1725781564371993,0.0884201252352847,0.0319587239332681
0.8890000000000029,-0.1416840833476476,0.0798976824977964,0.041545817514473
0.8924999999999983,-0.1395530363309626,0.0841580312019145,0.0521993072686464
0.8960000000000008,-0.180035948330971,0.0788312863248278,0.0500682602519613
0.8995000000000033,-0.1906876927558924,0.0660484948832214,0.041545817514473
0.9029999999999988,-0.2205171150017275,0.055395005129048,0.0351544217936697
0.9065000000000012,-0.3100018910807288,0.041545817514473,0.0170448854749766
0.9100000000000036,-0.3568744534722885,-0.0074577918937717,-0.0213052341790947
0.9134999999999992,-0.3781796876513833,-0.0287630260728665,-0.0245026773687483
0.9170000000000016,-0.4942981881158181,-0.0500682602519613,-0.0436768645311581
0.920500000000004,-0.5944364539489927,-0.0575260521457331,-0.0703088435873395
0.9239999999999996,-0.6753987872905056,-0.0511346564249298,-0.0916158230956863
0.927500000000002,-0.6967040214696004,-0.0426122136874415,-0.1022693128498597
0.9309999999999974,-0.7009661155029706,-0.041545817514473,-0.1043986145372928
0.9345,-0.6913772765925138,-0.0394165158270399,-0.1022693128498597
0.9380000000000024,-0.6935083236091989,-0.0436768645311581,-0.1033339636935762
0.9414999999999978,-0.6998997193300021,-0.0436768645311581,-0.1065296615539778
0.9450000000000004,-0.6998997193300021,-0.0500682602519613,-0.1097253594143795
0.9485000000000028,-0.7030954171904037,-0.0575260521457331,-0.1054650107102613
0.9519999999999982,-0.6924436727654824,-0.0841580312019145,-0.0958761717998045
0.9555000000000008,-0.6807255321675924,-0.1012029166768912,-0.0852244273748831
0.9590000000000032,-0.6583539018155291,-0.1257055940456395,-0.0671131457269379
0.9624999999999986,-0.644504714200954,-0.1427504795206162,-0.0639174478665363
0.9660000000000012,-0.6125459902676859,-0.166186760716396,-0.041545817514473
0.9695000000000036,-0.5731294744406459,-0.1842962970350892,-0.0308940730895516
0.972999999999999,-0.5049499325407395,-0.2173214171413259,-0.0042603487041181
0.9765000000000016,-0.4538170214450616,-0.2396913021641372,0.0042603487041181
0.980000000000004,-0.3813771308410369,-0.2769767709744921,0.0181095363186931
0.9834999999999994,-0.3185243338182171,-0.3121311927681619,0.0330233747769847
0.987000000000002,-0.2162550209683574,-0.3451563128743986,0.0458079115478431
0.9905000000000044,-0.1427504795206162,-0.3675279432264619,0.0564614013020165
0.9939999999999998,-0.0479389585645282,-0.3984202709867616,0.0639174478665363
0.9975000000000024,0.0127827914416064,-0.41120480775762,0.0724398906040246
1.0009999999999977,0.1022693128498597,-0.4218582975117934,0.0777666354811113
1.0045000000000002,0.1683160624038291,-0.4207919013388249,0.0894847760790012
1.008000000000003,0.2524758389349957,-0.4016177141764152,0.1022693128498597
1.011499999999998,0.3057397970473587,-0.3792460838243518,0.1033339636935762
1.0150000000000006,0.369657244913895,-0.3376985209806268,0.1129210572747811
1.018500000000003,0.4165315526347067,-0.2897613077453506,0.1171831513081512
1.0219999999999985,0.4591437663221482,-0.2162550209683574,0.1203788491685528
1.025500000000001,0.4953628389595346,-0.1534022239455376,0.1235745470289545
1.0290000000000037,0.5315836569261729,-0.0681795418999064,0.1299659427497577
1.0324999999999989,0.5550199381219528,-0.0031956978604016,0.1299659427497577
1.0360000000000014,0.5816519171781342,0.0958761717998045,0.136357338470561
1.039500000000004,0.5933700577760241,0.1768385051413174,0.1257055940456395
1.0429999999999993,0.6040235475301975,0.2812388650078622,0.1193124529955843
1.0465000000000018,0.6104149432510009,0.3590055004889736,0.1129210572747811
1.0500000000000045,0.6114795940947174,0.4367721359700849,0.1033339636935762
1.0534999999999997,0.605088198373914,0.4836446983616446,0.0990718696602061
1.0570000000000022,0.5912390107593392,0.5539552872782363,0.0809623333415129
1.0604999999999976,0.5603466829990394,0.5976321518093943,0.0607217500061347
1.064,0.5017542346803379,0.6530271569384424,0.041545817514473
1.0675000000000026,0.4442281825346047,0.6796591359946239,0.0287630260728665
1.070999999999998,0.3568744534722885,0.6945729744529154,0.0191759324916617
1.0745000000000005,0.2844345628682639,0.6998997193300021,0.0127827914416064
1.078000000000003,0.1874919948954908,0.7073575112237738,0.013849187614575
1.0814999999999984,0.1086607085706629,0.7084221620674903,0.013849187614575
1.0850000000000009,0.0063913957208032,0.713748906944577,0.0191759324916617
1.0885000000000034,-0.0681795418999064,0.7062911150508053,0.0266319790561814
1.0919999999999987,-0.1576643179789077,0.7062911150508053,0.0287630260728665
1.0955000000000013,-0.2162550209683574,0.6967040214696004,0.0383501196540714
1.0990000000000038,-0.2961527034661538,0.6764634381342222,0.0458079115478431
1.1024999999999991,-0.3579391043160051,0.6604849488322142,0.0575260521457331
1.1060000000000016,-0.4207919013388249,0.628524479569694,0.0713752397603081
1.109500000000004,-0.4697955107470696,0.5912390107593392,0.0767019846373948
1.1129999999999995,-0.5379750526469761,0.5294526099094878,0.0777666354811113
1.116500000000002,-0.5678027295635593,0.4953628389595346,0.0639174478665363
1.1199999999999974,-0.5720648235969293,0.4431635316908882,0.0490036094082447
1.1235,-0.5731294744406459,0.397355620143045,0.0351544217936697
1.1270000000000024,-0.561411333842756,0.3408942188410284,0.0063913957208032
1.1304999999999978,-0.5401060996636612,0.2929570056057522,-0.0042603487041181
1.1340000000000003,-0.4974938859762197,0.2375620004767041,-0.0223716303520633
1.1375000000000028,-0.4676662090596366,0.2045368803704674,-0.0351544217936697
1.1409999999999982,-0.4463592295512898,0.1619246666830259,-0.0521993072686464
1.1445000000000007,-0.4357057397971164,0.1352926876268444,-0.0649838440395048
1.1480000000000032,-0.43890318298677,0.1118564064310645,-0.0756355884644262
1.1514999999999986,-0.4591437663221482,0.1075943123976944,-0.0894847760790012
1.1550000000000011,-0.4815136513449596,0.1033339636935762,-0.1161167551351827
1.1585000000000036,-0.4911024902554164,0.0916158230956863,-0.1214435000122694
1.161999999999999,-0.4144005056180216,0.0724398906040246,-0.1235745470289545
1.1655000000000015,-0.2727164222703739,-0.0149138384582915,-0.0756355884644262
1.169000000000004,-0.1544686201185061,-0.0926804739394028,-0.0255673282124649
1.1724999999999994,-0.0958761717998045,-0.0937468701123714,-0.0340897709499532
1.176000000000002,0.0213052341790947,-0.1342280367831279,-0.0255673282124649
1.1795000000000044,0.1214435000122694,-0.1736428072809158,-0.002131047016685
1.1829999999999998,0.2396913021641372,-0.2290395577392158,0.0181095363186931
1.1865000000000023,0.3174579376452486,-0.2705853752536888,0.0255673282124649
1.1899999999999975,0.3952245731263599,-0.3281114273994219,0.0458079115478431
1.1935000000000002,0.4399678338304866,-0.3643322453660603,0.0511346564249298
1.1970000000000027,0.4697955107470696,-0.4058780628805333,0.0585907029894496
1.200499999999998,0.480449000501243,-0.4420988808471717,0.0628527970228197
1.2040000000000006,0.4825800475179281,-0.4900360940824479,0.0767019846373948
1.2075000000000031,0.4740576047804398,-0.5230612141886847,0.0852244273748831
1.2109999999999983,0.4463592295512898,-0.5635423808594411,0.0884201252352847
1.214500000000001,0.4090737607409349,-0.5923054069323076,0.0916158230956863
1.2180000000000035,0.3451563128743986,-0.6359822714634658,0.0905494269227178
1.221499999999999,0.302544099186957,-0.6583539018155291,0.0916158230956863
1.2250000000000014,0.2301042085829324,-0.6828548338550254,0.083093380358198
1.228500000000004,0.1768385051413174,-0.6924436727654824,0.0798976824977964
1.231999999999999,0.1075943123976944,-0.7009661155029706,0.0777666354811113
1.2355000000000018,0.0532657034416149,-0.7062911150508053,0.0724398906040246
1.2390000000000043,-0.0117181405978899,-0.7020307663466872,0.0649838440395048
1.2424999999999995,-0.0671131457269379,-0.6956393706258839,0.0596570991624181
1.2460000000000022,-0.1342280367831279,-0.6881815787321122,0.0500682602519613
1.2494999999999976,-0.177904901314286,-0.6743323911175372,0.0543303542853314
1.253,-0.2311688594266489,-0.6668763445530174,0.0436768645311581
1.2565000000000026,-0.2673896773932873,-0.6604849488322142,0.0490036094082447
1.259999999999998,-0.3195889846619337,-0.6498314590780407,0.0404811666707564
1.2635000000000003,-0.3526141047681703,-0.6487650629050722,0.0404811666707564
1.267000000000003,-0.3994866671597301,-0.644504714200954,0.0383501196540714
1.2704999999999984,-0.4239875991992265,-0.6413090163405525,0.0372854688103548
1.274000000000001,-0.4548816722887781,-0.6413090163405525,0.0383501196540714
1.2775000000000034,-0.4719265577637547,-0.6402426201675839,0.0447432607041266
1.2809999999999988,-0.4751222556241564,-0.6349176206197492,0.0490036094082447
1.2845000000000013,-0.4687308599033531,-0.626395177882261,0.0575260521457331
1.2880000000000038,-0.4516859744283765,-0.6082838962343158,0.0628527970228197
1.2914999999999992,-0.4346410889533998,-0.5912390107593392,0.0681795418999064
1.2950000000000017,-0.3909642244222418,-0.5624759846864725,0.069244192743623
1.2985000000000042,-0.3600701513326901,-0.5433017975240628,0.0703088435873395
1.3019999999999996,-0.2972173543098703,-0.5070809795574245,0.0745709376207097
1.305500000000002,-0.2450180470412239,-0.4697955107470696,0.0788312863248278
1.3089999999999975,-0.1683160624038291,-0.4239875991992265,0.0809623333415129
1.3125,-0.1182478021518678,-0.3909642244222418,0.0820287295144815
1.3160000000000025,-0.0394165158270399,-0.3408942188410284,0.0820287295144815
1.319499999999998,0.0202405833353782,-0.300413052170272,0.0862890782185996
1.3230000000000004,0.0926804739394028,-0.2450180470412239,0.0841580312019145
1.326500000000003,0.138488385487246,-0.2109282760912707,0.083093380358198
1.3299999999999983,0.1928187397725775,-0.1736428072809158,0.0841580312019145
1.3335000000000008,0.2237128128621291,-0.1470108282247343,0.0788312863248278
1.3370000000000033,0.2556715367953973,-0.1139874534477496,0.0735062867769931
1.3404999999999987,0.2652586303766022,-0.1001382658331746,0.0713752397603081
1.3440000000000012,0.2759121201307756,-0.0884201252352847,0.0767019846373948
1.3475000000000037,0.2780431671474606,-0.0862890782185996,0.0735062867769931
1.350999999999999,0.2684543282370038,-0.0873537290623162,0.0767019846373948
1.3545000000000016,0.2546051406224288,-0.0937468701123714,0.0767019846373948
1.358000000000004,0.233299906443334,-0.1001382658331746,0.083093380358198
1.3614999999999997,0.2226464166891606,-0.1097253594143795,0.0852244273748831
1.365000000000002,0.2087989744038376,-0.1171831513081512,0.1001382658331746
1.3684999999999974,0.1992101354933808,-0.1267702448893561,0.1129210572747811
1.372,0.1874919948954908,-0.138488385487246,0.1235745470289545
1.3755000000000024,0.1832316461913727,-0.1448797812080492,0.1310323389227262
1.3789999999999978,0.1864273440517743,-0.1544686201185061,0.1438151303643327
1.3825000000000005,0.1960144376329791,-0.1576643179789077,0.1534022239455376
1.3860000000000028,0.2087989744038376,-0.1608600158393093,0.1534022239455376
1.3894999999999982,0.219450718828759,-0.1683160624038291,0.1608600158393093
1.393000000000001,0.2322352555996175,-0.1768385051413174,0.1608600158393093
1.3965000000000032,0.2514094427620272,-0.177904901314286,0.1576643179789077
1.3999999999999986,0.2673896773932873,-0.1757738542976009,0.1555332709622227
1.403500000000001,0.2663250265495707,-0.1821652500184041,0.1534022239455376
1.4070000000000036,0.2514094427620272,-0.1874919948954908,0.1512729222581045
1.410499999999999,0.2428870000245388,-0.1970790884766957,0.1555332709622227
1.4140000000000017,0.2183860679850424,-0.2109282760912707,0.1491418752414194
1.417500000000004,0.1938833906162941,-0.2301042085829324,0.152337573101821
1.4209999999999994,0.1544686201185061,-0.2524758389349957,0.1534022239455376
1.424500000000002,0.1235745470289545,-0.2663250265495707,0.1459461773810178
1.4280000000000044,0.0788312863248278,-0.288694911572382,0.1395530363309626
1.4314999999999998,0.0458079115478431,-0.3068061932203272,0.1352926876268444
1.4350000000000025,0.0053267448770866,-0.3376985209806268,0.1257055940456395
1.4384999999999977,-0.02769837522915,-0.3568744534722885,0.1182478021518678
1.4420000000000002,-0.069244192743623,-0.3877685265618402,0.1150521042914662
1.445500000000003,-0.0852244273748831,-0.4048134120368167,0.1075943123976944
1.448999999999998,-0.0948115209560879,-0.4325100419367148,0.1001382658331746
1.4525000000000006,-0.0884201252352847,-0.4506213235846599,0.1022693128498597
1.456000000000003,-0.0767019846373948,-0.4751222556241564,0.0958761717998045
1.4594999999999985,-0.055395005129048,-0.492167141099133,0.0862890782185996
1.463000000000001,-0.0308940730895516,-0.517734469311598,0.0767019846373948
1.4665000000000037,-0.0053267448770866,-0.5273215628928027,0.0735062867769931
1.4699999999999989,0.0308940730895516,-0.5369104018032596,0.0713752397603081
1.4735000000000014,0.0628527970228197,-0.533712958613606,0.0628527970228197
1.477000000000004,0.1033339636935762,-0.5294526099094878,0.0532657034416149
1.4804999999999993,0.1278348957330726,-0.5273215628928027,0.0490036094082447
1.4840000000000018,0.152337573101821,-0.5209301671719996,0.0426122136874415
1.4875000000000045,0.1704471094205142,-0.5017542346803379,0.0330233747769847
1.4909999999999997,0.1757738542976009,-0.4900360940824479,0.029827676916583
1.4945000000000022,0.1874919948954908,-0.4783179534845579,0.0255673282124649
1.4979999999999976,0.1906876927558924,-0.4612730680095813,0.0181095363186931
1.5015,0.1938833906162941,-0.4538170214450616,0.0181095363186931
1.5050000000000026,0.1938833906162941,-0.4357057397971164,0.0074577918937717
1.508499999999998,0.1938833906162941,-0.4293143440763132,-0.0042603487041181
1.5120000000000005,0.1811005991746876,-0.4133358547743051,-0.013849187614575
1.515500000000003,0.1608600158393093,-0.4058780628805333,-0.0383501196540714
1.5189999999999984,0.1289012919060412,-0.3962909692993285,-0.0521993072686464
1.5225000000000009,0.110790010258096,-0.3920288752659583,-0.0617864008498512
1.5260000000000034,0.0948115209560879,-0.3877685265618402,-0.0777666354811113
1.5294999999999987,0.0894847760790012,-0.3867021303888716,-0.0767019846373948
1.5330000000000013,0.0873537290623162,-0.3877685265618402,-0.0873537290623162
1.5365000000000038,0.1001382658331746,-0.3867021303888716,-0.0937468701123714
1.5399999999999991,0.1278348957330726,-0.3760503859639502,-0.1001382658331746
1.5435000000000016,0.1565979218059392,-0.3781796876513833,-0.1075943123976944
1.547000000000004,0.2066679273871525,-0.3728546881035486,-0.1150521042914662
1.5504999999999995,0.2514094427620272,-0.3622011983493752,-0.1267702448893561
1.554000000000002,0.3057397970473587,-0.3579391043160051,-0.1427504795206162
1.5574999999999974,0.3483520107348002,-0.3451563128743986,-0.1629910628559944
1.561,0.3941599222826434,-0.3270467765557054,-0.1789695521580025
1.5645000000000024,0.4261186462159115,-0.316393286801532,-0.1853609478788057
1.5679999999999978,0.4697955107470696,-0.286565609884949,-0.1992101354933808
1.5715000000000003,0.492167141099133,-0.2695207244099723,-0.2098636252475541
1.5750000000000028,0.5134723752782278,-0.2386266513204207,-0.2130593231079557
1.5784999999999982,0.5273215628928027,-0.2151903701246408,-0.2119946722642392
1.5820000000000007,0.5262569120490862,-0.1885583910684593,-0.2237128128621291
1.5855000000000032,0.5102766774178261,-0.1715135055934827,-0.2215817658454441
1.5889999999999986,0.464468765869983,-0.1544686201185061,-0.2322352555996175
1.5925000000000011,0.4335764381096833,-0.1416840833476476,-0.233299906443334
1.5960000000000036,0.3739193389472651,-0.1235745470289545,-0.2418223491808223
1.599499999999999,0.3195889846619337,-0.1150521042914662,-0.247149094057909
1.6030000000000015,0.2375620004767041,-0.0894847760790012,-0.2514094427620272
1.606500000000004,0.180035948330971,-0.0735062867769931,-0.2503447919183106
1.6099999999999994,0.1075943123976944,-0.055395005129048,-0.2428870000245388
1.613500000000002,0.0532657034416149,-0.041545817514473,-0.2375620004767041
1.6170000000000044,-0.0127827914416064,-0.0031956978604016,-0.2258421145495622
1.6204999999999998,-0.0596570991624181,0.0170448854749766,-0.2183860679850424
1.6240000000000023,-0.1150521042914662,0.055395005129048,-0.2024058333537824
1.6274999999999975,-0.1491418752414194,0.0820287295144815,-0.1906876927558924
1.6310000000000002,-0.1693824585767977,0.1214435000122694,-0.1640557136997109
1.6345000000000027,-0.1768385051413174,0.1470108282247343,-0.1406194325039311
1.637999999999998,-0.1629910628559944,0.1768385051413174,-0.1161167551351827
1.6415000000000006,-0.1448797812080492,0.1896230419121759,-0.0937468701123714
1.6450000000000031,-0.096942567972773,0.2045368803704674,-0.0660484948832214
1.6484999999999983,-0.0628527970228197,0.2226464166891606,-0.0532657034416149
1.652000000000001,0.0,0.2354309534600191,-0.0383501196540714
1.6555000000000035,0.0447432607041266,0.2460844432141925,-0.029827676916583
1.658999999999999,0.1086607085706629,0.2524758389349957,-0.0234362811957798
1.6625000000000014,0.1587289688226243,0.260998281672484,-0.0074577918937717
1.666000000000004,0.2247774637058457,0.2684543282370038,-0.0010646508437165
1.669499999999999,0.2705853752536888,0.2737810731140905,-0.0010646508437165
1.6730000000000018,0.3174579376452486,0.2897613077453506,0.0053267448770866
1.6765000000000043,0.3483520107348002,0.2897613077453506,0.0149138384582915
1.6799999999999995,0.3867021303888716,0.302544099186957,0.0234362811957798
1.6835000000000022,0.4005513180034466,0.3057397970473587,0.02769837522915
1.6869999999999976,0.4048134120368167,0.3206536355056502,0.029827676916583
1.6905,0.3952245731263599,0.3323735214327921,0.0372854688103548
1.6940000000000026,0.3749839897909817,0.3440916620306821,0.0319587239332681
1.697499999999998,0.3515477085952018,0.3526141047681703,0.0351544217936697
1.7010000000000003,0.3217200316786187,0.3568744534722885,0.0404811666707564
1.704500000000003,0.2940216564494687,0.3675279432264619,0.0426122136874415
1.7079999999999984,0.2578025838120824,0.3717882919305801,0.0340897709499532
1.711500000000001,0.2279731615662473,0.3771150368076668,0.029827676916583
1.7150000000000034,0.1874919948954908,0.3803107346680683,0.0255673282124649
1.7184999999999988,0.1587289688226243,0.3877685265618402,0.0255673282124649
1.7220000000000013,0.1235745470289545,0.3962909692993285,0.0170448854749766
1.7255000000000038,0.0905494269227178,0.3994866671597301,0.0085224427374883
1.7289999999999992,0.0468725623915597,0.4048134120368167,0.0010646508437165
1.7325000000000017,0.0149138384582915,0.4069427137242498,0.0085224427374883
1.7360000000000042,-0.0223716303520633,0.4175962034784233,0.0106534897541733
1.7394999999999996,-0.0607217500061347,0.4335764381096833,0.0181095363186931
1.743000000000002,-0.0990718696602061,0.4399678338304866,0.0394165158270399
1.7464999999999975,-0.1225098961852379,0.452750625272093,0.0532657034416149
1.75,-0.1470108282247343,0.4580773701491797,0.0926804739394028
1.7535000000000025,-0.1576643179789077,0.4676662090596366,0.1193124529955843
1.756999999999998,-0.1693824585767977,0.4772533026408414,0.1544686201185061
1.7605000000000004,-0.1747092034538843,0.4772533026408414,0.1885583910684593
1.764000000000003,-0.1704471094205142,0.4708619069200382,0.2301042085829324
1.7674999999999983,-0.1576643179789077,0.4559463231324946,0.2546051406224288
1.7710000000000008,-0.1299659427497577,0.4367721359700849,0.2972173543098703
1.7745000000000033,-0.1054650107102613,0.4165315526347067,0.3227846825223353
1.7779999999999987,-0.0671131457269379,0.3845728287014385,0.3547434064556034
1.7815000000000012,-0.0351544217936697,0.355809802628572,0.3771150368076668
1.7850000000000037,0.0095870935812048,0.3185243338182171,0.3930952714389268
1.788499999999999,0.0383501196540714,0.2854992137119804,0.4026823650201317
1.7920000000000016,0.0724398906040246,0.2428870000245388,0.4133358547743051
1.795500000000004,0.096942567972773,0.2130593231079557,0.4186608543221398
1.7989999999999997,0.1225098961852379,0.1789695521580025,0.4207919013388249
1.802500000000002,0.1299659427497577,0.1555332709622227,0.4197272504951083
1.8059999999999972,0.1416840833476476,0.1320969897664428,0.42292294835551
1.8095,0.1438151303643327,0.1161167551351827,0.4175962034784233
1.8130000000000024,0.1512729222581045,0.1033339636935762,0.4186608543221398
1.8164999999999976,0.1512729222581045,0.096942567972773,0.4133358547743051
1.8200000000000005,0.1534022239455376,0.0905494269227178,0.4069427137242498
1.8235000000000028,0.1544686201185061,0.0980072188164895,0.4048134120368167
1.8269999999999984,0.1629910628559944,0.1001382658331746,0.3962909692993285
1.830500000000001,0.180035948330971,0.0937468701123714,0.3877685265618402
1.8340000000000032,0.2013411825100658,0.1022693128498597,0.3813771308410369
1.8374999999999984,0.2173214171413259,0.1075943123976944,0.3675279432264619
1.841000000000001,0.2237128128621291,0.1139874534477496,0.3451563128743986
1.844500000000004,0.2226464166891606,0.1139874534477496,0.3259803803827369
1.847999999999999,0.2258421145495622,0.1129210572747811,0.300413052170272
1.8515000000000013,0.2311688594266489,0.1161167551351827,0.2833681666952953
1.855000000000004,0.2269085107225308,0.1118564064310645,0.2556715367953973
1.8584999999999996,0.2290395577392158,0.1065296615539778,0.2354309534600191
1.8620000000000017,0.2151903701246408,0.1043986145372928,0.2077325782308691
1.8655000000000044,0.2077325782308691,0.096942567972773,0.1906876927558924
1.869,0.191754088928861,0.0926804739394028,0.1640557136997109
1.8725000000000025,0.1768385051413174,0.0884201252352847,0.1448797812080492
1.8759999999999977,0.1480754790684509,0.0777666354811113,0.1193124529955843
1.8795,0.1118564064310645,0.0671131457269379,0.1001382658331746
1.883000000000003,0.0639174478665363,0.0564614013020165,0.0788312863248278
1.886499999999998,0.02769837522915,0.0426122136874415,0.0671131457269379
1.8900000000000008,-0.0181095363186931,0.0266319790561814,0.0543303542853314
1.893500000000003,-0.0479389585645282,0.01598023463126,0.0564614013020165
1.8969999999999985,-0.0937468701123714,-0.0063913957208032,0.0500682602519613
1.900500000000001,-0.1182478021518678,-0.0170448854749766,0.0447432607041266
1.9040000000000037,-0.1491418752414194,-0.0383501196540714,0.0383501196540714
1.9074999999999989,-0.177904901314286,-0.0436768645311581,0.0362208179666383
1.9110000000000011,-0.2141239739516723,-0.055395005129048,0.0394165158270399
1.914500000000004,-0.247149094057909,-0.0671131457269379,0.0458079115478431
1.9179999999999997,-0.2737810731140905,-0.0671131457269379,0.055395005129048
1.9215000000000015,-0.2833681666952953,-0.0628527970228197,0.0703088435873395
1.9250000000000045,-0.2897613077453506,-0.0479389585645282,0.0926804739394028
1.9285,-0.3057397970473587,-0.0426122136874415,0.1065296615539778
1.9320000000000024,-0.3206536355056502,-0.0436768645311581,0.1203788491685528
1.9354999999999976,-0.3227846825223353,-0.0426122136874415,0.1374237346435295
1.939,-0.3227846825223353,-0.0468725623915597,0.152337573101821
1.9425000000000023,-0.3217200316786187,-0.0521993072686464,0.1597953649955928
1.945999999999998,-0.3195889846619337,-0.0575260521457331,0.1629910628559944
1.9495000000000005,-0.3121311927681619,-0.055395005129048,0.1629910628559944
1.953000000000003,-0.2982837504828389,-0.0585907029894496,0.1534022239455376
1.9564999999999984,-0.2940216564494687,-0.0564614013020165,0.1491418752414194
1.9600000000000009,-0.2812388650078622,-0.0532657034416149,0.1289012919060412
1.9635000000000036,-0.2684543282370038,-0.0543303542853314,0.124639197872671
1.9669999999999987,-0.2460844432141925,-0.0585907029894496,0.1065296615539778
1.9705000000000013,-0.2290395577392158,-0.0596570991624181,0.0905494269227178
1.974000000000004,-0.2013411825100658,-0.0511346564249298,0.0681795418999064
1.9774999999999991,-0.1874919948954908,-0.0447432607041266,0.0511346564249298
1.9810000000000016,-0.1619246666830259,-0.02769837522915,0.029827676916583
1.984500000000004,-0.1438151303643327,-0.0223716303520633,0.0181095363186931
1.9879999999999995,-0.1118564064310645,-0.01598023463126,0.0010646508437165
1.991500000000002,-0.0937468701123714,-0.0074577918937717,-0.0063913957208032
1.9949999999999972,-0.069244192743623,0.0106534897541733,-0.01598023463126
1.9985,-0.0490036094082447,0.0287630260728665,-0.0223716303520633
2.0020000000000024,-0.0170448854749766,0.0468725623915597,-0.0308940730895516
2.005499999999998,0.0,0.0564614013020165,-0.0319587239332681
2.0090000000000003,0.0234362811957798,0.0735062867769931,-0.0394165158270399
2.012500000000003,0.0362208179666383,0.0948115209560879,-0.0458079115478431
2.0159999999999982,0.0458079115478431,0.124639197872671,-0.0490036094082447
2.0195000000000007,0.0458079115478431,0.1480754790684509,-0.0575260521457331
2.0230000000000032,0.0319587239332681,0.1896230419121759,-0.0585907029894496
2.026499999999998,0.013849187614575,0.219450718828759,-0.0521993072686464
2.030000000000001,-0.0074577918937717,0.260998281672484,-0.0436768645311581
2.033500000000004,-0.0266319790561814,0.288694911572382,-0.0255673282124649
2.036999999999999,-0.055395005129048,0.3238510786953038,0.0
2.040500000000001,-0.0788312863248278,0.3504830577514853,0.0202405833353782
2.044000000000004,-0.096942567972773,0.3739193389472651,0.0479389585645282
2.0474999999999994,-0.1171831513081512,0.3877685265618402,0.0660484948832214
2.051000000000002,-0.1448797812080492,0.4005513180034466,0.0948115209560879
2.0544999999999973,-0.1629910628559944,0.4005513180034466,0.1150521042914662
2.058,-0.1853609478788057,0.3952245731263599,0.1342280367831279
2.0615000000000023,-0.2077325782308691,0.3909642244222418,0.1480754790684509
2.0649999999999977,-0.233299906443334,0.3803107346680683,0.1693824585767977
2.0685,-0.2524758389349957,0.3643322453660603,0.1736428072809158
2.0720000000000027,-0.2684543282370038,0.3472873598910836,0.1949497867892626
2.075499999999998,-0.2791078179911772,0.3270467765557054,0.2109282760912707
2.0790000000000006,-0.2823035158515788,0.3110665419244454,0.2269085107225308
2.082500000000003,-0.2823035158515788,0.288694911572382,0.2375620004767041
2.0859999999999985,-0.2780431671474606,0.2546051406224288,0.247149094057909
2.089500000000001,-0.2695207244099723,0.2279731615662473,0.2503447919183106
2.0930000000000035,-0.2535404897787122,0.1992101354933808,0.2524758389349957
2.096499999999999,-0.2386266513204207,0.177904901314286,0.2492801410745941
2.1000000000000014,-0.2290395577392158,0.1470108282247343,0.2439533961975074
2.103500000000004,-0.2151903701246408,0.1289012919060412,0.233299906443334
2.1069999999999998,-0.1949497867892626,0.110790010258096,0.2258421145495622
2.110500000000002,-0.1842962970350892,0.0905494269227178,0.2205171150017275
2.1140000000000043,-0.1576643179789077,0.0628527970228197,0.2024058333537824
2.1175,-0.1416840833476476,0.0458079115478431,0.191754088928861
2.121000000000002,-0.1139874534477496,0.0330233747769847,0.1715135055934827
2.1244999999999976,-0.0894847760790012,0.0319587239332681,0.1512729222581045
2.128,-0.0703088435873395,0.0245026773687483,0.1267702448893561
2.1315000000000026,-0.0628527970228197,0.0245026773687483,0.1075943123976944
2.134999999999998,-0.0585907029894496,0.0287630260728665,0.0777666354811113
2.1385000000000005,-0.0649838440395048,0.0351544217936697,0.0585907029894496
2.142000000000003,-0.0745709376207097,0.0500682602519613,0.0426122136874415
2.1454999999999984,-0.0809623333415129,0.0585907029894496,0.0383501196540714
2.149000000000001,-0.0852244273748831,0.0841580312019145,0.0330233747769847
2.1525000000000034,-0.0873537290623162,0.1001382658331746,0.0372854688103548
2.155999999999999,-0.0809623333415129,0.1257055940456395,0.0436768645311581
2.1595000000000013,-0.0724398906040246,0.1416840833476476,0.0521993072686464
2.163000000000004,-0.083093380358198,0.1534022239455376,0.0521993072686464
2.166499999999999,-0.0841580312019145,0.1629910628559944,0.0617864008498512
2.1700000000000017,-0.0777666354811113,0.1651203645434275,0.069244192743623
2.173500000000004,-0.069244192743623,0.1555332709622227,0.0767019846373948
2.177,-0.0575260521457331,0.1352926876268444,0.0767019846373948
2.180500000000002,-0.0447432607041266,0.1150521042914662,0.0894847760790012
2.183999999999997,-0.0255673282124649,0.0841580312019145,0.0926804739394028
2.1875,-0.0053267448770866,0.0532657034416149,0.1001382658331746
2.1910000000000025,0.0170448854749766,0.0308940730895516,0.0948115209560879
2.194499999999998,0.0340897709499532,0.0085224427374883,0.0958761717998045
2.1980000000000004,0.0543303542853314,-0.0117181405978899,0.083093380358198
2.201500000000003,0.0607217500061347,-0.0234362811957798,0.0735062867769931
2.2049999999999983,0.0724398906040246,-0.02769837522915,0.0628527970228197
2.208500000000001,0.0788312863248278,-0.029827676916583,0.0564614013020165
2.2120000000000037,0.0884201252352847,-0.0149138384582915,0.0330233747769847
2.2154999999999987,0.0884201252352847,-0.0010646508437165,0.0266319790561814
2.219000000000001,0.1001382658331746,0.0255673282124649,0.0
2.222500000000004,0.1065296615539778,0.0426122136874415,-0.0053267448770866
2.225999999999999,0.124639197872671,0.0671131457269379,-0.0181095363186931
2.2295000000000016,0.1406194325039311,0.083093380358198,-0.0351544217936697
2.233000000000004,0.1715135055934827,0.1235745470289545,-0.0521993072686464
2.2364999999999995,0.191754088928861,0.152337573101821,-0.0735062867769931
2.240000000000002,0.2109282760912707,0.1992101354933808,-0.0958761717998045
2.2434999999999974,0.2290395577392158,0.2258421145495622,-0.1182478021518678
2.247,0.2673896773932873,0.2673896773932873,-0.136357338470561
2.2505000000000024,0.2982837504828389,0.2897613077453506,-0.150206526085136
2.253999999999998,0.3408942188410284,0.314262239784847,-0.1597953649955928
2.2575000000000003,0.3685925940701784,0.3291760782431385,-0.1715135055934827
2.261000000000003,0.3941599222826434,0.3376985209806268,-0.1874919948954908
2.264499999999998,0.4186608543221398,0.3451563128743986,-0.191754088928861
2.2680000000000007,0.4538170214450616,0.3515477085952018,-0.205601531214184
2.271500000000003,0.4697955107470696,0.3579391043160051,-0.219450718828759
2.2749999999999986,0.480449000501243,0.3664615470534934,-0.2290395577392158
2.278500000000001,0.4751222556241564,0.3664615470534934,-0.2407576983371057
2.282000000000004,0.4697955107470696,0.3600701513326901,-0.247149094057909
2.285499999999999,0.4591437663221482,0.3600701513326901,-0.247149094057909
2.289000000000001,0.4559463231324946,0.3504830577514853,-0.2428870000245388
2.292500000000004,0.4463592295512898,0.3440916620306821,-0.2386266513204207
2.296,0.4335764381096833,0.3291760782431385,-0.233299906443334
2.299500000000002,0.4165315526347067,0.3195889846619337,-0.2322352555996175
2.3030000000000044,0.3888331774055567,0.2993484013265554,-0.2311688594266489
2.3065,0.3622011983493752,0.2918906094327836,-0.233299906443334
2.3100000000000023,0.3100018910807288,0.274847469287059,-0.2364956043037356
2.3134999999999977,0.2652586303766022,0.2663250265495707,-0.233299906443334
2.317,0.1938833906162941,0.2535404897787122,-0.2364956043037356
2.3205000000000027,0.1299659427497577,0.247149094057909,-0.2354309534600191
2.323999999999998,0.0372854688103548,0.2460844432141925,-0.2226464166891606
2.327500000000001,-0.0319587239332681,0.2428870000245388,-0.2045368803704674
2.331000000000003,-0.1193124529955843,0.233299906443334,-0.1693824585767977
2.3344999999999985,-0.1747092034538843,0.2311688594266489,-0.1331616406101593
2.338000000000001,-0.2396913021641372,0.2364956043037356,-0.0916158230956863
2.3415000000000035,-0.2737810731140905,0.2418223491808223,-0.0585907029894496
2.344999999999999,-0.3036087500306735,0.2556715367953973,-0.0149138384582915
2.3485000000000014,-0.3185243338182171,0.2620629325162006,0.01598023463126
2.352000000000004,-0.3089354949077603,0.2673896773932873,0.0490036094082447
2.3554999999999997,-0.2929570056057522,0.2759121201307756,0.0735062867769931
2.3590000000000018,-0.2524758389349957,0.286565609884949,0.0980072188164895
2.3625000000000043,-0.219450718828759,0.2929570056057522,0.1150521042914662
2.366,-0.1640557136997109,0.3036087500306735,0.1320969897664428
2.369500000000002,-0.1150521042914662,0.3121311927681619,0.1374237346435295
2.3729999999999976,-0.0426122136874415,0.3270467765557054,0.1491418752414194
2.3765,0.0,0.3291760782431385,0.1534022239455376
2.3800000000000026,0.0521993072686464,0.3440916620306821,0.1587289688226243
2.383499999999998,0.0884201252352847,0.3483520107348002,0.1555332709622227
2.3870000000000005,0.1278348957330726,0.3472873598910836,0.1544686201185061
2.390500000000003,0.1544686201185061,0.3398295679973119,0.136357338470561
2.3939999999999984,0.1821652500184041,0.3195889846619337,0.1203788491685528
2.397500000000001,0.1938833906162941,0.3014794483432405,0.0990718696602061
2.401000000000004,0.205601531214184,0.2812388650078622,0.0852244273748831
2.4044999999999987,0.219450718828759,0.2418223491808223,0.0543303542853314
2.4080000000000013,0.2343645572870505,0.1970790884766957,0.029827676916583
2.411500000000004,0.2492801410745941,0.1597953649955928,0.0117181405978899
2.414999999999999,0.2663250265495707,0.1065296615539778,-0.0127827914416064
2.4185000000000016,0.288694911572382,0.0703088435873395,-0.0255673282124649
2.422000000000004,0.316393286801532,0.01598023463126,-0.0447432607041266
2.4254999999999995,0.3472873598910836,-0.0245026773687483,-0.0521993072686464
2.429000000000002,0.3898978282492732,-0.083093380358198,-0.055395005129048
2.432499999999997,0.4197272504951083,-0.1310323389227262,-0.0628527970228197
2.436,0.4612730680095813,-0.1811005991746876,-0.0649838440395048
2.4395000000000024,0.4836446983616446,-0.2258421145495622,-0.0649838440395048
2.442999999999998,0.4996249329929048,-0.2780431671474606,-0.0660484948832214
2.4465000000000003,0.508147375730393,-0.3153286359578155,-0.0575260521457331
2.450000000000003,0.5006895838366213,-0.3664615470534934,-0.0500682602519613
2.4534999999999982,0.492167141099133,-0.4016177141764152,-0.041545817514473
2.4570000000000007,0.4591437663221482,-0.4420988808471717,-0.0330233747769847
2.4605000000000032,0.4197272504951083,-0.4623394641825499,-0.029827676916583
2.463999999999998,0.3707236410868635,-0.4761869064678729,-0.0223716303520633
2.467500000000001,0.2993484013265554,-0.4825800475179281,-0.0202405833353782
2.471000000000004,0.2386266513204207,-0.4879067923950148,-0.0095870935812048
2.474499999999999,0.1555332709622227,-0.4857757453783297,0.0
2.478000000000001,0.0937468701123714,-0.480449000501243,0.0074577918937717
2.481500000000004,0.0063913957208032,-0.4751222556241564,0.0127827914416064
2.4849999999999994,-0.0532657034416149,-0.4676662090596366,0.0181095363186931
2.488500000000002,-0.1278348957330726,-0.4570127193054631,0.0308940730895516
2.4919999999999973,-0.1885583910684593,-0.4452945787075733,0.0266319790561814
2.4955,-0.2130593231079557,-0.4357057397971164,0.029827676916583
2.4990000000000023,-0.233299906443334,-0.4197272504951083,0.0330233747769847
2.5024999999999977,-0.2364956043037356,-0.4144005056180216,0.0308940730895516
2.506,-0.2322352555996175,-0.4144005056180216,0.0213052341790947
2.5095000000000027,-0.2151903701246408,-0.4026823650201317,0.0074577918937717
2.512999999999998,-0.1853609478788057,-0.3994866671597301,-0.0213052341790947
2.5165000000000006,-0.1565979218059392,-0.3877685265618402,-0.0404811666707564
2.520000000000003,-0.1203788491685528,-0.3856374795451551,-0.0724398906040246
2.5234999999999985,-0.0905494269227178,-0.3813771308410369,-0.1054650107102613
2.527000000000001,-0.0607217500061347,-0.3760503859639502,-0.1427504795206162
2.5305000000000035,-0.0394165158270399,-0.3739193389472651,-0.1629910628559944
2.533999999999999,-0.01598023463126,-0.369657244913895,-0.1992101354933808
2.5375000000000014,-0.0042603487041181,-0.3664615470534934,-0.2258421145495622
2.541000000000004,0.0010646508437165,-0.3717882919305801,-0.2535404897787122
2.5444999999999998,0.002131047016685,-0.3717882919305801,-0.2791078179911772
2.548000000000002,-0.0042603487041181,-0.3685925940701784,-0.3014794483432405
2.5515000000000043,-0.0181095363186931,-0.3707236410868635,-0.3270467765557054
2.555,-0.0255673282124649,-0.3760503859639502,-0.3472873598910836
2.558500000000002,-0.0436768645311581,-0.3760503859639502,-0.3728546881035486
2.5619999999999976,-0.0564614013020165,-0.3845728287014385,-0.3920288752659583
2.5655,-0.0713752397603081,-0.3920288752659583,-0.4080091098972184
2.5690000000000026,-0.0649838440395048,-0.3962909692993285,-0.4197272504951083
2.572499999999998,-0.0543303542853314,-0.397355620143045,-0.4261186462159115
2.5760000000000005,-0.041545817514473,-0.397355620143045,-0.4271832970596281
2.579500000000003,-0.0181095363186931,-0.3930952714389268,-0.4207919013388249
2.5829999999999984,0.0042603487041181,-0.3856374795451551,-0.41120480775762
2.586500000000001,0.0404811666707564,-0.3792460838243518,-0.3888331774055567
2.5900000000000034,0.0862890782185996,-0.3653968962097769,-0.3632658491930918
2.593499999999999,0.1597953649955928,-0.3536787556118869,-0.3206536355056502
2.5970000000000013,0.2183860679850424,-0.3398295679973119,-0.2833681666952953
2.600500000000004,0.3057397970473587,-0.3206536355056502,-0.2418223491808223
2.603999999999999,0.3749839897909817,-0.3036087500306735,-0.2098636252475541
2.6075000000000017,0.4697955107470696,-0.2844345628682639,-0.1672514115601126
2.611000000000004,0.5379750526469761,-0.2684543282370038,-0.1438151303643327
2.6145,0.6221330838488908,-0.2386266513204207,-0.1182478021518678
2.618000000000002,0.670072042413419,-0.2162550209683574,-0.1043986145372928
2.621499999999997,0.725467047542467,-0.1864273440517743,-0.0852244273748831
2.625,0.7595568184924202,-0.1651203645434275,-0.0788312863248278
2.6285000000000025,0.7936465894423735,-0.1374237346435295,-0.0724398906040246
2.631999999999998,0.8096250787443816,-0.1171831513081512,-0.0767019846373948
2.6355000000000004,0.8117561257610666,-0.0873537290623162,-0.0884201252352847
2.639000000000003,0.7936465894423735,-0.0532657034416149,-0.1139874534477496
2.6424999999999983,0.767014610386192,-0.0234362811957798,-0.1278348957330726
2.646000000000001,0.7201403026653803,0.0191759324916617,-0.152337573101821
2.6495000000000037,0.6796591359946239,0.0575260521457331,-0.1715135055934827
2.6529999999999987,0.6178727351447726,0.0990718696602061,-0.1928187397725775
2.656500000000001,0.5582156359823544,0.1310323389227262,-0.2098636252475541
2.660000000000004,0.4964292351325031,0.166186760716396,-0.2247774637058457
2.663499999999999,0.3941599222826434,0.2226464166891606,-0.2460844432141925
2.6670000000000016,0.314262239784847,0.2663250265495707,-0.2546051406224288
2.670500000000004,0.2162550209683574,0.3291760782431385,-0.2535404897787122
2.6739999999999995,0.1448797812080492,0.3792460838243518,-0.2386266513204207
2.677500000000002,0.0575260521457331,0.4410324846742031,-0.2130593231079557
2.6809999999999974,0.01598023463126,0.4836446983616446,-0.180035948330971
2.6845,-0.0245026773687483,0.5454328445407479,-0.1310323389227262
2.6880000000000024,-0.0394165158270399,0.5944364539489927,-0.0980072188164895
2.691499999999998,-0.0767019846373948,0.6413090163405525,-0.0671131457269379
2.6950000000000003,-0.1097253594143795,0.6658099483800488,-0.0394165158270399
2.698500000000003,-0.136357338470561,0.6849858808717105,-0.0095870935812048
2.701999999999998,-0.1470108282247343,0.6935083236091989,0.0117181405978899
2.7055000000000007,-0.1320969897664428,0.6817901830113089,0.0447432607041266
2.709000000000003,-0.1171831513081512,0.6679409953967339,0.0617864008498512
2.7124999999999986,-0.0798976824977964,0.628524479569694,0.0820287295144815
2.716000000000001,-0.055395005129048,0.605088198373914,0.0926804739394028
2.719500000000004,0.0031956978604016,0.5699337765802444,0.1001382658331746
2.722999999999999,0.0468725623915597,0.5496931932448661,0.1022693128498597
2.726500000000001,0.1225098961852379,0.5262569120490862,0.1054650107102613
2.730000000000004,0.1747092034538843,0.5070809795574245,0.1054650107102613
2.7335,0.2556715367953973,0.4868403962220463,0.1033339636935762
2.737000000000002,0.3195889846619337,0.4697955107470696,0.1022693128498597
2.7405000000000044,0.4101401569139035,0.4506213235846599,0.096942567972773
2.744,0.4740576047804398,0.4293143440763132,0.1012029166768912
2.7475000000000023,0.5635423808594411,0.4090737607409349,0.0916158230956863
2.7509999999999977,0.626395177882261,0.3962909692993285,0.0809623333415129
2.7545,0.6956393706258839,0.3877685265618402,0.0617864008498512
2.7580000000000027,0.7329248394362388,0.3771150368076668,0.0458079115478431
2.761499999999998,0.7851241467048852,0.3653968962097769,0.02769837522915
2.765000000000001,0.8138871727777518,0.3579391043160051,0.0117181405978899
2.768500000000003,0.8319967090964449,0.3462209637181151,-0.0095870935812048
2.7719999999999985,0.8256053133756417,0.3387649171535954,-0.0223716303520633
2.775500000000001,0.8096250787443816,0.3131975889411305,-0.0340897709499532
2.7790000000000035,0.8011026360068932,0.2972173543098703,-0.0351544217936697
2.782499999999999,0.8053647300402634,0.2737810731140905,-0.0245026773687483
2.7860000000000014,0.8149518236214683,0.2620629325162006,-0.0149138384582915
2.789500000000004,0.8032336830235783,0.2556715367953973,-0.0181095363186931
2.7929999999999997,0.7819284488444836,0.2375620004767041,-0.0255673282124649
2.7965000000000018,0.7446429800341288,0.2109282760912707,-0.0245026773687483
2.8000000000000043,0.7148135577882937,0.1864273440517743,-0.0255673282124649
2.8035,0.6604849488322142,0.1459461773810178,-0.02769837522915
2.807000000000002,0.6114795940947174,0.124639197872671,-0.0266319790561814
2.8104999999999976,0.5390397034906926,0.1129210572747811,-0.0234362811957798
2.814,0.4942981881158181,0.1129210572747811,-0.013849187614575
2.8175000000000026,0.4474238803950063,0.1193124529955843,0.0085224427374883
2.820999999999998,0.4207919013388249,0.1374237346435295,0.0287630260728665
2.8245000000000005,0.4058780628805333,0.1608600158393093,0.0521993072686464
2.828000000000003,0.3994866671597301,0.191754088928861,0.0543303542853314
2.8314999999999984,0.3952245731263599,0.2450180470412239,0.0426122136874415
2.835000000000001,0.4026823650201317,0.274847469287059,0.0255673282124649
2.838500000000004,0.4122694586013365,0.3174579376452486,-0.0106534897541733
2.8419999999999987,0.4122694586013365,0.3483520107348002,-0.055395005129048
2.8455000000000013,0.4197272504951083,0.3739193389472651,-0.1118564064310645
2.849000000000004,0.4282496932325966,0.3856374795451551,-0.1608600158393093
2.852499999999999,0.4271832970596281,0.4037470158638482,-0.2301042085829324
2.8560000000000016,0.4058780628805333,0.4122694586013365,-0.2801724688348938
2.859500000000004,0.3909642244222418,0.4165315526347067,-0.3387649171535954
2.8629999999999995,0.3877685265618402,0.4197272504951083,-0.3856374795451551
2.866500000000002,0.3675279432264619,0.4239875991992265,-0.4410324846742031
2.869999999999997,0.3451563128743986,0.4090737607409349,-0.4847093492053612
2.8735,0.3089354949077603,0.38350643252847,-0.5305172607532044
2.8770000000000024,0.2801724688348938,0.3408942188410284,-0.5582156359823544
2.880499999999998,0.258867234655799,0.302544099186957,-0.5646070317031576
2.8840000000000003,0.2386266513204207,0.2567361876391139,-0.5624759846864725
2.887500000000003,0.2258421145495622,0.219450718828759,-0.5518242402615512
2.8909999999999982,0.2162550209683574,0.1811005991746876,-0.5411707505073777
2.8945000000000007,0.1768385051413174,0.1427504795206162,-0.5209301671719996
2.8980000000000032,0.1289012919060412,0.0937468701123714,-0.4879067923950148
2.901499999999998,0.0767019846373948,0.0543303542853314,-0.4612730680095813
2.905000000000001,0.0085224427374883,0.0245026773687483,-0.43890318298677
2.908500000000004,-0.0990718696602061,-0.0223716303520633,-0.3898978282492732
2.911999999999999,-0.1874919948954908,-0.0521993072686464,-0.3430252658577135
2.915500000000001,-0.274847469287059,-0.0798976824977964,-0.2705853752536888
2.919000000000004,-0.3249157295390203,-0.1012029166768912,-0.219450718828759
2.9224999999999994,-0.3803107346680683,-0.1129210572747811,-0.1512729222581045
2.926000000000002,-0.4005513180034466,-0.1278348957330726,-0.1065296615539778
2.9294999999999973,-0.3962909692993285,-0.1416840833476476,-0.055395005129048
2.933,-0.3824417816847534,-0.1597953649955928,-0.029827676916583
2.9365000000000023,-0.3749839897909817,-0.1619246666830259,-0.0266319790561814
2.9399999999999977,-0.3664615470534934,-0.1629910628559944,-0.0149138384582915
2.9435,-0.3483520107348002,-0.1608600158393093,-0.0031956978604016
2.9470000000000027,-0.3195889846619337,-0.1480754790684509,0.0010646508437165
2.950499999999998,-0.2897613077453506,-0.1299659427497577,0.0010646508437165
2.9540000000000006,-0.2705853752536888,-0.1193124529955843,0.0074577918937717
2.957500000000003,-0.2514094427620272,-0.1054650107102613,0.0085224427374883
2.9609999999999985,-0.2311688594266489,-0.0990718696602061,0.0085224427374883
2.964500000000001,-0.1992101354933808,-0.0884201252352847,0.0042603487041181
2.9680000000000035,-0.1693824585767977,-0.0745709376207097,0.0010646508437165
2.971499999999999,-0.1267702448893561,-0.0607217500061347,-0.0063913957208032
2.9750000000000014,-0.0990718696602061,-0.0521993072686464,-0.0085224427374883
2.978500000000004,-0.0521993072686464,-0.0564614013020165,-0.0202405833353782
2.9819999999999998,-0.0245026773687483,-0.0777666354811113,-0.0394165158270399
2.985500000000002,-0.0085224427374883,-0.1065296615539778,-0.0490036094082447
2.9890000000000043,-0.0095870935812048,-0.1374237346435295,-0.0628527970228197
2.9925,-0.0351544217936697,-0.1768385051413174,-0.0756355884644262
2.996000000000002,-0.0735062867769931,-0.2066679273871525,-0.0756355884644262
2.9994999999999976,-0.1267702448893561,-0.2407576983371057,-0.0703088435873395
3.003,-0.1811005991746876,-0.2599318854995155,-0.0532657034416149
3.0065000000000026,-0.2663250265495707,-0.2620629325162006,-0.0287630260728665
3.009999999999998,-0.3398295679973119,-0.2695207244099723,-0.013849187614575
3.0135000000000005,-0.4484902765679749,-0.2684543282370038,0.0127827914416064
3.017000000000003,-0.5411707505073777,-0.2684543282370038,0.0266319790561814
3.0204999999999984,-0.6871169278883955,-0.2631275833599171,0.0372854688103548
3.024000000000001,-0.8032336830235783,-0.2503447919183106,0.0500682602519613
3.0275000000000034,-0.9534402091087144,-0.2215817658454441,0.0628527970228197
3.030999999999999,-1.0621009176793774,-0.2024058333537824,0.083093380358198
3.0345000000000013,-1.1792840689875286,-0.1693824585767977,0.1118564064310645
3.038000000000004,-1.22935232923949,-0.136357338470561,0.1416840833476476
3.041499999999999,-1.2602464023290416,-0.096942567972773,0.1565979218059392
3.0450000000000017,-1.2762248916310497,-0.0724398906040246,0.1736428072809158
3.048500000000004,-1.300727568999798,-0.0479389585645282,0.1619246666830259
3.052,-1.3199035014914595,-0.0394165158270399,0.150206526085136
3.055500000000002,-1.340144084826838,-0.0330233747769847,0.1267702448893561
3.058999999999997,-1.3507958292517597,-0.0255673282124649,0.0980072188164895
3.0625,-1.3603846681622165,-0.0223716303520633,0.069244192743623
3.0660000000000025,-1.3657114130393029,-0.0234362811957798,0.0447432607041266
3.069499999999998,-1.356122574128846,-0.0266319790561814,0.0255673282124649
3.0730000000000004,-1.3412087356705549,-0.0266319790561814,0.0053267448770866
3.076500000000003,-1.3507958292517597,-0.0319587239332681,-0.02769837522915
3.0799999999999983,-1.3870166472183978,-0.041545817514473,-0.0607217500061347
3.083500000000001,-1.450934095084934,-0.0532657034416149,-0.0990718696602061
3.0870000000000037,-1.5233739856889583,-0.0511346564249298,-0.1352926876268444
3.0904999999999987,-1.6607977203324882,-0.0500682602519613,-0.177904901314286
3.094000000000001,-1.7865033143781277,-0.0319587239332681,-0.2087989744038376
3.097500000000004,-1.9718642622569336,-0.0053267448770866,-0.2364956043037356
3.100999999999999,-2.1018302050066917,0.0351544217936697,-0.2492801410745941
3.1045000000000016,-2.3138248772709304,0.0958761717998045,-0.2769767709744921
3.108000000000004,-2.5045125700268227,0.1459461773810178,-0.300413052170272
3.1114999999999995,-2.8070584145430324,0.1992101354933808,-0.3291760782431385
3.115000000000002,-3.044618669690484,0.2375620004767041,-0.3430252658577135
3.1184999999999974,-3.3578162586316145,0.2833681666952953,-0.3664615470534934
3.122,-3.568744534722885,0.3185243338182171,-0.3664615470534934
3.1255000000000024,-3.7999133941495344,0.3526141047681703,-0.3728546881035486
3.128999999999998,-3.925618988195174,0.3568744534722885,-0.369657244913895
3.1325000000000003,-4.031083998905436,0.3440916620306821,-0.3685925940701784
3.136000000000003,-4.0577159779616165,0.3291760782431385,-0.3728546881035486
3.139499999999998,-4.018299462134577,0.2897613077453506,-0.3803107346680683
3.1430000000000007,-3.943728524513867,0.2460844432141925,-0.3803107346680683
3.146500000000003,-3.80204444116622,0.1757738542976009,-0.4037470158638482
3.1499999999999986,-3.67633884712058,0.1129210572747811,-0.4218582975117934
3.153500000000001,-3.501631388995948,0.029827676916583,-0.4495549274116914
3.157000000000004,-3.3737947479336228,-0.0266319790561814,-0.4719265577637547
3.160499999999999,-3.200151940652707,-0.1043986145372928,-0.4857757453783297
3.164000000000001,-3.0637946021821456,-0.1534022239455376,-0.4857757453783297
3.167500000000004,-2.872040513253285,-0.1970790884766957,-0.4687308599033531
3.171,-2.719702940151464,-0.2151903701246408,-0.4538170214450616
3.174500000000002,-2.552451528591351,-0.2322352555996175,-0.4367721359700849
3.1780000000000044,-2.44698651788109,-0.2386266513204207,-0.4271832970596281
3.1815,-2.340456856327112,-0.2386266513204207,-0.4122694586013365
3.1850000000000023,-2.276539408460576,-0.2375620004767041,-0.3984202709867616
3.1884999999999977,-2.231797893085701,-0.2247774637058457,-0.3792460838243518
3.192,-2.2243401011919293,-0.2034722295267509,-0.3611348021764067
3.1955000000000027,-2.247776382387709,-0.1619246666830259,-0.3249157295390203
3.198999999999998,-2.2861265020417805,-0.1150521042914662,-0.2908259585890671
3.202500000000001,-2.395853606785412,-0.0340897709499532,-0.2578025838120824
3.206000000000003,-2.546060132870548,0.0287630260728665,-0.2343645572870505
3.2094999999999985,-2.7996006226492605,0.1022693128498597,-0.1981454846496642
3.213000000000001,-3.012659945757216,0.1565979218059392,-0.1651203645434275
3.2165000000000035,-3.323726487681661,0.2226464166891606,-0.1267702448893561
3.219999999999999,-3.5666134877062,0.2599318854995155,-0.0948115209560879
3.2235000000000014,-3.870223983066126,0.3121311927681619,-0.0426122136874415
3.227000000000004,-4.058780628805333,0.3590055004889736,-0.0106534897541733
3.2304999999999997,-4.257992509627966,0.4133358547743051,0.02769837522915
3.2340000000000018,-4.375173915606865,0.4431635316908882,0.0490036094082447
3.2375000000000043,-4.495552764775418,0.4623394641825499,0.0575260521457331
3.241,-4.548818468217034,0.464468765869983,0.0521993072686464
3.244500000000002,-4.586103937027389,0.4623394641825499,0.0436768645311581
3.2479999999999976,-4.58503754085442,0.4548816722887781,0.0340897709499532
3.2515,-4.576515098116931,0.4346410889533998,0.0117181405978899
3.2550000000000026,-4.544556374183663,0.4175962034784233,0.0085224427374883
3.258499999999998,-4.471051832735921,0.3792460838243518,0.0063913957208032
3.2620000000000005,-4.387958452377724,0.3739193389472651,0.0095870935812048
3.265500000000003,-4.295277978438321,0.3611348021764067,-0.002131047016685
3.2689999999999984,-4.214313899767556,0.3089354949077603,-0.002131047016685
3.272500000000001,-4.110981681403231,0.2503447919183106,-0.0085224427374883
3.276000000000004,-4.0172348112908605,0.2482137449016255,-0.0319587239332681
3.2794999999999987,-3.889399915557788,0.1981454846496642,-0.055395005129048
3.2830000000000013,-3.767954670216266,0.1491418752414194,-0.0628527970228197
3.286500000000004,-3.596442909952036,0.1139874534477496,-0.0809623333415129
3.289999999999999,-3.4579545244647893,0.0926804739394028,-0.0937468701123714
3.2935000000000016,-3.251286597077637,0.0798976824977964,-0.0884201252352847
3.297000000000004,-3.087230883377926,0.1001382658331746,-0.0948115209560879
3.3004999999999995,-2.892281096588663,0.138488385487246,-0.096942567972773
3.304000000000002,-2.778293643140914,0.1555332709622227,-0.0948115209560879
3.307499999999997,-2.6600458409890457,0.1704471094205142,-0.083093380358198
3.311,-2.596128393122509,0.1832316461913727,-0.0681795418999064
3.3145000000000024,-2.5258195495351696,0.1768385051413174,-0.0394165158270399
3.317999999999998,-2.508774664060193,0.1725781564371993,-0.0202405833353782
3.3215000000000003,-2.5130350127643117,0.1619246666830259,0.0127827914416064
3.325000000000003,-2.532210945255973,0.1651203645434275,0.0436768645311581
3.3284999999999982,-2.6078465337203998,0.191754088928861,0.0767019846373948
3.3320000000000007,-2.716507242291062,0.2119946722642392,0.1022693128498597
3.3355000000000032,-2.916783773957412,0.2450180470412239,0.136357338470561
3.338999999999998,-3.0882955342216425,0.2769767709744921,0.1747092034538843
3.342500000000001,-3.3343799774358347,0.3259803803827369,0.2396913021641372
3.346000000000004,-3.5144141804375537,0.3611348021764067,0.2993484013265554
3.349499999999999,-3.745584785193455,0.4197272504951083,0.3717882919305801
3.353000000000001,-3.883006774507732,0.4602084171658648,0.4282496932325966
3.356500000000004,-4.037475394626238,0.5049499325407395,0.4964292351325031
3.3599999999999994,-4.11524203010735,0.5251905158761178,0.5379750526469761
3.363500000000002,-4.161049941655193,0.4942981881158181,0.5795208701614492
3.3669999999999973,-4.1429404053365,0.5763251723010476,0.6093502924072843
3.3705,-4.096066097615688,0.5550199381219528,0.605088198373914
3.3740000000000023,-4.0332150459221205,0.4985585368199362,0.6082838962343158
3.3774999999999977,-3.9756889937763873,0.4697955107470696,0.5859140112115044
3.381,-3.921358639491056,0.4495549274116914,0.5624759846864725
3.3845000000000027,-3.8222850245015976,0.5219948180157161,0.5411707505073777
3.387999999999998,-3.732800248422597,0.5156034222949128,0.5315836569261729
3.3915000000000006,-3.62946628472902,0.533712958613606,0.5209301671719996
3.395000000000003,-3.560222091985397,0.5496931932448661,0.503885281697023
3.3984999999999985,-3.488846852225089,0.5646070317031576,0.4665998128866681
3.402000000000001,-3.4345182432690096,0.5848476150385359,0.4378367868138015
3.4055000000000035,-3.340771373156638,0.5773915684740161,0.4005513180034466
3.408999999999999,-3.249155550060952,0.5582156359823544,0.3739193389472651
3.4125000000000014,-3.114927513277824,0.5305172607532044,0.3366338701369103
3.416000000000004,-2.983896919684349,0.5124077244345112,0.3100018910807288
3.4194999999999998,-2.804927367526347,0.4932317919428495,0.2759121201307756
3.423000000000002,-2.6888088670619124,0.4506213235846599,0.2428870000245388
3.4265000000000043,-2.5694964140663283,0.3675279432264619,0.1853609478788057
3.43,-2.505578966199792,0.3014794483432405,0.1491418752414194
3.433500000000002,-2.46296675251235,0.2045368803704674,0.0926804739394028
3.4369999999999976,-2.469358148233153,0.1267702448893561,0.0607217500061347
3.4405,-2.5013168721664214,0.0330233747769847,0.0255673282124649
3.4440000000000026,-2.534341992272658,-0.0255673282124649,0.0063913957208032
3.447499999999998,-2.589736997401706,-0.0980072188164895,0.002131047016685
3.4510000000000005,-2.646198398703723,-0.1310323389227262,-0.0031956978604016
3.454500000000003,-2.7346167786097557,-0.1619246666830259,-0.0170448854749766
3.4579999999999984,-2.8091877162304653,-0.1789695521580025,-0.0330233747769847
3.461500000000001,-2.9146527269407265,-0.2109282760912707,-0.0649838440395048
3.4650000000000034,-2.990288315405153,-0.2343645572870505,-0.0841580312019145
3.468499999999999,-3.080839487657123,-0.2727164222703739,-0.1129210572747811
3.4720000000000013,-3.146887982540344,-0.2908259585890671,-0.1406194325039311
3.475500000000004,-3.227850315881857,-0.2386266513204207,-0.1747092034538843
3.478999999999999,-3.3077462530504014,-0.2258421145495622,-0.2098636252475541
3.4825000000000017,-3.4366475449564424,-0.1906876927558924,-0.247149094057909
3.486000000000004,-3.545308253527106,-0.1374237346435295,-0.2780431671474606
3.4895,-3.7093639672268166,-0.0447432607041266,-0.3121311927681619
3.493000000000002,-3.819089326641196,0.029827676916583,-0.3153286359578155
3.496499999999997,-3.909640498893166,0.1331616406101593,-0.300413052170272
3.5,-3.9394681758097487,0.2024058333537824,-0.2780431671474606
3.5035000000000025,-3.919227592474371,0.2759121201307756,-0.2460844432141925
3.506999999999998,-3.875550727943213,0.3153286359578155,-0.2269085107225308
3.5105000000000004,-3.7999133941495344,0.4090737607409349,-0.2247774637058457
3.514000000000003,-3.73173559757888,0.5784562193177326,-0.2375620004767041
3.5174999999999983,-3.6092257013936417,0.5379750526469761,-0.2652586303766022
3.521000000000001,-3.5538306962645936,0.5422354013510943,-0.2833681666952953
3.5245000000000037,-3.5144141804375537,0.5933700577760241,-0.341960615013997
3.5279999999999987,-3.454758826604388,0.6221330838488908,-0.3717882919305801
3.531500000000001,-3.3290532325587483,0.6551582039551274,-0.3749839897909817
3.535000000000004,-3.2129347320943134,0.6785944851509074,-0.3803107346680683
3.538499999999999,-3.058467857305059,0.697768672313317,-0.3962909692993285
3.5420000000000016,-2.955133893611483,0.7020307663466872,-0.4101401569139035
3.545500000000004,-2.826232601705441,0.7116178599278921,-0.4399678338304866
3.5489999999999995,-2.721833987168149,0.7073575112237738,-0.4591437663221482
3.552500000000002,-2.6014551379995963,0.6828548338550254,-0.4889714432387313
3.5559999999999974,-2.552451528591351,0.6679409953967339,-0.5156034222949128
3.5595,-2.529015247395572,0.6551582039551274,-0.5486285424011496
3.5630000000000024,-2.548189434557981,0.6466357612176391,-0.5699337765802444
3.566499999999998,-2.616368976457888,0.6317219227593476,-0.5880433128989375
3.5700000000000003,-2.698397705972369,0.6093502924072843,-0.6072192453905992
3.573500000000003,-2.824101554688757,0.5837829641948193,-0.630655526586379
3.576999999999998,-2.916783773957412,0.5795208701614492,-0.6540918077821589
3.5805000000000007,-3.0265091333717917,0.559280286826071,-0.6903126257487973
3.584000000000003,-3.094686929942445,0.5294526099094878,-0.7105532090841755
3.5874999999999986,-3.138365539802856,0.492167141099133,-0.7435765838611602
3.591000000000001,-3.126645653875713,0.4676662090596366,-0.7574257714757352
3.594500000000004,-3.0467497167071693,0.4463592295512898,-0.7574257714757352
3.597999999999999,-2.9402200551531914,0.4325100419367148,-0.7467722817215618
3.601500000000001,-2.750597013241016,0.4080091098972184,-0.7222713496820654
3.605000000000004,-2.559909320485123,0.3856374795451551,-0.6913772765925138
3.6085,-2.263756617018969,0.3590055004889736,-0.6413090163405525
3.612000000000002,-1.994235892608997,0.3302424744161071,-0.5976321518093943
3.615500000000005,-1.5958156216222352,0.2791078179911772,-0.5443664483677794
3.619,-1.2708998920832149,0.2396913021641372,-0.5070809795574245
3.6225000000000014,-0.8149518236214683,0.1896230419121759,-0.480449000501243
3.6259999999999977,-0.4655351620429515,0.1619246666830259,-0.4612730680095813
3.6295,-0.0053267448770866,0.1289012919060412,-0.4559463231324946
3.6330000000000022,0.3217200316786187,0.1043986145372928,-0.4591437663221482
3.636499999999998,0.7286627454028686,0.0500682602519613,-0.4868403962220463
3.640000000000001,1.0013791676732426,0.0074577918937717,-0.5092120265741096
3.643500000000003,1.3199035014914595,-0.0617864008498512,-0.5347793547865746
3.6469999999999994,1.5297671267390138,-0.1118564064310645,-0.5528888911052677
3.650500000000001,1.7758498246239545,-0.1672514115601126,-0.5635423808594411
3.654000000000004,1.9079468143903973,-0.1992101354933808,-0.5678027295635593
3.657499999999999,2.0006272883298,-0.2535404897787122,-0.5784562193177326
3.661000000000002,1.9984962413131149,-0.3036087500306735,-0.5795208701614492
3.664500000000004,1.9090114652341137,-0.3675279432264619,-0.5837829641948193
3.6679999999999993,1.7960904079593327,-0.4186608543221398,-0.5773915684740161
3.6715000000000018,1.5979449233096683,-0.4868403962220463,-0.5646070317031576
3.675000000000004,1.4264331630454377,-0.5401060996636612,-0.5358440056302911
3.6785,1.1792840689875286,-0.6093502924072843,-0.5006895838366213
3.682000000000002,0.9832696313545496,-0.6466357612176391,-0.4516859744283765
3.6854999999999976,0.7084221620674903,-0.6817901830113089,-0.3941599222826434
3.689,0.4985585368199362,-0.6935083236091989,-0.3408942188410284
3.6925000000000026,0.2237128128621291,-0.7052264642070888,-0.2759121201307756
3.695999999999998,0.0234362811957798,-0.713748906944577,-0.2258421145495622
3.699500000000001,-0.2205171150017275,-0.7020307663466872,-0.1747092034538843
3.703000000000003,-0.3664615470534934,-0.6711366932571355,-0.1374237346435295
3.7064999999999984,-0.5156034222949128,-0.6253287817092923,-0.1075943123976944
3.710000000000001,-0.5837829641948193,-0.5933700577760241,-0.0916158230956863
3.7135000000000034,-0.6040235475301975,-0.547562146228181,-0.0596570991624181
3.716999999999999,-0.5347793547865746,-0.5102766774178261,-0.0394165158270399
3.720500000000001,-0.3302424744161071,-0.4516859744283765,-0.0085224427374883
3.724000000000004,-0.1299659427497577,-0.4026823650201317,0.0053267448770866
3.727499999999999,0.2205171150017275,-0.3313071252598236,0.0095870935812048
3.7310000000000016,0.5422354013510943,-0.2791078179911772,0.0117181405978899
3.734500000000004,1.0493181262377709,-0.2173214171413259,0.0149138384582915
3.738,1.4690453767328793,-0.1821652500184041,0.0213052341790947
3.741500000000002,2.087982762721368,-0.1608600158393093,0.0426122136874415
3.744999999999997,2.596128393122509,-0.1587289688226243,0.0767019846373948
3.7485,3.287505669715023,-0.177904901314286,0.1427504795206162
3.7520000000000016,3.8158936287807945,-0.2173214171413259,0.2045368803704674
3.755499999999998,4.517924395127482,-0.2876302607286655,0.2929570056057522
3.759,5.03139677040571,-0.3547434064556034,0.3622011983493752
3.762500000000003,5.666314391025458,-0.4815136513449596,0.4452945787075733
3.7659999999999982,6.086041641520567,-0.5773915684740161,0.4985585368199362
3.7695000000000007,6.495115402261502,-0.6466357612176391,0.547562146228181
3.7730000000000032,6.682607397156993,-0.6903126257487973,0.5837829641948193
3.776499999999999,6.755047287761018,-0.7552947244590501,0.6434400633572375
3.780000000000001,6.682607397156993,-0.8128207766047831,0.6956393706258839
3.783500000000004,6.463156678328233,-0.8820667146776582,0.7712749590903102
3.786999999999999,6.198962698795348,-0.9204168343317296,0.8266699642193582
3.7905000000000015,5.746212073523255,-0.9672893967232892,0.8927184591025796
3.794000000000004,5.3605745939781,-0.9907256779190692,0.942788464683793
3.7975,4.82366419217484,-1.0109662612544474,1.0184240531482192
3.801000000000002,4.430570666065165,-1.0205551001649042,1.083406151858472
3.804499999999997,3.951186316407639,-1.0237507980253058,1.1803487198312452
3.808,3.64544651936028,-1.021619751008621,1.2602464023290416
3.8115000000000014,3.322661836837945,-1.0109662612544474,1.353991527112161
3.8149999999999977,3.146887982540344,-0.9885963762316362,1.4147150224475475
3.8185,3.003072852176011,-0.958766953985801,1.4775660741411154
3.8220000000000023,2.981765872667665,-0.928939277069218,1.504199798526549
3.825499999999998,3.0275737842155075,-0.8767399698005716,1.5191136369848404
3.8290000000000006,3.105340419696619,-0.8319967090964449,1.5159179391244388
3.832500000000003,3.260873690658842,-0.7574257714757352,1.4967420066327772
3.8359999999999994,3.40681986803986,-0.6988350684862855,1.464783282699509
3.839500000000001,3.596442909952036,-0.600827849669796,1.411517579257894
3.843000000000004,3.7530408317579744,-0.5401060996636612,1.3603846681622165
3.846499999999999,3.958644108301411,-0.4836446983616446,1.2943361732789946
3.8500000000000014,4.11524203010735,-0.4495549274116914,1.22935232923949
3.853500000000004,4.298473676298722,-0.4101401569139035,1.1483899958979769
3.8569999999999993,4.411394733573504,-0.3717882919305801,1.079145803154354
3.860500000000002,4.546687421200348,-0.3408942188410284,1.016293006131534
3.864000000000004,4.655348129771012,-0.3195889846619337,0.970485094583691
3.8675,4.751224301570816,-0.3185243338182171,0.8959141569629812
3.871000000000002,4.757615697291619,-0.3270467765557054,0.8330613599401614
3.8744999999999976,4.677718014793823,-0.3494166615785167,0.7393162351570419
3.878,4.575450447273215,-0.3803107346680683,0.6732677402738206
3.8815000000000026,4.382631707500638,-0.4452945787075733,0.5848476150385359
3.884999999999998,4.197270759621831,-0.4932317919428495,0.5262569120490862
3.888500000000001,3.925618988195174,-0.5635423808594411,0.4548816722887781
3.892000000000003,3.724277805685108,-0.6253287817092923,0.425053995372195
3.8954999999999984,3.4803244094876007,-0.7062911150508053,0.3888331774055567
3.899000000000001,3.324791138525378,-0.7680792612299085,0.3707236410868635
3.9025000000000034,3.1522129820881784,-0.8447812458673034,0.3355692192931938
3.905999999999999,3.041422971830083,-0.8831313655213747,0.2982837504828389
3.909500000000001,2.9082613312199235,-0.9193504381587612,0.2396913021641372
3.913000000000004,2.836886091459615,-0.9278728808962494,0.1885583910684593
3.916499999999999,2.767641898715992,-0.921481485175446,0.1118564064310645
3.9200000000000017,2.715442591447346,-0.9161547402983594,0.0468725623915597
3.923500000000004,2.6738950286036207,-0.9044365997004696,-0.0394165158270399
3.927,2.6632415388494475,-0.8852624125380599,-0.1161167551351827
3.930500000000002,2.672830377759904,-0.8735442719401699,-0.219450718828759
3.9339999999999975,2.6930709610952825,-0.8724778757672014,-0.302544099186957
3.9375,2.7324874769223224,-0.8501062454151381,-0.4165315526347067
3.9410000000000025,2.761248757665937,-0.8224096155152401,-0.4900360940824479
3.944499999999998,2.8081230653867486,-0.7712749590903102,-0.5795208701614492
3.948,2.8517999299179064,-0.7212066988383489,-0.6295908757426625
3.951500000000003,2.929566565399018,-0.6551582039551274,-0.6658099483800488
3.9549999999999983,2.9934840132655545,-0.614677037284371,-0.6796591359946239
3.958500000000001,3.084035185517524,-0.5667380787198427,-0.7009661155029706
3.9620000000000033,3.1522129820881784,-0.533712958613606,-0.7052264642070888
3.965499999999999,3.2225235710047704,-0.4783179534845579,-0.7158799539612621
3.969000000000001,3.2544822949380383,-0.4271832970596281,-0.725467047542467
3.972500000000004,3.249155550060952,-0.3547434064556034,-0.7307937924195538
3.975999999999999,3.227850315881857,-0.2972173543098703,-0.723336000525782
3.9795000000000016,3.195891591948589,-0.2396913021641372,-0.6732677402738206
3.983000000000004,3.195891591948589,-0.2066679273871525,-0.6253287817092923
3.9865,3.203347638513109,-0.1715135055934827,-0.547562146228181
3.990000000000002,3.2267839197088883,-0.1555332709622227,-0.4879067923950148
3.993499999999997,3.271527180413015,-0.1427504795206162,-0.4197272504951083
3.997,3.323726487681661,-0.136357338470561,-0.3675279432264619
4.000500000000002,3.3855128885315127,-0.124639197872671,-0.314262239784847
4.003999999999998,3.407884518883576,-0.1139874534477496,-0.2737810731140905
4.0075,3.4281251022189543,-0.0852244273748831,-0.2269085107225308
4.011000000000003,3.4323871962523245,-0.0543303542853314,-0.1853609478788057
4.014499999999998,3.4046888210231745,-0.0245026773687483,-0.1320969897664428
4.018000000000001,3.391906029581568,-0.0170448854749766,-0.0894847760790012
4.021500000000003,3.4323871962523245,-0.02769837522915,-0.0191759324916617
4.024999999999999,3.498435691135546,-0.0479389585645282,0.0266319790561814
4.028500000000001,3.615617097114445,-0.0681795418999064,0.0798976824977964
4.032000000000004,3.711495014243501,-0.0809623333415129,0.1150521042914662
4.035499999999999,3.861701540328637,-0.0948115209560879,0.1619246666830259
4.0390000000000015,3.969295852726332,-0.1043986145372928,0.2045368803704674
4.042500000000004,4.1120463322469485,-0.1182478021518678,0.2791078179911772
4.045999999999999,4.205793202359319,-0.1193124529955843,0.3483520107348002
4.049500000000002,4.306996119036211,-0.1214435000122694,0.4431635316908882
4.052999999999997,4.382631707500638,-0.1235745470289545,0.5230612141886847
4.0565,4.465725087858835,-0.1310323389227262,0.6338512244467807
4.060000000000002,4.518989045971198,-0.1438151303643327,0.7062911150508053
4.063499999999998,4.574385796429499,-0.1587289688226243,0.7797974018277984
4.067,4.588233238714821,-0.1757738542976009,0.8298656620797599
4.070500000000003,4.576515098116931,-0.1906876927558924,0.8703468287505163
4.073999999999998,4.558405561798238,-0.191754088928861,0.8937848552755481
4.077500000000001,4.533904629758742,-0.1896230419121759,0.9140254386109264
4.081000000000003,4.509401952389994,-0.1938833906162941,0.9097633445775564
4.084499999999999,4.476376832283757,-0.1992101354933808,0.905502995873438
4.088000000000001,4.457202645121346,-0.2098636252475541,0.8831313655213747
4.091500000000004,4.444418108350488,-0.2151903701246408,0.8628907821859965
4.094999999999999,4.436962061785969,-0.2151903701246408,0.8426501988506182
4.098500000000001,4.426308572031795,-0.2343645572870505,0.8330613599401614
4.102000000000004,4.422048223327677,-0.2684543282370038,0.8319967090964449
4.105499999999999,4.42843961904848,-0.314262239784847,0.8533036886047917
4.109000000000002,4.429504269892197,-0.3430252658577135,0.8628907821859965
4.112500000000004,4.39328519725481,-0.3483520107348002,0.8596950843255949
4.116,4.336823795952794,-0.3472873598910836,0.8330613599401614
4.119500000000002,4.247339019873793,-0.3494166615785167,0.7872551937215703
4.1229999999999976,4.171703431409366,-0.341960615013997,0.7510343757549319
4.1265,4.070498769403224,-0.3281114273994219,0.6753987872905056
4.130000000000003,4.010843415570057,-0.316393286801532,0.6157416881280875
4.133499999999998,3.961839806161812,-0.3121311927681619,0.5507578440885826
4.1370000000000005,3.9426638736701514,-0.3131975889411305,0.5028206308533064
4.140500000000003,3.955446665111757,-0.3249157295390203,0.4474238803950063
4.143999999999998,3.987407134374277,-0.3440916620306821,0.4197272504951083
4.147500000000001,4.059847024978302,-0.3707236410868635,0.3824417816847534
4.151000000000003,4.1429404053365,-0.3845728287014385,0.369657244913895
4.154499999999999,4.289951233561234,-0.4186608543221398,0.369657244913895
4.158000000000001,4.426308572031795,-0.4612730680095813,0.38350643252847
4.161500000000004,4.632976499418947,-0.5273215628928027,0.4165315526347067
4.164999999999999,4.811946051576951,-0.5848476150385359,0.4442281825346047
4.168500000000002,5.067617588372348,-0.6722030894301041,0.4911024902554164
4.172000000000004,5.264698422178295,-0.7584921676487036,0.5283879590657713
4.1755,5.528890656381929,-0.8810003185046897,0.5891097090719061
4.179000000000002,5.7089266047129,-0.968355792896258,0.6317219227593476
4.182499999999997,5.878309063289698,-1.081276850171039,0.6753987872905056
4.186,5.949684303050006,-1.1430632510208902,0.6892479749050807
4.189500000000002,5.952880000910408,-1.2250919805353715,0.7009661155029706
4.192999999999998,5.896418599608391,-1.2922051262623095,0.7084221620674903
4.1965,5.734493932925365,-1.361449319005933,0.709488558240459
4.200000000000003,5.561915776488166,-1.3806252514975943,0.6988350684862855
4.203499999999998,5.283872609340706,-1.361449319005933,0.6775280889779387
4.207000000000001,5.063355494338977,-1.3294905950726643,0.6615495996759307
4.210500000000003,4.771464884906194,-1.2378747719769785,0.630655526586379
4.213999999999999,4.570123702396128,-1.136671855300087,0.600827849669796
4.217500000000001,4.324041004511187,-0.986465329214951,0.5571509851386378
4.221000000000004,4.167441337375997,-0.8650218292026817,0.519865516328283
4.224499999999999,3.991667483078396,-0.6956393706258839,0.4506213235846599
4.2280000000000015,3.8808774728202993,-0.5678027295635593,0.3941599222826434
4.231500000000004,3.7509097847412898,-0.4090737607409349,0.3206536355056502
4.234999999999999,3.688058733047722,-0.3121311927681619,0.2812388650078622
4.238500000000002,3.643315472343595,-0.2141239739516723,0.2407576983371057
4.241999999999997,3.642250821499879,-0.166186760716396,0.2205171150017275
4.2455,3.67633884712058,-0.1278348957330726,0.205601531214184
4.249000000000002,3.724277805685108,-0.1203788491685528,0.180035948330971
4.252499999999998,3.80204444116622,-0.1438151303643327,0.1651203645434275
4.256,3.8712886339098422,-0.1906876927558924,0.1416840833476476
4.259500000000003,3.944794920686836,-0.2546051406224288,0.1012029166768912
4.262999999999998,4.005516670692971,-0.314262239784847,0.0777666354811113
4.266500000000001,4.100328191649059,-0.4016177141764152,0.0617864008498512
4.270000000000003,4.165310290359311,-0.4687308599033531,0.0521993072686464
4.273499999999999,4.245207972857108,-0.5571509851386378,0.0426122136874415
4.277000000000001,4.310191816896612,-0.6189373859884891,0.0404811666707564
4.280500000000004,4.411394733573504,-0.7084221620674903,0.0479389585645282
4.283999999999999,4.478507879300442,-0.7691439120736251,0.0500682602519613
4.287500000000001,4.559470212641955,-0.8319967090964449,0.0617864008498512
4.291000000000004,4.604213473346082,-0.8564993864651933,0.0639174478665363
4.294499999999999,4.638303244296035,-0.8831313655213747,0.0617864008498512
4.298000000000002,4.634041150262664,-0.8916538082588631,0.0585907029894496
4.301500000000004,4.593559983591907,-0.8841960163650913,0.0564614013020165
4.305,4.546687421200348,-0.8564993864651933,0.0564614013020165
4.308500000000002,4.469985436562954,-0.80642938088398,0.0532657034416149
4.311999999999998,4.402872290836015,-0.7606214693361367,0.0490036094082447
4.3155,4.291015884404951,-0.683921230027994,0.0287630260728665
4.319000000000003,4.179159477973887,-0.6221330838488908,0.0095870935812048
4.322499999999998,3.994863180938797,-0.519865516328283,-0.0170448854749766
4.3260000000000005,3.861701540328637,-0.4282496932325966,-0.0330233747769847
4.329500000000003,3.672078498416462,-0.3174579376452486,-0.055395005129048
4.332999999999998,3.526132321035444,-0.2418223491808223,-0.0671131457269379
4.336500000000001,3.3098773000670865,-0.152337573101821,-0.0937468701123714
4.340000000000003,3.1575397269652656,-0.1022693128498597,-0.1139874534477496
4.343499999999999,2.9583295914718843,-0.0458079115478431,-0.1534022239455376
4.347000000000001,2.83475504444293,-0.0245026773687483,-0.1789695521580025
4.350500000000004,2.690939914078597,-0.013849187614575,-0.2237128128621291
4.353999999999999,2.5886723465579893,-0.0213052341790947,-0.2620629325162006
4.357500000000002,2.465097799529035,-0.0521993072686464,-0.3046751462036421
4.361000000000004,2.397982908472845,-0.0745709376207097,-0.3185243338182171
4.3645,2.338327554639679,-0.0905494269227178,-0.3366338701369103
4.368000000000002,2.3042377836897256,-0.1012029166768912,-0.3387649171535954
4.3714999999999975,2.2882575490584656,-0.1022693128498597,-0.3249157295390203
4.375,2.3031713875167568,-0.0990718696602061,-0.3068061932203272
4.3785000000000025,2.358568137975057,-0.0958761717998045,-0.274847469287059
4.381999999999998,2.4310080285790816,-0.0841580312019145,-0.2439533961975074
4.3855,2.5790835076475327,-0.0532657034416149,-0.2002765316663493
4.389000000000003,2.7090494503972904,-0.0330233747769847,-0.1693824585767977
4.392499999999998,2.892281096588663,-0.02769837522915,-0.1225098961852379
4.396000000000001,3.040356575657114,-0.002131047016685,-0.0852244273748831
4.399500000000003,3.2161321752839678,0.01598023463126,-0.0628527970228197
4.402999999999999,3.3077462530504014,0.0095870935812048,-0.0394165158270399
4.406500000000001,3.392970680425284,0.0149138384582915,-0.0042603487041181
4.410000000000004,3.437713941129411,0.0351544217936697,0.0149138384582915
4.413499999999999,3.4270604513752376,0.0362208179666383,0.041545817514473
4.417000000000002,3.3972310291294026,0.0340897709499532,0.069244192743623
4.420500000000004,3.3258575346983466,0.0149138384582915,0.1043986145372928
4.424,3.24595985220055,0.0010646508437165,0.124639197872671
4.427500000000002,3.113862862434108,-0.0010646508437165,0.1438151303643327
4.430999999999997,2.983896919684349,-0.0042603487041181,0.1597953649955928
4.4345,2.826232601705441,-0.0181095363186931,0.191754088928861
4.438000000000002,2.719702940151464,-0.0319587239332681,0.2183860679850424
4.441499999999998,2.5694964140663283,-0.0490036094082447,0.2343645572870505
4.445,2.4555089606185785,-0.0852244273748831,0.2546051406224288
4.448500000000003,2.3223473200084186,-0.1129210572747811,0.2801724688348938
4.451999999999998,2.2541677781085125,-0.1320969897664428,0.3068061932203272
4.455500000000001,2.172140793923283,-0.152337573101821,0.3291760782431385
4.459000000000003,2.1359199759566443,-0.166186760716396,0.3462209637181151
4.462499999999999,2.0837206686879983,-0.1832316461913727,0.3664615470534934
4.466000000000001,2.06348008535262,-0.2045368803704674,0.3856374795451551
4.469500000000004,2.045370549033927,-0.2396913021641372,0.4058780628805333
4.472999999999999,2.033652408436037,-0.2567361876391139,0.4239875991992265
4.4765000000000015,2.0219342678381467,-0.2780431671474606,0.4346410889533998
4.480000000000004,2.003822986190201,-0.2929570056057522,0.4378367868138015
4.483499999999999,1.9782556579777368,-0.2993484013265554,0.4378367868138015
4.487000000000002,1.9537547259382404,-0.2961527034661538,0.4293143440763132
4.490499999999997,1.9420365853403505,-0.2812388650078622,0.4303807402492817
4.494,1.9590814708153272,-0.2556715367953973,0.4314453910929982
4.497500000000002,1.9612107725027603,-0.2162550209683574,0.4165315526347067
4.500999999999998,1.9953005434527131,-0.1736428072809158,0.4122694586013365
4.5045,2.0389791533131234,-0.0990718696602061,0.3909642244222418
4.508000000000003,2.0837206686879983,-0.0458079115478431,0.3781796876513833
4.511499999999998,2.1614873041691096,0.0340897709499532,0.3579391043160051
4.515000000000001,2.225404752035646,0.1001382658331746,0.3376985209806268
4.518500000000003,2.276539408460576,0.1832316461913727,0.3121311927681619
4.521999999999999,2.326609414041789,0.2439533961975074,0.3036087500306735
4.525500000000001,2.4128967469311364,0.3408942188410284,0.2961527034661538
4.529000000000004,2.410767445243704,0.4037470158638482,0.2918906094327836
4.532499999999999,2.5077082678872245,0.4452945787075733,0.288694911572382
4.536000000000001,2.5077082678872245,0.4676662090596366,0.2663250265495707
4.539500000000004,2.490663382412248,0.4953628389595346,0.2418223491808223
4.542999999999999,2.5034479191831065,0.503885281697023,0.2386266513204207
4.546500000000002,2.522623851674768,0.508147375730393,0.2407576983371057
4.550000000000004,2.511970361920594,0.4974938859762197,0.2428870000245388
4.5535,2.478945241814358,0.4825800475179281,0.2407576983371057
4.557000000000002,2.46296675251235,0.4793843496575265,0.2407576983371057
4.5604999999999976,2.425681283701995,0.4708619069200382,0.2205171150017275
4.564,2.395853606785412,0.4399678338304866,0.2066679273871525
4.567500000000003,2.328738715729222,0.3920288752659583,0.1906876927558924
4.570999999999998,2.2903885960751507,0.3504830577514853,0.1736428072809158
4.5745000000000005,2.240320335823189,0.2769767709744921,0.150206526085136
4.578000000000003,2.190250330241976,0.2258421145495622,0.1416840833476476
4.581499999999998,2.132724278096243,0.1416840833476476,0.1235745470289545
4.585000000000001,2.09117846058177,0.0745709376207097,0.1193124529955843
4.588500000000003,2.0315213614193515,-0.0234362811957798,0.1182478021518678
4.591999999999999,1.9793220541507053,-0.0926804739394028,0.1129210572747811
4.595500000000001,1.8546811109487824,-0.1715135055934827,0.1225098961852379
4.599000000000004,1.8674656477196407,-0.2237128128621291,0.1267702448893561
4.602499999999999,1.771589475919836,-0.3249157295390203,0.1065296615539778
4.606000000000002,1.7247151681990245,-0.3909642244222418,0.0926804739394028
4.609500000000004,1.6394924861533935,-0.42292294835551,0.0841580312019145
4.613,1.64055713699711,-0.4399678338304866,0.0937468701123714
4.616500000000002,1.6639934181928897,-0.4474238803950063,0.1374237346435295
4.619999999999997,1.6767779549637485,-0.4516859744283765,0.1693824585767977
4.6235,1.7161927254615363,-0.4655351620429515,0.2343645572870505
4.627000000000002,1.7534781942718909,-0.4697955107470696,0.2823035158515788
4.630499999999998,1.8237887831884827,-0.4665998128866681,0.3440916620306821
4.634,1.8866415802113023,-0.4634041150262664,0.3749839897909817
4.637500000000003,1.931383095586177,-0.4623394641825499,0.3749839897909817
4.640999999999998,1.9494926319048704,-0.4911024902554164,0.3685925940701784
4.644500000000001,1.9239270490216571,-0.5560845889656694,0.3281114273994219
4.648000000000003,1.8685302985633567,-0.6114795940947174,0.2759121201307756
4.651499999999999,1.7577402883052613,-0.6935083236091989,0.219450718828759
4.655000000000001,1.6874296993886695,-0.7595568184924202,0.1715135055934827
4.658500000000004,1.536158522459817,-0.8490415945714216,0.0884201252352847
4.661999999999999,1.3923433920954844,-0.9161547402983594,0.0245026773687483
4.6655000000000015,1.2176341886416,-1.014161959114849,-0.0436768645311581
4.669000000000004,1.0844725480314406,-1.0780811523106375,-0.0937468701123714
4.672499999999999,0.8916538082588631,-1.1462589488812918,-0.1736428072809158
4.676000000000002,0.7414472821737271,-1.1835444176916468,-0.2226464166891606
4.679499999999997,0.5464974953844645,-1.2240255843624033,-0.2908259585890671
4.683,0.3728546881035486,-1.2400058189936634,-0.3398295679973119
4.686500000000002,0.2492801410745941,-1.203785001027025,-0.4037470158638482
4.689999999999998,0.1704471094205142,-1.17821767281456,-0.4665998128866681
4.6935,-0.041545817514473,-1.1547813916187804,-0.5571509851386378
4.697000000000003,-0.1043986145372928,-1.092994990768929,-0.5837829641948193
4.700499999999998,-0.1597953649955928,-0.956635906969116,-0.6231994800218592
4.704000000000001,-0.1789695521580025,-0.847976943727705,-0.6498314590780407
4.707500000000003,-0.2599318854995155,-0.6998997193300021,-0.6785944851509074
4.710999999999999,-0.3014794483432405,-0.5667380787198427,-0.6913772765925138
4.714500000000001,-0.3760503859639502,-0.369657244913895,-0.7084221620674903
4.718000000000004,-0.3675279432264619,-0.1981454846496642,-0.7329248394362388
4.721499999999999,-0.5837829641948193,-0.0543303542853314,-0.7574257714757352
4.725000000000001,-0.6221330838488908,0.0862890782185996,-0.7169446048049787
4.728500000000004,-0.6530271569384424,0.3068061932203272,-0.6775280889779387
4.731999999999999,-0.7361205372966404,0.43890318298677,-0.6572875056425604
4.735500000000002,-0.8650218292026817,0.5880433128989375,-0.6040235475301975
4.739000000000004,-0.944917766371226,0.7041618133633722,-0.5709984274239609
4.7425,-1.0663630117127476,0.8309320582527283,-0.5305172607532044
4.746000000000002,-1.1728926732667255,0.903371948856753,-0.4932317919428495
4.749499999999998,-1.3177724544747746,0.9800739334941478,-0.4452945787075733
4.753,-1.4189753711516655,1.007770563394046,-0.41120480775762
4.756500000000003,-1.5681172463930857,1.0333378916065108,-0.3685925940701784
4.759999999999998,-1.7023452831762131,1.0365335894669123,-0.3430252658577135
4.7635000000000005,-1.917533907971602,0.9907256779190692,-0.3174579376452486
4.767000000000003,-2.095438809285888,0.9438531155275096,-0.3036087500306735
4.770499999999998,-2.345783601204199,0.8788692714880046,-0.2833681666952953
4.774000000000001,-2.5428644350101464,0.8245406625319252,-0.2769767709744921
4.777500000000003,-2.785751435034685,0.7489033287382468,-0.2567361876391139
4.780999999999999,-2.9444804038573094,0.6849858808717105,-0.2556715367953973
4.784500000000001,-3.137299143629887,0.602958896686481,-0.2652586303766022
4.788000000000004,-3.2480908992172357,0.517734469311598,-0.274847469287059
4.791499999999999,-3.3269221855420628,0.3813771308410369,-0.2705853752536888
4.795000000000002,-3.3429024201733237,0.2844345628682639,-0.260998281672484
4.798500000000004,-3.275787529117133,0.1725781564371993,-0.2141239739516723
4.802,-3.1522129820881784,0.096942567972773,-0.1587289688226243
4.805500000000002,-2.9189130756448445,-0.0010646508437165,-0.0767019846373948
4.8089999999999975,-2.702658054676488,-0.0660484948832214,-0.01598023463126
4.8125,-2.410767445243704,-0.166186760716396,0.0564614013020165
4.8160000000000025,-2.1913149810856924,-0.2322352555996175,0.0884201252352847
4.819499999999998,-1.9164692571278852,-0.2961527034661538,0.1086607085706629
4.823,-1.7513488925844578,-0.3376985209806268,0.1097253594143795
4.826500000000003,-1.6000759703263534,-0.3632658491930918,0.0820287295144815
4.829999999999998,-1.534027475443132,-0.3739193389472651,0.0436768645311581
4.833500000000001,-1.5212446840015257,-0.3781796876513833,-0.0191759324916617
4.837000000000003,-1.5670525955493688,-0.38350643252847,-0.0905494269227178
4.840499999999999,-1.7034099340199298,-0.3824417816847534,-0.2130593231079557
4.844000000000001,-1.857878554138436,-0.3760503859639502,-0.3291760782431385
4.847500000000004,-2.150833814414936,-0.3632658491930918,-0.5060163287137079
4.850999999999999,-2.422485585841593,-0.3515477085952018,-0.6498314590780407
4.854500000000002,-2.8091877162304653,-0.3206536355056502,-0.8383881048172481
4.858000000000004,-3.111731815417422,-0.288694911572382,-0.984334282198266
4.8615,-3.4963046441188608,-0.2396913021641372,-1.1750219749541586
4.865000000000002,-3.763694321512148,-0.1981454846496642,-1.3177724544747746
4.868499999999997,-4.074760863436594,-0.1512729222581045,-1.4999377044931788
4.872,-4.2729063480862575,-0.1320969897664428,-1.6320346942596218
4.875500000000002,-4.469985436562954,-0.1416840833476476,-1.7662627310427494
4.878999999999998,-4.5573409109545215,-0.1459461773810178,-1.8408336686634592
4.8825,-4.620193707977341,-0.1619246666830259,-1.8919665797591367
4.886000000000003,-4.656412780614728,-0.1832316461913727,-1.897293324636224
4.889499999999998,-4.642563593000153,-0.2141239739516723,-1.8333758767696875
4.893000000000001,-4.593559983591907,-0.2269085107225308,-1.7545445904448598
4.896500000000003,-4.537100327619143,-0.2364956043037356,-1.624578647695102
4.899999999999999,-4.498748462635819,-0.2727164222703739,-1.498873053649462
4.903500000000001,-4.410330082729787,-0.3270467765557054,-1.290074079245625
4.907000000000004,-4.341084144656912,-0.3472873598910836,-1.1270847617188822
4.910499999999999,-4.256926113454997,-0.4261186462159115,-0.8863270633817765
4.9140000000000015,-4.222836342505045,-0.4069427137242498,-0.6998997193300021
4.917500000000004,-4.134417962599012,-0.3813771308410369,-0.4314453910929982
4.920999999999999,-4.034279696765837,-0.3760503859639502,-0.2151903701246408
4.924500000000002,-3.892595613418189,-0.3622011983493752,0.0479389585645282
4.927999999999997,-3.805240139026621,-0.3504830577514853,0.2002765316663493
4.9315,-3.7306692014059113,-0.3440916620306821,0.3462209637181151
4.935000000000002,-3.681665591997666,-0.3313071252598236,0.4335764381096833
4.938499999999998,-3.647577566376965,-0.2993484013265554,0.4942981881158181
4.942,-3.6560982637852018,-0.2737810731140905,0.4985585368199362
4.945500000000003,-3.725344201858076,-0.2279731615662473,0.4634041150262664
4.948999999999998,-3.8041754881829046,-0.1949497867892626,0.4069427137242498
4.952500000000001,-3.9149672437702527,-0.1747092034538843,0.2972173543098703
4.956000000000003,-4.027888301045034,-0.1629910628559944,0.1842962970350892
4.959499999999999,-4.222836342505045,-0.166186760716396,-0.0042603487041181
4.963000000000001,-4.403936941679732,-0.1768385051413174,-0.1736428072809158
4.966500000000004,-4.677718014793823,-0.1970790884766957,-0.4069427137242498
4.969999999999999,-4.8918437340747465,-0.2162550209683574,-0.5827165680218508
4.973500000000001,-5.160298062311751,-0.2418223491808223,-0.8192139176548384
4.977000000000004,-5.352052151240611,-0.2780431671474606,-0.9928567249357544
4.980499999999999,-5.621571130321333,-0.3632658491930918,-1.2240255843624033
4.984000000000002,-5.823978709004366,-0.4293143440763132,-1.383820949357996
4.987500000000004,-6.074323500922676,-0.5166698184678814,-1.5585301528118805
4.991,-6.2511620060639945,-0.5720648235969293,-1.6416217878408266
4.994500000000002,-6.470614470222006,-0.6359822714634658,-1.6703848139136932
4.9979999999999976,-6.5782087826197,-0.6785944851509074,-1.6256432985388185
5.0015,-6.661302162977898,-0.723336000525782,-1.4722410745932808
5.005000000000003,-6.649584022380008,-0.7755353077944284,-1.3167078036310582
5.008499999999998,-6.515355985596879,-0.8490415945714216,-1.065296615539779
5.0120000000000005,-6.324668292840988,-0.8778046206442881,-0.8692821779067997
5.015500000000003,-5.999752563301967,-0.8863270633817765,-0.630655526586379
5.018999999999998,-5.707860208539931,-0.8799356676609732,-0.4815136513449596
5.022500000000001,-5.3094399375531705,-0.8415838026776498,-0.3068061932203272
5.026000000000003,-5.0132872340870165,-0.7968422873027752,-0.1992101354933808
5.029499999999999,-4.609540218223168,-0.7318584432632703,-0.0905494269227178
5.033000000000001,-4.343215191673598,-0.6658099483800488,-0.0394165158270399
5.036500000000004,-4.086479004034484,-0.5837829641948193,-0.0340897709499532
5.039999999999999,-3.951186316407639,-0.5454328445407479,-0.0607217500061347
5.043500000000002,-3.849983399730748,-0.508147375730393,-0.1395530363309626
5.047000000000004,-3.8233514206745673,-0.4879067923950148,-0.2087989744038376
5.0505,-3.8041754881829046,-0.5006895838366213,-0.3206536355056502
5.054000000000002,-3.8041754881829046,-0.5134723752782278,-0.4133358547743051
5.057499999999997,-3.8222850245015976,-0.5326483077698895,-0.5507578440885826
5.061,-3.8158936287807945,-0.5486285424011496,-0.642373667184269
5.064500000000002,-3.805240139026621,-0.5699337765802444,-0.7648835633695069
5.067999999999998,-3.7924573475850143,-0.5880433128989375,-0.84584589671102
5.0715,-3.784999555691243,-0.6072192453905992,-0.9417220685108244
5.075000000000003,-3.7658253685288328,-0.6189373859884891,-0.9949877719524394
5.078499999999998,-3.732800248422597,-0.6210684330051742,-1.0503827770814873
5.082000000000001,-3.706168269366415,-0.6242641308655758,-1.0716880112605822
5.085500000000003,-3.653968962097768,-0.6242641308655758,-1.0823415010147557
5.088999999999999,-3.624139539851933,-0.6338512244467807,-1.0823415010147557
5.092500000000001,-3.6070946543769566,-0.6455693650446706,-1.065296615539779
5.096000000000004,-3.639055123639477,-0.6530271569384424,-1.0482517300648024
5.099499999999999,-3.7519761809142578,-0.6690056462404504,-1.0194887039919358
5.1030000000000015,-3.896855962122308,-0.6743323911175372,-0.984334282198266
5.106500000000004,-4.148265404884334,-0.6508961099217573,-0.9268082300525328
5.109999999999999,-4.379436009640235,-0.6274598287259775,-0.863955433029713
5.113500000000002,-4.701156041318854,-0.5827165680218508,-0.7659482142132235
5.116999999999997,-4.900366176812235,-0.5464974953844645,-0.6658099483800488
5.1205,-5.066552937528631,-0.4996249329929048,-0.5347793547865746
5.124000000000002,-5.132601432411852,-0.4602084171658648,-0.4548816722887781
5.127499999999998,-5.141123875149341,-0.42292294835551,-0.3760503859639502
5.131,-5.092120265741096,-0.4101401569139035,-0.3281114273994219
5.134500000000003,-4.970675020399574,-0.4165315526347067,-0.2961527034661538
5.137999999999998,-4.856689312281078,-0.4335764381096833,-0.2705853752536888
5.141500000000001,-4.692633598581367,-0.4634041150262664,-0.247149094057909
5.145000000000003,-4.566928004535726,-0.4825800475179281,-0.233299906443334
5.148499999999999,-4.402872290836015,-0.5049499325407395,-0.2183860679850424
5.152000000000001,-4.278233092963344,-0.5273215628928027,-0.1981454846496642
5.155500000000004,-4.114177379263634,-0.5411707505073777,-0.1683160624038291
5.158999999999999,-3.9756889937763873,-0.5379750526469761,-0.136357338470561
5.162500000000001,-3.795653045445416,-0.5273215628928027,-0.0767019846373948
5.166000000000004,-3.6529025659248,-0.5092120265741096,-0.02769837522915
5.169499999999999,-3.4718019667501125,-0.4911024902554164,0.0436768645311581
5.173000000000002,-3.380187888983678,-0.4623394641825499,0.083093380358198
5.176500000000004,-3.3578162586316145,-0.41120480775762,0.1129210572747811
5.18,-3.399362076146088,-0.3643322453660603,0.1278348957330726
5.183500000000002,-3.532525462085499,-0.2918906094327836,0.1374237346435295
5.186999999999998,-3.681665591997666,-0.2343645572870505,0.1406194325039311
5.1905,-3.921358639491056,-0.1672514115601126,0.124639197872671
5.194000000000003,-4.132286915582326,-0.1289012919060412,0.1086607085706629
5.197499999999998,-4.452940551087977,-0.1033339636935762,0.0756355884644262
5.2010000000000005,-4.722461275497949,-0.0937468701123714,0.0447432607041266
5.204500000000003,-5.076140031109836,-0.0703088435873395,0.0223716303520633
5.207999999999998,-5.316897729446942,-0.0372854688103548,0.0170448854749766
5.211500000000001,-5.570438219225654,-0.0074577918937717,0.0383501196540714
5.215000000000003,-5.7089266047129,0.0106534897541733,0.0628527970228197
5.218499999999999,-5.798411380791901,0.0404811666707564,0.0958761717998045
5.222000000000001,-5.813325219250193,0.0660484948832214,0.1033339636935762
5.225500000000004,-5.763256958998232,0.0756355884644262,0.0980072188164895
5.228999999999999,-5.683359276500435,0.0713752397603081,0.0980072188164895
5.232500000000002,-5.524630307677811,0.0479389585645282,0.0873537290623162
5.236000000000004,-5.371228083732273,0.0223716303520633,0.0756355884644262
5.2395,-5.137926431959688,-0.0223716303520633,0.0724398906040246
5.243000000000002,-4.9451076921871095,-0.0617864008498512,0.0703088435873395
5.2464999999999975,-4.678784410966791,-0.0980072188164895,0.0745709376207097
5.25,-4.4625293899984335,-0.1118564064310645,0.0884201252352847
5.2535000000000025,-4.159985290811477,-0.1289012919060412,0.1182478021518678
5.256999999999998,-3.9245543373514575,-0.1320969897664428,0.1416840833476476
5.2605,-3.599638607812437,-0.1406194325039311,0.1704471094205142
5.264000000000003,-3.358880909475331,-0.1395530363309626,0.1821652500184041
5.267499999999998,-3.082968789344556,-0.1118564064310645,0.1832316461913727
5.271000000000001,-2.929566565399018,-0.083093380358198,0.1736428072809158
5.274500000000003,-2.782555737174284,-0.0362208179666383,0.1715135055934827
5.277999999999999,-2.7058537525368886,0.0053267448770866,0.1842962970350892
5.281500000000001,-2.6302181640724625,0.0798976824977964,0.2141239739516723
5.285000000000004,-2.5801499038205016,0.1374237346435295,0.2439533961975074
5.288499999999999,-2.535406643116375,0.2237128128621291,0.2716500260974054
5.292000000000002,-2.5332755960996893,0.3068061932203272,0.2812388650078622
5.295500000000004,-2.5748231589434147,0.3898978282492732,0.2716500260974054
5.299,-2.646198398703723,0.43890318298677,0.2450180470412239
5.302500000000002,-2.814514461107552,0.4996249329929048,0.1949497867892626
5.305999999999997,-2.977505523963546,0.5464974953844645,0.150206526085136
5.3095,-3.2203925239880853,0.5912390107593392,0.0873537290623162
5.313000000000002,-3.4142759146043797,0.614677037284371,0.0458079115478431
5.316499999999998,-3.6592957069748553,0.6210684330051742,0.0010646508437165
5.32,-3.826547118534968,0.6210684330051742,-0.0383501196540714
5.323500000000003,-4.059847024978302,0.6157416881280875,-0.1022693128498597
5.326999999999998,-4.239881227980021,0.602958896686481,-0.1619246666830259
5.330500000000001,-4.5008795096525045,0.5731294744406459,-0.2322352555996175
5.334000000000003,-4.70222069216257,0.5582156359823544,-0.2780431671474606
5.337499999999999,-4.952565484080881,0.5411707505073777,-0.3068061932203272
5.341000000000001,-5.0814667759869225,0.5166698184678814,-0.2950880526224372
5.344500000000004,-5.124078989674365,0.4825800475179281,-0.2354309534600191
5.347999999999999,-5.055899447774458,0.4602084171658648,-0.1747092034538843
5.3515000000000015,-4.791705468241573,0.4293143440763132,-0.0596570991624181
5.355000000000004,-4.485965671194213,0.4048134120368167,0.01598023463126
5.358499999999999,-3.990602832234679,0.3622011983493752,0.1054650107102613
5.362000000000002,-3.6092257013936417,0.3206536355056502,0.1480754790684509
5.365499999999997,-3.123449956015312,0.2567361876391139,0.1757738542976009
5.369,-2.7953385286158903,0.2098636252475541,0.1896230419121759
5.372500000000002,-2.444857216193657,0.1757738542976009,0.1821652500184041
5.375999999999998,-2.263756617018969,0.1395530363309626,0.1619246666830259
5.3795,-2.0997009033192584,0.1086607085706629,0.1534022239455376
5.383000000000003,-2.0048893823631704,0.0841580312019145,0.1491418752414194
5.386499999999998,-1.904751116529996,0.0628527970228197,0.1534022239455376
5.390000000000001,-1.8301801789092855,0.0479389585645282,0.150206526085136
5.393500000000003,-1.7460221477073712,0.0223716303520633,0.138488385487246
5.396999999999999,-1.7332376109365126,0.0085224427374883,0.1150521042914662
5.400500000000001,-1.7992861058197342,-0.0202405833353782,0.0649838440395048
5.404000000000004,-1.9196649549882872,-0.041545817514473,0.01598023463126
5.407499999999999,-2.150833814414936,-0.0521993072686464,-0.0383501196540714
5.411000000000001,-2.359632788818774,-0.0511346564249298,-0.0862890782185996
5.414500000000004,-2.666438982039101,-0.0426122136874415,-0.150206526085136
5.417999999999999,-2.9008035393261515,-0.0351544217936697,-0.1960144376329791
5.421500000000002,-3.200151940652707,0.002131047016685,-0.2737810731140905
5.425000000000004,-3.4334518470960407,0.029827676916583,-0.3515477085952018
5.4285,-3.733866644595565,0.0532657034416149,-0.4506213235846599
5.432000000000002,-3.9501216655639215,0.0745709376207097,-0.517734469311598
5.4354999999999976,-4.195139712605147,0.1139874534477496,-0.605088198373914
5.439,-4.343215191673598,0.1597953649955928,-0.6636806466926157
5.442500000000003,-4.477443228456725,0.191754088928861,-0.7265316983861836
5.445999999999998,-4.546687421200348,0.2290395577392158,-0.7702103082465936
5.4495000000000005,-4.586103937027389,0.2780431671474606,-0.81069147491735
5.453000000000003,-4.576515098116931,0.3153286359578155,-0.8192139176548384
5.456499999999998,-4.471051832735921,0.3590055004889736,-0.7712749590903102
5.460000000000001,-4.316583212617416,0.3909642244222418,-0.6956393706258839
5.463500000000003,-4.008712368553372,0.4346410889533998,-0.5667380787198427
5.466999999999999,-3.722148503997675,0.4548816722887781,-0.4495549274116914
5.470500000000001,-3.25767799279844,0.4495549274116914,-0.300413052170272
5.474000000000004,-2.8709758624095683,0.4144005056180216,-0.1928187397725775
5.477499999999999,-2.3606974396624905,0.3675279432264619,-0.0894847760790012
5.481000000000002,-2.0059540332068866,0.3451563128743986,-0.0319587239332681
5.484500000000004,-1.6022070173430385,0.2982837504828389,0.0042603487041181
5.488,-1.390212345078799,0.2364956043037356,0.0117181405978899
5.491500000000002,-1.235743724960293,0.1257055940456395,-0.002131047016685
5.494999999999997,-1.21017814207708,0.0458079115478431,-0.0170448854749766
5.4985,-1.2517239595915532,-0.0458079115478431,-0.0383501196540714
5.502000000000002,-1.3209681523351764,-0.1161167551351827,-0.0532657034416149
5.505499999999998,-1.4583918869787058,-0.1960144376329791,-0.069244192743623
5.509,-1.6085984130638418,-0.233299906443334,-0.0767019846373948
5.512500000000003,-1.844029366523861,-0.260998281672484,-0.0916158230956863
5.515999999999998,-2.053892991771415,-0.2844345628682639,-0.1022693128498597
5.519500000000001,-2.3553724401146554,-0.3153286359578155,-0.1129210572747811
5.523000000000003,-2.60039048715588,-0.3334381722765087,-0.1182478021518678
5.526499999999999,-2.9103906329073563,-0.3526141047681703,-0.1342280367831279
5.530000000000001,-3.1554104252778323,-0.3440916620306821,-0.1448797812080492
5.533500000000004,-3.4718019667501125,-0.314262239784847,-0.1704471094205142
5.536999999999999,-3.691254430908124,-0.2578025838120824,-0.180035948330971
5.5405000000000015,-3.947990618547237,-0.1597953649955928,-0.1885583910684593
5.544000000000004,-4.090741098067854,-0.0862890782185996,-0.180035948330971
5.547499999999999,-4.205793202359319,0.0106534897541733,-0.1534022239455376
5.551000000000002,-4.224967389521729,0.0948115209560879,-0.1320969897664428
5.554499999999997,-4.13122226473861,0.2109282760912707,-0.0894847760790012
5.558,-3.9756889937763873,0.286565609884949,-0.0617864008498512
5.561500000000002,-3.66888280055606,0.3622011983493752,-0.0213052341790947
5.564999999999998,-3.379121492810709,0.3994866671597301,-0.0106534897541733
5.5685,-2.959394242315601,0.4474238803950063,-0.0202405833353782
5.572000000000003,-2.6376759559662344,0.4761869064678729,-0.0372854688103548
5.575499999999998,-2.221144403331528,0.5017542346803379,-0.069244192743623
5.579000000000001,-1.9377744913069803,0.5156034222949128,-0.096942567972773
5.582500000000003,-1.6117941109242435,0.5102766774178261,-0.1395530363309626
5.585999999999999,-1.402996881849658,0.4932317919428495,-0.152337573101821
5.589500000000001,-1.1899375587417018,0.4452945787075733,-0.1704471094205142
5.593000000000004,-1.0567741728022906,0.3994866671597301,-0.191754088928861
5.596499999999999,-0.9353306727900212,0.3238510786953038,-0.2183860679850424
5.600000000000001,-0.8714132249234848,0.2684543282370038,-0.2343645572870505
5.603500000000004,-0.8256053133756417,0.1842962970350892,-0.247149094057909
5.606999999999999,-0.80642938088398,0.1086607085706629,-0.2439533961975074
