time,Gyr_X,Gyr_Y,Gyr_Z
0.0,0.0042603487041181,0.0010646508437165,-0.0042603487041181
0.0035000000000025,0.002131047016685,0.0031956978604016,-0.0031956978604016
0.0070000000000014,0.0031956978604016,0.0031956978604016,-0.0053267448770866
0.0105000000000003,0.0063913957208032,0.0031956978604016,0.0
0.0140000000000028,0.0031956978604016,0.002131047016685,-0.0042603487041181
0.0175000000000018,0.0010646508437165,-0.0031956978604016,-0.002131047016685
0.0210000000000007,0.0042603487041181,-0.0117181405978899,-0.0010646508437165
0.0244999999999997,0.0042603487041181,-0.013849187614575,-0.0042603487041181
0.0280000000000022,0.0053267448770866,-0.0127827914416064,-0.0042603487041181
0.0315000000000011,0.0031956978604016,-0.013849187614575,-0.0031956978604016
0.0350000000000001,0.0053267448770866,-0.013849187614575,-0.0074577918937717
0.0385000000000026,0.002131047016685,-0.0149138384582915,-0.0074577918937717
0.0420000000000015,0.0010646508437165,-0.0149138384582915,-0.0042603487041181
0.0455000000000005,0.0053267448770866,-0.013849187614575,-0.002131047016685
0.0489999999999994,0.0074577918937717,-0.01598023463126,-0.002131047016685
0.0525000000000019,0.0095870935812048,-0.0191759324916617,-0.0042603487041181
0.0560000000000009,0.0117181405978899,-0.0191759324916617,-0.0042603487041181
0.0594999999999998,0.0106534897541733,-0.0149138384582915,-0.0042603487041181
0.0630000000000023,0.0074577918937717,-0.0095870935812048,-0.0063913957208032
0.0665000000000013,0.0117181405978899,-1.4350583375164553e-18,-0.0031956978604016
0.0700000000000002,0.0074577918937717,0.0010646508437165,-0.0063913957208032
0.0735000000000027,0.0042603487041181,0.0042603487041181,-0.0053267448770866
0.0770000000000017,0.0010646508437165,0.0117181405978899,-0.0053267448770866
0.0805000000000006,0.002131047016685,0.0106534897541733,-0.0053267448770866
0.0839999999999996,-0.0010646508437165,0.0149138384582915,-0.0031956978604016
0.0875000000000021,-0.0010646508437165,0.0149138384582915,-0.0053267448770866
0.091000000000001,2.348374434657923e-18,0.0191759324916617,-0.0042603487041181
0.0945,-0.002131047016685,0.0223716303520633,-0.0053267448770866
0.0980000000000025,-0.0031956978604016,0.0255673282124649,-0.0031956978604016
0.1015000000000014,-0.0010646508437165,0.029827676916583,0.0
0.1050000000000004,-0.0010646508437165,0.0245026773687483,-0.0010646508437165
0.1085000000000029,-0.0010646508437165,0.0213052341790947,0.0
0.1120000000000018,-0.0010646508437165,0.0191759324916617,-0.002131047016685
0.1155000000000008,0.0042603487041181,0.01598023463126,-0.0010646508437165
0.1189999999999997,0.0042603487041181,0.0149138384582915,-0.0042603487041181
0.1225000000000022,0.0031956978604016,0.0106534897541733,-0.002131047016685
0.1260000000000012,0.002131047016685,0.0149138384582915,-0.0031956978604016
0.1295000000000001,-0.0010646508437165,0.0106534897541733,-0.002131047016685
0.1330000000000026,-0.0010646508437165,0.0106534897541733,-0.0010646508437165
0.1365000000000016,0.0010646508437165,0.0074577918937717,0.0010646508437165
0.1400000000000005,0.0074577918937717,0.0085224427374883,0.0127827914416064
0.1434999999999995,0.0149138384582915,0.0031956978604016,-0.0031956978604016
0.147000000000002,0.01598023463126,-1.9570143190796347e-18,-0.0127827914416064
0.1505000000000009,0.0031956978604016,-3.913601155782886e-19,-0.0010646508437165
0.1539999999999999,-0.0010646508437165,0.0010646508437165,0.0010646508437165
0.1575000000000024,0.0106534897541733,-0.0042603487041181,-0.0042603487041181
0.1610000000000013,0.0117181405978899,-1.4350583375164553e-18,-0.013849187614575
0.1645000000000003,0.0063913957208032,0.0053267448770866,-0.002131047016685
0.1680000000000028,0.0042603487041181,0.0085224427374883,0.0010646508437165
0.1715000000000017,-0.0042603487041181,0.0042603487041181,-0.0042603487041181
0.1750000000000007,-0.013849187614575,0.002131047016685,-0.0074577918937717
0.1784999999999996,-0.0085224427374883,0.002131047016685,-0.0031956978604016
0.1820000000000021,-0.0063913957208032,0.0010646508437165,-0.0053267448770866
0.1855000000000011,-0.0031956978604016,-0.0053267448770866,-0.0063913957208032
0.189,-2.6097799078158957e-19,-0.002131047016685,-0.0074577918937717
0.1925000000000025,-0.0010646508437165,-0.0010646508437165,-0.002131047016685
0.1960000000000015,-0.0053267448770866,6.523381063598781e-19,-0.0074577918937717
0.1995000000000004,0.0042603487041181,0.0031956978604016,-0.0095870935812048
0.2029999999999994,0.0095870935812048,0.0031956978604016,-0.0063913957208032
0.2065000000000019,0.0074577918937717,0.0031956978604016,-0.002131047016685
0.2100000000000008,0.0095870935812048,0.002131047016685,-0.0031956978604016
0.2134999999999998,0.002131047016685,0.0010646508437165,-0.0074577918937717
0.2170000000000023,0.002131047016685,-0.002131047016685,-0.0053267448770866
0.2205000000000012,-0.002131047016685,-0.002131047016685,-0.0063913957208032
0.2240000000000002,-6.523381063598781e-19,-0.0053267448770866,-0.0042603487041181
0.2275000000000027,0.0031956978604016,-0.0031956978604016,-0.0010646508437165
0.2310000000000016,0.002131047016685,-2.6097799078158957e-19,-0.002131047016685
0.2345000000000006,-0.0010646508437165,-0.0053267448770866,0.0
0.2379999999999995,-9.133160971414677e-19,-0.0074577918937717,-0.002131047016685
0.241500000000002,0.0010646508437165,-0.0095870935812048,-0.002131047016685
0.245000000000001,0.0085224427374883,-0.0074577918937717,-0.0010646508437165
0.2484999999999999,0.0095870935812048,-0.0095870935812048,-0.0031956978604016
0.2520000000000024,0.0106534897541733,-0.002131047016685,-0.0031956978604016
0.2555000000000014,0.0074577918937717,0.002131047016685,-0.002131047016685
0.2590000000000003,0.0085224427374883,0.0042603487041181,-0.0031956978604016
0.2625000000000028,0.0085224427374883,0.0106534897541733,-0.0053267448770866
0.2660000000000018,0.0074577918937717,0.0117181405978899,-0.0042603487041181
0.2695000000000007,0.0010646508437165,0.0117181405978899,-0.0053267448770866
0.2729999999999997,9.133160971414677e-19,0.0074577918937717,-0.0053267448770866
0.2765000000000022,-0.0010646508437165,0.0053267448770866,-0.0010646508437165
0.2800000000000011,-0.0042603487041181,0.0063913957208032,-0.0042603487041181
0.2835000000000001,-0.0074577918937717,0.0031956978604016,-0.0063913957208032
0.2870000000000026,-0.0031956978604016,0.0031956978604016,-0.0042603487041181
0.2905000000000015,6.523381063598781e-19,0.0053267448770866,-0.0042603487041181
0.2940000000000005,-0.002131047016685,0.0042603487041181,-0.0031956978604016
0.2974999999999994,0.0031956978604016,0.0042603487041181,-0.002131047016685
0.3010000000000019,0.0031956978604016,0.0031956978604016,-0.0042603487041181
0.3045000000000009,0.0042603487041181,-0.0010646508437165,-0.0085224427374883
0.3079999999999998,0.0063913957208032,-0.0010646508437165,-0.0063913957208032
0.3115000000000023,0.0053267448770866,-6.523381063598781e-19,-0.002131047016685
0.3150000000000013,0.0085224427374883,0.002131047016685,-0.0042603487041181
0.3185000000000002,0.0074577918937717,0.0053267448770866,-0.002131047016685
0.3220000000000027,0.002131047016685,0.0063913957208032,-0.002131047016685
0.3255000000000017,0.0031956978604016,0.0042603487041181,0.0
0.3290000000000006,3.913601155782886e-19,0.0031956978604016,-0.002131047016685
0.3324999999999996,0.0010646508437165,-0.0063913957208032,-0.002131047016685
0.3360000000000021,0.002131047016685,-0.0117181405978899,-0.002131047016685
0.339500000000001,-0.0010646508437165,-0.013849187614575,0.0
0.3429999999999999,0.0010646508437165,-0.0095870935812048,-0.002131047016685
0.3465000000000025,0.0042603487041181,-0.0074577918937717,-0.0063913957208032
0.3500000000000014,0.0053267448770866,-0.0010646508437165,-0.0042603487041181
0.3535000000000003,0.0031956978604016,0.0106534897541733,-0.0042603487041181
0.3570000000000028,0.0063913957208032,0.013849187614575,-0.0031956978604016
0.3605000000000018,0.0042603487041181,0.013849187614575,-0.0042603487041181
0.3640000000000007,0.0053267448770866,0.0106534897541733,-0.0074577918937717
0.3674999999999997,0.0053267448770866,0.0063913957208032,-0.0063913957208032
0.3710000000000022,0.0053267448770866,-0.0010646508437165,-0.0031956978604016
0.3745000000000011,0.0042603487041181,-5.217422403749877e-19,-0.0053267448770866
0.3780000000000001,0.0042603487041181,-5.217422403749877e-19,-0.002131047016685
0.3815000000000026,0.0053267448770866,0.0031956978604016,-0.002131047016685
0.3850000000000015,0.0031956978604016,0.0053267448770866,-0.0010646508437165
0.3885000000000005,0.002131047016685,0.0074577918937717,-0.0042603487041181
0.3919999999999994,0.0031956978604016,0.0063913957208032,-0.0063913957208032
0.3955000000000019,0.0010646508437165,0.0053267448770866,-0.0063913957208032
0.3990000000000009,0.002131047016685,0.0042603487041181,-0.0053267448770866
0.4024999999999998,0.0010646508437165,-1.3038212479669908e-19,-0.0053267448770866
0.4060000000000023,0.002131047016685,-0.0031956978604016,-0.0010646508437165
0.4095000000000013,0.002131047016685,-0.0042603487041181,-0.0031956978604016
0.4130000000000002,0.0053267448770866,-0.0085224427374883,-0.0010646508437165
0.4165000000000027,0.0042603487041181,-0.0063913957208032,0.0
0.4200000000000017,0.0031956978604016,-0.002131047016685,-0.002131047016685
0.4235000000000006,0.0063913957208032,-0.002131047016685,-0.0063913957208032
0.4269999999999996,0.0042603487041181,-5.217422403749877e-19,-0.0010646508437165
0.4305000000000021,0.0085224427374883,-1.0436982219381666e-18,-0.0053267448770866
0.434000000000001,0.0085224427374883,-0.0010646508437165,-0.002131047016685
0.4375,0.0085224427374883,-1.0436982219381666e-18,-0.0042603487041181
0.4410000000000025,0.0095870935812048,-0.0010646508437165,0.0
0.4445000000000014,0.0095870935812048,-1.1740803467348658e-18,-0.0031956978604016
0.4480000000000004,0.0063913957208032,0.0010646508437165,-0.0053267448770866
0.4515000000000029,0.0042603487041181,0.002131047016685,-0.0063913957208032
0.4550000000000018,0.0031956978604016,0.002131047016685,-0.0063913957208032
0.4585000000000008,0.0074577918937717,-0.0010646508437165,-0.0053267448770866
0.4619999999999997,0.0117181405978899,-0.0085224427374883,-0.0063913957208032
0.4655000000000022,0.013849187614575,-0.01598023463126,-0.0053267448770866
0.4690000000000012,0.0127827914416064,-0.0149138384582915,-0.0095870935812048
0.4725000000000001,0.0074577918937717,-0.0117181405978899,-0.0085224427374883
0.4760000000000026,0.0106534897541733,-0.0074577918937717,-0.0053267448770866
0.4795000000000016,0.0095870935812048,0.0053267448770866,-0.0053267448770866
0.4830000000000005,0.0042603487041181,0.013849187614575,-0.0042603487041181
0.4864999999999995,0.0053267448770866,0.0245026773687483,-0.0074577918937717
0.490000000000002,0.0042603487041181,0.02769837522915,-0.0031956978604016
0.4935000000000009,0.0053267448770866,0.0266319790561814,-0.0074577918937717
0.4969999999999999,3.5224547813927895e-18,0.0287630260728665,-0.002131047016685
0.5005000000000024,-0.0031956978604016,0.0223716303520633,-0.002131047016685
0.5040000000000013,-0.0042603487041181,0.0191759324916617,-0.0063913957208032
0.5075000000000003,-0.0031956978604016,0.0191759324916617,-0.0031956978604016
0.5110000000000028,-0.0063913957208032,0.0255673282124649,-0.0031956978604016
0.5145000000000017,-0.0063913957208032,0.029827676916583,-0.002131047016685
0.5180000000000007,-0.0074577918937717,0.0319587239332681,-0.0031956978604016
0.5214999999999996,-0.0074577918937717,0.0308940730895516,-0.0053267448770866
0.5250000000000021,-0.013849187614575,0.0245026773687483,-0.0031956978604016
0.5285000000000011,-0.0170448854749766,0.002131047016685,0.0
0.532,-0.013849187614575,-0.0074577918937717,0.0
0.5355000000000025,-0.013849187614575,-0.0149138384582915,-0.002131047016685
0.5390000000000015,-0.0117181405978899,-0.0213052341790947,-0.0031956978604016
0.5425000000000004,-0.0106534897541733,-0.0149138384582915,-0.0053267448770866
0.5460000000000029,-0.0191759324916617,-0.0053267448770866,-0.0074577918937717
0.5495000000000019,-0.0202405833353782,0.0053267448770866,-0.0074577918937717
0.5530000000000008,-0.0202405833353782,0.0117181405978899,-0.0095870935812048
0.5564999999999998,-0.0149138384582915,0.0245026773687483,-0.0095870935812048
0.5600000000000023,-0.0085224427374883,0.0202405833353782,-0.0063913957208032
0.5635000000000012,7.827202311565772e-19,0.0063913957208032,-0.0042603487041181
0.5670000000000002,0.0053267448770866,-6.523381063598781e-19,-0.0063913957208032
0.5705000000000027,0.013849187614575,-0.0085224427374883,-0.0085224427374883
0.5740000000000016,0.0170448854749766,-0.0095870935812048,-0.0085224427374883
0.5775000000000006,0.0245026773687483,-0.0042603487041181,-0.0095870935812048
0.5809999999999995,0.0266319790561814,0.0031956978604016,-0.0085224427374883
0.584500000000002,0.0191759324916617,0.0127827914416064,-0.0085224427374883
0.588000000000001,0.01598023463126,0.01598023463126,-0.0095870935812048
0.5914999999999999,0.0031956978604016,0.0117181405978899,-0.013849187614575
0.5950000000000024,-0.0010646508437165,0.0063913957208032,-0.013849187614575
0.5985000000000014,-0.0127827914416064,0.0031956978604016,-0.0074577918937717
0.6020000000000003,-0.0191759324916617,2.348374434657923e-18,-0.0063913957208032
0.6055000000000028,-0.0255673282124649,3.1310946658145007e-18,-0.0085224427374883
0.6090000000000018,-0.0245026773687483,3.000712541017801e-18,-0.0042603487041181
0.6125000000000007,-0.0266319790561814,0.0042603487041181,-0.0031956978604016
0.6159999999999997,-0.0319587239332681,0.0063913957208032,-0.002131047016685
0.6195000000000022,-0.0319587239332681,0.0074577918937717,-0.0031956978604016
0.6230000000000011,-0.0394165158270399,0.0095870935812048,-0.0063913957208032
0.6265000000000001,-0.0426122136874415,-0.0031956978604016,-0.0117181405978899
0.6300000000000026,-0.0585907029894496,-0.0074577918937717,-0.0181095363186931
0.6335000000000015,-0.0639174478665363,-0.0106534897541733,-0.0202405833353782
0.6370000000000005,-0.0703088435873395,-0.0063913957208032,-0.0191759324916617
0.6404999999999994,-0.0756355884644262,0.0085224427374883,-0.0127827914416064
0.6440000000000019,-0.0852244273748831,0.0213052341790947,-0.0117181405978899
0.6475000000000009,-0.0852244273748831,0.0351544217936698,-0.002131047016685
0.6509999999999998,-0.0777666354811113,0.041545817514473,0.0
0.6545000000000023,-0.0735062867769931,0.041545817514473,0.0
0.6580000000000013,-0.0649838440395048,0.0436768645311581,-0.0042603487041181
0.6615000000000002,-0.0447432607041266,0.0404811666707564,-0.0085224427374883
0.6650000000000027,-0.02769837522915,0.0383501196540714,-0.0095870935812048
0.6685000000000016,-0.0031956978604016,0.0383501196540714,-0.013849187614575
0.6720000000000006,0.0063913957208032,0.0447432607041266,-0.0149138384582915
0.6754999999999995,0.0266319790561814,0.0532657034416149,-0.0181095363186931
0.679000000000002,0.0319587239332681,0.0596570991624181,-0.0149138384582915
0.682500000000001,0.041545817514473,0.0660484948832214,-0.0181095363186931
0.6859999999999999,0.0458079115478431,0.0671131457269379,-0.0181095363186931
0.6895000000000024,0.0511346564249298,0.0735062867769931,-0.0213052341790947
0.6930000000000014,0.0511346564249298,0.0745709376207097,-0.0191759324916617
0.6965000000000003,0.0500682602519613,0.0756355884644262,-0.0213052341790947
0.7000000000000028,0.0479389585645282,0.0745709376207097,-0.0213052341790947
0.7035000000000018,0.0436768645311581,0.0788312863248278,-0.0234362811957798
0.7070000000000007,0.0394165158270399,0.0809623333415129,-0.0223716303520633
0.7104999999999997,0.0287630260728665,0.0798976824977964,-0.01598023463126
0.7140000000000022,0.0234362811957798,0.0703088435873395,-0.0074577918937717
0.7175000000000011,0.0127827914416064,0.0479389585645282,-0.0031956978604016
0.7210000000000001,0.0074577918937717,0.0319587239332681,0.0042603487041181
0.7245000000000026,0.0031956978604016,0.0063913957208032,0.0085224427374883
0.7280000000000015,0.0010646508437165,0.0031956978604016,0.0106534897541733
0.7315000000000005,-0.0127827914416064,1.5654404623131544e-18,0.0074577918937717
0.7349999999999994,-0.0266319790561814,0.0031956978604016,0.0063913957208032
0.7385000000000019,-0.0404811666707564,0.0063913957208032,0.0117181405978899
0.7420000000000009,-0.0532657034416149,0.0074577918937717,0.0191759324916617
0.7454999999999998,-0.069244192743623,0.002131047016685,0.0223716303520633
0.7490000000000023,-0.0884201252352847,-0.0053267448770866,0.0202405833353782
0.7525000000000013,-0.110790010258096,-0.0223716303520633,0.0191759324916617
0.7560000000000002,-0.1278348957330726,-0.0255673282124649,0.0213052341790947
0.7595000000000027,-0.1491418752414194,-0.0394165158270399,0.02769837522915
0.7630000000000017,-0.1640557136997109,-0.0447432607041266,0.02769837522915
0.7665000000000006,-0.1811005991746876,-0.0468725623915596,0.0202405833353782
0.7699999999999996,-0.1928187397725775,-0.0468725623915596,0.0223716303520633
0.7735000000000021,-0.2024058333537824,-0.0447432607041266,0.0127827914416064
0.777000000000001,-0.2034722295267509,-0.0415458175144729,0.0085224427374883
0.7805,-0.2013411825100658,-0.029827676916583,0.0063913957208032
0.7840000000000025,-0.191754088928861,-0.0255673282124649,0.0085224427374883
0.7875000000000014,-0.1811005991746876,-0.0223716303520632,0.0117181405978899
0.7910000000000004,-0.1704471094205142,-0.0234362811957798,0.0063913957208032
0.7945000000000029,-0.1470108282247343,-0.0276983752291499,-0.002131047016685
0.7980000000000018,-0.1150521042914662,-0.0276983752291499,-0.0053267448770866
0.8015000000000008,-0.0585907029894496,-0.02769837522915,-0.0085224427374883
0.8049999999999997,-0.013849187614575,-0.0234362811957798,-0.0106534897541733
0.8085000000000022,0.0404811666707564,-0.0181095363186931,-0.0085224427374883
0.8120000000000012,0.0788312863248278,-0.0170448854749766,-0.0085224427374883
0.8155000000000001,0.1299659427497577,-0.0127827914416064,-0.0127827914416064
0.8190000000000026,0.1619246666830259,-1.9830052475636974e-17,-0.0181095363186931
0.8225000000000016,0.1949497867892626,0.0149138384582915,-0.0255673282124649
0.8260000000000005,0.2205171150017275,0.0213052341790947,-0.0308940730895516
0.8294999999999995,0.2503447919183106,0.0287630260728665,-0.0394165158270399
0.833000000000002,0.2780431671474606,0.0340897709499532,-0.0426122136874415
0.8365000000000009,0.3089354949077603,0.0394165158270399,-0.0511346564249298
0.8399999999999999,0.3302424744161071,0.0383501196540713,-0.0543303542853314
0.8435000000000024,0.3483520107348002,0.0362208179666382,-0.055395005129048
0.8470000000000013,0.3600701513326901,0.0458079115478431,-0.0521993072686464
0.8505000000000003,0.3622011983493752,0.0458079115478431,-0.0468725623915597
0.8540000000000028,0.3579391043160051,0.0319587239332681,-0.041545817514473
0.8575000000000017,0.3174579376452486,-0.0085224427374883,-0.02769837522915
0.8610000000000007,0.2695207244099723,-0.0564614013020165,-0.0245026773687483
0.8644999999999996,0.1970790884766956,-0.1203788491685529,-0.0234362811957798
0.8680000000000021,0.1395530363309625,-0.1427504795206162,-0.0191759324916617
0.871500000000001,0.0862890782185996,-0.1352926876268444,-0.0127827914416064
0.875,0.0639174478665363,-0.1054650107102613,-0.002131047016685
0.8785000000000025,0.055395005129048,-0.0649838440395048,0.0149138384582915
0.8820000000000014,0.0607217500061347,-0.0191759324916617,0.029827676916583
0.8855000000000004,0.0703088435873395,0.0308940730895516,0.0362208179666383
0.8890000000000029,0.0756355884644262,0.0660484948832214,0.029827676916583
0.8925000000000018,0.0426122136874415,0.0958761717998045,0.0266319790561814
0.8960000000000008,-0.0053267448770866,0.1043986145372928,0.0234362811957798
0.8994999999999997,-0.0809623333415129,0.1139874534477496,0.029827676916583
0.9030000000000022,-0.1395530363309625,0.1171831513081513,0.0234362811957798
0.9065000000000012,-0.2087989744038376,0.124639197872671,0.0085224427374883
0.91,-0.2396913021641372,0.1310323389227263,0.0031956978604016
0.9135000000000026,-0.2428870000245388,0.1310323389227263,-0.0095870935812048
0.9170000000000016,-0.219450718828759,0.1289012919060412,-0.0170448854749766
0.9205000000000004,-0.1725781564371993,0.1257055940456396,-0.0255673282124649
0.9239999999999996,-0.1193124529955843,0.1289012919060412,-0.0404811666707564
0.927500000000002,-0.0543303542853314,0.1331616406101593,-0.0383501196540714
0.9310000000000008,1.5263899472306018e-17,0.124639197872671,-0.0340897709499532
0.9345,0.0607217500061347,0.1150521042914661,-0.0351544217936697
0.9380000000000024,0.0862890782185996,0.0980072188164895,-0.0362208179666383
0.9415000000000012,0.0894847760790013,0.0681795418999064,-0.0383501196540714
0.9450000000000004,0.0735062867769931,0.0447432607041266,-0.041545817514473
0.9485000000000028,0.0458079115478431,0.0245026773687483,-0.0426122136874415
0.9520000000000016,0.0266319790561814,0.0234362811957798,-0.041545817514473
0.9555000000000008,0.01598023463126,0.02769837522915,-0.0319587239332681
0.9589999999999996,0.0117181405978899,0.0351544217936697,-0.0266319790561814
0.962500000000002,0.0287630260728665,0.0532657034416149,-0.0191759324916617
0.9660000000000012,0.0436768645311581,0.0713752397603081,-0.0234362811957798
0.9695,0.0607217500061347,0.0937468701123714,-0.0287630260728665
0.9730000000000024,0.0639174478665363,0.096942567972773,-0.0372854688103548
0.9765000000000016,0.0703088435873395,0.0937468701123714,-0.0351544217936697
0.9800000000000004,0.0767019846373948,0.0788312863248278,-0.0287630260728665
0.9835000000000028,0.0862890782185996,0.0585907029894496,-0.013849187614575
0.987000000000002,0.1033339636935762,0.0308940730895516,-0.0095870935812048
0.9905000000000008,0.1150521042914662,0.0117181405978899,-0.0095870935812048
0.9939999999999998,0.1203788491685528,0.002131047016685,-0.0127827914416064
0.9975000000000024,0.1267702448893561,0.0010646508437165,-0.0170448854749766
1.0010000000000012,0.1331616406101593,0.0074577918937717,-0.013849187614575
1.0045000000000002,0.1299659427497577,0.0149138384582915,-0.0095870935812048
1.008000000000003,0.1161167551351827,0.0234362811957798,-0.0053267448770866
1.0115000000000016,0.083093380358198,0.0191759324916616,-0.0106534897541733
1.0150000000000006,0.0532657034416149,0.0095870935812048,-0.0085224427374883
1.0184999999999995,0.0106534897541733,0.0074577918937717,-0.0149138384582915
1.022000000000002,-0.0181095363186931,0.0031956978604016,-0.0191759324916617
1.025500000000001,-0.0447432607041266,0.0127827914416064,-0.0170448854749766
1.029,-0.0649838440395048,0.0255673282124649,-0.01598023463126
1.0325000000000024,-0.0756355884644262,0.0436768645311581,-0.01598023463126
1.0360000000000014,-0.0788312863248278,0.0607217500061347,-0.013849187614575
1.0395000000000003,-0.0884201252352847,0.0798976824977964,-0.0170448854749766
1.0430000000000028,-0.0948115209560879,0.0905494269227178,-0.0191759324916617
1.0465000000000018,-0.1054650107102613,0.0937468701123714,-0.0255673282124649
1.0500000000000007,-0.1022693128498597,0.0980072188164895,-0.0255673282124649
1.0534999999999997,-0.0777666354811113,0.1054650107102613,-0.029827676916583
1.0570000000000022,-0.0521993072686464,0.1065296615539778,-0.0308940730895516
1.060500000000001,-0.0223716303520633,0.1129210572747811,-0.0234362811957798
1.064,-0.0170448854749766,0.1139874534477496,-0.0213052341790947
1.0675000000000026,-0.002131047016685,0.1065296615539778,-0.0127827914416064
1.0710000000000015,0.002131047016685,0.1001382658331746,0.0
1.0745000000000005,0.0127827914416064,0.0873537290623162,0.002131047016685
1.0779999999999994,0.0383501196540714,0.0798976824977964,0.0010646508437165
1.081500000000002,0.0585907029894496,0.0735062867769931,0.0042603487041181
1.0850000000000009,0.0767019846373948,0.0809623333415129,0.0117181405978899
1.0884999999999998,0.0745709376207097,0.0916158230956863,0.0191759324916617
1.0920000000000023,0.069244192743623,0.1022693128498597,0.0223716303520633
1.0955000000000013,0.0511346564249298,0.1001382658331746,0.0170448854749766
1.0990000000000002,0.0383501196540714,0.096942567972773,0.013849187614575
1.1025000000000027,0.0351544217936698,0.0948115209560879,0.0106534897541733
1.1060000000000016,0.0266319790561814,0.0873537290623162,0.0170448854749766
1.1095000000000006,0.0117181405978899,0.0798976824977964,0.0202405833353782
1.1129999999999995,9.915026237818488e-18,0.0809623333415129,0.0202405833353782
1.116500000000002,-0.0202405833353782,0.0852244273748831,0.0191759324916617
1.120000000000001,-0.0351544217936697,0.0894847760790012,0.0181095363186931
1.1235,-0.0479389585645282,0.0937468701123714,0.013849187614575
1.1270000000000024,-0.0564614013020165,0.096942567972773,0.013849187614575
1.1305000000000014,-0.0564614013020165,0.1001382658331746,0.0170448854749766
1.1340000000000003,-0.0543303542853314,0.1086607085706629,0.01598023463126
1.1375000000000028,-0.0308940730895516,0.1182478021518678,0.0170448854749766
1.1410000000000018,-0.0117181405978899,0.1161167551351827,0.0181095363186931
1.1445000000000007,0.0223716303520633,0.110790010258096,0.0234362811957798
1.1479999999999997,0.055395005129048,0.1022693128498597,0.0266319790561814
1.1515000000000022,0.1033339636935763,0.0894847760790012,0.0287630260728665
1.1550000000000011,0.1395530363309626,0.0798976824977964,0.0234362811957798
1.1585,0.1874919948954908,0.0617864008498512,0.0213052341790947
1.1620000000000026,0.2215817658454441,0.0479389585645282,0.0213052341790947
1.1655000000000015,0.2695207244099723,0.0362208179666382,0.0117181405978899
1.1690000000000005,0.2961527034661538,0.0287630260728665,0.0106534897541733
1.1724999999999994,0.3195889846619337,0.0191759324916616,0.0085224427374883
1.176000000000002,0.3185243338182171,0.0245026773687483,0.0010646508437165
1.1795000000000009,0.2929570056057522,0.0255673282124649,-0.0106534897541733
1.1829999999999998,0.2769767709744921,0.0138491876145749,-0.0095870935812048
1.1865000000000023,0.2641939795328856,0.0170448854749765,0.0010646508437165
1.1900000000000013,0.2695207244099723,0.0106534897541733,0.0117181405978899
1.1935000000000002,0.286565609884949,0.0074577918937717,0.0191759324916617
1.1970000000000027,0.3110665419244454,0.0063913957208031,0.0223716303520633
1.2005000000000017,0.3472873598910836,-0.0031956978604016,0.0245026773687483
1.2040000000000006,0.3611348021764067,-0.0191759324916617,0.029827676916583
1.2074999999999996,0.3771150368076668,-0.0351544217936698,0.0287630260728665
1.211000000000002,0.3781796876513833,-0.0490036094082448,0.0266319790561814
1.214500000000001,0.3749839897909817,-0.067113145726938,0.0213052341790947
1.218,0.369657244913895,-0.0745709376207097,0.013849187614575
1.2215000000000025,0.3653968962097769,-0.0873537290623162,0.0074577918937717
1.2250000000000014,0.3717882919305801,-0.0852244273748831,0.0042603487041181
1.2285000000000004,0.3877685265618402,-0.0649838440395049,0.0
1.2320000000000029,0.3845728287014385,-0.0532657034416149,-0.0042603487041181
1.2355000000000018,0.3600701513326901,-0.0351544217936698,-0.013849187614575
1.2390000000000008,0.3398295679973119,-0.0234362811957799,-0.0149138384582915
1.2424999999999995,0.2950880526224372,-0.0053267448770867,-0.01598023463126
1.2460000000000022,0.2599318854995155,0.0095870935812048,-0.0245026773687483
1.2495000000000012,0.205601531214184,0.0340897709499532,-0.029827676916583
1.253,0.1619246666830259,0.0564614013020165,-0.0330233747769847
1.2565000000000026,0.0873537290623162,0.0862890782185996,-0.029827676916583
1.2600000000000016,0.0245026773687484,0.1097253594143795,-0.029827676916583
1.2635000000000003,-0.0564614013020165,0.1342280367831279,-0.02769837522915
1.2669999999999997,-0.124639197872671,0.1534022239455376,-0.0234362811957798
1.270500000000002,-0.2173214171413258,0.1757738542976009,-0.0202405833353782
1.274000000000001,-0.2844345628682639,0.1885583910684594,-0.0181095363186931
1.2775,-0.3643322453660603,0.2109282760912707,-0.013849187614575
1.2810000000000024,-0.4165315526347067,0.2290395577392159,-0.0095870935812048
1.2845000000000013,-0.4719265577637547,0.2599318854995155,-0.01598023463126
1.2880000000000005,-0.4985585368199361,0.286565609884949,-0.0223716303520633
1.2915000000000028,-0.5294526099094878,0.3217200316786188,-0.0266319790561814
1.2950000000000017,-0.5464974953844645,0.3462209637181152,-0.0223716303520633
1.2985000000000009,-0.5624759846864725,0.3643322453660604,-0.0170448854749766
1.3019999999999996,-0.5603466829990394,0.3845728287014386,-0.0223716303520633
1.305500000000002,-0.5507578440885826,0.4037470158638483,-0.0170448854749766
1.309000000000001,-0.5401060996636612,0.4175962034784233,-0.0255673282124649
1.3125,-0.5124077244345112,0.4271832970596281,-0.0213052341790947
1.3160000000000025,-0.4932317919428495,0.4303807402492817,-0.0170448854749766
1.3195000000000014,-0.4495549274116914,0.4207919013388249,-0.0181095363186931
1.3230000000000004,-0.397355620143045,0.3888331774055568,-0.0245026773687483
1.326500000000003,-0.2876302607286655,0.3270467765557054,-0.0383501196540714
1.3300000000000018,-0.1576643179789077,0.2460844432141925,-0.041545817514473
1.3335000000000008,0.0319587239332681,0.1395530363309626,-0.02769837522915
1.3369999999999995,0.1406194325039311,0.0767019846373947,-0.0106534897541733
1.3405000000000022,0.1938833906162941,0.0106534897541733,-0.0042603487041181
1.3440000000000012,0.2002765316663493,-0.0202405833353782,-0.0053267448770866
1.3475,0.2173214171413259,-0.0330233747769847,-0.0031956978604016
1.3510000000000026,0.2364956043037356,-0.0298276769165831,0.0
1.3545000000000016,0.2599318854995155,-0.0127827914416065,0.0010646508437165
1.3580000000000003,0.2652586303766022,-0.0021310470166851,0.0
1.3614999999999997,0.2546051406224288,0.0010646508437165,-0.0010646508437165
1.365000000000002,0.2375620004767041,0.0053267448770866,-0.002131047016685
1.368500000000001,0.1981454846496642,0.0181095363186931,-0.0053267448770866
1.372,0.1619246666830259,0.0223716303520632,-0.0063913957208032
1.3755000000000024,0.110790010258096,0.0383501196540713,-0.0074577918937717
1.3790000000000011,0.0724398906040246,0.0564614013020165,-0.0042603487041181
1.3825000000000005,0.0245026773687484,0.0852244273748831,-0.0063913957208032
1.3860000000000028,-0.0053267448770866,0.1012029166768912,-0.0031956978604016
1.3895000000000015,-0.0468725623915597,0.1161167551351827,-0.0063913957208032
1.393000000000001,-0.0639174478665363,0.1310323389227262,-0.0042603487041181
1.3964999999999996,-0.0809623333415129,0.1491418752414194,-0.0053267448770866
1.400000000000002,-0.0958761717998044,0.1565979218059392,-0.0085224427374883
1.403500000000001,-0.1118564064310645,0.166186760716396,-0.0053267448770866
1.407,-0.1203788491685528,0.1725781564371993,-0.0085224427374883
1.4105000000000023,-0.1310323389227262,0.1853609478788058,-0.0170448854749766
1.4140000000000017,-0.1363573384705609,0.1906876927558924,-0.0202405833353782
1.4175000000000004,-0.1331616406101593,0.1874919948954908,-0.0223716303520633
1.4209999999999994,-0.1363573384705609,0.1885583910684594,-0.0245026773687483
1.424500000000002,-0.1470108282247343,0.1853609478788058,-0.02769837522915
1.4280000000000008,-0.1534022239455376,0.1874919948954908,-0.0287630260728665
1.4314999999999998,-0.1565979218059392,0.1938833906162941,-0.0266319790561814
1.4350000000000025,-0.1587289688226242,0.1949497867892626,-0.0191759324916617
1.4385000000000012,-0.1651203645434275,0.1811005991746876,-0.0245026773687483
1.4420000000000002,-0.1693824585767976,0.1576643179789078,-0.0245026773687483
1.445500000000003,-0.1768385051413174,0.1299659427497577,-0.0170448854749766
1.4490000000000016,-0.1992101354933808,0.1043986145372928,-0.0170448854749766
1.4525000000000006,-0.2119946722642392,0.0788312863248279,-0.0149138384582915
1.4559999999999995,-0.2024058333537824,0.0660484948832214,-0.013849187614575
1.459500000000002,-0.1768385051413174,0.0521993072686464,-0.0042603487041181
1.463000000000001,-0.1427504795206162,0.0521993072686464,-0.0010646508437165
1.4665,-0.1012029166768912,0.0468725623915597,0.0095870935812048
1.4700000000000024,-0.083093380358198,0.0372854688103548,0.013849187614575
1.4735000000000014,-0.0905494269227178,0.0170448854749766,0.0085224427374883
1.4770000000000003,-0.0958761717998045,0.0117181405978899,0.002131047016685
1.4805000000000028,-0.1012029166768912,-0.0042603487041181,-0.0095870935812048
1.4840000000000018,-0.0905494269227178,-0.0138491876145749,-0.0170448854749766
1.4875000000000007,-0.0724398906040246,-0.0202405833353782,-0.0330233747769847
1.4909999999999997,-0.0703088435873395,-0.0266319790561814,-0.0447432607041266
1.4945000000000022,-0.0980072188164895,-0.0500682602519613,-0.0628527970228197
1.498000000000001,-0.1310323389227262,-0.0745709376207097,-0.0798976824977964
1.5015,-0.1853609478788057,-0.1129210572747811,-0.0937468701123714
1.5050000000000026,-0.2322352555996175,-0.1374237346435295,-0.0990718696602061
1.5085000000000015,-0.2823035158515788,-0.1640557136997109,-0.110790010258096
1.5120000000000005,-0.3068061932203272,-0.1789695521580025,-0.1171831513081512
1.5154999999999994,-0.3291760782431385,-0.1970790884766956,-0.1235745470289545
1.519000000000002,-0.3334381722765087,-0.2056015312141839,-0.1235745470289545
1.5225000000000009,-0.3313071252598236,-0.2226464166891606,-0.1267702448893561
1.5259999999999998,-0.3185243338182172,-0.235430953460019,-0.1289012919060412
1.5295000000000023,-0.2950880526224373,-0.2620629325162005,-0.138488385487246
1.5330000000000013,-0.2684543282370039,-0.274847469287059,-0.1470108282247343
1.5365000000000002,-0.2290395577392159,-0.288694911572382,-0.1565979218059392
1.5400000000000027,-0.1981454846496642,-0.300413052170272,-0.1597953649955928
1.5435000000000016,-0.150206526085136,-0.3131975889411305,-0.1565979218059392
1.5470000000000006,-0.1182478021518678,-0.3302424744161071,-0.1512729222581045
1.5504999999999995,-0.0767019846373948,-0.3408942188410284,-0.1448797812080492
1.554000000000002,-0.0564614013020166,-0.3494166615785167,-0.1374237346435295
1.557500000000001,-0.0170448854749766,-0.3803107346680683,-0.1491418752414194
1.561,0.0031956978604015,-0.3930952714389268,-0.1576643179789077
1.5645000000000024,0.0213052341790947,-0.4165315526347067,-0.1715135055934827
1.5680000000000014,0.0319587239332681,-0.4293143440763132,-0.1768385051413174
1.5715000000000003,0.0415458175144729,-0.4325100419367148,-0.1906876927558924
1.5750000000000028,0.0394165158270398,-0.4325100419367148,-0.1992101354933808
1.5785000000000018,0.0319587239332681,-0.4282496932325966,-0.2066679273871525
1.5820000000000007,0.0255673282124648,-0.4165315526347067,-0.2109282760912707
1.5854999999999997,0.0074577918937717,-0.4101401569139035,-0.2226464166891606
1.5890000000000022,-0.0053267448770867,-0.4026823650201317,-0.2258421145495622
1.5925000000000011,-0.0287630260728666,-0.38350643252847,-0.2354309534600191
1.596,-0.0458079115478432,-0.3739193389472651,-0.2386266513204207
1.5995000000000026,-0.0660484948832214,-0.3526141047681703,-0.2418223491808223
1.6030000000000015,-0.0798976824977964,-0.3302424744161071,-0.247149094057909
1.6065000000000005,-0.0905494269227178,-0.2961527034661538,-0.247149094057909
1.6099999999999994,-0.0948115209560879,-0.2695207244099723,-0.2450180470412239
1.613500000000002,-0.0905494269227178,-0.2290395577392158,-0.2364956043037356
1.6170000000000044,-0.0820287295144815,-0.2002765316663493,-0.2301042085829324
1.6204999999999998,-0.0681795418999065,-0.1512729222581045,-0.2237128128621291
1.6240000000000023,-0.0575260521457331,-0.1075943123976944,-0.2162550209683574
1.6274999999999975,-0.0436768645311581,-0.0490036094082447,-0.2077325782308691
1.6310000000000002,-0.0340897709499532,-0.0042603487041181,-0.1928187397725775
1.6345000000000027,-0.0213052341790947,0.0628527970228197,-0.1821652500184041
1.637999999999998,-0.0213052341790947,0.1150521042914662,-0.1725781564371993
1.6415000000000006,-0.0266319790561814,0.1736428072809158,-0.1576643179789077
1.6450000000000031,-0.0415458175144729,0.2087989744038376,-0.1480754790684509
1.6484999999999983,-0.0607217500061346,0.2535404897787122,-0.1342280367831279
1.652000000000001,-0.0809623333415129,0.2801724688348938,-0.1257055940456395
1.6555000000000035,-0.1075943123976943,0.316393286801532,-0.1086607085706629
1.658999999999999,-0.1225098961852379,0.3366338701369103,-0.0926804739394028
1.6625000000000014,-0.140619432503931,0.3685925940701784,-0.0756355884644262
1.666000000000004,-0.1502065260851359,0.3920288752659583,-0.0639174478665363
1.669499999999999,-0.1512729222581044,0.4186608543221398,-0.0511346564249298
1.6730000000000018,-0.1470108282247343,0.4325100419367148,-0.0447432607041266
1.6765000000000043,-0.1320969897664427,0.4474238803950063,-0.0308940730895516
1.6799999999999995,-0.1161167551351826,0.4495549274116914,-0.0181095363186931
1.6835000000000022,-0.0841580312019145,0.4570127193054631,-0.0095870935812048
1.6869999999999976,-0.0564614013020165,0.4623394641825499,-0.0031956978604016
1.6905,-0.0127827914416064,0.4591437663221482,0.0063913957208032
1.6940000000000026,0.0159802346312601,0.4570127193054631,0.01598023463126
1.697499999999998,0.0649838440395049,0.4442281825346047,0.0255673282124649
1.7010000000000003,0.0969425679727731,0.4378367868138015,0.029827676916583
1.704500000000003,0.1416840833476477,0.425053995372195,0.0372854688103548
1.7079999999999984,0.1704471094205142,0.4197272504951083,0.0394165158270399
1.711500000000001,0.2066679273871526,0.4026823650201317,0.0511346564249298
1.7150000000000034,0.2290395577392159,0.3941599222826433,0.0543303542853314
1.7184999999999988,0.2567361876391139,0.385637479545155,0.0639174478665363
1.7220000000000013,0.2652586303766022,0.37178829193058,0.0671131457269379
1.7255000000000038,0.2801724688348938,0.3483520107348001,0.0820287295144815
1.7289999999999992,0.2769767709744922,0.330242474416107,0.0841580312019145
1.7325000000000017,0.2759121201307756,0.3025440991869569,0.0916158230956863
1.7360000000000042,0.2652586303766022,0.2854992137119804,0.0894847760790012
1.7394999999999996,0.2439533961975074,0.2578025838120824,0.0905494269227178
1.743000000000002,0.2258421145495623,0.2290395577392158,0.0937468701123714
1.7465000000000046,0.1970790884766957,0.1970790884766956,0.0916158230956863
1.75,0.1789695521580026,0.1715135055934827,0.0916158230956863
1.7535000000000025,0.1470108282247344,0.1406194325039311,0.0916158230956863
1.756999999999998,0.1289012919060412,0.110790010258096,0.0873537290623162
1.7605000000000004,0.096942567972773,0.0767019846373947,0.0862890782185996
1.764000000000003,0.0735062867769931,0.0490036094082447,0.0756355884644262
1.7674999999999983,0.0436768645311581,0.0117181405978899,0.0671131457269379
1.7710000000000008,0.0223716303520633,-0.0181095363186931,0.0628527970228197
1.7745000000000033,-0.0010646508437165,-0.0585907029894496,0.0490036094082447
1.7779999999999987,-0.0223716303520633,-0.083093380358198,0.0436768645311581
1.7815000000000012,-0.0404811666707564,-0.1118564064310645,0.0351544217936697
1.7850000000000037,-0.0521993072686464,-0.1342280367831279,0.0287630260728665
1.788499999999999,-0.0660484948832214,-0.150206526085136,0.0213052341790947
1.7920000000000016,-0.0756355884644262,-0.1640557136997109,0.0202405833353782
1.795500000000004,-0.0852244273748831,-0.1832316461913727,0.0117181405978899
1.7989999999999997,-0.0937468701123714,-0.2024058333537824,0.0074577918937717
1.802500000000002,-0.1065296615539779,-0.233299906443334,0.0074577918937717
1.8060000000000045,-0.1171831513081513,-0.2567361876391139,0.0063913957208032
1.8095,-0.1267702448893561,-0.2801724688348938,0.0063913957208032
1.8130000000000024,-0.1320969897664428,-0.302544099186957,0.0031956978604016
1.8164999999999976,-0.1448797812080493,-0.3313071252598236,0.0
1.8200000000000005,-0.150206526085136,-0.3504830577514853,0.0
1.8235000000000028,-0.1597953649955928,-0.3707236410868635,0.0031956978604016
1.8269999999999984,-0.1619246666830259,-0.3930952714389268,0.0
1.830500000000001,-0.164055713699711,-0.4154651564617382,0.0085224427374883
1.8340000000000032,-0.1608600158393094,-0.4399678338304866,0.0127827914416064
1.8374999999999984,-0.1608600158393094,-0.4634041150262664,0.0191759324916617
1.841000000000001,-0.1523375731018211,-0.4825800475179281,0.0234362811957798
1.844500000000004,-0.1480754790684509,-0.508147375730393,0.0351544217936697
1.847999999999999,-0.1395530363309626,-0.5230612141886847,0.0436768645311581
1.8515000000000013,-0.1331616406101594,-0.5347793547865746,0.0543303542853314
1.855000000000004,-0.1257055940456396,-0.5443664483677794,0.0649838440395048
1.8584999999999996,-0.1171831513081513,-0.5496931932448661,0.0703088435873395
1.8620000000000017,-0.1161167551351828,-0.5528888911052677,0.0767019846373948
1.8655000000000044,-0.1075943123976945,-0.5518242402615512,0.0809623333415129
1.869,-0.1139874534477497,-0.5486285424011496,0.0788312863248278
1.8725000000000025,-0.1161167551351828,-0.5464974953844645,0.0767019846373948
1.8759999999999977,-0.122509896185238,-0.5369104018032596,0.0767019846373948
1.8795,-0.1374237346435295,-0.517734469311598,0.0724398906040246
1.883000000000003,-0.150206526085136,-0.5049499325407395,0.0713752397603081
1.886499999999998,-0.1651203645434275,-0.4815136513449596,0.0681795418999064
1.8900000000000008,-0.1747092034538844,-0.4665998128866681,0.0681795418999064
1.893500000000003,-0.1832316461913727,-0.4442281825346047,0.0713752397603081
1.8969999999999985,-0.1832316461913727,-0.4271832970596281,0.0745709376207097
1.900500000000001,-0.1768385051413175,-0.4069427137242498,0.0809623333415129
1.9040000000000037,-0.164055713699711,-0.3930952714389268,0.0841580312019145
1.9074999999999989,-0.1374237346435295,-0.3717882919305801,0.0894847760790012
1.9110000000000011,-0.1139874534477497,-0.355809802628572,0.1022693128498597
1.914500000000004,-0.0745709376207097,-0.3387649171535954,0.1065296615539778
1.9179999999999997,-0.0362208179666383,-0.3345028231202252,0.1203788491685528
1.9215000000000015,0.0095870935812048,-0.3270467765557054,0.1289012919060412
1.9250000000000045,0.0500682602519612,-0.3206536355056502,0.1416840833476476
1.9285,0.0873537290623161,-0.316393286801532,0.1470108282247343
1.9320000000000024,0.1406194325039311,-0.3110665419244454,0.1587289688226243
1.9355000000000049,0.1747092034538843,-0.3110665419244454,0.1651203645434275
1.939,0.219450718828759,-0.3131975889411305,0.1842962970350892
1.9425000000000023,0.2535404897787122,-0.3195889846619337,0.1938833906162941
1.945999999999998,0.2961527034661537,-0.3334381722765087,0.2109282760912707
1.9495000000000005,0.3217200316786187,-0.3451563128743987,0.2205171150017275
1.953000000000003,0.3462209637181151,-0.3590055004889737,0.2343645572870505
1.9564999999999984,0.3515477085952018,-0.3771150368076668,0.233299906443334
1.9600000000000009,0.3451563128743986,-0.4005513180034467,0.233299906443334
1.9635000000000036,0.3259803803827368,-0.4282496932325967,0.2322352555996175
1.9669999999999987,0.2823035158515787,-0.4602084171658648,0.2290395577392158
1.9705000000000013,0.2396913021641372,-0.4857757453783298,0.2247774637058457
1.974000000000004,0.1789695521580025,-0.5230612141886847,0.2226464166891606
1.9774999999999991,0.1225098961852379,-0.5507578440885826,0.2098636252475541
1.9810000000000016,0.0521993072686463,-0.5912390107593392,0.1992101354933808
1.984500000000004,-0.0021310470166851,-0.6221330838488908,0.191754088928861
1.9879999999999995,-0.0724398906040247,-0.6583539018155291,0.1789695521580025
1.991500000000002,-0.1203788491685529,-0.6828548338550254,0.1736428072809158
1.9950000000000043,-0.1800359483309711,-0.7126842561008605,0.166186760716396
1.9985,-0.2215817658454442,-0.7307937924195538,0.1608600158393093
2.0020000000000024,-0.2620629325162007,-0.7520990265986485,0.1597953649955928
2.005499999999998,-0.2865656098849491,-0.7691439120736251,0.1576643179789077
2.0090000000000003,-0.3068061932203273,-0.7851241467048852,0.1534022239455376
2.012500000000003,-0.3131975889411306,-0.7925801932694049,0.1459461773810178
2.0159999999999982,-0.3046751462036423,-0.7989733343194602,0.1352926876268444
2.0195000000000007,-0.2908259585890672,-0.7947112402860901,0.1267702448893561
2.0230000000000032,-0.2620629325162007,-0.7861887975486017,0.110790010258096
2.026499999999998,-0.2396913021641373,-0.7712749590903102,0.0948115209560879
2.030000000000001,-0.2087989744038377,-0.7414472821737271,0.0788312863248278
2.033500000000004,-0.1906876927558925,-0.713748906944577,0.0745709376207097
2.036999999999999,-0.1725781564371994,-0.6594185526592456,0.0798976824977964
2.040500000000001,-0.164055713699711,-0.6093502924072843,0.0873537290623162
2.044000000000004,-0.1629910628559945,-0.5401060996636612,0.110790010258096
2.0474999999999994,-0.1715135055934828,-0.4942981881158181,0.1214435000122694
2.051000000000002,-0.2013411825100659,-0.4239875991992265,0.1267702448893561
2.0545000000000044,-0.2375620004767042,-0.3771150368076667,0.1299659427497577
2.058,-0.2918906094327837,-0.3238510786953038,0.1257055940456395
2.0615000000000023,-0.3451563128743987,-0.2918906094327836,0.1235745470289545
2.0649999999999977,-0.4165315526347068,-0.2546051406224287,0.1086607085706629
2.0685,-0.4740576047804399,-0.2396913021641372,0.0905494269227178
2.0720000000000027,-0.5379750526469761,-0.2151903701246408,0.0575260521457331
2.075499999999998,-0.5805872663344177,-0.2045368803704673,0.0255673282124649
2.0790000000000006,-0.628524479569694,-0.1992101354933807,-0.0181095363186931
2.082500000000003,-0.6551582039551274,-0.196014437632979,-0.0521993072686464
2.0859999999999985,-0.6807255321675924,-0.2013411825100657,-0.1012029166768912
2.089500000000001,-0.6924436727654824,-0.2098636252475541,-0.1395530363309626
2.0930000000000035,-0.6967040214696004,-0.2269085107225307,-0.1789695521580025
2.096499999999999,-0.7062911150508053,-0.2386266513204206,-0.2162550209683574
2.1000000000000014,-0.7265316983861836,-0.2546051406224286,-0.2641939795328856
2.103500000000004,-0.7542300736153336,-0.2684543282370037,-0.300413052170272
2.1069999999999998,-0.8149518236214683,-0.2886949115723819,-0.3515477085952018
2.110500000000002,-0.8820667146776582,-0.3153286359578154,-0.3792460838243518
2.1140000000000043,-0.9811385843378644,-0.3558098026285718,-0.4154651564617382
2.1175,-1.0727544074335509,-0.3898978282492731,-0.4399678338304866
2.121000000000002,-1.2133738399374818,-0.4484902765679747,-0.4708619069200382
2.1244999999999976,-1.326294897212263,-0.4996249329929046,-0.4900360940824479
2.128,-1.4733057254369972,-0.5560845889656691,-0.5251905158761178
2.1315000000000026,-1.57770433997429,-0.5965657556364256,-0.547562146228181
2.134999999999998,-1.706605631880331,-0.634917620619749,-0.5731294744406459
2.1385000000000005,-1.7875679652218444,-0.6572875056425602,-0.5848476150385359
2.142000000000003,-1.866400996875924,-0.6764634381342219,-0.5901743599156226
2.1454999999999984,-1.915404606284169,-0.6860505317154268,-0.5848476150385359
2.149000000000001,-1.9612107725027603,-0.6924436727654821,-0.5678027295635593
2.1525000000000034,-1.9910401947485952,-0.6871169278883953,-0.5528888911052677
2.155999999999999,-2.015541126788092,-0.6700720424134188,-0.5347793547865746
2.1595000000000013,-2.034717059279753,-0.6636806466926155,-0.5134723752782278
2.163000000000004,-2.0506972939110133,-0.6338512244467804,-0.4974938859762197
2.166499999999999,-2.057088689631817,-0.6168063389718038,-0.4857757453783297
2.1700000000000017,-2.062415434508903,-0.5923054069323074,-0.4761869064678729
2.173500000000004,-2.060284387492218,-0.5773915684740158,-0.4740576047804398
2.177,-2.0506972939110133,-0.5582156359823541,-0.4697955107470696
2.180500000000002,-2.04749985072136,-0.5443664483677791,-0.4751222556241564
2.1840000000000046,-2.04004380415684,-0.5337129586136058,-0.4825800475179281
2.1875,-2.045370549033927,-0.5198655163282828,-0.4974938859762197
2.1910000000000025,-2.0783939238109115,-0.4985585368199359,-0.5315836569261729
2.194499999999998,-2.123137184515038,-0.4793843496575262,-0.5656734278761262
2.1980000000000004,-2.227535799052331,-0.4389031829867698,-0.6157416881280875
2.201500000000003,-2.323411970852136,-0.4101401569139032,-0.6562228547988439
2.2049999999999983,-2.4874676845518464,-0.3728546881035483,-0.7073575112237738
2.208500000000001,-2.638740606809951,-0.3419606150139966,-0.7435765838611602
2.2120000000000037,-2.86245341967208,-0.2929570056057519,-0.7904508915819718
2.2154999999999987,-3.054205763271689,-0.2514094427620268,-0.8266699642193582
2.219000000000001,-3.3290532325587483,-0.1896230419121755,-0.8735442719401699
2.222500000000004,-3.5527660454208774,-0.1438151303643323,-0.9086986937338396
2.225999999999999,-3.862766191172354,-0.0788312863248274,-0.9502445112483128
2.2295000000000016,-4.106719587369861,-0.0308940730895511,-0.9790075373211792
2.233000000000004,-4.45187590024426,0.0213052341790953,-1.022684401852337
2.2364999999999995,-4.722461275497949,0.0553950051290486,-1.0589052198189757
2.240000000000002,-5.098511661461899,0.0916158230956869,-1.1025820843501335
2.2435000000000045,-5.381879828157194,0.119312452995585,-1.1356072044563703
2.247,-5.740885328646168,0.1512729222581052,-1.1686305792333551
2.2505000000000024,-5.989099073547794,0.1725781564372,-1.1899375587417018
2.253999999999998,-6.26927328771194,0.1821652500184049,-1.2027203501833084
2.2575000000000003,-6.434393652255367,0.1811005991746884,-1.192066860429135
2.261000000000003,-6.579273433463417,0.1555332709622235,-1.1696952300770718
2.264499999999998,-6.633603787748748,0.1182478021518686,-1.1409322040042051
2.2680000000000007,-6.634668438592465,0.0511346564249306,-1.092994990768929
2.271500000000003,-6.583535527496786,-0.0042603487041173,-1.0610362668356608
2.2749999999999986,-6.465287725344918,-0.0841580312019137,-1.014161959114849
2.278500000000001,-6.337451084282594,-0.145946177381017,-0.9736807924440926
2.282000000000004,-6.130783156895441,-0.2386266513204199,-0.912959042437958
2.285499999999999,-5.970989537229101,-0.307870844064043,-0.8564993864651933
2.289000000000001,-5.764321609841948,-0.4005513180034459,-0.7734060061069953
2.292500000000004,-5.630095318388072,-0.4687308599033525,-0.709488558240459
2.296,-5.503323328169464,-0.5475621462281803,-0.6349176206197492
2.299500000000002,-5.451124020900817,-0.5997614534968267,-0.5795208701614492
2.3030000000000044,-5.436210182442526,-0.6615495996759301,-0.5113430735907947
2.3065,-5.457517161950873,-0.7020307663466865,-0.4729912086074713
2.3100000000000023,-5.528890656381929,-0.7542300736153329,-0.4207919013388249
2.3134999999999977,-5.599201245298521,-0.7947112402860894,-0.3867021303888716
2.317,-5.690817068394207,-0.8447812458673027,-0.3440916620306821
2.3205000000000027,-5.756865563277429,-0.8863270633817758,-0.3100018910807288
2.323999999999998,-5.8207830111439645,-0.9417220685108236,-0.2620629325162006
2.327500000000001,-5.849546037216831,-0.9864653292149504,-0.2322352555996175
2.331000000000003,-5.859133130798036,-1.0493181262377702,-0.1906876927558924
2.3344999999999985,-5.852741735077233,-1.0919285945959598,-0.1715135055934827
2.338000000000001,-5.823978709004366,-1.1419986001771731,-0.1555332709622227
2.3415000000000035,-5.800542427808587,-1.169695230077071,-0.152337573101821
2.344999999999999,-5.763256958998232,-1.1984582561499375,-0.1725781564371993
2.3485000000000014,-5.737689630785767,-1.2144384907811978,-0.1832316461913727
2.352000000000004,-5.7131869534170185,-1.2378747719769776,-0.2109282760912707
2.3554999999999997,-5.698273114958727,-1.2410704698373791,-0.2237128128621291
2.3590000000000018,-5.698273114958727,-1.2591817514853243,-0.2354309534600191
2.3625000000000043,-5.7089266047129,-1.2655731472061276,-0.2386266513204207
2.366,-5.715318000433703,-1.2740955899436155,-0.2343645572870505
2.369500000000002,-5.718513698294105,-1.2804869856644192,-0.2226464166891606
2.3730000000000047,-5.694012766254609,-1.2794223348207026,-0.2013411825100658
2.3765,-5.648204854706765,-1.2762248916310488,-0.1874919948954908
2.3800000000000026,-5.5374130991194175,-1.2719645429269308,-0.152337573101821
2.383499999999998,-5.412773901246746,-1.262377449345726,-0.1203788491685528
2.3870000000000005,-5.1741472499263255,-1.2442661676977809,-0.0777666354811113
2.390500000000003,-4.946174088360078,-1.2293523292394892,-0.029827676916583
2.3939999999999984,-4.577581494289899,-1.2144384907811978,0.0287630260728665
2.397500000000001,-4.257992509627966,-1.200589303166623,0.0862890782185996
2.401000000000004,-3.783934904847527,-1.1995246523229064,0.152337573101821
2.4044999999999987,-3.4025577740064894,-1.1973936053062213,0.2109282760912707
2.4080000000000013,-2.8773672581303718,-1.202720350183308,0.288694911572382
2.411500000000004,-2.476815940126925,-1.2016556993395917,0.3494166615785167
2.414999999999999,-1.9718642622569336,-1.20591604804371,0.4420988808471717
2.4185000000000016,-1.6032716681867552,-1.2112427929207965,0.5134723752782278
2.422000000000004,-1.148389995897977,-1.2186988394853164,0.6242641308655758
2.4254999999999995,-0.8458458967110201,-1.215503141624915,0.7126842561008605
2.429000000000002,-0.4889714432387315,-1.2123074437645132,0.8288010112360433
2.4325000000000045,-0.2556715367953975,-1.2069806988874263,0.9150900894546428
2.436,-0.0010646508437166,-1.201655699339592,1.0429249851877156
2.4395000000000024,0.1512729222581043,-1.1973936053062215,1.132411506595969
2.442999999999998,0.3227846825223351,-1.2048513971999937,1.2581153553123563
2.4465000000000003,0.431445391092998,-1.2112427929207967,1.3412087356705549
2.450000000000003,0.5518242402615511,-1.2176341886416,1.4583918869787058
2.4534999999999982,0.6338512244467805,-1.22935232923949,1.5308317775827305
2.4570000000000007,0.7457076308778452,-1.2400058189936634,1.6213812045054483
2.4605000000000032,0.8266699642193581,-1.254919657451955,1.686365048544953
2.463999999999998,0.9406574176671078,-1.2836826835248216,1.7545445904448598
2.467500000000001,1.022684401852337,-1.3039232668602,1.7992861058197342
2.471000000000004,1.1281494125625984,-1.3284259442289483,1.844029366523861
2.474499999999999,1.2005893031666233,-1.347600131391358,1.8759880904571289
2.478000000000001,1.2890094284019078,-1.3678407147267362,1.9068821635466808
2.481500000000004,1.3518622254247277,-1.3859519963746814,1.9249916998653736
2.4849999999999994,1.4370849074703589,-1.4104529284141778,1.944167632357036
2.488500000000002,1.50313340235358,-1.4328245587662412,1.9505590280778389
2.4920000000000044,1.5990113194826368,-1.4573254908057374,1.9580150746423584
2.4955,1.669320163069976,-1.4775660741411156,1.9633418195194452
2.4990000000000023,1.7822412203447575,-1.509526543403636,1.9622771686757288
2.5024999999999977,1.864269949859239,-1.5340274754431322,1.9590814708153272
2.506,1.9825177520111068,-1.5734439912701723,1.9590814708153272
2.5095000000000027,2.07946031998388,-1.610729460080527,1.9622771686757288
2.512999999999998,2.2307314969127323,-1.6650598143658584,1.9739953092736189
2.5165000000000006,2.3553724401146554,-1.701278887003245,1.9835824028548237
2.520000000000003,2.555647226451753,-1.7577402883052615,2.0059540332068866
2.5234999999999985,2.719702940151464,-1.807808548557223,2.0229989186818638
2.527000000000001,2.967916685053089,-1.8695966947363265,2.054957642615132
2.5305000000000035,3.166062169702753,-1.934578793446579,2.0762646221234786
2.533999999999999,3.4536924304314187,-2.0123454289276905,2.1018302050066917
2.5375000000000014,3.665687102695658,-2.0677421793859905,2.116745788794235
2.541000000000004,3.9415992228264334,-2.1359199759566447,2.127397533219156
2.5444999999999998,4.13867831130313,-2.1859899815378583,2.133788928939959
2.548000000000002,4.369848916059031,-2.2456453353710244,2.130593231079558
2.5515000000000043,4.508337301546277,-2.279735106320978,2.123137184515038
2.555,4.664935223352216,-2.322347320008419,2.117810439637952
2.558500000000002,4.7533553485875,-2.3447189503604826,2.1199414866546364
2.5619999999999976,4.840709077649817,-2.3596327888187743,2.1284639293921246
2.5655,4.892908384918464,-2.367090580712546,2.143377767850416
2.5690000000000026,4.938716296466307,-2.362828486679176,2.176401142627401
2.572499999999998,4.970675020399574,-2.3564370909583725,2.208359866560669
2.5760000000000005,4.991981999907921,-2.335131856779278,2.2616255700022845
2.579500000000003,5.006895838366213,-2.322347320008419,2.306367085377159
2.5829999999999984,5.029267468718277,-2.3053024345334427,2.382004419170837
2.586500000000001,5.048441655880685,-2.295715340952237,2.4427261691769715
2.5900000000000034,5.0942495674285295,-2.299975689656356,2.5268842003788863
2.593499999999999,5.145384223853459,-2.3053024345334427,2.5801499038205016
2.5970000000000013,5.254044932424122,-2.315955924287616,2.643000955514069
2.600500000000004,5.361639244821816,-2.3170205751313326,2.6824174713411093
2.603999999999999,5.554457984594394,-2.3276740648855068,2.731421080749353
2.6075000000000017,5.743016375662853,-2.337261158466711,2.7623151538389057
2.611000000000004,6.043429427833125,-2.3745466272770663,2.7964049247888583
2.6145,6.294840615924405,-2.409701049070736,2.820905856828355
2.618000000000002,6.658106465117497,-2.465097799529036,2.830494695738812
2.6215000000000046,6.937214283108673,-2.510905711076879,2.82303690384504
2.625,7.279173152793418,-2.5758878097871323,2.8059920183700635
2.6285000000000025,7.510343757549319,-2.621695721334975,2.7836203880180004
2.631999999999998,7.762819596484315,-2.6792217734807084,2.7527280602577004
2.6355000000000004,7.887458794356986,-2.713311544430661,2.7324874769223224
2.639000000000003,7.986530664017192,-2.758053059805536,2.7175718931347785
2.6424999999999983,7.997184153771366,-2.7942738777721745,2.7090494503972904
2.646000000000001,7.9215485653069395,-2.835819695286648,2.698397705972369
2.6495000000000037,7.811823205892559,-2.8656491175324827,2.6962666589556843
2.6529999999999987,7.607286325522093,-2.906130284203239,2.690939914078597
2.656500000000001,7.417663283609917,-2.935957961119822,2.6930709610952825
2.660000000000004,7.159860699797834,-2.986027966701036,2.695202008111968
2.663499999999999,6.985151496343949,-3.0201159923217364,2.7005270076598022
2.6670000000000016,6.794463803588058,-3.078708440640438,2.7047891016931724
2.670500000000004,6.69965228263197,-3.1223853051715964,2.707984799553574
2.6739999999999995,6.634668438592465,-3.180976008161046,2.715442591447346
2.677500000000002,6.626147741184228,-3.2289149667255743,2.727160732045236
2.6810000000000045,6.652779720240409,-3.2970945086254813,2.738878872643125
2.6845,6.678347048452874,-3.345031721860757,2.742074570503527
2.6880000000000024,6.719892865967347,-3.3993620761460885,2.7452702683639285
2.691499999999998,6.748655892040214,-3.4270604513752385,2.739943523486842
2.6950000000000003,6.771027522392277,-3.462214873168908,2.7346167786097557
2.698500000000003,6.793399152744341,-3.486717550537657,2.731421080749353
2.701999999999998,6.817900084783838,-3.509087435560468,2.7207675909951803
2.7055000000000007,6.829618225381727,-3.5218719723313265,2.7090494503972904
2.709000000000003,6.8413363659796165,-3.522936623175043,2.684548518357794
2.7124999999999986,6.837076017275498,-3.518676274470925,2.6579165393016124
2.716000000000001,6.804050897169262,-3.4973692949625783,2.603586185016281
2.719500000000004,6.758242985621418,-3.468606268889712,2.5567118772954696
2.722999999999999,6.67941169929659,-3.4270604513752385,2.478945241814358
2.726500000000001,6.608036459536283,-3.391906029581569,2.421419189668625
2.730000000000004,6.506833542859392,-3.342902420173324,2.340456856327112
2.7335,6.430131558221997,-3.3077462530504023,2.273343710600174
2.737000000000002,6.341713178315965,-3.252351247921354,2.168945096062881
2.7405000000000044,6.285251777013948,-3.204412289356826,2.0869163665484
2.744,6.230921422728616,-3.1223853051715964,1.972930658429902
2.7475000000000023,6.198962698795348,-3.056336810288375,1.887706231055019
2.7509999999999977,6.175526417599568,-2.964720987192689,1.781176569501041
2.7545,6.169135021878764,-2.891216445744948,1.706605631880331
2.7580000000000027,6.1701996727224815,-2.7985359718055447,1.6096630639075584
2.761499999999998,6.174461766755852,-2.744205617520213,1.536158522459817
2.765000000000001,6.20215839665575,-2.678157122636992,1.448803048068249
2.768500000000003,6.2298567718849,-2.640871653826637,1.390212345078799
2.7719999999999985,6.2788603812931445,-2.6121086277537704,1.3199035014914595
2.775500000000001,6.321472594980586,-2.599324090982912,1.2666377980498449
2.7790000000000035,6.376867600109634,-2.589736997401707,1.20591604804371
2.782499999999999,6.407761673199186,-2.5854749033683366,1.1622391835125518
2.7860000000000014,6.425871209517879,-2.583345601680904,1.1164312719647087
2.789500000000004,6.41308667274702,-2.5812145546642187,1.0961906886293304
2.7929999999999997,6.348104574036768,-2.5737567627704467,1.0780811523106375
2.7965000000000018,6.25755514711405,-2.559909320485124,1.063165568523094
2.8000000000000043,6.079650245799764,-2.5311462944122574,1.0546431257856057
2.8035,5.916659182943769,-2.509839314903911,1.0503827770814873
2.807000000000002,5.659922995304655,-2.480011637987328,1.0386646364835974
2.8104999999999976,5.459646463638307,-2.457640007635264,1.0312068445898257
2.814,5.191192135401303,-2.436334773456169,1.0194887039919358
2.8175000000000026,5.003700140505812,-2.421419189668625,1.007770563394046
2.820999999999998,4.762942442168706,-2.409701049070736,0.9917920740920376
2.8245000000000005,4.5956910306085925,-2.4075717473833027,0.9694204437399744
2.828000000000003,4.384762754517322,-2.4001139554895308,0.9140254386109264
2.8314999999999984,4.238816577136304,-2.394787210612444,0.8596950843255949
2.835000000000001,4.047062488207444,-2.3830690700145545,0.7723396099340267
2.838500000000004,3.912836196753567,-2.3756112781207825,0.697768672313317
2.8419999999999987,3.7498451338975727,-2.374546627277066,0.5944364539489927
2.8455000000000013,3.63372837876239,-2.377742325137467,0.5113430735907947
2.849000000000004,3.502696039839664,-2.3830690700145545,0.4037470158638482
2.852499999999999,3.4153423107773477,-2.3830690700145545,0.3153286359578155
2.8560000000000016,3.312008347083771,-2.3798733721541523,0.1981454846496642
2.859500000000004,3.2459598522005497,-2.380938022997869,0.1086607085706629
2.8629999999999995,3.186302753038132,-2.3660241845395773,-0.0063913957208032
2.866500000000002,3.150083680400745,-2.3521749969250023,-0.0894847760790012
2.8700000000000045,3.114927513277823,-2.329805111902191,-0.1896230419121759
2.8735,3.0989490239758157,-2.3127602264272147,-0.2631275833599171
2.8770000000000024,3.084035185517524,-2.2893221999021827,-0.3579391043160051
2.880499999999998,3.0819041385008386,-2.265885918706403,-0.4303807402492817
2.8840000000000003,3.095753326115414,-2.23605824178982,-0.5219948180157161
2.887500000000003,3.1117318154174214,-2.211557309750323,-0.5944364539489927
2.8909999999999982,3.139430190646572,-2.179596840487803,-0.6796591359946239
2.8945000000000007,3.166062169702753,-2.157226955464992,-0.7457076308778453
2.8980000000000032,3.1873691492111003,-2.12207078834207,-0.8330613599401614
2.901499999999998,3.1990872898089897,-2.092243111425487,-0.8937848552755481
2.905000000000001,3.1873691492111003,-2.0592197366485023,-0.9779428864774626
2.908500000000004,3.162866471842352,-2.0379127571401554,-1.035468938623196
2.911999999999999,3.09681797695913,-2.0123454289276905,-1.122822667685512
2.915500000000001,3.014790992773901,-1.9942358926089971,-1.1973936053062215
2.919000000000004,2.873105164097001,-1.987844496888194,-1.290074079245625
2.9224999999999994,2.7356831747827237,-1.9953005434527136,-1.356122574128846
2.926000000000002,2.529015247395572,-2.0102161272402577,-1.4402806053307606
2.9295000000000044,2.3596327888187734,-2.033652408436037,-1.4892859600682575
2.933,2.126332882375439,-2.073067178933825,-1.5585301528118805
2.9365000000000023,1.951623678921555,-2.099700903319259,-1.60540271520344
2.9399999999999977,1.716192725461536,-2.134855325112928,-1.6618641165054566
2.9435,1.547876663057707,-2.1561605592920228,-1.7076702827240478
2.9470000000000027,1.334817339949751,-2.174271840939968,-1.7620006370093797
2.950499999999998,1.1814151160042137,-2.1785321896440863,-1.7992861058197342
2.9540000000000006,0.9939213757794706,-2.1913149810856924,-1.8376379708030577
2.957500000000003,0.8692821779067995,-2.1998374238231806,-1.866400996875924
2.9609999999999985,0.7148135577882935,-2.197708122135748,-1.8962286737925071
2.964500000000001,0.6114795940947172,-2.1987727729794644,-1.915404606284169
2.9680000000000035,0.4879067923950145,-2.1838589345211727,-1.9537547259382404
2.971499999999999,0.3962909692993282,-2.164683002029511,-1.9878444968881936
2.9750000000000014,0.2876302607286652,-2.158291606308708,-2.045370549033927
2.978500000000004,0.2045368803704672,-2.157226955464991,-2.0922431114254865
2.9819999999999998,0.1022693128498594,-2.158291606308708,-2.1561605592920228
2.985500000000002,0.0266319790561812,-2.166814049046196,-2.201968470839866
2.9890000000000043,-0.0617864008498515,-2.1838589345211727,-2.256298825125197
2.9925,-0.1267702448893564,-2.194512424275346,-2.289322199902182
2.996000000000002,-0.2024058333537826,-2.2147530076107245,-2.331934413589624
2.9994999999999976,-0.2514094427620275,-2.231797893085701,-2.366024184539577
3.003,-0.3227846825223355,-2.2520384764210792,-2.4054407003666167
3.0065000000000026,-0.3824417816847537,-2.273343710600174,-2.4384640751436013
3.009999999999998,-0.45807737014918,-2.306367085377159,-2.4725538460935548
3.0135000000000005,-0.5241258650324016,-2.320216272991734,-2.50238326833939
3.017000000000003,-0.6146770372843713,-2.338327554639679,-2.5236885025184845
3.0204999999999984,-0.6881815787321125,-2.347914648220884,-2.529015247395572
3.024000000000001,-0.7872551937215706,-2.358568137975057,-2.546060132870548
3.0275000000000034,-0.8586286881526267,-2.3606974396624905,-2.552451528591351
3.030999999999999,-0.95983335015877,-2.3553724401146554,-2.571627461083013
3.0345000000000013,-1.0301421937461093,-2.350045695237569,-2.585474903368336
3.038000000000004,-1.1249537147021973,-2.338327554639679,-2.6142396747704546
3.041499999999999,-1.1984582561499386,-2.3223473200084186,-2.641936304670353
3.0450000000000017,-1.313510360441405,-2.295715340952237,-2.690939914078597
3.048500000000004,-1.4147150224475478,-2.273343710600174,-2.731421080749353
3.052,-1.5766396891305738,-2.2264711482086144,-2.774033294436796
3.055500000000002,-1.71512807461782,-2.188119283225291,-2.802796320509662
3.0590000000000046,-1.9164692571278856,-2.126332882375439,-2.836886091459615
3.0625,-2.068806830229707,-2.0773292729671944,-2.8635180705157968
3.0660000000000025,-2.2733437106001744,-2.025129965698548,-2.902934586342836
3.069499999999998,-2.418223491808224,-1.991040194748595,-2.9434157530135927
3.0730000000000004,-2.5833456016809038,-1.9580150746423584,-3.0115952949135
3.076500000000003,-2.6824174713411097,-1.9462969340444685,-3.070185997902949
3.0799999999999983,-2.785751435034685,-1.9367098404632632,-3.1703242637361235
3.083500000000001,-2.831559346582529,-1.9441676323570352,-3.255546945781755
3.0870000000000037,-2.86245341967208,-1.9622771686757283,-3.3737947479336228
3.0904999999999987,-2.864582721359514,-1.99317124176528,-3.4622148731689077
3.094000000000001,-2.8411464401637336,-2.0379127571401545,-3.581529071493744
3.097500000000004,-2.805992018370064,-2.0656111323693045,-3.6699474513997767
3.100999999999999,-2.7676418987159925,-2.106092299040061,-3.7828685086745577
3.1045000000000016,-2.750597013241016,-2.128463929392124,-3.860636889484921
3.108000000000004,-2.7516616640847325,-2.1646830020295105,-3.9565130612847255
3.1114999999999995,-2.7676418987159925,-2.205164168700267,-4.018299462134577
3.115000000000002,-2.8283636487221275,-2.252038476421079,-4.092870399755286
3.1185000000000045,-2.8997388884824358,-2.280801502493945,-4.151462848073988
3.122,-3.021182388494705,-2.320216272991733,-4.2292294835551
3.1255000000000024,-3.137299143629888,-2.3532413930979703,-4.283559837840431
3.128999999999998,-3.32053078982126,-2.3915915127520413,-4.350672983567369
3.1325000000000003,-3.4707373159063963,-2.4097010490707347,-4.397545545958929
3.136000000000003,-3.6965811757852105,-2.4256812837019948,-4.444418108350488
3.139499999999998,-3.879811076647331,-2.436334773456168,-4.477443228456725
3.1430000000000007,-4.13867831130313,-2.450182215741491,-4.5008795096525045
3.146500000000003,-4.338954842969479,-2.459771054651948,-4.5168597442837655
3.1499999999999986,-4.622323009664775,-2.477880590970641,-4.531773582742057
3.153500000000001,-4.830057333224895,-2.4938608256019013,-4.546687421200348
3.157000000000004,-5.101707359322301,-2.5087746640601924,-4.558405561798238
3.160499999999999,-5.2849390055136745,-2.515166059780996,-4.569059051552411
3.164000000000001,-5.500127630309063,-2.5194281538143657,-4.577581494289899
3.167500000000004,-5.63435566709219,-2.532210945255972,-4.577581494289899
3.171,-5.76006126113783,-2.5513868777476336,-4.583972890010703
3.174500000000002,-5.827174406864768,-2.573756762770445,-4.597822077625278
3.1780000000000044,-5.874046969256328,-2.6110422315808,-4.615931613943972
3.1815,-5.880438364977131,-2.646198398703722,-4.639367895139751
3.1850000000000023,-5.85806847995432,-2.690939914078596,-4.662804176335531
3.1884999999999977,-5.815456266266878,-2.7186382893077465,-4.670261968229303
3.192,-5.730231838891995,-2.7527280602577,-4.6745223169334205
3.1955000000000027,-5.649269505550482,-2.765510851699306,-4.6638705725085
3.198999999999998,-5.5374130991194175,-2.772968643593078,-4.637238593452318
3.202500000000001,-5.4585818127945895,-2.7697712004034245,-4.602082426329396
3.206000000000003,-5.37229273457599,-2.767641898715992,-4.5573409109545215
3.2094999999999985,-5.329680520888548,-2.7729686435930785,-4.511532999406678
3.213000000000001,-5.300917494815681,-2.786816085878401,-4.439093108802654
3.2165000000000035,-5.301982145659398,-2.79533852861589,-4.373044613919432
3.219999999999999,-5.323289125167745,-2.801731669665945,-4.284624488684147
3.2235000000000014,-5.365901338855186,-2.794273877772173,-4.210053551063438
3.227000000000004,-5.446863672196699,-2.778293643140913,-4.108850634386547
3.2304999999999997,-5.539544146136102,-2.758053059805534,-4.035344347609554
3.2340000000000018,-5.705730906852499,-2.710115846570258,-3.936272477949347
3.2375000000000043,-5.86978662055221,-2.6834838675140764,-3.859570493311953
3.241,-6.128653855208008,-2.654719096111958,-3.7519761809142578
3.244500000000002,-6.3598227146346575,-2.648327700391155,-3.6656871026956575
3.2479999999999976,-6.696456584771568,-2.6493940965641234,-3.545308253527106
3.2515,-6.963846262164855,-2.6632415388494466,-3.4483656855543323
3.2550000000000026,-7.316458621603774,-2.703724450849455,-3.30881264922337
3.258499999999998,-7.556151669097163,-2.7463349192076443,-3.1948251957756204
3.2620000000000005,-7.811823205892559,-2.811318763247149,-3.030769482075909
3.265500000000003,-7.943918450329751,-2.8645827213595125,-2.912521679924041
3.2689999999999984,-8.013164388402625,-2.939153658980222,-2.7548573619451338
3.272500000000001,-7.975878919592271,-3.008397851723845,-2.6504587474078405
3.276000000000004,-7.812887856736276,-3.1149275132778227,-2.5130350127643117
3.2794999999999987,-7.619004466119983,-3.2022829876693915,-2.4320726794227983
3.2830000000000013,-7.280239548966387,-3.3290532325587474,-2.3361965076229936
3.286500000000004,-6.984086845500233,-3.42599580053152,-2.271212663583489
3.289999999999999,-6.5590328501280375,-3.5527660454208765,-2.188119283225291
3.2935000000000016,-6.245835261186909,-3.637988727466508,-2.1284639293921246
3.297000000000004,-5.881504761150101,-3.733866644595564,-2.044304152860958
3.3004999999999995,-5.662052296992089,-3.788195253551643,-1.9878444968881936
3.304000000000002,-5.487344838867457,-3.820155722814164,-1.9111425122507988
3.3075000000000045,-5.454321464090472,-3.820155722814164,-1.8674656477196407
3.311,-5.551262286733993,-3.7903263005683288,-1.8152663404509943
3.3145000000000024,-5.727036141031594,-3.743453738176769,-1.781176569501041
3.317999999999998,-6.076454547939362,-3.658229310801886,-1.7364333087969146
3.3215000000000003,-6.408826324042901,-3.575135930443688,-1.7076702827240478
3.325000000000003,-6.924429746337815,-3.4547588266043867,-1.6703848139136932
3.3284999999999982,-7.320720715637143,-3.355685211614929,-1.6416217878408266
3.3320000000000007,-7.840586231965426,-3.2182614769713997,-1.603271668186755
3.3355000000000032,-8.184676148666856,-3.1064050705403345,-1.5606594544993135
3.338999999999998,-8.574575722245381,-2.973243429930175,-1.4615875848391076
3.342500000000001,-8.79083074321374,-2.8837586538511744,-1.3571889703018147
3.346000000000004,-8.958082154773852,-2.803860971353378,-1.1771530219708437
3.349499999999999,-8.98577878467375,-2.7708375965763925,-1.0152283552878176
3.353000000000001,-8.899491451784403,-2.779360039313881,-0.7648835633695069
3.356500000000004,-8.748218529526298,-2.811318763247149,-0.5678027295635593
3.3599999999999994,-8.451001175216428,-2.891216445744946,-0.2961527034661538
3.363500000000002,-8.18361149782314,-2.970047732069774,-0.1033339636935762
3.3670000000000044,-7.777733434942607,-3.080839487657122,0.1427504795206162
3.3705,-7.477318637443083,-3.1713889145798397,0.3110665419244454
3.3740000000000023,-7.103399298495818,-3.305616951362967,0.508147375730393
3.3774999999999977,-6.861576949314996,-3.412146612916945,0.6359822714634658
3.381,-6.594189017250961,-3.5538306962645927,0.7648835633695069
3.3845000000000027,-6.44185144414914,-3.644380123187311,0.8405191518339332
3.387999999999998,-6.30016561547224,-3.751976180914257,0.9076322975608712
3.3915000000000006,-6.233052469745302,-3.8233514206745656,0.942788464683793
3.395000000000003,-6.198962698795349,-3.8798110766473295,0.9715514907566596
3.3984999999999985,-6.198962698795349,-3.90750945187648,0.9832696313545496
3.402000000000001,-6.249032704376562,-3.90750945187648,0.9907256779190692
3.4055000000000035,-6.322537245824304,-3.892595613418188,0.9896610270753528
3.408999999999999,-6.46102563131155,-3.85637479545155,0.9896610270753528
3.4125000000000014,-6.584600178340503,-3.83293851425577,0.9875299800586675
3.416000000000004,-6.764636126671475,-3.806306535199589,0.9907256779190692
3.4194999999999998,-6.896733116437918,-3.787130602707927,1.000314516829526
3.423000000000002,-7.05226638740014,-3.769021066389234,1.022684401852337
3.4265000000000043,-7.141751163479142,-3.758367576635061,1.0461224283773694
3.43,-7.232300590401859,-3.7306692014059104,1.0866035950481256
3.433500000000002,-7.274912804089301,-3.709363967226816,1.1196269698251105
3.4369999999999976,-7.290893038720561,-3.666751753539374,1.1696952300770718
3.4405,-7.296218038268396,-3.649706868064397,1.21017814207708
3.4440000000000026,-7.271717106228898,-3.623074889008216,1.2623774493457267
3.447499999999998,-7.24828082503312,-3.6262705868686176,1.298596521983113
3.4510000000000005,-7.203537564328993,-3.6262705868686176,1.3369483869664365
3.454500000000003,-7.167318491691607,-3.6262705868686176,1.358253621145531
3.4579999999999984,-7.104465694668787,-3.6294662847290193,1.3848856002017127
3.461500000000001,-7.050135340383454,-3.6220102381645,1.3966037407996024
3.4650000000000034,-6.953192772410682,-3.602834305672838,1.402996881849658
3.468499999999999,-6.854120902750475,-3.58259372233746,1.3912769959225155
3.4720000000000013,-6.681542746313276,-3.5335901129292147,1.3870166472183978
3.475500000000004,-6.528140522367738,-3.4877822013813717,1.3848856002017127
3.478999999999999,-6.275664683432742,-3.407884518883575,1.3934080429392008
3.4825000000000017,-6.037038032112322,-3.345031721860756,1.4019304856766894
3.486000000000004,-5.676967880779632,-3.247024503044265,1.4285624647328707
3.4895,-5.357378896117698,-3.162866471842352,1.4520004912579023
3.493000000000002,-4.9046265255163535,-3.036096226952996,1.4871549130515724
3.4965000000000046,-4.547752072044065,-2.940220055153191,1.5244403818619272
3.5,-4.0566513271179,-2.8166455081242363,1.583031084851377
3.5035000000000025,-3.685927686031037,-2.7410081743305583,1.6394924861533935
3.506999999999998,-3.1905648470715025,-2.639805257653667,1.723650517355308
3.5105000000000004,-2.825167950861726,-2.572692111926729,1.7939593609426474
3.514000000000003,-2.362828486679176,-2.491729778585216,1.8834458823509008
3.5174999999999983,-2.029390314402667,-2.429941632406113,1.9494926319048704
3.521000000000001,-1.6149898087846453,-2.354306043941687,2.044304152860958
3.5245000000000037,-1.324163850195578,-2.295715340952237,2.107156949883778
3.5279999999999987,-0.9587669539858013,-2.222209054175244,2.1838589345211727
3.531500000000001,-0.7105532090841757,-2.172140793923283,2.239253939650221
3.535000000000004,-0.4133358547743054,-2.121006137498353,2.3053024345334423
3.538499999999999,-0.2109282760912709,-2.0869163665484,2.341523252500081
3.5420000000000016,0.0255673282124646,-2.049630897738045,2.3852001170312387
3.545500000000004,0.1832316461913724,-2.015541126788092,2.4139631431041053
3.5489999999999995,0.3664615470534931,-1.966537517379847,2.4384640751436013
3.552500000000002,0.4921671410991328,-1.9249916998653736,2.4523132627581767
3.5560000000000045,0.6413090163405523,-1.8685302985633567,2.4842719866914447
3.5595,0.7499697249112152,-1.8141999442780257,2.50983931490391
3.5630000000000024,0.8756735736276028,-1.7502824964114894,2.5513868777476345
3.566499999999998,0.9683557928962576,-1.705540981036615,2.591868044418391
3.5700000000000003,1.075950105293952,-1.648014928890882,2.647263049547439
3.573500000000003,1.1515856937583782,-1.6022070173430387,2.7015934038327707
3.576999999999998,1.2368101211332616,-1.5468120122139908,2.7687065495597087
3.5805000000000007,1.3017922198435143,-1.507395496386951,2.8315593465825284
3.584000000000003,1.3976701369725708,-1.4530651421016192,2.9071949350469546
3.5874999999999986,1.4903506109119735,-1.4072572305537765,2.9647209871926883
3.591000000000001,1.6405571369971097,-1.3433397826872395,3.043554018846768
3.594500000000004,1.7779808716406391,-1.2932697771060264,3.102144721836217
3.597999999999999,2.010216127240257,-1.2229609335186868,3.182042404334014
3.601500000000001,2.2094262627336376,-1.169695230077072,3.244895201356833
3.605000000000004,2.50983931490391,-1.114300224948024,3.324791138525378
3.6085,2.76018410682222,-1.0748854544502362,3.379121492810709
3.612000000000002,3.1202542581549104,-1.031206844589826,3.447301034710616
3.615500000000005,3.4014931231627727,-1.003510214689928,3.486717550537656
3.619,3.7903263005683296,-0.9704850945836916,3.5271987172084125
3.6225000000000014,4.088610051051169,-0.951310907421282,3.548503951387507
3.6259999999999977,4.484901020350496,-0.9246771830358484,3.563417789845799
3.6295,4.779987327643682,-0.9055029958734386,3.568744534722885
3.6330000000000022,5.167755854205522,-0.8991098548233836,3.5730066287562554
3.636499999999998,5.4426015781633295,-0.8969805531359505,3.5793980244770585
3.640000000000001,5.781366495316925,-0.9108279954212736,3.585789420197862
3.643500000000003,6.004012912006085,-0.9268082300525337,3.588985118058264
3.6469999999999994,6.250097355220277,-0.9545066052816836,3.5953765137790668
3.650500000000001,6.386454693690839,-0.9779428864774634,3.6049653526895233
3.654000000000004,6.508964589876077,-1.0152283552878183,3.622010238164501
3.657499999999999,6.556903548440605,-1.0503827770814882,3.6337283787623904
3.661000000000002,6.576077735603015,-1.097255339473048,3.65716465995817
3.664500000000004,6.560099246301006,-1.1377365061438045,3.67633884712058
3.6679999999999993,6.532400871071856,-1.2048513971999943,3.710428618070533
3.6715000000000018,6.500442147138589,-1.253855006608239,3.740258040316368
3.675000000000004,6.458894584294864,-1.342273386514272,3.779672810814157
3.6785,6.418413417624107,-1.4147150224475484,3.806306535199589
3.682000000000002,6.352364922740886,-1.5191136369848413,3.8478523527140633
3.6854999999999976,6.282056079153546,-1.5947492254492674,3.8798110766473295
3.689,6.153154787247505,-1.6959521421261587,3.9352060817763785
3.6925000000000026,6.035973381268605,-1.764131684026065,3.9820803894971903
3.695999999999998,5.850610688060548,-1.849356111400948,4.0577159779616165
3.699500000000001,5.7089266047129,-1.9132735592674843,4.123764472844838
3.703000000000003,5.5235639115048425,-1.9963669396256825,4.219640644644643
3.7064999999999984,5.378684130296794,-2.0634800853526203,4.297407280125754
3.710000000000001,5.201845625155475,-2.147638116554535,4.396480895115213
3.7135000000000034,5.078271078126521,-2.209426262733638,4.460398342981748
3.716999999999999,4.93338955158922,-2.278670455477261,4.531773582742057
3.720500000000001,4.849231520387305,-2.3212826691647024,4.5818418429940175
3.724000000000004,4.784247676347801,-2.367090580712546,4.638303244296035
3.727499999999999,4.777856280626997,-2.394787210612444,4.673457666089704
3.7310000000000016,4.83538233277273,-2.4288769815623974,4.708612087883374
3.734500000000004,4.928062806712132,-2.456575356791547,4.733114765252123
3.738,5.118752244797277,-2.484271986691445,4.752288952414531
3.741500000000002,5.299852843971965,-2.500252221322705,4.759746744308304
3.745000000000005,5.5661761251922846,-2.509839314903911,4.748028603710414
3.7485,5.770713005562751,-2.518361757641399,4.726723369531319
3.7520000000000016,6.031711287235236,-2.516230710624714,4.693698249425083
3.755499999999998,6.212811886409923,-2.5077082678872253,4.6638705725085
3.759,6.425871209517879,-2.5034479191831074,4.618062660960656
3.762500000000003,6.577144131775984,-2.5013168721664223,4.578646145133616
3.7659999999999982,6.73906879845901,-2.5002522213227056,4.520055442144167
3.7695000000000007,6.829618225381727,-2.5002522213227056,4.474247530596323
3.7730000000000032,6.899928814298319,-2.492794429428934,4.395414498942244
3.776499999999999,6.905255559175405,-2.48640303370813,4.328301353215306
3.780000000000001,6.84772776170042,-2.488534080724816,4.247339019873793
3.783500000000004,6.76676717368816,-2.5023832683393907,4.179159477973887
3.786999999999999,6.616558902273772,-2.5311462944122574,4.092870399755286
3.7905000000000015,6.472743771909439,-2.555647226451754,4.025757254028348
3.794000000000004,6.26927328771194,-2.5971947892954788,3.947990618547237
3.7975,6.113738271420465,-2.638740606809952,3.894724915105622
3.801000000000002,5.912398834239651,-2.7090494503972917,3.8393299099765743
3.804500000000005,5.762190562825263,-2.7612487576659377,3.7999133941495344
3.808,5.5789606619631416,-2.834755044442931,3.756236529618376
3.8115000000000014,5.434079135425842,-2.894412143605349,3.722148503997675
3.8149999999999977,5.231673302072059,-2.963656336348972,3.6774052432935487
3.8185,5.078271078126521,-3.014790992773902,3.6401197744831935
3.8220000000000023,4.849231520387305,-3.0861644872049574,3.5825937223374607
3.825499999999998,4.667066270368902,-3.1351680966132025,3.5399815086500186
3.8290000000000006,4.435895665613,-3.202282987669393,3.474999409939766
3.832500000000003,4.280362394650777,-3.2374374094630625,3.4227983573418674
3.8359999999999994,4.1120463322469485,-3.2811142739942203,3.34822916505041
3.839500000000001,4.024692603184632,-3.3045505551900005,3.2896367167317084
3.843000000000004,3.984211436513875,-3.3375756752962373,3.209739034233912
3.846499999999999,4.0033856236762855,-3.3556852116149303,3.1458215863673757
3.8500000000000014,4.0981971446323735,-3.3727300970899066,3.0627282060091776
3.853500000000004,4.218575993800926,-3.384448237687797,2.9892236645614365
3.8569999999999993,4.418850780138024,-3.4004284723190565,2.8848250500241432
3.860500000000002,4.597822077625278,-3.419602659481466,2.8059920183700635
3.864000000000004,4.86308070800188,-3.440909638989813,2.6824174713411093
3.8675,5.065486541355663,-3.466476967202278,2.5939973461058243
3.871000000000002,5.343529708503123,-3.485651154364688,2.476815940126925
3.8744999999999976,5.544870891013189,-3.499500341979263,2.3947872106124435
3.878,5.811194172233508,-3.5112184825771533,2.289322199902182
3.8815000000000026,6.001883610318653,-3.51228313342087,2.213686611437756
3.884999999999998,6.235183516761986,-3.518676274470925,2.127397533219156
3.888500000000001,6.400303881305414,-3.509087435560468,2.069871481073423
3.892000000000003,6.615494251430055,-3.4899132483980586,2.0048893823631704
3.8954999999999984,6.755047287761018,-3.4803244094876016,1.9718642622569336
3.899000000000001,6.932952189075303,-3.474999409939767,1.9537547259382404
3.9025000000000034,7.058657783120943,-3.479259758643885,1.952690075094524
3.905999999999999,7.20886430920608,-3.48139080566057,1.9601461216590437
3.909500000000001,7.31006722588297,-3.486717550537657,1.972930658429902
3.913000000000004,7.432577122068208,-3.495239993275145,1.9910401947485952
3.916499999999999,7.512473059236752,-3.4963046441188617,1.9963669396256816
3.9200000000000017,7.585979346013746,-3.4888468522250897,1.9867781007152248
3.923500000000004,7.597697486611636,-3.4781951078001683,1.9644082156924136
3.927,7.541237830638871,-3.463281269341877,1.933514142602862
3.930500000000002,7.450686658386902,-3.445169987693932,1.9079468143903973
3.9340000000000046,7.242954080156032,-3.4196026594814666,1.8781191374738144
3.9375,7.044808595506368,-3.398297425302372,1.8610742519988372
3.9410000000000025,6.822162178817208,-3.373794747933624,1.8355069237863724
3.944499999999998,6.502573194155273,-3.3418360240003557,1.8131352934343088
3.948,6.266075844522286,-3.318399742804576,1.795025757115616
3.951500000000003,5.958205000458242,-3.287505669715024,1.7769144754676711
3.9549999999999983,5.750472422227373,-3.2608736906588427,1.7577402883052613
3.958500000000001,5.495867281604944,-3.2225235710047717,1.725781564371993
3.9620000000000033,5.319027031134374,-3.187369149211101,1.7023452831762131
3.965499999999999,5.096380614445215,-3.131972398752801,1.6618641165054566
3.969000000000001,4.939782692639275,-3.082968789344556,1.624578647695102
3.972500000000004,4.737375113956241,-3.002006456003043,1.5659861993764004
3.975999999999999,4.58929963488779,-2.9295665653990186,1.5116558450910689
3.9795000000000016,4.414590431433905,-2.8539309769345924,1.4434780485204144
3.983000000000004,4.294211582265352,-2.792142830755489,1.3880812980621142
3.9865,4.161049941655193,-2.7292900337326693,1.3028586160164832
3.990000000000002,4.073696212592877,-2.6973313097994014,1.22935232923949
3.993500000000005,3.978884691636788,-2.6706993307432194,1.097255339473047
3.997,3.922423290334772,-2.6525897944245265,0.984334282198266
4.000500000000002,3.864897238189039,-2.637675955966235,0.80642938088398
4.003999999999998,3.842525607836976,-2.6216957213349747,0.6807255321675924
4.0075,3.829742816395369,-2.60039048715588,0.508147375730393
4.011000000000003,3.828678165551653,-2.5833456016809038,0.3749839897909817
4.014499999999998,3.8308074672390857,-2.54925583073095,0.2162550209683574
4.018000000000001,3.8318738634120537,-2.519428153814367,0.0916158230956863
4.021500000000003,3.819089326641196,-2.4533796589311456,-0.0703088435873395
4.024999999999999,3.787130602707928,-2.378808721310436,-0.2407576983371057
4.028500000000001,3.755171878774659,-2.318086971304301,-0.3675279432264619
4.032000000000004,3.7082993163831,-2.2467117315439933,-0.4900360940824479
4.035499999999999,3.647577566376965,-2.1487045127275035,-0.644504714200954
4.0390000000000015,3.593247212091633,-2.070937877246392,-0.7520990265986485
4.042500000000004,3.5186762744709235,-1.9633418195194456,-0.8799356676609732
4.045999999999999,3.455823477448104,-1.880248439161248,-0.9672893967232892
4.049500000000002,3.3674033522128197,-1.7737187776072696,-1.0823415010147557
4.053000000000004,3.288572065887992,-1.7012788870032451,-1.1654348813729536
4.0565,3.1522129820881784,-1.6213812045054488,-1.2687688450665298
4.060000000000002,3.029704831232193,-1.5702482934097708,-1.3358819907934678
4.063499999999998,2.8454085341971034,-1.516982589968156,-1.4040615326933743
4.067,2.697331309799401,-1.4828928190182022,-1.4413470015037293
4.070500000000003,2.4874676845518464,-1.4413470015037295,-1.4701100275765957
4.073999999999998,2.3330008097625923,-1.4221710690120677,-1.4818281681744856
4.077500000000001,2.123137184515038,-1.402996881849658,-1.4892859600682575
4.081000000000003,1.9707996114132167,-1.402996881849658,-1.502068751509864
4.084499999999999,1.757740288305261,-1.4147150224475478,-1.520178287828557
4.088000000000001,1.6022070173430385,-1.4253667668724694,-1.5414852673369035
4.091500000000004,1.3987347878162872,-1.4594565378224225,-1.569181897236802
4.094999999999999,1.244266167697781,-1.4850238660348876,-1.5862267827117784
4.098500000000001,1.0621009176793772,-1.5404188711639355,-1.61285876176796
4.102000000000004,0.9310703240859028,-1.578770736147259,-1.6256432985388185
4.105499999999999,0.7787327509840817,-1.6320346942596218,-1.6362967882929915
4.109000000000002,0.6828548338550252,-1.6703848139136932,-1.6384260899804248
4.112500000000004,0.5731294744406457,-1.7129970276011346,-1.6437528348575114
4.116,0.5049499325407393,-1.7385643558135997,-1.654406324611685
4.119500000000002,0.4378367868138013,-1.771589475919836,-1.6703848139136932
4.1229999999999976,0.3994866671597298,-1.800352501992703,-1.6831693506845515
4.1265,0.3739193389472649,-1.8387026216467743,-1.7044745848636462
4.130000000000003,0.3643322453660601,-1.865334600702956,-1.7204548194949063
4.133499999999998,0.3547434064556032,-1.904751116529996,-1.737499704969883
4.1370000000000005,0.3504830577514851,-1.9345787934465783,-1.7588049391489775
4.140500000000003,0.3408942188410282,-1.9793220541507053,-1.7801119186573249
4.143999999999998,0.3302424744161069,-2.0208678716651782,-1.7992861058197342
4.147500000000001,0.2833681666952951,-2.0730671789338246,-1.8376379708030577
4.151000000000003,0.2205171150017273,-2.124201835358755,-1.862138902842554
4.154499999999999,0.1012029166768909,-2.1913149810856924,-1.894097626775822
4.158000000000001,-0.0170448854749768,-2.227535799052331,-1.9164692571278852
4.161500000000004,-0.2066679273871528,-2.264821267862686,-1.947363330217437
4.164999999999999,-0.3504830577514856,-2.285061851198064,-1.968668564396532
4.168500000000002,-0.5411707505073781,-2.3159559242876155,-1.9963669396256816
4.172000000000004,-0.6711366932571359,-2.338327554639679,-2.017672173804777
4.1755,-0.8192139176548388,-2.389460465735357,-2.054957642615132
4.179000000000002,-0.9097633445775566,-2.4352683772832,-2.096503460129605
4.1825000000000045,-1.0003145168295262,-2.5002522213227047,-2.1614873041691096
4.186,-1.0503827770814875,-2.557778273468438,-2.2104909135773543
4.189500000000002,-1.1036484805231026,-2.636609559793266,-2.2786704554772608
4.192999999999998,-1.1324115065959692,-2.698397705972369,-2.334065460606309
4.1965,-1.1643702305292374,-2.775097945280512,-2.401178606333247
4.200000000000003,-1.1973936053062222,-2.830494695738812,-2.457640007635263
4.203499999999998,-1.248528261731152,-2.8890853987282616,-2.524753153362201
4.207000000000001,-1.299662918156082,-2.9221087735052462,-2.5822792055079344
4.210500000000003,-1.3944744391121695,-2.9434157530135927,-2.6600458409890457
4.213999999999999,-1.491415261755691,-2.953002846594798,-2.727160732045236
4.217500000000001,-1.6512106267512838,-2.96046063848857,-2.814514461107552
4.221000000000004,-1.7907636630822463,-2.957264940628168,-2.8837586538511752
4.224499999999999,-2.009149731067289,-2.937024357292789,-2.975374476946861
4.2280000000000015,-2.1923813772586613,-2.907194935046954,-3.029704831232193
4.231500000000004,-2.467227101216469,-2.845408534197103,-3.102144721836217
4.234999999999999,-2.704789101693173,-2.792142830755488,-3.1554104252778323
4.238500000000002,-3.0478143675508864,-2.705853752536888,-3.2267839197088883
4.242000000000004,-3.326922185542063,-2.639805257653667,-3.2896367167317084
4.2455,-3.744518389020487,-2.5556472264517525,-3.3876439355481978
4.249000000000002,-4.076891910453278,-2.5087746640601924,-3.465410571029309
4.252499999999998,-4.538164978462859,-2.4640314033560657,-3.561288488158365
4.256,-4.877994546460172,-2.431008028579081,-3.6337283787623904
4.259500000000003,-5.312635635413572,-2.40011395548953,-3.723213154841392
4.262999999999998,-5.606657291863041,-2.3788087213104347,-3.777543509126723
4.266500000000001,-5.946486859860352,-2.3511103460812843,-3.8414609569932594
4.270000000000003,-6.152090136403789,-2.3330008097625914,-3.874484331770244
4.273499999999999,-6.353431318913855,-2.3116938302542445,-3.916031894613969
4.277000000000001,-6.4535695847470285,-2.2893221999021813,-3.941599222826434
4.280500000000004,-6.513224938580195,-2.2562988251251963,-3.969295852726332
4.283999999999999,-6.522813777490652,-2.2307314969127314,-3.983145040340907
4.287500000000001,-6.484461912507329,-2.1849235853648885,-3.991667483078396
4.291000000000004,-6.442916094992856,-2.148704512727502,-3.98953643606171
4.294499999999999,-6.385390042847122,-2.1039612520233755,-3.9788846916367886
4.298000000000002,-6.348104574036768,-2.0762646221234777,-3.961839806161812
4.301500000000004,-6.335321782595161,-2.0389791533131225,-3.937337128793064
4.305,-6.3459735270200825,-2.0208678716651773,-3.906444801032764
4.308500000000002,-6.400303881305414,-2.001693684502768,-3.868092936049441
4.311999999999998,-6.466352376188636,-1.9878444968881928,-3.834003165099488
4.3155,-6.571817386898896,-1.9846487990277912,-3.776477112953754
4.319000000000003,-6.677280652279905,-1.9846487990277912,-3.726408852701793
4.322499999999998,-6.845598460012988,-1.9814531011673893,-3.666751753539375
4.3260000000000005,-6.993673939081439,-1.996366939625681,-3.615617097114445
4.329500000000003,-7.219517798960252,-2.026194616542264,-3.5410479048229875
4.332999999999998,-7.404878746839058,-2.0560222934588475,-3.481390805660569
4.336500000000001,-7.668008075528227,-2.107156949883777,-3.3951017274419697
4.340000000000003,-7.866153560177891,-2.1455088148671004,-3.324791138525378
4.343499999999999,-8.122889747817005,-2.201968470839865,-3.2342417116026603
4.347000000000001,-8.314642091416614,-2.238189288806504,-3.172453565423557
4.350500000000004,-8.556464440597436,-2.28612650204178,-3.0957533261154144
4.353999999999999,-8.724782248330518,-2.3159559242876147,-3.054205763271689
4.357500000000002,-8.92825447785727,-2.34152325250008,-3.0115952949135
4.361000000000004,-9.056089373590344,-2.34152325250008,-2.992419362421838
4.3645,-9.169010430865123,-2.3212826691647006,-2.977505523963546
4.368000000000002,-9.209491597535878,-2.289322199902181,-2.9625899401760027
4.371500000000005,-9.206295899675478,-2.236058241789818,-2.94874249789068
4.375,-9.169010430865123,-2.184923585364888,-2.931697612415703
4.3785000000000025,-9.095505889417382,-2.1188750904816667,-2.9189130756448445
4.381999999999998,-9.039044488115364,-2.073067178933824,-2.913586330767758
4.3855,-8.964473550494654,-2.033652408436036,-2.9114570290803248
4.389000000000003,-8.91973203511978,-2.0102161272402563,-2.915717377784443
4.392499999999998,-8.879250868449024,-1.9857134498715077,-2.928501914555301
4.396000000000001,-8.863270633817763,-1.9761263562903024,-2.935957961119821
4.399500000000003,-8.870726680382283,-1.968668564396531,-2.923175169678215
4.402999999999999,-8.89203365989063,-1.9665375173798456,-2.896543190622033
4.406500000000001,-8.932514826561386,-1.9665375173798456,-2.833690393599213
4.410000000000004,-8.979387388952947,-1.975059960117334,-2.7814910863305675
4.413499999999999,-9.031588441550843,-2.001693684502768,-2.6920045649223137
4.417000000000002,-9.066742863344514,-2.032586012263067,-2.617435372630856
4.420500000000004,-9.106157633842304,-2.081589621671312,-2.5194281538143666
4.424,-9.120006821456878,-2.1284639293921237,-2.4427261691769715
4.427500000000002,-9.11574647275276,-2.19238137725866,-2.344718950360482
4.4310000000000045,-9.101897285138186,-2.240320335823188,-2.269083361896056
4.4345,-9.07632995692572,-2.310629179410528,-2.174271840939968
4.438000000000002,-9.055022977417371,-2.368155231556261,-2.09863450714629
4.441499999999998,-9.02519704583004,-2.4501822157414908,-1.9931712417652805
4.445,-8.987909831690434,-2.521557455501799,-1.9100778614070824
4.448500000000003,-8.91546994108641,-2.63447851277658,-1.7960904079593327
4.451999999999998,-8.844094701326103,-2.7282253828889518,-1.7076702827240478
4.455500000000001,-8.740760737632526,-2.849668882901221,-1.5915535275888653
4.459000000000003,-8.64914665986609,-2.934893310276104,-1.5105911942473522
4.462499999999999,-8.540485951295429,-3.04994541456757,-1.4147150224475475
4.466000000000001,-8.462719315814317,-3.142625888506973,-1.3444044335309562
4.469500000000004,-8.365776747841544,-3.2640693885192427,-1.2495929125748682
4.472999999999999,-8.291205810220834,-3.3674033522128184,-1.173957324110442
4.4765000000000015,-8.197460685437715,-3.5048270868563485,-1.0855371988751572
4.480000000000004,-8.114367305079517,-3.6049653526895225,-1.0184240531482192
4.483499999999999,-7.973747872575586,-3.7370623424559657,-0.942788464683793
4.487000000000002,-7.84271553365286,-3.818024675797479,-0.8927184591025796
4.490500000000004,-7.65522353875737,-3.898987009138992,-0.8405191518339332
4.494,-7.499690267795147,-3.940532826653465,-0.8096250787443816
4.497500000000002,-7.296218038268396,-3.976753644620103,-0.7702103082465936
4.500999999999998,-7.149207210043661,-3.987407134374276,-0.7361205372966404
4.5045,-6.9670419600252576,-3.97781829546382,-0.6892479749050807
4.508000000000003,-6.847727761700421,-3.952250967251355,-0.6572875056425604
4.511499999999998,-6.714566121090262,-3.8968559621223062,-0.6040235475301975
4.515000000000001,-6.642126230486237,-3.853179097591149,-0.5646070317031576
4.518500000000003,-6.572882037742614,-3.778608159970439,-0.5113430735907947
4.521999999999999,-6.534531918088542,-3.717886409964304,-0.4751222556241564
4.525500000000001,-6.511095636892763,-3.630532680901988,-0.4335764381096833
4.529000000000004,-6.488724006540698,-3.5591574411416795,-0.4058780628805333
4.532499999999999,-6.45250318857406,-3.450496732571017,-0.3643322453660603
4.536000000000001,-6.403499579165816,-3.3716654462461886,-0.3238510786953038
4.539500000000004,-6.302296662488925,-3.258742643642156,-0.2716500260974054
4.542999999999999,-6.210680839393238,-3.1788467064736112,-0.219450718828759
4.546500000000002,-6.063670011168504,-3.081904138500838,-0.1320969897664428
4.550000000000004,-5.947553256033321,-3.02224703933842,-0.0585907029894496
4.5535,-5.781366495316925,-2.960460638488569,0.0564614013020165
4.557000000000002,-5.640747062812993,-2.9231751696782142,0.152337573101821
4.5604999999999976,-5.447928323040416,-2.8890853987282608,0.2823035158515788
4.564,-5.28600365635739,-2.8699094662366,0.3930952714389268
4.567500000000003,-5.042050260159883,-2.8486042320575047,0.5401060996636612
4.570999999999998,-4.842840124666503,-2.826232601705441,0.6604849488322142
4.5745000000000005,-4.54988311906075,-2.8166455081242363,0.8256053133756417
4.578000000000003,-4.316583212617416,-2.8049273675263464,0.956635906969116
4.581499999999998,-3.994863180938797,-2.792142830755488,1.1377365061438036
4.585000000000001,-3.751976180914258,-2.78788248205137,1.28048698566442
4.588500000000003,-3.427060451375238,-2.778293643140913,1.4669143297161942
4.591999999999999,-3.1820424043340143,-2.76444620085559,1.6000759703263534
4.595500000000001,-2.859257721811679,-2.7495306170680465,1.7779808716406396
4.599000000000004,-2.6099775807370844,-2.7399435234868417,1.9068821635466808
4.602499999999999,-2.278670455477261,-2.7335521277660386,2.070937877246392
4.606000000000002,-2.033652408436037,-2.7367478256264404,2.190250330241976
4.609500000000004,-1.7066056318803318,-2.7569884089618184,2.3361965076229936
4.613,-1.4743703762807143,-2.779360039313882,2.43953047131657
4.616500000000002,-1.1824797668479303,-2.8081230653867486,2.5567118772954696
4.6200000000000045,-0.9800739334941482,-2.820905856828355,2.631282814916179
4.6235,-0.7467722817215622,-2.821972253001324,2.719702940151464
4.627000000000002,-0.5912390107593395,-2.804927367526347,2.779360039313882
4.630499999999998,-0.4080091098972187,-2.755923758118102,2.842212836336702
4.634,-0.2812388650078626,-2.7047891016931724,2.892281096588663
4.637500000000003,-0.1342280367831282,-2.620631070491258,2.953002846594798
4.640999999999998,-0.0372854688103551,-2.5471247837142648,2.999875408986357
4.644500000000001,0.0798976824977961,-2.441661518333255,3.0627282060091776
4.648000000000003,0.1555332709622224,-2.354306043941687,3.1085361175570205
4.651499999999999,0.2599318854995152,-2.2424496375106227,3.164997518859037
4.655000000000001,0.3259803803827366,-2.155095908448306,3.2022829876693923
4.658500000000004,0.4080091098972181,-2.04004380415684,3.2321106645859747
4.661999999999999,0.472991208607471,-1.952690075094524,3.2470245030442664
4.6655000000000015,0.551824240261551,-1.8312448297530024,3.250220200904668
4.669000000000004,0.6189373859884889,-1.7343040071094815,3.2619400868318102
4.672499999999999,0.7265316983861834,-1.6096630639075584,3.2725918312567317
4.676000000000002,0.8160182197944366,-1.518048986141124,3.2821806701671887
4.679500000000004,0.9587669539858008,-1.3987347878162877,3.2896367167317084
4.683,1.085537198875157,-1.3145767566143731,3.293898810765078
4.686500000000002,1.2666377980498444,-1.2186988394853169,3.2896367167317084
4.689999999999998,1.4189753711516655,-1.1430632510208905,3.278983226977535
4.6935,1.635230392120023,-1.0621009176793776,3.253417644094322
4.697000000000003,1.811004246417624,-1.007770563394046,3.2342417116026603
4.700499999999998,2.06348008535262,-0.9395927668233915,3.2054786855297936
4.704000000000001,2.264821267862686,-0.8927184591025799,3.1841734513506985
4.707500000000003,2.552451528591351,-0.8319967090964452,3.149017284227777
4.710999999999999,2.772968643593079,-0.7925801932694052,3.123449956015312
4.714500000000001,3.077643789796721,-0.7371851881403573,3.0893619303946105
4.718000000000004,3.312008347083772,-0.6956393706258843,3.059532508148776
4.721499999999999,3.64118442532691,-0.6530271569384428,3.028638435059224
4.725000000000001,3.900051659982709,-0.6285244795696945,3.007333200880129
4.728500000000004,4.252665764750879,-0.6221330838488913,3.0009418051593264
4.731999999999999,4.517924395127482,-0.6317219227593481,3.004137503019728
4.735500000000002,4.862016057158163,-0.6700720424134196,3.0094642478968145
4.739000000000004,5.111294452903506,-0.7137489069445777,3.0169202944613343
4.7425,5.41916529696755,-0.7691439120736258,3.0265091333717917
4.746000000000002,5.630095318388072,-0.8117561257610673,3.030769482075909
4.749499999999998,5.862328828658438,-0.8810003185046904,3.030769482075909
4.753,6.006143959022771,-0.9363953236337385,3.0243780863551057
4.756500000000003,6.165939324018364,-1.020555100164905,3.022247039338421
4.759999999999998,6.255424100097365,-1.087668245891843,3.020115992321736
4.7635000000000005,6.349169224880484,-1.178217672814561,3.01905134147802
4.767000000000003,6.393912485584611,-1.2357437249602938,3.020115992321736
4.770499999999998,6.425871209517879,-1.302858616016484,3.0179866906343027
4.774000000000001,6.442916094992856,-1.3476001313913586,3.0137245966009325
4.777500000000003,6.436524699272052,-1.3891476942350836,3.0094642478968145
4.780999999999999,6.428002256534564,-1.423237465185037,2.997746107298924
4.784500000000001,6.428002256534564,-1.4626522356828249,2.980701221823948
4.788000000000004,6.445047142009541,-1.4978066574764946,2.966852034209373
4.791499999999999,6.489788657384414,-1.534027475443133,2.935957961119821
4.795000000000002,6.545183662513463,-1.5542680587785112,2.917848424801128
4.798500000000004,6.64851762620704,-1.5840957356950942,2.89760784146575
4.802,6.7507869390569,-1.5968802724659528,2.8890853987282616
4.805500000000002,6.908451257035807,-1.6075337622201262,2.8837586538511752
4.8089999999999975,7.029894757048076,-1.6224476006784176,2.8869543517115765
4.8125,7.209928960049796,-1.6299036472429376,2.8954767944490647
4.8160000000000025,7.345223393005892,-1.6405571369971108,2.9071949350469546
4.819499999999998,7.516735153270123,-1.649079579734599,2.933826914103136
4.823,7.642440747315762,-1.6544063246116858,2.96046063848857
4.826500000000003,7.791580877227929,-1.6544063246116858,3.008397851723846
4.829999999999998,7.901307981971561,-1.6501442305783158,3.0531411124279724
4.833500000000001,8.02275148198383,-1.6341657412763075,3.111731815417422
4.837000000000003,8.095191372587855,-1.6160562049576144,3.1575397269652656
4.840499999999999,8.150586377716904,-1.5840957356950942,3.2225235710047704
4.844000000000001,8.153782075577306,-1.5617258506722829,3.26939613339633
4.847500000000004,8.113300908906547,-1.5233739856889594,3.3290532325587483
4.850999999999999,8.054710205917099,-1.4956773557890617,3.369534399229505
4.854500000000002,7.963094382821413,-1.466914329716195,3.4291914983919227
4.858000000000004,7.892785539234072,-1.4445426993641317,3.4696726650626792
4.8615,7.832063789227938,-1.427497813889155,3.5165452274542397
4.865000000000002,7.801169716138387,-1.4243021160287537,3.545308253527106
4.8685000000000045,7.818214601613363,-1.4243021160287537,3.568744534722885
4.872,7.853369023407033,-1.4264331630454383,3.567679883879169
4.875500000000002,7.935397752921514,-1.4456073502078484,3.551699649247909
4.878999999999998,8.009966945212971,-1.4626522356828249,3.5176098782979555
4.8825,8.099453466621226,-1.4978066574764946,3.4462363838668995
4.886000000000003,8.15271742473359,-1.522309334845243,3.3844482376877965
4.889499999999998,8.170826961052281,-1.5585301528118816,3.280049623150503
4.893000000000001,8.147390679856501,-1.5862267827117793,3.2129347320943134
4.896500000000003,8.068559393531674,-1.6224476006784176,3.126645653875713
4.899999999999999,7.982270315313074,-1.6384260899804255,3.066990300042548
4.903500000000001,7.844846580669545,-1.6384260899804255,2.984961570528066
4.907000000000004,7.722336684484306,-1.6245786476951027,2.913586330767758
4.910499999999999,7.579587950292942,-1.5904888767451495,2.8134498102638354
4.9140000000000015,7.478385033616051,-1.5606594544993144,2.733552127766039
4.917500000000004,7.3697243250453885,-1.5191136369848413,2.627022466212061
4.920999999999999,7.311133622055939,-1.494610959616093,2.555647226451753
4.924500000000002,7.263194663491411,-1.4701100275765966,2.46296675251235
4.928000000000004,7.253607569910205,-1.4498694442412183,2.4075717473833023
4.9315,7.264259314335128,-1.4392159544870449,2.3330008097625923
4.935000000000002,7.284499897670505,-1.4328245587662418,2.270148012739772
4.938499999999998,7.316458621603774,-1.4392159544870449,2.1827925383482043
4.942,7.343092345989207,-1.45306514210162,2.118875090481668
4.945500000000003,7.366528627184987,-1.4956773557890617,2.033652408436037
4.948999999999998,7.375051069922475,-1.5329628245994165,1.970799611413217
4.952500000000001,7.368659674201672,-1.5968802724659528,1.8866415802113023
4.956000000000003,7.34948374171001,-1.6576020224720875,1.8173973874676796
4.959499999999999,7.29834908528508,-1.7481531947240572,1.7183237724782212
4.963000000000001,7.233365241245576,-1.826984481048885,1.6277743455555036
4.966500000000004,7.112988137406274,-1.9260563507090915,1.4956773557890606
4.969999999999999,6.987282543360634,-2.008085080223573,1.390212345078799
4.973500000000001,6.775287871096396,-2.1028966011796606,1.23361442327286
4.977000000000004,6.577144131775984,-2.174271840939969,1.106844178383504
4.980499999999999,6.25329305308068,-2.2573634759689147,0.9300039279129344
4.984000000000002,5.979511979966589,-2.3106291794105296,0.7989733343194602
4.987500000000004,5.589612406388064,-2.362828486679176,0.6231994800218592
4.991,5.276414817446933,-2.394787210612444,0.4900360940824479
4.994500000000002,4.881190244320574,-2.417158840964507,0.3217200316786187
4.9979999999999976,4.60101777548568,-2.424616632858279,0.1949497867892626
5.0015,4.2590571604716825,-2.4160941901207904,0.0340897709499532
5.005000000000003,4.02895295188875,-2.4011786063332474,-0.0852244273748831
5.008499999999998,3.751976180914257,-2.3585681379750576,-0.233299906443334
5.0120000000000005,3.5762023266166567,-2.315955924287616,-0.3398295679973119
5.015500000000003,3.3695343992295044,-2.2403203358231893,-0.4655351620429515
5.018999999999998,3.2321106645859743,-2.17746753880037,-0.5443664483677794
5.022500000000001,3.0850998363612403,-2.074133575106794,-0.626395177882261
5.026000000000003,2.9988107581426404,-1.9953005434527136,-0.6711366932571355
5.029499999999999,2.916783773957411,-1.8951640229487912,-0.7212066988383489
5.033000000000001,2.870975862409568,-1.84083366866346,-0.7403808860007585
5.036500000000004,2.826232601705441,-1.793959360942648,-0.7574257714757352
5.039999999999999,2.802796320509662,-1.7854369182051597,-0.7606214693361367
5.043500000000002,2.7814910863305675,-1.8014171528364198,-0.753165422771617
5.047000000000004,2.7719022474201096,-1.8344405276134044,-0.7414472821737271
5.0505,2.775097945280512,-1.909011465234114,-0.7105532090841755
5.054000000000002,2.7910781799117714,-1.983582402854824,-0.6903126257487973
5.0575000000000045,2.828363648722126,-2.1071569498837786,-0.6615495996759307
5.061,2.8805629559907726,-2.20090381999615,-0.6487650629050722
5.064500000000002,2.9615252893322856,-2.325543017868821,-0.6402426201675839
5.067999999999998,3.035031576109279,-2.4075717473833027,-0.642373667184269
5.0715,3.139430190646572,-2.49812117430602,-0.6530271569384424
5.075000000000003,3.219327873144368,-2.55671187729547,-0.6583539018155291
5.078499999999998,3.3130729979274878,-2.618500023474573,-0.6679409953967339
5.082000000000001,3.3737947479336223,-2.656850143128645,-0.6732677402738206
5.085500000000003,3.427060451375237,-2.690939914078597,-0.6860505317154271
5.088999999999999,3.4536924304314187,-2.709049450397291,-0.6945729744529154
5.092500000000001,3.455823477448104,-2.717571893134779,-0.7148135577882937
5.096000000000004,3.4259958005315205,-2.7101158465702597,-0.7361205372966404
5.099499999999999,3.332248930419149,-2.6973313097994014,-0.7734060061069953
5.1030000000000015,3.220392523988085,-2.678157122636992,-0.8085604279006651
5.106500000000004,3.0339651799363105,-2.6451320025307545,-0.8533036886047917
5.109999999999999,2.864582721359513,-2.6099775807370844,-0.8799356676609732
5.113500000000002,2.6110422315808,-2.5599093204851235,-0.9023072980130364
5.117000000000004,2.4086363982270185,-2.517297106797682,-0.912959042437958
5.1205,2.129528580235841,-2.452313262758177,-0.9150900894546428
5.124000000000002,1.913273559267484,-2.394787210612444,-0.917221136471328
5.127499999999998,1.619251902818015,-2.330869762745907,-0.921481485175446
5.131,1.3955390899558855,-2.2722790597564577,-0.9193504381587612
5.134500000000003,1.087668245891842,-2.197708122135748,-0.921481485175446
5.137999999999998,0.854368339448508,-2.139115673817046,-0.9236125321921312
5.141500000000001,0.5464974953844642,-2.059219736648502,-0.9150900894546428
5.145000000000003,0.3163932868015318,-2.0048893823631704,-0.9044365997004696
5.148499999999999,0.0191759324916614,-1.938840887479949,-0.8969805531359498
5.152000000000001,-0.1917540889288612,-1.8887708818987357,-0.8948495061192646
5.155500000000004,-0.4580773701491799,-1.834440527613404,-0.9086986937338396
5.158999999999999,-0.6455693650446708,-1.7982214549760178,-0.9246771830358478
5.162500000000001,-0.8533036886047919,-1.7641316840260644,-0.9672893967232892
5.166000000000004,-0.9864653292149512,-1.7428264498469694,-1.0109662612544474
5.169499999999999,-1.1015174335064175,-1.7151280746178197,-1.073819058277267
5.173000000000002,-1.1515856937583786,-1.702345283176213,-1.1185623189813938
5.176500000000004,-1.162239183512552,-1.692756444265756,-1.1771530219708437
5.18,-1.1356072044563708,-1.6821046998408349,-1.2229609335186866
5.183500000000002,-1.0578405689752597,-1.676777954963748,-1.2794223348207032
5.186999999999998,-0.980073933494148,-1.6778426058074647,-1.3230991993518617
5.1905,-0.8607597351693117,-1.6789072566511811,-1.3752985066205077
5.194000000000003,-0.772339609934027,-1.686365048544953,-1.4104529284141776
5.197499999999998,-0.6572875056425607,-1.7023452831762131,-1.4498694442412174
5.2010000000000005,-0.5763251723010478,-1.7098013297407328,-1.4722410745932808
5.204500000000003,-0.4889714432387315,-1.7161927254615363,-1.4914152617556906
5.207999999999998,-0.4367721359700852,-1.7108677259137015,-1.4914152617556906
5.211500000000001,-0.3952245731263601,-1.693822840438725,-1.476501423297399
5.215000000000003,-0.3877685265618404,-1.66825551222626,-1.4637186318557929
5.218499999999999,-0.3984202709867618,-1.6309700434159051,-1.4370849074703589
5.222000000000001,-0.41866085432214,-1.5926181784325817,-1.4157796732912642
5.225500000000004,-0.4538170214450617,-1.5297671267390138,-1.3806252514975943
5.228999999999999,-0.4772533026408416,-1.474370376280714,-1.3529268762684443
5.232500000000002,-0.5060163287137082,-1.3934080429392008,-1.3167078036310582
5.236000000000004,-0.5273215628928029,-1.3348173399497512,-1.2858137305415065
5.2395,-0.5443664483677795,-1.247461865558183,-1.2645067510331598
5.243000000000002,-0.5614113338427561,-1.1910022095854185,-1.261311053172758
5.2464999999999975,-0.5837829641948195,-1.1174959228084254,-1.2687688450665298
5.25,-0.6168063389718041,-1.0759501052939522,-1.2922051262623095
5.2535000000000025,-0.6658099483800489,-1.0290775429023926,-1.3348173399497512
5.256999999999998,-0.7105532090841756,-0.9981834698128408,-1.3752985066205077
5.2605,-0.7723396099340268,-0.9566359069691158,-1.439215954487044
5.264000000000003,-0.8149518236214685,-0.9268082300525328,-1.494610959616092
5.267499999999998,-0.8639554330297131,-0.8873917142254928,-1.571312944253487
5.271000000000001,-0.8916538082588632,-0.8437148496943346,-1.6469485327179132
5.274500000000003,-0.9182857873150448,-0.7861887975486016,-1.7545445904448598
5.277999999999999,-0.9300039279129346,-0.7467722817215617,-1.8365715746300888
5.281500000000001,-0.9374617198067065,-0.6956393706258838,-1.9484279810611536
5.285000000000004,-0.928939277069218,-0.6647452975363322,-2.0304567105756357
5.288499999999999,-0.912959042437958,-0.6359822714634656,-2.1284639293921246
5.292000000000002,-0.8959141569629813,-0.6146770372843708,-2.1998374238231806
5.295500000000004,-0.8788692714880048,-0.6008278496697959,-2.271212663583489
5.299,-0.87354427194017,-0.5869786620552209,-2.3191516221480173
5.302500000000002,-0.8831313655213748,-0.5816519171781341,-2.3575017418020887
5.3060000000000045,-0.915090089454643,-0.5709984274239608,-2.387331164047924
5.3095,-0.9704850945836913,-0.5646070317031575,-2.409701049070735
5.313000000000002,-1.0312068445898257,-0.5582156359823542,-2.422485585841593
5.316499999999998,-1.1260183655459135,-0.5571509851386377,-2.4299416324061136
5.32,-1.208047095060395,-0.5614113338427559,-2.4278123307186803
5.323500000000003,-1.3177724544747746,-0.5678027295635591,-2.4310080285790816
5.326999999999998,-1.4061925797100594,-0.5741958706136143,-2.425681283701995
5.330500000000001,-1.522309334845242,-0.5923054069323074,-2.4235502366853097
5.334000000000003,-1.606467366047157,-0.6040235475301973,-2.419289887981192
5.337499999999999,-1.728977262232395,-0.6338512244467804,-2.421419189668625
5.341000000000001,-1.8195266891551125,-0.6530271569384422,-2.4246166328582786
5.344500000000004,-1.9516236789215555,-0.6892479749050805,-2.4320726794227983
5.347999999999999,-2.049630897738045,-0.7148135577882935,-2.4427261691769715
5.3515000000000015,-2.190250330241976,-0.7520990265986482,-2.46296675251235
5.355000000000004,-2.2967799917959537,-0.7872551937215699,-2.48214093967476
5.358499999999999,-2.45124861191446,-0.8341277561131297,-2.508774664060193
5.362000000000002,-2.557778273468438,-0.8650218292026813,-2.5311462944122565
5.365500000000004,-2.7015934038327707,-0.914025438610926,-2.557778273468438
5.369,-2.798535971805544,-0.9481134642316272,-2.578018856803816
5.372500000000002,-2.8986724923094664,-0.9917920740920374,-2.595063742278793
5.375999999999998,-2.9561985444552,-1.024815448869022,-2.608912929893368
5.3795,-2.999875408986357,-1.0610362668356603,-2.617435372630856
5.383000000000003,-3.0147909927739014,-1.0834061518584717,-2.620631070491258
5.386499999999998,-3.010528898740531,-1.1132355741043067,-2.6238267683516594
5.390000000000001,-2.997746107298924,-1.1377365061438032,-2.6153043256141717
5.393500000000003,-2.977505523963546,-1.1675659283896382,-2.6067818828766827
5.396999999999999,-2.9657873833656563,-1.1920668604291345,-2.5993240909829107
5.400500000000001,-2.959394242315601,-1.2208298865020013,-2.578018856803816
5.404000000000004,-2.9583295914718843,-1.2389411681499465,-2.5513868777476345
5.407499999999999,-2.9764391277905777,-1.2613110531727576,-2.516230710624713
5.411000000000001,-2.996679711125956,-1.2708998920832144,-2.4842719866914447
5.414500000000004,-3.0254427371988224,-1.2804869856644194,-2.4352683772832
5.417999999999999,-3.040356575657114,-1.2868783813852225,-2.3947872106124435
5.421500000000002,-3.047814367550886,-1.2826180326811043,-2.3393922054833958
5.425000000000004,-3.0456833205342004,-1.2751602407873326,-2.2935842939355524
5.4285,-3.028638435059224,-1.2570507044686396,-2.237122892633536
5.432000000000002,-3.0147909927739014,-1.2410704698373791,-2.197708122135748
5.4354999999999976,-2.999875408986357,-1.2155031416249142,-2.150833814414936
5.439,-2.992419362421838,-1.188871162568733,-2.1252682315317237
5.442500000000003,-3.004137503019728,-1.149454646741693,-2.094374158442172
5.445999999999998,-3.0137245966009325,-1.1153666211209918,-2.072002528090108
5.4495000000000005,-3.0456833205342004,-1.06849231340018,-2.04749985072136
5.453000000000003,-3.069121347059233,-1.0344025424502268,-2.02832566355895
5.456499999999998,-3.093622279098729,-0.9726161416003756,-2.0070186840506032
5.460000000000001,-3.101080070992501,-0.9289392770692176,-1.9899755439048787
5.463500000000003,-3.1096025137299894,-0.8671511308901144,-1.9739953092736189
5.466999999999999,-3.103209372679934,-0.8202785684985546,-1.9612107725027603
5.470500000000001,-3.087230883377926,-0.7595568184924198,-1.9356451896195472
5.474000000000004,-3.069121347059233,-0.7148135577882934,-1.915404606284169
5.477499999999999,-3.044618669690484,-0.6647452975363319,-1.8866415802113023
5.481000000000002,-3.0243780863551057,-0.6285244795696937,-1.8557475071217504
5.484500000000004,-2.994550409438523,-0.5912390107593388,-1.8120706425905928
5.488,-2.978570174807263,-0.5656734278761258,-1.7779808716406396
5.491500000000002,-2.963656336348971,-0.5475621462281807,-1.7151280746178197
5.4950000000000045,-2.963656336348971,-0.5337129586136057,-1.6671891160532917
5.4985,-2.978570174807263,-0.5198655163282827,-1.60114062117007
5.502000000000002,-2.999875408986357,-0.514538771451196,-1.5404188711639353
5.505499999999998,-3.0456833205342004,-0.5113430735907943,-1.4626522356828238
5.509,-3.09681797695913,-0.514538771451196,-1.4019304856766894
5.512500000000003,-3.182042404334014,-0.518799120155314,-1.3199035014914595
5.515999999999998,-3.25767799279844,-0.5273215628928023,-1.25705070446864
5.519500000000001,-3.372730097089906,-0.5273215628928023,-1.18247976684793
5.523000000000003,-3.466476967202277,-0.5273215628928023,-1.1260183655459135
5.526499999999999,-3.5900497689019804,-0.5305172607532039,-1.055709521958574
5.530000000000001,-3.682731988170635,-0.532648307769889,-1.0109662612544474
5.533500000000004,-3.7967176962891327,-0.5358440056302907,-0.947048813387911
5.536999999999999,-3.870223983066126,-0.5411707505073773,-0.9065676467171546
5.5405000000000015,-3.951186316407639,-0.5454328445407475,-0.8533036886047917
5.544000000000004,-3.988471785217994,-0.5507578440885822,-0.8192139176548384
5.547499999999999,-4.021495159994979,-0.5571509851386374,-0.7787327509840819
5.551000000000002,-4.023626207011663,-0.5614113338427555,-0.7584921676487036
5.554500000000004,-4.007647717709656,-0.5699337765802439,-0.7265316983861836
5.558,-3.981013993324222,-0.5709984274239605,-0.7062911150508053
5.561500000000002,-3.938403524966032,-0.5773915684740156,-0.6775280889779387
5.564999999999998,-3.90431375401608,-0.5805872663344173,-0.6572875056425604
5.5685,-3.875550727943213,-0.5795208701614487,-0.626395177882261
5.572000000000003,-3.867028285205724,-0.5773915684740156,-0.6082838962343158
5.575499999999998,-3.8723550300828102,-0.5731294744406454,-0.5720648235969293
5.579000000000001,-3.888333519384819,-0.5667380787198423,-0.5422354013510943
5.582500000000003,-3.937337128793064,-0.5614113338427555,-0.508147375730393
5.585999999999999,-3.984211436513876,-0.5582156359823539,-0.4868403962220463
5.589500000000001,-4.070498769403224,-0.5624759846864721,-0.4697955107470696
5.593000000000004,-4.137613660459413,-0.5646070317031571,-0.4634041150262664
5.596499999999999,-4.260121811315399,-0.5646070317031571,-0.4687308599033531
5.600000000000001,-4.3677178690423455,-0.5614113338427554,-0.4697955107470696
5.603500000000004,-4.533904629758742,-0.5614113338427554,-0.4964292351325031
