time,Gyr_X,Gyr_Y,Gyr_Z
0.0,0.0,-0.0010646508437165,-0.0042603487041181
0.0035000000000025,0.0010646508437165,0.0,-0.0053267448770866
0.0069999999999978,-0.0010646508437165,0.0,-0.0063913957208032
0.0105000000000003,-0.002131047016685,0.0,-0.002131047016685
0.0140000000000028,-0.002131047016685,0.0,-0.0053267448770866
0.0174999999999982,-0.0042603487041181,0.0010646508437165,-0.0042603487041181
0.0210000000000007,-0.0010646508437165,0.0010646508437165,-0.0074577918937717
0.0245000000000032,0.0,0.0,-0.0053267448770866
0.0279999999999986,0.0,0.0,-0.0063913957208032
0.0315000000000011,-0.0010646508437165,0.0,-0.0042603487041181
0.0350000000000036,-0.0031956978604016,0.0,-0.0042603487041181
0.038499999999999,-0.0010646508437165,0.002131047016685,-0.0031956978604016
0.0420000000000015,-0.0010646508437165,-0.0010646508437165,-0.0053267448770866
0.0454999999999969,-0.0031956978604016,-0.0010646508437165,-0.0053267448770866
0.0489999999999994,0.0,0.0010646508437165,-0.0042603487041181
0.0525000000000019,0.0,0.0,-0.0053267448770866
0.0559999999999973,0.0,0.002131047016685,-0.002131047016685
0.0594999999999998,-0.002131047016685,0.0010646508437165,-0.002131047016685
0.0630000000000023,0.0,0.002131047016685,-0.0042603487041181
0.0664999999999977,0.002131047016685,0.0,-0.0042603487041181
0.0700000000000002,-0.002131047016685,0.0,-0.002131047016685
0.0735000000000027,-0.0010646508437165,-0.0031956978604016,-0.0053267448770866
0.0769999999999981,0.0010646508437165,0.0,-0.0042603487041181
0.0805000000000006,-0.0010646508437165,-0.002131047016685,-0.0053267448770866
0.0840000000000031,0.0010646508437165,0.002131047016685,-0.0042603487041181
0.0874999999999985,-0.002131047016685,0.0010646508437165,-0.0042603487041181
0.091000000000001,-0.0010646508437165,0.0010646508437165,-0.002131047016685
0.0945000000000035,0.0,0.0,-0.0042603487041181
0.0979999999999989,-0.002131047016685,0.0,-0.0031956978604016
0.1015000000000014,0.0,-0.0010646508437165,-0.0042603487041181
0.1049999999999968,-0.0010646508437165,-0.002131047016685,-0.0063913957208032
0.1084999999999993,-0.0010646508437165,0.0,-0.0042603487041181
0.1120000000000018,-0.002131047016685,0.0010646508437165,-0.0053267448770866
0.1154999999999972,0.0,0.0042603487041181,-0.0042603487041181
0.1189999999999997,-0.0010646508437165,0.0,-0.0042603487041181
0.1225000000000022,-0.0010646508437165,0.0,-0.002131047016685
0.1259999999999976,-0.002131047016685,-0.0010646508437165,-0.0053267448770866
0.1295000000000001,0.0,0.0010646508437165,-0.0010646508437165
0.1330000000000026,0.0,0.0,-0.0042603487041181
0.136499999999998,-0.002131047016685,0.0,-0.0031956978604016
0.1400000000000005,0.0010646508437165,0.002131047016685,-0.0031956978604016
0.143500000000003,0.0,0.0010646508437165,-0.0053267448770866
0.1469999999999984,0.002131047016685,0.0,-0.0031956978604016
0.1505000000000009,-0.0010646508437165,0.0031956978604016,-0.002131047016685
0.1540000000000034,-0.0031956978604016,-0.0010646508437165,-0.0031956978604016
0.1574999999999988,0.0,0.0010646508437165,-0.0031956978604016
0.1610000000000013,0.0,0.0,-0.0031956978604016
0.1644999999999967,0.0,0.0,-0.0053267448770866
0.1679999999999992,-0.0010646508437165,-0.0010646508437165,-0.002131047016685
0.1715000000000017,0.0,0.0031956978604016,-0.0031956978604016
0.1749999999999971,-0.0010646508437165,-0.002131047016685,-0.0031956978604016
0.1784999999999996,0.002131047016685,0.0,-0.0053267448770866
0.1820000000000021,-0.0010646508437165,0.0010646508437165,-0.002131047016685
0.1854999999999975,-0.0010646508437165,0.0010646508437165,-0.0053267448770866
0.189,0.0,0.0,-0.0042603487041181
0.1925000000000025,-0.0053267448770866,0.0,-0.002131047016685
0.1959999999999979,-0.0031956978604016,0.0010646508437165,-0.002131047016685
0.1995000000000004,-0.002131047016685,0.0010646508437165,-0.0042603487041181
0.2030000000000029,0.0,0.0010646508437165,-0.0074577918937717
0.2064999999999983,-0.002131047016685,0.0042603487041181,-0.0106534897541733
0.2100000000000008,-0.0063913957208032,0.0053267448770866,-0.0053267448770866
0.2135000000000033,-0.0053267448770866,0.0042603487041181,-0.0031956978604016
0.2169999999999987,-0.002131047016685,0.0042603487041181,-0.0106534897541733
0.2205000000000012,-0.0031956978604016,0.002131047016685,-0.0074577918937717
0.2240000000000037,-0.0063913957208032,0.0053267448770866,-0.0053267448770866
0.2274999999999991,-0.0042603487041181,0.0,-0.0042603487041181
0.2310000000000016,-0.0031956978604016,0.0010646508437165,-0.0074577918937717
0.234499999999997,-0.0042603487041181,0.0031956978604016,-0.0074577918937717
0.2379999999999995,-0.0031956978604016,0.0106534897541733,-0.0053267448770866
0.241500000000002,-0.0031956978604016,0.0181095363186931,-0.0063913957208032
0.2449999999999974,-0.0095870935812048,0.0245026773687483,-0.0053267448770866
0.2484999999999999,-0.0127827914416064,0.0308940730895516,-0.0074577918937717
0.2520000000000024,-0.0191759324916617,0.0340897709499532,-0.0085224427374883
0.2554999999999978,-0.02769837522915,0.0351544217936697,-0.0117181405978899
0.2590000000000003,-0.0340897709499532,0.0447432607041266,-0.01598023463126
0.2625000000000028,-0.0404811666707564,0.0458079115478431,-0.013849187614575
0.2659999999999982,-0.0394165158270399,0.0426122136874415,-0.01598023463126
0.2695000000000007,-0.0383501196540714,0.0308940730895516,-0.0149138384582915
0.2730000000000032,-0.0351544217936697,0.0223716303520633,-0.0106534897541733
0.2764999999999986,-0.0266319790561814,0.0213052341790947,-0.0085224427374883
0.2800000000000011,-0.013849187614575,0.0170448854749766,-0.0095870935812048
0.2835000000000036,-0.0063913957208032,0.0213052341790947,-0.0095870935812048
0.286999999999999,-0.0074577918937717,0.0234362811957798,-0.0106534897541733
0.2905000000000015,-0.0074577918937717,0.02769837522915,-0.0106534897541733
0.2939999999999969,-0.0117181405978899,0.0255673282124649,-0.0095870935812048
0.2974999999999994,-0.0170448854749766,0.0149138384582915,-0.01598023463126
0.3010000000000019,-0.0202405833353782,0.0074577918937717,-0.013849187614575
0.3044999999999973,-0.0245026773687483,0.002131047016685,-0.013849187614575
0.3079999999999998,-0.0234362811957798,0.0,-0.0117181405978899
0.3115000000000023,-0.0149138384582915,-0.0031956978604016,-0.0085224427374883
0.3149999999999977,-0.002131047016685,-0.0127827914416064,-0.0085224427374883
0.3185000000000002,0.0042603487041181,-0.0191759324916617,-0.0010646508437165
0.3220000000000027,0.0127827914416064,-0.029827676916583,-0.0031956978604016
0.3254999999999981,0.0127827914416064,-0.0362208179666383,-0.0031956978604016
0.3290000000000006,0.0181095363186931,-0.0372854688103548,0.0
0.3325000000000031,0.0202405833353782,-0.041545817514473,0.0
0.3359999999999985,0.0170448854749766,-0.0383501196540714,0.0
0.339500000000001,0.013849187614575,-0.02769837522915,-0.0074577918937717
0.3430000000000035,0.0127827914416064,-0.0213052341790947,0.0010646508437165
0.3464999999999989,0.0106534897541733,-0.0181095363186931,0.0074577918937717
0.3500000000000014,0.0042603487041181,-0.0170448854749766,0.0053267448770866
0.3534999999999968,0.0053267448770866,-0.0170448854749766,0.0074577918937717
0.3569999999999993,0.0010646508437165,-0.0106534897541733,0.002131047016685
0.3605000000000018,0.0053267448770866,-0.0149138384582915,0.0
0.3639999999999972,0.0053267448770866,-0.01598023463126,0.0063913957208032
0.3674999999999997,0.0074577918937717,-0.0117181405978899,0.0031956978604016
0.3710000000000022,0.0095870935812048,-0.0127827914416064,-0.0074577918937717
0.3744999999999976,0.0063913957208032,-0.0053267448770866,-0.0031956978604016
0.3780000000000001,0.002131047016685,-0.0042603487041181,-0.0031956978604016
0.3815000000000026,0.0,-0.0053267448770866,-0.0031956978604016
0.384999999999998,-0.0010646508437165,-0.0031956978604016,-0.0074577918937717
0.3885000000000005,-0.0010646508437165,-0.0063913957208032,-0.0031956978604016
0.392000000000003,-0.0031956978604016,-0.0053267448770866,-0.0010646508437165
0.3954999999999984,0.0042603487041181,-0.0031956978604016,-0.0031956978604016
0.3990000000000009,0.0,-0.0031956978604016,0.0010646508437165
0.4025000000000034,0.0,-0.0063913957208032,-0.002131047016685
0.4059999999999988,0.0063913957208032,-0.0042603487041181,-0.0085224427374883
0.4095000000000013,0.0063913957208032,-0.0063913957208032,-0.0010646508437165
0.4130000000000038,0.0031956978604016,-0.002131047016685,-0.0010646508437165
0.4164999999999992,0.0010646508437165,-0.0042603487041181,-0.0095870935812048
0.4200000000000017,0.0,-0.0053267448770866,-0.0042603487041181
0.4234999999999971,-0.0031956978604016,-0.0053267448770866,-0.0074577918937717
0.4269999999999996,-0.0042603487041181,-0.0053267448770866,-0.0042603487041181
0.4305000000000021,-0.0031956978604016,-0.0063913957208032,-0.0074577918937717
0.4339999999999975,0.0,-0.0074577918937717,-0.0053267448770866
0.4375,0.002131047016685,0.0063913957208032,-0.002131047016685
0.4410000000000025,0.0053267448770866,0.0095870935812048,-0.002131047016685
0.4444999999999979,-0.0010646508437165,0.0085224427374883,-0.0106534897541733
0.4480000000000004,-0.0074577918937717,0.0063913957208032,-0.0085224427374883
0.4515000000000029,-0.0042603487041181,0.0,0.0
0.4549999999999983,-0.002131047016685,-0.002131047016685,-0.002131047016685
0.4585000000000008,0.0010646508437165,-0.0042603487041181,-0.0085224427374883
0.4620000000000033,0.0,-0.0031956978604016,-0.0063913957208032
0.4654999999999987,0.0,0.0074577918937717,0.0
0.4690000000000012,0.0,0.0074577918937717,-0.0053267448770866
0.4725000000000037,-0.0031956978604016,0.0117181405978899,-0.0074577918937717
0.4759999999999991,-0.0010646508437165,0.0095870935812048,-0.0042603487041181
0.4795000000000016,-0.0085224427374883,0.0,-0.0010646508437165
0.482999999999997,-0.0042603487041181,-0.0085224427374883,-0.002131047016685
0.4864999999999995,-0.0010646508437165,-0.0085224427374883,-0.0085224427374883
0.490000000000002,-0.0031956978604016,-0.002131047016685,-0.0085224427374883
0.4934999999999974,0.0,0.0074577918937717,-0.0010646508437165
0.4969999999999999,-0.0010646508437165,0.0085224427374883,-0.0031956978604016
0.5005000000000024,0.0,0.0117181405978899,-0.0106534897541733
0.5039999999999978,0.0,0.0095870935812048,0.0
0.5075000000000003,-0.0010646508437165,0.0042603487041181,-0.0010646508437165
0.5110000000000028,0.0,0.0010646508437165,-0.0074577918937717
0.5144999999999982,-0.0042603487041181,0.0010646508437165,-0.002131047016685
0.5180000000000007,-0.0085224427374883,0.0010646508437165,0.002131047016685
0.5215000000000032,-0.0106534897541733,0.0117181405978899,-0.002131047016685
0.5249999999999986,-0.0053267448770866,0.0149138384582915,-0.0095870935812048
0.5285000000000011,-0.0053267448770866,0.0266319790561814,-0.0063913957208032
0.5320000000000036,-0.0031956978604016,0.0234362811957798,-0.0053267448770866
0.535499999999999,-0.002131047016685,0.0117181405978899,-0.0031956978604016
0.5390000000000015,-0.0042603487041181,0.0031956978604016,0.0
0.5424999999999969,-0.0117181405978899,-0.0042603487041181,-0.0042603487041181
0.5459999999999994,-0.0042603487041181,0.0,-0.0063913957208032
0.5495000000000019,-0.0053267448770866,0.0085224427374883,-0.0063913957208032
0.5529999999999973,-0.0085224427374883,0.0127827914416064,-0.0042603487041181
0.5564999999999998,-0.0053267448770866,0.0213052341790947,-0.0053267448770866
0.5600000000000023,-0.0010646508437165,0.0170448854749766,-0.0042603487041181
0.5634999999999977,-0.0053267448770866,0.0095870935812048,-0.0085224427374883
0.5670000000000002,-0.0042603487041181,0.0010646508437165,-0.0042603487041181
0.5705000000000027,-0.0031956978604016,-0.0063913957208032,-0.0010646508437165
0.5739999999999981,-0.0085224427374883,-0.0074577918937717,-0.002131047016685
0.5775000000000006,-0.0042603487041181,0.0,-0.0042603487041181
0.5810000000000031,-0.0010646508437165,0.0085224427374883,-0.002131047016685
0.5844999999999985,-0.002131047016685,0.0245026773687483,-0.0010646508437165
0.588000000000001,0.0010646508437165,0.0223716303520633,-0.002131047016685
0.5915000000000035,0.002131047016685,0.0223716303520633,0.0010646508437165
0.5949999999999989,0.0,0.0202405833353782,0.0
0.5985000000000014,-0.0031956978604016,0.0127827914416064,0.002131047016685
0.6019999999999968,-0.0074577918937717,0.0074577918937717,0.0010646508437165
0.6054999999999993,-0.0085224427374883,0.0127827914416064,0.002131047016685
0.6090000000000018,-0.0106534897541733,0.0170448854749766,-0.0010646508437165
0.6124999999999972,-0.0053267448770866,0.0191759324916617,0.0010646508437165
0.6159999999999997,0.0,0.0213052341790947,-0.0010646508437165
0.6195000000000022,0.0010646508437165,0.01598023463126,0.0010646508437165
0.6229999999999976,0.0031956978604016,0.0149138384582915,0.0
0.6265000000000001,0.002131047016685,0.0170448854749766,-0.0031956978604016
0.6300000000000026,0.0,0.01598023463126,-0.0042603487041181
0.633499999999998,-0.0042603487041181,0.013849187614575,-0.0074577918937717
0.6370000000000005,-0.0074577918937717,0.0106534897541733,-0.0063913957208032
0.640500000000003,-0.0095870935812048,0.0,-0.0074577918937717
0.6439999999999984,-0.0053267448770866,-0.0095870935812048,-0.0074577918937717
0.6475000000000009,-0.0053267448770866,-0.0245026773687483,-0.0085224427374883
0.6510000000000034,-0.0010646508437165,-0.041545817514473,-0.0074577918937717
0.6544999999999987,0.002131047016685,-0.0511346564249298,-0.0010646508437165
0.6580000000000013,0.0074577918937717,-0.0532657034416149,-0.0031956978604016
0.6615000000000038,0.013849187614575,-0.0372854688103548,-0.0053267448770866
0.6649999999999991,0.0181095363186931,-0.02769837522915,-0.0074577918937717
0.6685000000000016,0.0181095363186931,-0.0074577918937717,-0.0053267448770866
0.671999999999997,0.013849187614575,0.0,-0.0053267448770866
0.6754999999999995,0.0095870935812048,0.0063913957208032,-0.002131047016685
0.679000000000002,0.002131047016685,0.0085224427374883,-0.0010646508437165
0.6824999999999974,-0.0031956978604016,0.01598023463126,-0.0031956978604016
0.6859999999999999,-0.0031956978604016,0.0213052341790947,0.0010646508437165
0.6895000000000024,-0.0063913957208032,0.029827676916583,0.0
0.6929999999999978,-0.0031956978604016,0.029827676916583,0.0010646508437165
0.6965000000000003,0.0063913957208032,0.0202405833353782,0.0
0.7000000000000028,0.0085224427374883,0.013849187614575,0.0010646508437165
0.7034999999999982,0.0095870935812048,0.0031956978604016,0.002131047016685
0.7070000000000007,0.0095870935812048,-0.0031956978604016,0.0042603487041181
0.7105000000000032,0.0074577918937717,-0.0074577918937717,0.0074577918937717
0.7139999999999986,0.013849187614575,-0.0106534897541733,0.0031956978604016
0.7175000000000011,0.0149138384582915,-0.0106534897541733,0.0031956978604016
0.7210000000000036,0.0181095363186931,-0.0149138384582915,0.002131047016685
0.724499999999999,0.0213052341790947,-0.01598023463126,-0.0063913957208032
0.7280000000000015,0.0191759324916617,-0.0213052341790947,-0.0127827914416064
0.7314999999999969,0.0106534897541733,-0.0308940730895516,-0.0202405833353782
0.7349999999999994,0.0031956978604016,-0.0404811666707564,-0.01598023463126
0.7385000000000019,0.0053267448770866,-0.0500682602519613,-0.0170448854749766
0.7419999999999973,0.0095870935812048,-0.0532657034416149,-0.0149138384582915
0.7454999999999998,0.0223716303520633,-0.0479389585645282,-0.0191759324916617
0.7490000000000023,0.0340897709499532,-0.041545817514473,-0.0234362811957798
0.7524999999999977,0.0468725623915597,-0.0266319790561814,-0.0223716303520633
0.7560000000000002,0.041545817514473,-0.0074577918937717,-0.0223716303520633
0.7595000000000027,0.0223716303520633,0.0127827914416064,-0.0181095363186931
0.7629999999999981,0.0053267448770866,0.02769837522915,-0.0127827914416064
0.7665000000000006,-0.0213052341790947,0.0458079115478431,-0.0063913957208032
0.7700000000000031,-0.0330233747769847,0.0543303542853314,-0.002131047016685
0.7734999999999985,-0.0362208179666383,0.069244192743623,0.0
0.777000000000001,-0.0330233747769847,0.0820287295144815,-0.0010646508437165
0.7805000000000035,-0.0266319790561814,0.1043986145372928,0.0
0.7839999999999989,-0.0202405833353782,0.1225098961852379,-0.0031956978604016
0.7875000000000014,-0.01598023463126,0.1416840833476476,-0.002131047016685
0.7909999999999968,-0.0170448854749766,0.1448797812080492,-0.0031956978604016
0.7944999999999993,-0.013849187614575,0.1470108282247343,-0.002131047016685
0.7980000000000018,-0.0074577918937717,0.1491418752414194,-0.0053267448770866
0.8014999999999972,0.0085224427374883,0.1459461773810178,-0.0127827914416064
0.8049999999999997,0.0181095363186931,0.1480754790684509,-0.0170448854749766
0.8085000000000022,0.0074577918937717,0.152337573101821,-0.0213052341790947
0.8119999999999976,-0.013849187614575,0.1576643179789077,-0.0202405833353782
0.8155000000000001,-0.0127827914416064,0.1555332709622227,-0.0351544217936697
0.8190000000000026,-0.0085224427374883,0.1619246666830259,-0.0458079115478431
0.822499999999998,-0.0234362811957798,0.1534022239455376,-0.055395005129048
0.8260000000000005,-0.0436768645311581,0.1470108282247343,-0.0564614013020165
0.829500000000003,-0.029827676916583,0.1512729222581045,-0.0681795418999064
0.8329999999999984,-0.0255673282124649,0.1470108282247343,-0.083093380358198
0.8365000000000009,-0.0063913957208032,0.1416840833476476,-0.1001382658331746
0.8400000000000034,-0.0095870935812048,0.1480754790684509,-0.1086607085706629
0.8434999999999988,-0.01598023463126,0.1491418752414194,-0.1097253594143795
0.8470000000000013,-0.0255673282124649,0.1470108282247343,-0.1129210572747811
0.8505000000000038,-0.029827676916583,0.152337573101821,-0.1054650107102613
0.8539999999999992,-0.041545817514473,0.150206526085136,-0.0916158230956863
0.8575000000000017,-0.0543303542853314,0.1395530363309626,-0.0564614013020165
0.8609999999999971,-0.0703088435873395,0.1342280367831279,-0.0340897709499532
0.8644999999999996,-0.0724398906040246,0.124639197872671,-0.0245026773687483
0.8680000000000021,-0.055395005129048,0.1193124529955843,-0.0170448854749766
0.8714999999999975,-0.0255673282124649,0.110790010258096,-0.0053267448770866
0.875,-0.0053267448770866,0.1001382658331746,0.0
0.8785000000000025,0.0106534897541733,0.0926804739394028,0.0042603487041181
0.8819999999999979,0.0181095363186931,0.0873537290623162,0.0085224427374883
0.8855000000000004,0.0106534897541733,0.0852244273748831,0.0213052341790947
0.8890000000000029,0.0053267448770866,0.0894847760790012,0.0213052341790947
0.8924999999999983,-0.0085224427374883,0.0852244273748831,0.0191759324916617
0.8960000000000008,-0.0149138384582915,0.0756355884644262,0.0117181405978899
0.8995000000000033,-0.029827676916583,0.0607217500061347,0.0
0.9029999999999988,-0.029827676916583,0.0394165158270399,-0.0085224427374883
0.9065000000000012,-0.0234362811957798,0.0181095363186931,-0.0106534897541733
0.9100000000000036,-0.0245026773687483,0.0042603487041181,-0.0085224427374883
0.9134999999999992,-0.0245026773687483,-0.0085224427374883,-0.0095870935812048
0.9170000000000016,-0.0213052341790947,-0.0074577918937717,-0.0053267448770866
0.920499999999997,-0.013849187614575,-0.0085224427374883,-0.0031956978604016
0.9239999999999996,-0.0010646508437165,-0.0117181405978899,-0.0042603487041181
0.927500000000002,0.0010646508437165,-0.0106534897541733,-0.002131047016685
0.9309999999999974,0.0,-0.0181095363186931,-0.002131047016685
0.9345,-0.0106534897541733,-0.013849187614575,0.0
0.9380000000000024,-0.0213052341790947,-0.0117181405978899,-0.002131047016685
0.9414999999999978,-0.0351544217936697,-0.0085224427374883,0.0010646508437165
0.9450000000000004,-0.0362208179666383,-0.0042603487041181,-0.0031956978604016
0.9485000000000028,-0.0362208179666383,0.0031956978604016,0.0010646508437165
0.9519999999999982,-0.0245026773687483,0.0095870935812048,0.0
0.9555000000000008,-0.0234362811957798,0.0181095363186931,-0.0106534897541733
0.9590000000000032,-0.0223716303520633,0.0149138384582915,-0.0170448854749766
0.9624999999999986,-0.02769837522915,0.013849187614575,-0.0308940730895516
0.9660000000000012,-0.0404811666707564,0.0117181405978899,-0.0362208179666383
0.9695000000000036,-0.0543303542853314,0.0127827914416064,-0.0340897709499532
0.972999999999999,-0.0575260521457331,0.0095870935812048,-0.02769837522915
0.9765000000000016,-0.0543303542853314,0.0170448854749766,-0.0181095363186931
0.9799999999999968,-0.0500682602519613,0.0149138384582915,-0.0095870935812048
0.9834999999999994,-0.0340897709499532,0.0202405833353782,0.0
0.987000000000002,-0.0234362811957798,0.0223716303520633,0.0074577918937717
0.9904999999999972,-0.0181095363186931,0.0245026773687483,0.0085224427374883
0.9939999999999998,-0.013849187614575,0.02769837522915,0.0042603487041181
0.9975000000000024,-0.0042603487041181,0.0308940730895516,0.0031956978604016
1.0009999999999977,-0.0053267448770866,0.029827676916583,0.0074577918937717
1.0045000000000002,-0.0031956978604016,0.029827676916583,0.0085224427374883
1.008000000000003,-0.0063913957208032,0.029827676916583,0.0053267448770866
1.011499999999998,-0.0106534897541733,0.02769837522915,0.0
1.0150000000000006,-0.0117181405978899,0.0191759324916617,0.0010646508437165
1.018500000000003,-0.0106534897541733,0.0170448854749766,-0.0053267448770866
1.0219999999999985,-0.0170448854749766,0.0223716303520633,-0.0085224427374883
1.025500000000001,-0.0245026773687483,0.0213052341790947,-0.01598023463126
1.0290000000000037,-0.0245026773687483,0.0234362811957798,-0.01598023463126
1.0324999999999989,-0.0245026773687483,0.0202405833353782,-0.0181095363186931
1.0360000000000014,-0.0149138384582915,0.0213052341790947,-0.0202405833353782
1.0394999999999968,-0.0042603487041181,0.0234362811957798,-0.0202405833353782
1.0429999999999993,0.0042603487041181,0.0213052341790947,-0.0149138384582915
1.0465000000000018,0.0031956978604016,0.0202405833353782,-0.0149138384582915
1.0499999999999972,0.0010646508437165,0.0191759324916617,-0.0063913957208032
1.0534999999999997,0.0,0.02769837522915,-0.0031956978604016
1.0570000000000022,0.0031956978604016,0.0255673282124649,0.0
1.0604999999999976,0.013849187614575,0.0362208179666383,0.002131047016685
1.064,0.013849187614575,0.0426122136874415,-0.0010646508437165
1.0675000000000026,0.01598023463126,0.0436768645311581,-0.0042603487041181
1.070999999999998,0.01598023463126,0.0479389585645282,-0.0095870935812048
1.0745000000000005,0.0095870935812048,0.0500682602519613,-0.0074577918937717
1.078000000000003,0.002131047016685,0.0564614013020165,-0.0117181405978899
1.0814999999999984,-0.0085224427374883,0.0639174478665363,-0.0117181405978899
1.0850000000000009,-0.0149138384582915,0.0756355884644262,-0.013849187614575
1.0885000000000034,-0.0202405833353782,0.0841580312019145,-0.0106534897541733
1.0919999999999987,-0.0181095363186931,0.0916158230956863,-0.0031956978604016
1.0955000000000013,-0.0149138384582915,0.0990718696602061,0.0063913957208032
1.0990000000000038,-0.0127827914416064,0.1065296615539778,0.0149138384582915
1.1024999999999991,-0.0149138384582915,0.1139874534477496,0.0234362811957798
1.1060000000000016,-0.0170448854749766,0.1182478021518678,0.029827676916583
1.109499999999997,-0.0170448854749766,0.1320969897664428,0.0383501196540714
1.1129999999999995,-0.0085224427374883,0.1342280367831279,0.0468725623915597
1.116500000000002,-0.0053267448770866,0.1427504795206162,0.0479389585645282
1.1199999999999974,0.0,0.1448797812080492,0.0490036094082447
1.1235,0.0010646508437165,0.1555332709622227,0.041545817514473
1.1270000000000024,0.0053267448770866,0.1640557136997109,0.0362208179666383
1.1304999999999978,0.0170448854749766,0.1672514115601126,0.0245026773687483
1.1340000000000003,0.0149138384582915,0.1725781564371993,0.0213052341790947
1.1375000000000028,0.0106534897541733,0.1811005991746876,0.0074577918937717
1.1409999999999982,0.0053267448770866,0.1832316461913727,0.002131047016685
1.1445000000000007,0.0063913957208032,0.1853609478788057,-0.0053267448770866
1.1480000000000032,0.0010646508437165,0.1874919948954908,-0.0053267448770866
1.1514999999999986,0.0010646508437165,0.1906876927558924,-0.0149138384582915
1.1550000000000011,0.0010646508437165,0.1874919948954908,-0.0149138384582915
1.1585000000000036,0.0,0.1874919948954908,-0.0181095363186931
1.161999999999999,0.0042603487041181,0.1874919948954908,-0.0181095363186931
1.1655000000000015,0.0074577918937717,0.1949497867892626,-0.0191759324916617
1.168999999999997,0.0,0.1960144376329791,-0.0213052341790947
1.1724999999999994,-0.0042603487041181,0.1970790884766957,-0.0255673282124649
1.176000000000002,-0.0074577918937717,0.1938833906162941,-0.0202405833353782
1.179499999999997,-0.013849187614575,0.1949497867892626,-0.013849187614575
1.1829999999999998,-0.0181095363186931,0.1928187397725775,-0.013849187614575
1.1865000000000023,-0.0308940730895516,0.1928187397725775,-0.0010646508437165
1.1899999999999975,-0.0372854688103548,0.1906876927558924,0.0053267448770866
1.1935000000000002,-0.0351544217936697,0.1928187397725775,0.01598023463126
1.1970000000000027,-0.0287630260728665,0.1949497867892626,0.0213052341790947
1.200499999999998,-0.0234362811957798,0.1960144376329791,0.0308940730895516
1.2040000000000006,-0.0202405833353782,0.2002765316663493,0.0319587239332681
1.2075000000000031,-0.013849187614575,0.191754088928861,0.0351544217936697
1.2109999999999983,-0.0085224427374883,0.1885583910684593,0.0372854688103548
1.214500000000001,-0.0085224427374883,0.1811005991746876,0.0362208179666383
1.2180000000000035,0.0,0.1757738542976009,0.0319587239332681
1.221499999999999,-0.0042603487041181,0.1672514115601126,0.0308940730895516
1.2250000000000014,-0.0106534897541733,0.150206526085136,0.0319587239332681
1.2284999999999968,-0.0074577918937717,0.1459461773810178,0.0255673282124649
1.231999999999999,-0.0042603487041181,0.1374237346435295,0.0202405833353782
1.2355000000000018,0.0010646508437165,0.1342280367831279,0.0106534897541733
1.2389999999999972,0.0095870935812048,0.1289012919060412,0.0053267448770866
1.2424999999999995,0.0063913957208032,0.1352926876268444,0.0010646508437165
1.2460000000000022,0.0042603487041181,0.1374237346435295,-0.0095870935812048
1.2494999999999976,0.0063913957208032,0.138488385487246,-0.0106534897541733
1.253,0.0085224427374883,0.1406194325039311,-0.0170448854749766
1.2565000000000026,0.002131047016685,0.1438151303643327,-0.0191759324916617
1.259999999999998,-0.0063913957208032,0.1534022239455376,-0.0255673282124649
1.2635000000000003,-0.0127827914416064,0.1544686201185061,-0.0213052341790947
1.267000000000003,-0.0245026773687483,0.1619246666830259,-0.0245026773687483
1.2704999999999984,-0.0234362811957798,0.166186760716396,-0.0308940730895516
1.274000000000001,-0.029827676916583,0.1597953649955928,-0.0330233747769847
1.2775000000000034,-0.0319587239332681,0.1587289688226243,-0.0319587239332681
1.2809999999999988,-0.0372854688103548,0.1651203645434275,-0.0287630260728665
1.2845000000000013,-0.0362208179666383,0.1651203645434275,-0.0255673282124649
1.2880000000000038,-0.0340897709499532,0.1672514115601126,-0.0127827914416064
1.2914999999999992,-0.0181095363186931,0.1640557136997109,-0.0063913957208032
1.2950000000000017,-0.0095870935812048,0.1629910628559944,-0.0010646508437165
1.298499999999997,-0.0117181405978899,0.1555332709622227,-0.002131047016685
1.3019999999999996,-0.0245026773687483,0.1565979218059392,-0.0063913957208032
1.305500000000002,-0.0319587239332681,0.1587289688226243,-0.0085224427374883
1.3089999999999975,-0.0383501196540714,0.1587289688226243,-0.0085224427374883
1.3125,-0.0426122136874415,0.1597953649955928,-0.0095870935812048
1.3160000000000025,-0.0490036094082447,0.1587289688226243,-0.0095870935812048
1.319499999999998,-0.0468725623915597,0.1619246666830259,-0.0085224427374883
1.3230000000000004,-0.0404811666707564,0.1619246666830259,-0.0117181405978899
1.326500000000003,-0.0394165158270399,0.1693824585767977,-0.013849187614575
1.3299999999999983,-0.0436768645311581,0.1725781564371993,-0.0255673282124649
1.3335000000000008,-0.0394165158270399,0.1757738542976009,-0.0319587239332681
1.3370000000000033,-0.0170448854749766,0.1864273440517743,-0.0436768645311581
1.3404999999999987,-0.0010646508437165,0.1906876927558924,-0.0543303542853314
1.3440000000000012,0.0053267448770866,0.1906876927558924,-0.0543303542853314
1.3475000000000037,0.0042603487041181,0.1864273440517743,-0.0596570991624181
1.350999999999999,0.0,0.191754088928861,-0.0745709376207097
1.3545000000000016,0.002131047016685,0.1928187397725775,-0.0767019846373948
1.357999999999997,-0.002131047016685,0.2013411825100658,-0.0713752397603081
1.3614999999999997,-0.0127827914416064,0.2087989744038376,-0.0660484948832214
1.365000000000002,-0.0308940730895516,0.2141239739516723,-0.0607217500061347
1.3684999999999974,-0.0383501196540714,0.2162550209683574,-0.0521993072686464
1.372,-0.0447432607041266,0.2183860679850424,-0.0372854688103548
1.3755000000000024,-0.0404811666707564,0.2247774637058457,-0.0245026773687483
1.3789999999999978,-0.0319587239332681,0.2258421145495622,-0.0074577918937717
1.3825000000000005,-0.0234362811957798,0.2269085107225308,0.0042603487041181
1.3860000000000028,-0.0202405833353782,0.2279731615662473,0.0095870935812048
1.3894999999999982,-0.0106534897541733,0.2301042085829324,0.013849187614575
1.393000000000001,-0.0042603487041181,0.2301042085829324,0.0074577918937717
1.3965000000000032,-0.0095870935812048,0.2279731615662473,0.0074577918937717
1.3999999999999986,-0.013849187614575,0.2141239739516723,0.0074577918937717
1.403500000000001,-0.0181095363186931,0.2045368803704674,0.002131047016685
1.4070000000000036,-0.02769837522915,0.1938833906162941,0.002131047016685
1.410499999999999,-0.041545817514473,0.1832316461913727,0.002131047016685
1.4140000000000017,-0.0372854688103548,0.1789695521580025,-0.0042603487041181
1.4174999999999969,-0.0330233747769847,0.1789695521580025,-0.0053267448770866
1.4209999999999994,-0.02769837522915,0.1821652500184041,-0.0053267448770866
1.424500000000002,-0.0191759324916617,0.1885583910684593,-0.013849187614575
1.4279999999999973,-0.0053267448770866,0.1992101354933808,-0.0117181405978899
1.4314999999999998,-0.0042603487041181,0.2002765316663493,-0.0181095363186931
1.4350000000000025,-0.0117181405978899,0.2087989744038376,-0.0202405833353782
1.4384999999999977,-0.0202405833353782,0.205601531214184,-0.0213052341790947
1.4420000000000002,-0.02769837522915,0.2045368803704674,-0.0191759324916617
1.445500000000003,-0.0245026773687483,0.2045368803704674,-0.0213052341790947
1.448999999999998,-0.029827676916583,0.1949497867892626,-0.0223716303520633
1.4525000000000006,-0.0213052341790947,0.191754088928861,-0.0202405833353782
1.456000000000003,-0.0127827914416064,0.1938833906162941,-0.0149138384582915
1.4594999999999985,-0.01598023463126,0.1992101354933808,-0.0170448854749766
1.463000000000001,-0.0095870935812048,0.2098636252475541,-0.0106534897541733
1.4665000000000037,-0.0031956978604016,0.219450718828759,0.002131047016685
1.4699999999999989,0.0,0.2364956043037356,0.0085224427374883
1.4735000000000014,-0.0010646508437165,0.2503447919183106,0.0191759324916617
1.4769999999999968,-0.0010646508437165,0.2620629325162006,0.0362208179666383
1.4804999999999993,0.0,0.2673896773932873,0.0394165158270399
1.4840000000000018,0.0,0.2620629325162006,0.0426122136874415
1.4874999999999972,-0.0053267448770866,0.2695207244099723,0.0447432607041266
1.4909999999999997,-0.01598023463126,0.2759121201307756,0.0479389585645282
1.4945000000000022,-0.0181095363186931,0.2727164222703739,0.0490036094082447
1.4979999999999976,-0.0181095363186931,0.2791078179911772,0.0372854688103548
1.5015,-0.0255673282124649,0.2812388650078622,0.0319587239332681
1.5050000000000026,-0.0213052341790947,0.2876302607286655,0.0213052341790947
1.508499999999998,-0.0191759324916617,0.2918906094327836,0.0127827914416064
1.5120000000000005,-0.0202405833353782,0.2908259585890671,0.0095870935812048
1.515500000000003,-0.0191759324916617,0.2940216564494687,0.0031956978604016
1.5189999999999984,-0.0042603487041181,0.288694911572382,0.002131047016685
1.5225000000000009,0.0063913957208032,0.2833681666952953,0.002131047016685
1.5260000000000034,0.0181095363186931,0.2812388650078622,-0.0010646508437165
1.5294999999999987,0.0149138384582915,0.2833681666952953,0.0
1.5330000000000013,0.0106534897541733,0.2823035158515788,-0.0010646508437165
1.5365000000000038,0.0085224427374883,0.2780431671474606,-0.0042603487041181
1.5399999999999991,0.0063913957208032,0.2791078179911772,-0.0063913957208032
1.5435000000000016,0.0106534897541733,0.2705853752536888,-0.0181095363186931
1.546999999999997,0.0053267448770866,0.2716500260974054,-0.0181095363186931
1.5504999999999995,-0.002131047016685,0.2737810731140905,-0.0223716303520633
1.554000000000002,-0.0149138384582915,0.288694911572382,-0.0234362811957798
1.5574999999999974,-0.0245026773687483,0.2908259585890671,-0.0266319790561814
1.561,-0.0287630260728665,0.2940216564494687,-0.0191759324916617
1.5645000000000024,-0.02769837522915,0.2940216564494687,-0.0117181405978899
1.5679999999999978,-0.0191759324916617,0.288694911572382,0.0063913957208032
1.5715000000000003,-0.0053267448770866,0.2876302607286655,0.0149138384582915
1.5750000000000028,0.0127827914416064,0.2908259585890671,0.0287630260728665
1.5784999999999982,0.01598023463126,0.2950880526224372,0.029827676916583
1.5820000000000007,0.002131047016685,0.3057397970473587,0.0319587239332681
1.5855000000000032,-0.0042603487041181,0.3068061932203272,0.0330233747769847
1.5889999999999986,-0.0063913957208032,0.3078708440640437,0.029827676916583
1.5925000000000011,-0.0106534897541733,0.3068061932203272,0.0308940730895516
1.5960000000000036,-0.0063913957208032,0.2961527034661538,0.0223716303520633
1.599499999999999,-0.0117181405978899,0.2950880526224372,0.0213052341790947
1.6030000000000015,-0.013849187614575,0.2897613077453506,0.0063913957208032
1.606499999999997,-0.0213052341790947,0.2812388650078622,-0.0053267448770866
1.6099999999999994,-0.0340897709499532,0.2780431671474606,-0.0181095363186931
1.613500000000002,-0.0468725623915597,0.2812388650078622,-0.0319587239332681
1.616999999999997,-0.0394165158270399,0.2727164222703739,-0.0458079115478431
1.6204999999999998,-0.0266319790561814,0.2652586303766022,-0.0607217500061347
1.6240000000000023,0.002131047016685,0.2450180470412239,-0.0777666354811113
1.6274999999999975,0.013849187614575,0.2247774637058457,-0.0873537290623162
1.6310000000000002,0.041545817514473,0.1970790884766957,-0.1022693128498597
1.6345000000000027,0.0639174478665363,0.1906876927558924,-0.1043986145372928
1.637999999999998,0.0980072188164895,0.180035948330971,-0.1065296615539778
1.6415000000000006,0.1171831513081512,0.1757738542976009,-0.1001382658331746
1.6450000000000031,0.1299659427497577,0.1789695521580025,-0.0873537290623162
1.6484999999999983,0.1470108282247343,0.180035948330971,-0.0735062867769931
1.652000000000001,0.1534022239455376,0.1853609478788057,-0.0596570991624181
1.6555000000000035,0.1629910628559944,0.1811005991746876,-0.0500682602519613
1.658999999999999,0.1768385051413174,0.1864273440517743,-0.02769837522915
1.6625000000000014,0.1811005991746876,0.1885583910684593,-0.0181095363186931
1.6659999999999968,0.180035948330971,0.1832316461913727,-0.0095870935812048
1.669499999999999,0.1811005991746876,0.191754088928861,0.0
1.6730000000000018,0.1842962970350892,0.191754088928861,0.0106534897541733
1.6764999999999972,0.180035948330971,0.1960144376329791,0.013849187614575
1.6799999999999995,0.1736428072809158,0.2013411825100658,0.0181095363186931
1.6835000000000022,0.1619246666830259,0.1970790884766957,0.0191759324916617
1.6869999999999976,0.1459461773810178,0.1874919948954908,0.0213052341790947
1.6905,0.1406194325039311,0.1768385051413174,0.0213052341790947
1.6940000000000026,0.1310323389227262,0.1747092034538843,0.0245026773687483
1.697499999999998,0.1214435000122694,0.1672514115601126,0.0223716303520633
1.7010000000000003,0.1012029166768912,0.166186760716396,0.0191759324916617
1.704500000000003,0.083093380358198,0.166186760716396,0.0074577918937717
1.7079999999999984,0.0617864008498512,0.177904901314286,-0.0010646508437165
1.711500000000001,0.0436768645311581,0.1938833906162941,-0.0191759324916617
1.7150000000000034,0.0117181405978899,0.2151903701246408,-0.0383501196540714
1.7184999999999988,-0.0213052341790947,0.2290395577392158,-0.0458079115478431
1.7220000000000013,-0.0436768645311581,0.2301042085829324,-0.0351544217936697
1.7255000000000038,-0.0372854688103548,0.219450718828759,-0.0287630260728665
1.7289999999999992,-0.0053267448770866,0.2077325782308691,-0.029827676916583
1.7325000000000017,0.01598023463126,0.1853609478788057,-0.0308940730895516
1.735999999999997,0.029827676916583,0.1725781564371993,-0.0213052341790947
1.7394999999999996,0.0234362811957798,0.1683160624038291,-0.0191759324916617
1.743000000000002,-0.0010646508437165,0.1725781564371993,-0.0213052341790947
1.7464999999999975,-0.0181095363186931,0.166186760716396,-0.0234362811957798
1.75,-0.0266319790561814,0.1448797812080492,-0.0255673282124649
1.7535000000000025,-0.0266319790561814,0.1310323389227262,-0.0287630260728665
1.756999999999998,-0.0202405833353782,0.1129210572747811,-0.029827676916583
1.7605000000000004,-0.0170448854749766,0.1054650107102613,-0.0308940730895516
1.764000000000003,-0.0085224427374883,0.1012029166768912,-0.0287630260728665
1.7674999999999983,-0.0106534897541733,0.1022693128498597,-0.02769837522915
1.7710000000000008,-0.0181095363186931,0.1001382658331746,-0.0202405833353782
1.7745000000000033,-0.01598023463126,0.0990718696602061,-0.0170448854749766
1.7779999999999987,-0.0010646508437165,0.1033339636935762,-0.0085224427374883
1.7815000000000012,0.0074577918937717,0.0990718696602061,-0.0042603487041181
1.7850000000000037,0.0127827914416064,0.1054650107102613,0.0063913957208032
1.788499999999999,0.0127827914416064,0.1118564064310645,0.0106534897541733
1.7920000000000016,0.002131047016685,0.1182478021518678,0.0213052341790947
1.795499999999997,0.0031956978604016,0.1278348957330726,0.0319587239332681
1.7989999999999997,0.0042603487041181,0.1427504795206162,0.0372854688103548
1.802500000000002,0.002131047016685,0.1480754790684509,0.0372854688103548
1.8059999999999972,0.0,0.1629910628559944,0.0404811666707564
1.8095,-0.0063913957208032,0.166186760716396,0.0479389585645282
1.8130000000000024,-0.0106534897541733,0.1864273440517743,0.0479389585645282
1.8164999999999976,-0.0127827914416064,0.1906876927558924,0.0500682602519613
1.8200000000000005,-0.0223716303520633,0.2066679273871525,0.0490036094082447
1.8235000000000028,-0.0266319790561814,0.2183860679850424,0.0500682602519613
1.8269999999999984,-0.0245026773687483,0.2343645572870505,0.041545817514473
1.830500000000001,-0.0191759324916617,0.2428870000245388,0.0372854688103548
1.8340000000000032,-0.013849187614575,0.2407576983371057,0.0340897709499532
1.8374999999999984,-0.0170448854749766,0.2428870000245388,0.0255673282124649
1.841000000000001,-0.0181095363186931,0.2439533961975074,0.013849187614575
1.844500000000004,-0.0223716303520633,0.2396913021641372,0.0
1.847999999999999,-0.0351544217936697,0.2364956043037356,-0.0106534897541733
1.8515000000000013,-0.0340897709499532,0.2301042085829324,-0.0245026773687483
1.8549999999999969,-0.029827676916583,0.219450718828759,-0.0383501196540714
1.8584999999999996,-0.0330233747769847,0.2151903701246408,-0.0458079115478431
1.8620000000000017,-0.0404811666707564,0.2045368803704674,-0.0490036094082447
1.8654999999999973,-0.0479389585645282,0.2024058333537824,-0.0521993072686464
1.869,-0.0404811666707564,0.1949497867892626,-0.0521993072686464
1.8725000000000025,-0.0351544217936697,0.1928187397725775,-0.0468725623915597
1.8759999999999977,-0.0287630260728665,0.1896230419121759,-0.0458079115478431
1.8795,-0.0191759324916617,0.1864273440517743,-0.0362208179666383
1.883000000000003,-0.0106534897541733,0.1928187397725775,-0.0223716303520633
1.886499999999998,-0.0031956978604016,0.2002765316663493,-0.0095870935812048
1.8900000000000008,0.0010646508437165,0.2130593231079557,0.0106534897541733
1.893500000000003,0.0063913957208032,0.2237128128621291,0.0191759324916617
1.8969999999999985,0.013849187614575,0.233299906443334,0.02769837522915
1.900500000000001,0.0106534897541733,0.2375620004767041,0.0330233747769847
1.9040000000000037,-0.0010646508437165,0.2354309534600191,0.0351544217936697
1.9074999999999989,-0.002131047016685,0.2343645572870505,0.0340897709499532
1.9110000000000011,-0.0170448854749766,0.2173214171413259,0.0255673282124649
1.9144999999999968,-0.0266319790561814,0.2098636252475541,0.0255673282124649
1.9179999999999997,-0.0468725623915597,0.1992101354933808,0.0127827914416064
1.9215000000000015,-0.0585907029894496,0.191754088928861,0.0031956978604016
1.9249999999999967,-0.0500682602519613,0.1747092034538843,-0.0063913957208032
1.9285,-0.0468725623915597,0.1725781564371993,-0.01598023463126
1.9320000000000024,-0.0351544217936697,0.1608600158393093,-0.0255673282124649
1.9354999999999976,-0.0287630260728665,0.1565979218059392,-0.029827676916583
1.939,-0.0149138384582915,0.1512729222581045,-0.0383501196540714
1.9425000000000023,-0.0095870935812048,0.1427504795206162,-0.0479389585645282
1.945999999999998,-0.0063913957208032,0.1289012919060412,-0.0521993072686464
1.9495000000000005,-0.0042603487041181,0.1203788491685528,-0.0660484948832214
1.953000000000003,0.0063913957208032,0.0990718696602061,-0.0724398906040246
1.9564999999999984,0.0149138384582915,0.0820287295144815,-0.0852244273748831
1.9600000000000009,0.0245026773687483,0.0671131457269379,-0.0820287295144815
1.9635000000000036,0.0287630260728665,0.0660484948832214,-0.0767019846373948
1.9669999999999987,0.0500682602519613,0.0639174478665363,-0.0703088435873395
1.9705000000000013,0.0628527970228197,0.0671131457269379,-0.0649838440395048
1.974000000000004,0.0735062867769931,0.0756355884644262,-0.0521993072686464
1.9774999999999991,0.0809623333415129,0.0777666354811113,-0.041545817514473
1.9810000000000016,0.0980072188164895,0.0884201252352847,-0.0223716303520633
1.984499999999997,0.1075943123976944,0.096942567972773,-0.0117181405978899
1.9879999999999995,0.1150521042914662,0.1022693128498597,0.0095870935812048
1.991500000000002,0.1278348957330726,0.1054650107102613,0.0191759324916617
1.9949999999999972,0.1406194325039311,0.1161167551351827,0.0287630260728665
1.9985,0.1342280367831279,0.1214435000122694,0.0340897709499532
2.0020000000000024,0.1374237346435295,0.1235745470289545,0.0468725623915597
2.005499999999998,0.150206526085136,0.1214435000122694,0.0543303542853314
2.0090000000000003,0.1683160624038291,0.1225098961852379,0.0585907029894496
2.012500000000003,0.1832316461913727,0.1203788491685528,0.0639174478665363
2.0159999999999982,0.2045368803704674,0.1118564064310645,0.069244192743623
2.0195000000000007,0.2237128128621291,0.1043986145372928,0.0639174478665363
2.0230000000000032,0.2535404897787122,0.1086607085706629,0.0617864008498512
2.026499999999998,0.2673896773932873,0.1043986145372928,0.0596570991624181
2.030000000000001,0.2705853752536888,0.1075943123976944,0.0479389585645282
2.033500000000004,0.2546051406224288,0.1033339636935762,0.0234362811957798
2.036999999999999,0.2237128128621291,0.1012029166768912,0.01598023463126
2.040500000000001,0.2013411825100658,0.0926804739394028,0.013849187614575
2.043999999999997,0.1693824585767977,0.0756355884644262,0.0149138384582915
2.0474999999999994,0.1225098961852379,0.0436768645311581,0.0362208179666383
2.051000000000002,-0.0351544217936697,-0.0340897709499532,0.0223716303520633
2.0544999999999973,-0.1715135055934827,-0.0948115209560879,-0.013849187614575
2.058,-0.3451563128743986,-0.1811005991746876,-0.0681795418999064
2.0615000000000023,-0.4623394641825499,-0.2556715367953973,-0.1022693128498597
2.0649999999999977,-0.5773915684740161,-0.3387649171535954,-0.1299659427497577
2.0685,-0.626395177882261,-0.3941599222826434,-0.1416840833476476
2.0720000000000027,-0.644504714200954,-0.4602084171658648,-0.1448797812080492
2.075499999999998,-0.6221330838488908,-0.4996249329929048,-0.1416840833476476
2.0790000000000006,-0.5550199381219528,-0.5518242402615512,-0.1416840833476476
2.082500000000003,-0.4825800475179281,-0.5901743599156226,-0.1438151303643327
2.0859999999999985,-0.3717882919305801,-0.642373667184269,-0.1480754790684509
2.089500000000001,-0.2801724688348938,-0.683921230027994,-0.1576643179789077
2.0930000000000035,-0.1544686201185061,-0.7382515843133254,-0.1757738542976009
2.096499999999999,-0.0713752397603081,-0.7776663548111135,-0.1896230419121759
2.1000000000000014,0.0234362811957798,-0.8298656620797599,-0.2077325782308691
2.103499999999997,0.0884201252352847,-0.8660864800463982,-0.2237128128621291
2.1069999999999998,0.1480754790684509,-0.9086986937338396,-0.2439533961975074
2.110500000000002,0.1789695521580025,-0.9374617198067065,-0.2556715367953973
2.113999999999997,0.1960144376329791,-0.970485094583691,-0.2695207244099723
2.1175,0.1981454846496642,-0.9885963762316362,-0.2759121201307756
2.121000000000002,0.1896230419121759,-1.0013791676732426,-0.2897613077453506
2.1244999999999976,0.1672514115601126,-1.0067059125503293,-0.2982837504828389
2.128,0.1470108282247343,-1.007770563394046,-0.302544099186957
2.1315000000000026,0.1225098961852379,-0.9853989330419826,-0.3057397970473587
2.134999999999998,0.0990718696602061,-0.9694204437399744,-0.3078708440640437
2.1385000000000005,0.0788312863248278,-0.9342660219463046,-0.3153286359578155
2.142000000000003,0.0681795418999064,-0.8980452039796664,-0.3238510786953038
2.1454999999999984,0.0660484948832214,-0.8490415945714216,-0.3345028231202252
2.149000000000001,0.069244192743623,-0.80642938088398,-0.341960615013997
2.1525000000000034,0.0788312863248278,-0.7435765838611602,-0.3440916620306821
2.155999999999999,0.0905494269227178,-0.6998997193300021,-0.341960615013997
2.1595000000000013,0.1118564064310645,-0.6349176206197492,-0.3440916620306821
2.1629999999999967,0.1267702448893561,-0.5816519171781342,-0.3376985209806268
2.166499999999999,0.1416840833476476,-0.517734469311598,-0.3387649171535954
2.1700000000000017,0.152337573101821,-0.4708619069200382,-0.3408942188410284
2.173499999999997,0.1491418752414194,-0.4165315526347067,-0.3483520107348002
2.177,0.1470108282247343,-0.3856374795451551,-0.3536787556118869
2.180500000000002,0.1289012919060412,-0.355809802628572,-0.3590055004889736
2.183999999999997,0.1129210572747811,-0.3376985209806268,-0.3632658491930918
2.1875,0.083093380358198,-0.3259803803827369,-0.3664615470534934
2.1910000000000025,0.0575260521457331,-0.3185243338182171,-0.3643322453660603
2.194499999999998,0.02769837522915,-0.3206536355056502,-0.3536787556118869
2.1980000000000004,0.0042603487041181,-0.3281114273994219,-0.3472873598910836
2.201500000000003,-0.0149138384582915,-0.3408942188410284,-0.3281114273994219
2.2049999999999983,-0.0191759324916617,-0.3483520107348002,-0.316393286801532
2.208500000000001,-0.0308940730895516,-0.3590055004889736,-0.3046751462036421
2.2120000000000037,-0.029827676916583,-0.3675279432264619,-0.2972173543098703
2.2154999999999987,-0.0170448854749766,-0.3760503859639502,-0.2823035158515788
2.219000000000001,-0.0042603487041181,-0.3856374795451551,-0.2769767709744921
2.222500000000004,0.01598023463126,-0.3898978282492732,-0.2673896773932873
2.225999999999999,0.0426122136874415,-0.3930952714389268,-0.258867234655799
2.2295000000000016,0.0671131457269379,-0.3877685265618402,-0.2418223491808223
2.232999999999997,0.0958761717998045,-0.3888331774055567,-0.2354309534600191
2.2364999999999995,0.1171831513081512,-0.3771150368076668,-0.2205171150017275
2.240000000000002,0.1278348957330726,-0.3643322453660603,-0.2045368803704674
2.2434999999999974,0.138488385487246,-0.3664615470534934,-0.1874919948954908
2.247,0.1374237346435295,-0.3632658491930918,-0.1693824585767977
2.2505000000000024,0.1310323389227262,-0.3685925940701784,-0.1470108282247343
2.253999999999998,0.1203788491685528,-0.3707236410868635,-0.1320969897664428
2.2575000000000003,0.1001382658331746,-0.3771150368076668,-0.1150521042914662
2.261000000000003,0.0798976824977964,-0.38350643252847,-0.1097253594143795
2.264499999999998,0.0521993072686464,-0.3941599222826434,-0.0926804739394028
2.2680000000000007,0.0330233747769847,-0.3984202709867616,-0.083093380358198
2.271500000000003,0.013849187614575,-0.4101401569139035,-0.069244192743623
2.2749999999999986,0.0010646508437165,-0.4154651564617382,-0.0575260521457331
2.278500000000001,-0.0106534897541733,-0.4197272504951083,-0.0426122136874415
2.282000000000004,-0.01598023463126,-0.42292294835551,-0.0394165158270399
2.285499999999999,-0.0191759324916617,-0.4271832970596281,-0.0330233747769847
2.289000000000001,-0.0127827914416064,-0.4271832970596281,-0.0266319790561814
2.292499999999997,-0.0127827914416064,-0.4357057397971164,-0.02769837522915
2.296,0.0010646508437165,-0.4367721359700849,-0.0287630260728665
2.299500000000002,0.0149138384582915,-0.4346410889533998,-0.0362208179666383
2.3029999999999973,0.02769837522915,-0.4314453910929982,-0.041545817514473
2.3065,0.0490036094082447,-0.4271832970596281,-0.0372854688103548
2.3100000000000023,0.0724398906040246,-0.4154651564617382,-0.0394165158270399
2.3134999999999977,0.1001382658331746,-0.3930952714389268,-0.0308940730895516
2.317,0.1129210572747811,-0.3803107346680683,-0.02769837522915
2.3205000000000027,0.1406194325039311,-0.3526141047681703,-0.0191759324916617
2.323999999999998,0.1534022239455376,-0.3355692192931938,-0.0106534897541733
2.327500000000001,0.1576643179789077,-0.3100018910807288,0.0106534897541733
2.331000000000003,0.1565979218059392,-0.2876302607286655,0.0223716303520633
2.3344999999999985,0.1448797812080492,-0.260998281672484,0.0479389585645282
2.338000000000001,0.1289012919060412,-0.2386266513204207,0.0639174478665363
2.3415000000000035,0.1022693128498597,-0.2066679273871525,0.0884201252352847
2.344999999999999,0.0735062867769931,-0.1896230419121759,0.1012029166768912
2.3485000000000014,0.0340897709499532,-0.1704471094205142,0.1150521042914662
2.3519999999999968,0.0,-0.1629910628559944,0.1257055940456395
2.3554999999999997,-0.0362208179666383,-0.150206526085136,0.136357338470561
2.3590000000000018,-0.0607217500061347,-0.1448797812080492,0.1406194325039311
2.362499999999997,-0.0873537290623162,-0.1352926876268444,0.1448797812080492
2.366,-0.0958761717998045,-0.1320969897664428,0.1544686201185061
2.369500000000002,-0.1001382658331746,-0.1225098961852379,0.1629910628559944
2.3729999999999976,-0.0937468701123714,-0.1182478021518678,0.1672514115601126
2.3765,-0.0798976824977964,-0.110790010258096,0.1715135055934827
2.3800000000000026,-0.0617864008498512,-0.1043986145372928,0.1704471094205142
2.383499999999998,-0.0330233747769847,-0.0937468701123714,0.1704471094205142
2.3870000000000005,-0.0074577918937717,-0.0862890782185996,0.1715135055934827
2.390500000000003,0.0223716303520633,-0.0798976824977964,0.1725781564371993
2.3939999999999984,0.0468725623915597,-0.0703088435873395,0.1747092034538843
2.397500000000001,0.0777666354811113,-0.0575260521457331,0.1821652500184041
2.401000000000004,0.096942567972773,-0.0404811666707564,0.1832316461913727
2.4044999999999987,0.1086607085706629,-0.0245026773687483,0.1832316461913727
2.4080000000000013,0.1118564064310645,-0.01598023463126,0.1821652500184041
2.411500000000004,0.1043986145372928,-0.0085224427374883,0.1832316461913727
2.414999999999999,0.0926804739394028,-0.0106534897541733,0.1789695521580025
2.4185000000000016,0.0798976824977964,-0.01598023463126,0.1789695521580025
2.421999999999997,0.0564614013020165,-0.0223716303520633,0.1789695521580025
2.4254999999999995,0.0245026773687483,-0.02769837522915,0.1832316461913727
2.429000000000002,0.0095870935812048,-0.0351544217936697,0.1885583910684593
2.432499999999997,-0.013849187614575,-0.0479389585645282,0.1949497867892626
2.436,-0.0319587239332681,-0.0607217500061347,0.2024058333537824
2.4395000000000024,-0.0490036094082447,-0.0841580312019145,0.2109282760912707
2.442999999999998,-0.0500682602519613,-0.1086607085706629,0.2130593231079557
2.4465000000000003,-0.055395005129048,-0.1342280367831279,0.2183860679850424
2.450000000000003,-0.0521993072686464,-0.1555332709622227,0.2130593231079557
2.4534999999999982,-0.041545817514473,-0.1864273440517743,0.2098636252475541
2.4570000000000007,-0.0340897709499532,-0.2109282760912707,0.2066679273871525
2.4605000000000032,-0.0287630260728665,-0.2386266513204207,0.1970790884766957
2.463999999999998,-0.0234362811957798,-0.260998281672484,0.2002765316663493
2.467500000000001,-0.0117181405978899,-0.2812388650078622,0.2013411825100658
2.471000000000004,-0.0031956978604016,-0.2929570056057522,0.1981454846496642
2.474499999999999,0.0042603487041181,-0.3089354949077603,0.1970790884766957
2.478000000000001,0.0117181405978899,-0.3217200316786187,0.1928187397725775
2.481499999999997,0.0191759324916617,-0.3408942188410284,0.1906876927558924
2.4849999999999994,0.0245026773687483,-0.3462209637181151,0.1853609478788057
2.488500000000002,0.0191759324916617,-0.3568744534722885,0.1832316461913727
2.4919999999999973,0.01598023463126,-0.3622011983493752,0.1853609478788057
2.4955,0.0117181405978899,-0.3749839897909817,0.1832316461913727
2.4990000000000023,0.0074577918937717,-0.3781796876513833,0.191754088928861
2.5024999999999977,0.0,-0.3792460838243518,0.1970790884766957
2.506,-0.0085224427374883,-0.3781796876513833,0.205601531214184
2.5095000000000027,-0.0255673282124649,-0.3771150368076668,0.2205171150017275
2.512999999999998,-0.029827676916583,-0.3803107346680683,0.2301042085829324
2.5165000000000006,-0.0394165158270399,-0.38350643252847,0.2396913021641372
2.520000000000003,-0.0340897709499532,-0.3867021303888716,0.247149094057909
2.5234999999999985,-0.0255673282124649,-0.3952245731263599,0.2524758389349957
2.527000000000001,-0.013849187614575,-0.4058780628805333,0.2578025838120824
2.5305000000000035,0.002131047016685,-0.41120480775762,0.258867234655799
2.533999999999999,0.0117181405978899,-0.4165315526347067,0.2631275833599171
2.5375000000000014,0.0340897709499532,-0.4314453910929982,0.260998281672484
2.540999999999997,0.0340897709499532,-0.4399678338304866,0.2599318854995155
2.5444999999999998,0.0394165158270399,-0.4516859744283765,0.2546051406224288
2.548000000000002,0.0372854688103548,-0.4612730680095813,0.2535404897787122
2.551499999999997,0.02769837522915,-0.4687308599033531,0.2450180470412239
2.555,0.0170448854749766,-0.4729912086074713,0.2450180470412239
2.558500000000002,0.002131047016685,-0.4772533026408414,0.2503447919183106
2.5619999999999976,-0.013849187614575,-0.4751222556241564,0.2578025838120824
2.5655,-0.0330233747769847,-0.4740576047804398,0.2631275833599171
2.5690000000000026,-0.0532657034416149,-0.4708619069200382,0.2716500260974054
2.572499999999998,-0.0724398906040246,-0.4623394641825499,0.2737810731140905
2.5760000000000005,-0.0948115209560879,-0.4559463231324946,0.2727164222703739
2.579500000000003,-0.1214435000122694,-0.4452945787075733,0.2716500260974054
2.5829999999999984,-0.1438151303643327,-0.4357057397971164,0.2673896773932873
2.586500000000001,-0.1715135055934827,-0.4144005056180216,0.2567361876391139
2.5900000000000034,-0.1928187397725775,-0.3962909692993285,0.2514094427620272
2.593499999999999,-0.2205171150017275,-0.3622011983493752,0.2364956043037356
2.5970000000000013,-0.2322352555996175,-0.3483520107348002,0.2247774637058457
2.6004999999999967,-0.2524758389349957,-0.3366338701369103,0.2151903701246408
2.603999999999999,-0.2652586303766022,-0.3270467765557054,0.2109282760912707
2.6075000000000017,-0.2791078179911772,-0.3110665419244454,0.2098636252475541
2.610999999999997,-0.2780431671474606,-0.300413052170272,0.205601531214184
2.6145,-0.2801724688348938,-0.2844345628682639,0.1960144376329791
2.618000000000002,-0.2801724688348938,-0.2663250265495707,0.1938833906162941
2.621499999999997,-0.2791078179911772,-0.2503447919183106,0.1768385051413174
2.625,-0.2769767709744921,-0.2418223491808223,0.166186760716396
2.6285000000000025,-0.2737810731140905,-0.2269085107225308,0.1470108282247343
2.631999999999998,-0.2769767709744921,-0.2215817658454441,0.1257055940456395
2.6355000000000004,-0.2844345628682639,-0.2130593231079557,0.1012029166768912
2.639000000000003,-0.288694911572382,-0.2119946722642392,0.0852244273748831
2.6424999999999983,-0.2950880526224372,-0.2109282760912707,0.0671131457269379
2.646000000000001,-0.2972173543098703,-0.2119946722642392,0.0500682602519613
2.6495000000000037,-0.302544099186957,-0.2215817658454441,0.0340897709499532
2.6529999999999987,-0.3036087500306735,-0.2301042085829324,0.0245026773687483
2.656500000000001,-0.2972173543098703,-0.2364956043037356,0.013849187614575
2.660000000000004,-0.2929570056057522,-0.2396913021641372,0.0117181405978899
2.663499999999999,-0.2791078179911772,-0.2407576983371057,0.0149138384582915
2.6670000000000016,-0.2716500260974054,-0.2396913021641372,0.0234362811957798
2.670499999999997,-0.2514094427620272,-0.2322352555996175,0.041545817514473
2.6739999999999995,-0.2418223491808223,-0.2290395577392158,0.0585907029894496
2.677500000000002,-0.2354309534600191,-0.2226464166891606,0.0884201252352847
2.6809999999999974,-0.2311688594266489,-0.2162550209683574,0.1193124529955843
2.6845,-0.2269085107225308,-0.2034722295267509,0.1629910628559944
2.6880000000000024,-0.2269085107225308,-0.1938833906162941,0.2024058333537824
2.691499999999998,-0.2258421145495622,-0.1821652500184041,0.2567361876391139
2.6950000000000003,-0.2343645572870505,-0.1747092034538843,0.2929570056057522
2.698500000000003,-0.2418223491808223,-0.1597953649955928,0.3430252658577135
2.701999999999998,-0.2514094427620272,-0.1534022239455376,0.3739193389472651
2.7055000000000007,-0.2599318854995155,-0.1438151303643327,0.4069427137242498
2.709000000000003,-0.2705853752536888,-0.1310323389227262,0.4271832970596281
2.7124999999999986,-0.2812388650078622,-0.124639197872671,0.4442281825346047
2.716000000000001,-0.2950880526224372,-0.1235745470289545,0.4548816722887781
2.719500000000004,-0.3089354949077603,-0.1139874534477496,0.4623394641825499
2.722999999999999,-0.3238510786953038,-0.1161167551351827,0.4623394641825499
2.726500000000001,-0.3334381722765087,-0.1235745470289545,0.4612730680095813
2.729999999999997,-0.3408942188410284,-0.1257055940456395,0.4580773701491797
2.7335,-0.3398295679973119,-0.138488385487246,0.4570127193054631
2.737000000000002,-0.3313071252598236,-0.1427504795206162,0.452750625272093
2.7404999999999973,-0.3089354949077603,-0.150206526085136,0.452750625272093
2.744,-0.2844345628682639,-0.1587289688226243,0.4495549274116914
2.7475000000000023,-0.2396913021641372,-0.1629910628559944,0.4506213235846599
2.7509999999999977,-0.2045368803704674,-0.1651203645434275,0.4538170214450616
2.7545,-0.150206526085136,-0.177904901314286,0.4687308599033531
2.7580000000000027,-0.1043986145372928,-0.1842962970350892,0.4868403962220463
2.761499999999998,-0.0383501196540714,-0.1896230419121759,0.5209301671719996
2.765000000000001,0.013849187614575,-0.191754088928861,0.5486285424011496
2.768500000000003,0.0958761717998045,-0.191754088928861,0.5944364539489927
2.7719999999999985,0.1555332709622227,-0.1896230419121759,0.628524479569694
2.775500000000001,0.2375620004767041,-0.1842962970350892,0.6892479749050807
2.7790000000000035,0.300413052170272,-0.180035948330971,0.7414472821737271
2.782499999999999,0.3717882919305801,-0.1704471094205142,0.8224096155152401
2.7860000000000014,0.425053995372195,-0.1587289688226243,0.8820667146776582
2.7894999999999968,0.4772533026408414,-0.1416840833476476,0.958766953985801
2.7929999999999997,0.5006895838366213,-0.1342280367831279,1.012032657427416
2.7965000000000018,0.5145387714511963,-0.1214435000122694,1.0780811523106375
2.799999999999997,0.503885281697023,-0.1203788491685528,1.1217580168417955
2.8035,0.4740576047804398,-0.1161167551351827,1.16649953221667
2.807000000000002,0.43890318298677,-0.1075943123976944,1.1952625582895369
2.8104999999999976,0.3845728287014385,-0.0980072188164895,1.2261566313790884
2.814,0.3494166615785167,-0.0841580312019145,1.2506593087478366
2.8175000000000026,0.3110665419244454,-0.0671131457269379,1.267704194222813
2.820999999999998,0.2833681666952953,-0.0490036094082447,1.28048698566442
2.8245000000000005,0.2663250265495707,-0.0308940730895516,1.2911404754185931
2.828000000000003,0.260998281672484,-0.0202405833353782,1.2954008241227113
2.8314999999999984,0.2578025838120824,-0.0085224427374883,1.300727568999798
2.835000000000001,0.260998281672484,-0.0053267448770866,1.2975318711393966
2.838500000000004,0.2695207244099723,-0.0053267448770866,1.286878381385223
2.8419999999999987,0.274847469287059,-0.0042603487041181,1.2783559386477348
2.8455000000000013,0.2854992137119804,-0.0106534897541733,1.254919657451955
2.849000000000004,0.2982837504828389,-0.0213052341790947,1.2325480270998914
2.852499999999999,0.3153286359578155,-0.0447432607041266,1.203785001027025
2.8560000000000016,0.3366338701369103,-0.0607217500061347,1.1803487198312452
2.859499999999997,0.3653968962097769,-0.0798976824977964,1.144129647193859
2.8629999999999995,0.3845728287014385,-0.0958761717998045,1.1174959228084254
2.866500000000002,0.4144005056180216,-0.1225098961852379,1.0961906886293304
2.869999999999997,0.4346410889533998,-0.1459461773810178,1.0844725480314406
2.8735,0.4591437663221482,-0.1725781564371993,1.081276850171039
2.8770000000000024,0.4740576047804398,-0.2034722295267509,1.0855371988751572
2.880499999999998,0.4879067923950148,-0.2375620004767041,1.1036484805231024
2.8840000000000003,0.4932317919428495,-0.2641939795328856,1.1281494125625986
2.887500000000003,0.4900360940824479,-0.2982837504828389,1.1718262770937566
2.8909999999999982,0.492167141099133,-0.3259803803827369,1.2069806988874263
2.8945000000000007,0.4932317919428495,-0.3664615470534934,1.2645067510331598
2.8980000000000032,0.4985585368199362,-0.3920288752659583,1.3028586160164832
2.901499999999998,0.5219948180157161,-0.4218582975117934,1.3529268762684443
2.905000000000001,0.547562146228181,-0.4410324846742031,1.3806252514975943
2.908500000000004,0.5880433128989375,-0.4676662090596366,1.402996881849658
2.911999999999999,0.6221330838488908,-0.4847093492053612,1.4200400219953824
2.915500000000001,0.6658099483800488,-0.4996249329929048,1.4296288609058392
2.918999999999997,0.6924436727654824,-0.5102766774178261,1.4285624647328707
2.9224999999999994,0.7201403026653803,-0.5219948180157161,1.4243021160287526
2.926000000000002,0.7339894902799553,-0.5401060996636612,1.4104529284141776
2.9294999999999973,0.7478386778945303,-0.5528888911052677,1.3912769959225155
2.933,0.7542300736153336,-0.5603466829990394,1.3710364125871377
2.9365000000000023,0.7606214693361367,-0.5667380787198427,1.324163850195578
2.9399999999999977,0.767014610386192,-0.5773915684740161,1.2932697771060262
2.9435,0.7680792612299085,-0.5848476150385359,1.2421368660103485
2.9470000000000027,0.7542300736153336,-0.5912390107593392,1.1995246523229068
2.950499999999998,0.727598094559152,-0.605088198373914,1.1462589488812918
2.9540000000000006,0.7041618133633722,-0.6136106411114024,1.1100398762439057
2.957500000000003,0.6572875056425604,-0.6317219227593476,1.0610362668356608
2.9609999999999985,0.6200020368322057,-0.6455693650446706,1.0269464958857075
2.964500000000001,0.5699337765802444,-0.6562228547988439,0.9939213757794708
2.9680000000000035,0.5443664483677794,-0.6583539018155291,0.9790075373211792
2.971499999999999,0.5262569120490862,-0.6594185526592456,0.9790075373211792
2.9750000000000014,0.5230612141886847,-0.6540918077821589,0.9907256779190692
2.978499999999997,0.547562146228181,-0.6466357612176391,1.0333378916065108
2.9819999999999998,0.5763251723010476,-0.6317219227593476,1.0695587095731491
2.985500000000002,0.6189373859884891,-0.6210684330051742,1.1100398762439057
2.988999999999997,0.6711366932571355,-0.6061545945468827,1.157977089479182
2.9925,0.7148135577882937,-0.5997614534968274,1.1952625582895369
2.996000000000002,0.7680792612299085,-0.600827849669796,1.2378747719769785
2.9994999999999976,0.8043000791965469,-0.5986968026531109,1.2666377980498449
3.003,0.8511726415881066,-0.5955011047927092,1.2879447775581916
3.0065000000000026,0.8852624125380599,-0.5955011047927092,1.2954008241227113
3.009999999999998,0.9225478813484148,-0.5986968026531109,1.300727568999798
3.0135000000000005,0.9491798604045962,-0.600827849669796,1.2922051262623095
3.017000000000003,0.986465329214951,-0.600827849669796,1.2719645429269315
3.0204999999999984,1.0088369595670144,-0.5997614534968274,1.2527886104352697
3.024000000000001,1.0386646364835974,-0.5944364539489927,1.2123074437645132
3.0275000000000034,1.0599698706626923,-0.5912390107593392,1.1867401155520485
3.030999999999999,1.0908639437522438,-0.5827165680218508,1.1430632510208902
3.0345000000000013,1.1132355741043072,-0.5827165680218508,1.1100398762439057
3.0379999999999967,1.1430632510208902,-0.5752605214573311,1.0610362668356608
3.041499999999999,1.1633038343562685,-0.5646070317031576,1.0248154488690224
3.0450000000000017,1.1984582561499384,-0.5571509851386378,0.9747471886170612
3.048499999999997,1.2218962826749702,-0.5411707505073777,0.940657417667108
3.052,1.2527886104352697,-0.519865516328283,0.905502995873438
3.055500000000002,1.2719645429269315,-0.4985585368199362,0.8884581103984615
3.058999999999997,1.2783559386477348,-0.4719265577637547,0.8820667146776582
3.0625,1.2698334959102464,-0.4559463231324946,0.8959141569629812
3.0660000000000025,1.2304187254124583,-0.43890318298677,0.9321349749296196
3.069499999999998,1.1835444176916468,-0.4346410889533998,0.9800739334941478
3.0730000000000004,1.1047131313668188,-0.4197272504951083,1.0599698706626923
3.076500000000003,1.0333378916065108,-0.4197272504951083,1.132411506595969
3.0799999999999983,0.9385263706504228,-0.4207919013388249,1.2346790741165767
3.083500000000001,0.8682175270630832,-0.4303807402492817,1.314576756614373
3.0870000000000037,0.7947112402860901,-0.4346410889533998,1.409388277570461
3.0904999999999987,0.7499697249112154,-0.4463592295512898,1.476501423297399
3.094000000000001,0.7265316983861836,-0.4602084171658648,1.5542680587785105
3.097500000000004,0.7244023966987505,-0.4719265577637547,1.60114062117007
3.100999999999999,0.7489033287382468,-0.4836446983616446,1.649079579734598
3.1045000000000016,0.7893844954090034,-0.4889714432387313,1.677842605807465
3.107999999999997,0.8554329902922247,-0.4932317919428495,1.7023452831762131
3.1114999999999995,0.9161547402983594,-0.5028206308533064,1.7140634237741033
3.115000000000002,1.0130973082711323,-0.5124077244345112,1.719388423321938
3.1184999999999974,1.0887328967355587,-0.5219948180157161,1.7225858665115914
3.122,1.2005893031666235,-0.5315836569261729,1.7098013297407328
3.1255000000000024,1.29646722029568,-0.5369104018032596,1.6906253972490712
3.128999999999998,1.4360202566266425,-0.5443664483677794,1.6607977203324882
3.1325000000000003,1.5436145690243368,-0.5454328445407479,1.6373614391367084
3.136000000000003,1.7023452831762131,-0.5411707505073777,1.6000759703263534
3.139499999999998,1.822722387015514,-0.5369104018032596,1.573443991270172
3.1430000000000007,1.9793220541507053,-0.5251905158761178,1.534027475443132
3.146500000000003,2.0890474135650847,-0.5156034222949128,1.5052644493702656
3.1499999999999986,2.2094262627336376,-0.5092120265741096,1.4637186318557929
3.153500000000001,2.262690220846,-0.5124077244345112,1.4370849074703589
3.157000000000004,2.2999756896563555,-0.5145387714511963,1.409388277570461
3.160499999999999,2.2914532469188678,-0.519865516328283,1.3870166472183978
3.164000000000001,2.237122892633536,-0.5156034222949128,1.374233855776791
3.167499999999997,2.1636183511857947,-0.5113430735907947,1.3689071108997044
3.171,2.027261012715233,-0.4985585368199362,1.383820949357996
3.174500000000002,1.899424371652909,-0.4825800475179281,1.3966037407996024
3.1779999999999973,1.706605631880331,-0.4655351620429515,1.4285624647328707
3.1815,1.5595948036555969,-0.4602084171658648,1.453065142101619
3.1850000000000023,1.3635803660226178,-0.4495549274116914,1.4733057254369972
3.1884999999999977,1.2346790741165767,-0.4431635316908882,1.4818281681744856
3.192,1.0876682458918423,-0.4293143440763132,1.486088516878604
3.1955000000000027,1.002443818516959,-0.4207919013388249,1.480763517330769
3.198999999999998,0.928939277069218,-0.4037470158638482,1.464783282699509
3.202500000000001,0.9065676467171546,-0.3877685265618402,1.448803048068249
3.206000000000003,0.9150900894546428,-0.3600701513326901,1.4147150224475475
3.2094999999999985,0.944917766371226,-0.3376985209806268,1.390212345078799
3.213000000000001,1.009901610410731,-0.3036087500306735,1.3507958292517597
3.2165000000000035,1.0780811523106375,-0.2716500260974054,1.326294897212263
3.219999999999999,1.1728926732667255,-0.2407576983371057,1.3017922198435146
3.2235000000000014,1.247461865558183,-0.2215817658454441,1.286878381385223
3.2269999999999968,1.338013037810153,-0.1896230419121759,1.275160240787333
3.2304999999999997,1.3944744391121693,-0.1651203645434275,1.2666377980498449
3.2340000000000018,1.4541297929453356,-0.1416840833476476,1.254919657451955
3.237499999999997,1.4850238660348871,-0.1310323389227262,1.2389411681499467
3.241,1.5148515429514704,-0.1278348957330726,1.2176341886416
3.244500000000002,1.5308317775827305,-0.1342280367831279,1.2005893031666235
3.2479999999999976,1.5404188711639353,-0.1480754790684509,1.1856754647083318
3.2515,1.5372231733035338,-0.1672514115601126,1.176088371127127
3.2550000000000026,1.5191136369848404,-0.191754088928861,1.1856754647083318
3.258499999999998,1.494610959616092,-0.2119946722642392,1.1941979074458202
3.2620000000000005,1.4424116523474455,-0.2407576983371057,1.2261566313790884
3.265500000000003,1.4019304856766894,-0.258867234655799,1.2506593087478366
3.2689999999999984,1.3390776886538696,-0.2876302607286655,1.2836826835248214
3.272500000000001,1.2975318711393966,-0.3078708440640437,1.3049879177039163
3.276000000000004,1.2463972147144666,-0.3472873598910836,1.3337526891060347
3.2794999999999987,1.2208298865020015,-0.3824417816847534,1.3486665275643264
3.2830000000000013,1.208047095060395,-0.4239875991992265,1.3571889703018147
3.286500000000004,1.2133738399374818,-0.4548816722887781,1.356122574128846
3.289999999999999,1.2400058189936634,-0.4996249329929048,1.342273386514271
3.2935000000000016,1.273029193770648,-0.5273215628928027,1.3294905950726643
3.296999999999997,1.3273595480559794,-0.5603466829990394,1.3060543138768848
3.3004999999999995,1.369971761743421,-0.5859140112115044,1.282618032681105
3.304000000000002,1.421106418168351,-0.6200020368322057,1.247461865558183
3.307499999999997,1.450934095084934,-0.6434400633572375,1.2165695377978836
3.311,1.483959215191171,-0.670072042413419,1.1686305792333551
3.3145000000000024,1.4967420066327772,-0.6828548338550254,1.130280459579284
3.317999999999998,1.5159179391244388,-0.697768672313317,1.079145803154354
3.3215000000000003,1.534027475443132,-0.6988350684862855,1.0461224283773694
3.325000000000003,1.5702482934097703,-0.6913772765925138,1.0088369595670144
3.3284999999999982,1.6043380643597236,-0.6722030894301041,0.9832696313545496
3.3320000000000007,1.66825551222626,-0.6317219227593476,0.9577023031420844
3.3355000000000032,1.725781564371993,-0.5912390107593392,0.9395927668233912
3.338999999999998,1.8056775015405373,-0.5283879590657713,0.9385263706504228
3.342500000000001,1.865334600702956,-0.4793843496575265,0.9385263706504228
3.346000000000004,1.9420365853403505,-0.4026823650201317,0.9640936988628878
3.349499999999999,1.9931712417652805,-0.3430252658577135,0.9885963762316362
3.353000000000001,2.0411084550005567,-0.2673896773932873,1.012032657427416
3.356499999999997,2.0645447361963365,-0.2141239739516723,1.0312068445898257
3.3599999999999994,2.0666757832130216,-0.1342280367831279,1.0429249851877156
3.363500000000002,2.060284387492218,-0.0798976824977964,1.0503827770814873
3.3669999999999973,2.034717059279753,-0.0042603487041181,1.0471870792210858
3.3705,2.0016936845027686,0.0521993072686464,1.0418603343439992
3.3740000000000023,1.9505590280778389,0.1257055940456395,1.009901610410731
3.3774999999999977,1.899424371652909,0.177904901314286,0.9779428864774626
3.381,1.8280491318926009,0.2386266513204207,0.9278728808962494
3.3845000000000027,1.774785173780238,0.2812388650078622,0.8820667146776582
3.387999999999998,1.6991478399865596,0.3195889846619337,0.8192139176548384
3.3915000000000006,1.6416217878408266,0.3408942188410284,0.7702103082465936
3.395000000000003,1.5819664340076602,0.3664615470534934,0.697768672313317
3.3984999999999985,1.5436145690243368,0.3728546881035486,0.642373667184269
3.402000000000001,1.5031334023535805,0.3781796876513833,0.5667380787198427
3.4055000000000035,1.483959215191171,0.3760503859639502,0.508147375730393
3.408999999999999,1.4690453767328793,0.3707236410868635,0.4314453910929982
3.4125000000000014,1.464783282699509,0.3675279432264619,0.3771150368076668
3.415999999999997,1.476501423297399,0.3717882919305801,0.3174579376452486
3.4194999999999998,1.486088516878604,0.3653968962097769,0.2833681666952953
3.423000000000002,1.5116558450910689,0.3632658491930918,0.2407576983371057
3.426499999999997,1.5414852673369035,0.3536787556118869,0.2077325782308691
3.43,1.5862267827117784,0.3462209637181151,0.1736428072809158
3.433500000000002,1.626707949382535,0.341960615013997,0.1576643179789077
3.4369999999999976,1.684234001528268,0.3430252658577135,0.1406194325039311
3.4405,1.7268462152157096,0.3408942188410284,0.1342280367831279
3.4440000000000026,1.7833076165177262,0.3430252658577135,0.1544686201185061
3.447499999999998,1.8301801789092855,0.355809802628572,0.1715135055934827
3.4510000000000005,1.8770527413008455,0.3579391043160051,0.2098636252475541
3.454500000000003,1.9122071630945157,0.3632658491930918,0.2482137449016255
3.4579999999999984,1.940970189167382,0.369657244913895,0.2972173543098703
3.461500000000001,1.9505590280778389,0.3717882919305801,0.3313071252598236
3.4650000000000034,1.9548193767819568,0.3622011983493752,0.3728546881035486
3.468499999999999,1.946296934044469,0.3547434064556034,0.4026823650201317
3.4720000000000013,1.9281873977257755,0.3291760782431385,0.4399678338304866
3.4754999999999967,1.9100778614070824,0.3121311927681619,0.4634041150262664
3.478999999999999,1.8845105331946173,0.2812388650078622,0.4964292351325031
3.4825000000000017,1.866400996875924,0.2439533961975074,0.5156034222949128
3.485999999999997,1.8323112259259708,0.2002765316663493,0.5305172607532044
3.4895,1.800352501992703,0.1683160624038291,0.5283879590657713
3.493000000000002,1.7481531947240565,0.1320969897664428,0.5113430735907947
3.496499999999997,1.700214236159528,0.1043986145372928,0.4847093492053612
3.5,1.629903647242937,0.0820287295144815,0.4399678338304866
3.5035000000000025,1.583031084851377,0.069244192743623,0.397355620143045
3.506999999999998,1.5212446840015257,0.0607217500061347,0.3440916620306821
3.5105000000000004,1.4850238660348871,0.0564614013020165,0.3057397970473587
3.514000000000003,1.4434780485204144,0.0521993072686464,0.2482137449016255
3.5174999999999983,1.411517579257894,0.0564614013020165,0.2087989744038376
3.521000000000001,1.361449319005933,0.069244192743623,0.1534022239455376
3.5245000000000037,1.3188371053184913,0.0798976824977964,0.1139874534477496
3.5279999999999987,1.25705070446864,0.0980072188164895,0.0639174478665363
3.531500000000001,1.208047095060395,0.1150521042914662,0.0234362811957798
3.535000000000004,1.145194298037575,0.1320969897664428,-0.0245026773687483
3.538499999999999,1.095126037785614,0.1459461773810178,-0.0596570991624181
3.5420000000000016,1.037599985639881,0.1512729222581045,-0.1043986145372928
3.545499999999997,0.9907256779190692,0.1555332709622227,-0.1310323389227262
3.5489999999999995,0.9353306727900212,0.1640557136997109,-0.1608600158393093
3.552500000000002,0.8980452039796664,0.1768385051413174,-0.1768385051413174
3.5559999999999974,0.8437148496943347,0.1842962970350892,-0.2002765316663493
3.5595,0.8043000791965469,0.1949497867892626,-0.2215817658454441
3.5630000000000024,0.753165422771617,0.205601531214184,-0.2578025838120824
3.566499999999998,0.7116178599278921,0.2109282760912707,-0.286565609884949
3.5700000000000003,0.6540918077821589,0.2183860679850424,-0.3238510786953038
3.573500000000003,0.6061545945468827,0.2141239739516723,-0.3568744534722885
3.576999999999998,0.5401060996636612,0.2087989744038376,-0.3994866671597301
3.5805000000000007,0.4793843496575265,0.2013411825100658,-0.4314453910929982
3.584000000000003,0.397355620143045,0.1981454846496642,-0.4772533026408414
3.5874999999999986,0.3185243338182171,0.1906876927558924,-0.5102766774178261
3.591000000000001,0.2087989744038376,0.1885583910684593,-0.5528888911052677
3.594500000000004,0.1161167551351827,0.1896230419121759,-0.5827165680218508
3.597999999999999,-0.0191759324916617,0.1896230419121759,-0.602958896686481
3.601500000000001,-0.1352926876268444,0.1789695521580025,-0.614677037284371
3.604999999999997,-0.2972173543098703,0.1683160624038291,-0.6200020368322057
3.6085,-0.4293143440763132,0.1576643179789077,-0.6242641308655758
3.612000000000002,-0.6040235475301975,0.1416840833476476,-0.6327865736030641
3.615499999999997,-0.7403808860007585,0.1310323389227262,-0.644504714200954
3.619,-0.9001762509963515,0.1171831513081512,-0.6583539018155291
3.6225000000000014,-1.007770563394046,0.1065296615539778,-0.6743323911175372
3.6259999999999977,-1.124953714702197,0.0905494269227178,-0.6881815787321122
3.6295,-1.2005893031666235,0.0820287295144815,-0.6945729744529154
3.6330000000000022,-1.2794223348207032,0.0681795418999064,-0.7009661155029706
3.636499999999998,-1.3294905950726643,0.0585907029894496,-0.709488558240459
3.640000000000001,-1.383820949357996,0.0521993072686464,-0.7169446048049787
3.643500000000003,-1.4061925797100594,0.0468725623915597,-0.7297291415758372
3.6469999999999994,-1.4306935117495558,0.0458079115478431,-0.7574257714757352
3.650500000000001,-1.4338892096099574,0.0468725623915597,-0.7787327509840819
3.654000000000004,-1.4306935117495558,0.0500682602519613,-0.8245406625319252
3.657499999999999,-1.4168443241349806,0.0511346564249298,-0.8660864800463982
3.661000000000002,-1.3934080429392008,0.0511346564249298,-0.9246771830358478
3.6644999999999968,-1.3657114130393029,0.0468725623915597,-0.970485094583691
3.6679999999999993,-1.3273595480559794,0.0458079115478431,-1.016293006131534
3.6715000000000018,-1.2954008241227113,0.041545817514473,-1.0493181262377709
3.674999999999997,-1.2400058189936634,0.0330233747769847,-1.0748854544502358
3.6785,-1.1973936053062215,0.0234362811957798,-1.0940596416126456
3.682000000000002,-1.1270847617188822,0.0031956978604016,-1.1164312719647087
3.6854999999999976,-1.0706233604168656,-0.0085224427374883,-1.1398675531604887
3.689,-0.9853989330419826,-0.0287630260728665,-1.1792840689875286
3.6925000000000026,-0.9193504381587612,-0.0511346564249298,-1.2123074437645132
3.695999999999998,-0.836258803129815,-0.0873537290623162,-1.2442661676977815
3.699500000000001,-0.7755353077944284,-0.1193124529955843,-1.2687688450665298
3.703000000000003,-0.7062911150508053,-0.1576643179789077,-1.282618032681105
3.7064999999999984,-0.6722030894301041,-0.1864273440517743,-1.2815516365081363
3.710000000000001,-0.6253287817092923,-0.2173214171413259,-1.2794223348207032
3.7135000000000034,-0.6104149432510009,-0.2428870000245388,-1.2783559386477348
3.716999999999999,-0.605088198373914,-0.2684543282370038,-1.2858137305415065
3.720500000000001,-0.6114795940947174,-0.2929570056057522,-1.2932697771060262
3.724000000000004,-0.6274598287259775,-0.316393286801532,-1.3113810587539714
3.727499999999999,-0.6508961099217573,-0.3345028231202252,-1.3273595480559794
3.7310000000000016,-0.6849858808717105,-0.3483520107348002,-1.3486665275643264
3.734499999999997,-0.713748906944577,-0.3653968962097769,-1.3721028087601062
3.738,-0.7648835633695069,-0.3792460838243518,-1.397670136972571
3.741500000000002,-0.8128207766047831,-0.3813771308410369,-1.423237465185036
3.744999999999997,-0.8703468287505163,-0.38350643252847,-1.4573254908057371
3.7485,-0.9246771830358478,-0.3781796876513833,-1.486088516878604
3.7520000000000016,-0.986465329214951,-0.3685925940701784,-1.52656968354936
3.755499999999998,-1.0312068445898257,-0.3568744534722885,-1.5670525955493688
3.759,-1.0823415010147557,-0.3227846825223353,-1.6235122515221332
3.762500000000003,-1.1196269698251105,-0.2961527034661538,-1.6671891160532917
3.7659999999999982,-1.1633038343562685,-0.2673896773932873,-1.725781564371993
3.7695000000000007,-1.1941979074458202,-0.2492801410745941,-1.7683920327301823
3.7730000000000032,-1.2325480270998914,-0.2375620004767041,-1.811004246417624
3.776499999999999,-1.2623774493457267,-0.2290395577392158,-1.8376379708030577
3.780000000000001,-1.2943361732789946,-0.219450718828759,-1.8568121579654675
3.783500000000004,-1.3156414074580896,-0.2183860679850424,-1.8610742519988372
3.786999999999999,-1.3316216420893496,-0.2173214171413259,-1.8546811109487824
3.7905000000000015,-1.338013037810153,-0.2215817658454441,-1.8472250643842625
3.793999999999997,-1.326294897212263,-0.2226464166891606,-1.822722387015514
3.7975,-1.3167078036310582,-0.2343645572870505,-1.7939593609426474
3.801000000000002,-1.300727568999798,-0.2482137449016255,-1.7556092412885762
3.804499999999997,-1.2911404754185931,-0.2578025838120824,-1.7204548194949063
3.808,-1.2975318711393966,-0.2727164222703739,-1.665059814365858
3.8115000000000014,-1.3209681523351764,-0.2801724688348938,-1.6160562049576137
3.8149999999999977,-1.379558855324626,-0.2791078179911772,-1.5372231733035338
3.8185,-1.4424116523474455,-0.2791078179911772,-1.474370376280714
3.8220000000000023,-1.5446809651973052,-0.2546051406224288,-1.3880812980621142
3.825499999999998,-1.614989808784645,-0.2354309534600191,-1.3230991993518617
3.8290000000000006,-1.7108677259137015,-0.2077325782308691,-1.2432015168540649
3.832500000000003,-1.7737187776072691,-0.1821652500184041,-1.1910022095854185
3.8359999999999994,-1.8323112259259708,-0.1459461773810178,-1.1473253450542604
3.839500000000001,-1.8557475071217504,-0.1182478021518678,-1.1281494125625986
3.843000000000004,-1.8695966947363256,-0.0852244273748831,-1.1121691779313387
3.846499999999999,-1.860007855825869,-0.0607217500061347,-1.1164312719647087
3.8500000000000014,-1.8397672724904908,-0.0404811666707564,-1.1281494125625986
3.853499999999997,-1.826984481048884,-0.0340897709499532,-1.138802902316772
3.8569999999999993,-1.808874944730191,-0.0202405833353782,-1.1590434856521503
3.860500000000002,-1.8014171528364191,-0.0191759324916617,-1.176088371127127
3.863999999999997,-1.816330991294711,-0.013849187614575,-1.1941979074458202
3.8675,-1.841898319507176,-0.0127827914416064,-1.2069806988874263
3.871000000000002,-1.904751116529996,-0.0149138384582915,-1.2186988394853169
3.8744999999999976,-1.9644082156924136,-0.0245026773687483,-1.2261566313790884
3.878,-2.058153340475533,-0.0340897709499532,-1.2229609335186866
3.8815000000000026,-2.127397533219156,-0.041545817514473,-1.219765235658285
3.884999999999998,-2.2147530076107245,-0.0521993072686464,-1.2048513971999937
3.888500000000001,-2.266952314879371,-0.0532657034416149,-1.1952625582895369
3.892000000000003,-2.2978446426396704,-0.0671131457269379,-1.17821767281456
3.8954999999999984,-2.3138248772709304,-0.0798976824977964,-1.1558477877917488
3.899000000000001,-2.3053024345334423,-0.0980072188164895,-1.134540808283402
3.9025000000000034,-2.283997200354348,-0.1214435000122694,-1.106844178383504
3.905999999999999,-2.2616255700022845,-0.136357338470561,-1.0823415010147557
3.909500000000001,-2.237122892633536,-0.150206526085136,-1.0471870792210858
3.9129999999999967,-2.225404752035646,-0.1651203645434275,-1.0194887039919358
3.916499999999999,-2.227535799052331,-0.1874919948954908,-0.9758118394607777
3.9200000000000017,-2.240320335823189,-0.1970790884766957,-0.9459841625441944
3.923499999999997,-2.2722790597564577,-0.2162550209683574,-0.903371948856753
3.927,-2.294648944779269,-0.2215817658454441,-0.8799356676609732
3.930500000000002,-2.324478367025104,-0.2269085107225308,-0.8575640373089098
3.9339999999999975,-2.338327554639679,-0.2343645572870505,-0.8469105475547365
3.9375,-2.356437090958372,-0.2514094427620272,-0.8533036886047917
3.9410000000000025,-2.3692198823999786,-0.2652586303766022,-0.8682175270630832
3.944499999999998,-2.37241558026038,-0.2982837504828389,-0.8959141569629812
3.948,-2.374546627277065,-0.3323735214327921,-0.9310703240859032
3.951500000000003,-2.371350929416664,-0.3803107346680683,-0.9790075373211792
3.9549999999999983,-2.3692198823999786,-0.425053995372195,-1.0205551001649042
3.958500000000001,-2.375611278120782,-0.480449000501243,-1.0802104539980706
3.9620000000000033,-2.3883958148916404,-0.5241258650324012,-1.122822667685512
3.965499999999999,-2.410767445243704,-0.5709984274239609,-1.1899375587417018
3.969000000000001,-2.433139075595767,-0.6040235475301975,-1.2346790741165767
3.972500000000004,-2.4778805909706416,-0.6466357612176391,-1.2932697771060262
3.975999999999999,-2.5077082678872245,-0.6764634381342222,-1.3348173399497512
3.9795000000000016,-2.5449937366975792,-0.7148135577882937,-1.383820949357996
3.982999999999997,-2.5684300178933595,-0.7414472821737271,-1.412583975430863
3.9865,-2.585474903368336,-0.7840577505319166,-1.4349556057829258
3.990000000000002,-2.5865412995413046,-0.8181475214818699,-1.4381513036433275
3.993499999999997,-2.5748231589434147,-0.8607597351693115,-1.4402806053307606
3.997,-2.5694964140663283,-0.8927184591025796,-1.439215954487044
4.000500000000002,-2.564169669189241,-0.928939277069218,-1.4381513036433275
4.003999999999998,-2.5620386221725564,-0.9459841625441944,-1.4338892096099574
4.0075,-2.5684300178933595,-0.958766953985801,-1.4189753711516655
4.011000000000003,-2.578018856803816,-0.9534402091087144,-1.3912769959225155
4.014499999999998,-2.585474903368336,-0.9438531155275096,-1.3135103604414045
4.018000000000001,-2.5876059503850213,-0.9374617198067065,-1.2346790741165767
4.021500000000003,-2.5620386221725564,-0.912959042437958,-1.1025820843501335
4.024999999999999,-2.5268842003788863,-0.8927184591025796,-1.002443818516959
4.028500000000001,-2.448052914054059,-0.8682175270630832,-0.8767399698005716
4.032000000000004,-2.363893137522892,-0.8490415945714216,-0.7989733343194602
4.035499999999999,-2.2307314969127323,-0.8405191518339332,-0.7286627454028686
4.0390000000000015,-2.1124836947608645,-0.8330613599401614,-0.6871169278883955
4.042499999999997,-1.9431012361840672,-0.8309320582527283,-0.6540918077821589
4.045999999999999,-1.8131352934343088,-0.8192139176548384,-0.6413090163405525
4.049500000000002,-1.6533416737679685,-0.8138871727777518,-0.6317219227593476
4.052999999999997,-1.545745616041022,-0.7947112402860901,-0.6317219227593476
4.0565,-1.4221710690120672,-0.7776663548111135,-0.6295908757426625
4.060000000000002,-1.3444044335309562,-0.7584921676487036,-0.6370469223071823
4.063499999999998,-1.2645067510331598,-0.7329248394362388,-0.6572875056425604
4.067,-1.215503141624915,-0.7158799539612621,-0.6892479749050807
4.070500000000003,-1.1696952300770718,-0.6892479749050807,-0.7297291415758372
4.073999999999998,-1.1515856937583784,-0.6668763445530174,-0.7691439120736251
4.077500000000001,-1.1494546467416935,-0.6402426201675839,-0.8298656620797599
4.081000000000003,-1.17821767281456,-0.616806338971804,-0.8767399698005716
4.084499999999999,-1.2463972147144666,-0.5816519171781342,-0.9374617198067065
4.088000000000001,-1.3358819907934678,-0.5528888911052677,-0.986465329214951
4.091500000000004,-1.4978066574764937,-0.5124077244345112,-1.051447427925204
4.094999999999999,-1.658666673315803,-0.4847093492053612,-1.1015174335064173
4.098500000000001,-1.9068821635466808,-0.4431635316908882,-1.1569124386354652
4.101999999999997,-2.1199414866546364,-0.4197272504951083,-1.1931332566021038
4.105499999999999,-2.410767445243704,-0.3962909692993285,-1.2218962826749702
4.109000000000002,-2.6302181640724625,-0.3867021303888716,-1.2250919805353715
4.112499999999997,-2.8954767944490647,-0.3760503859639502,-1.2091117459041116
4.116,-3.075512742780036,-0.3728546881035486,-1.1846108138646152
4.119500000000002,-3.26939613339633,-0.3739193389472651,-1.1473253450542604
4.1229999999999976,-3.3812525398273947,-0.38350643252847,-1.1206916206688269
4.1265,-3.474999409939766,-0.4005513180034466,-1.0919285945959605
4.130000000000003,-3.505891737700066,-0.4133358547743051,-1.0802104539980706
4.133499999999998,-3.4899132483980577,-0.4239875991992265,-1.0716880112605822
4.1370000000000005,-3.4334518470960407,-0.4303807402492817,-1.0748854544502358
4.140500000000003,-3.317335091960858,-0.4314453910929982,-1.0748854544502358
4.143999999999998,-3.20654333637351,-0.4410324846742031,-1.0716880112605822
4.147500000000001,-3.0211823884947044,-0.4548816722887781,-1.0706233604168656
4.151000000000003,-2.8709758624095683,-0.4676662090596366,-1.067427662556464
4.154499999999999,-2.6504587474078405,-0.4932317919428495,-1.073819058277267
4.158000000000001,-2.473620242266524,-0.5134723752782278,-1.0844725480314406
4.161499999999997,-2.2328625439294174,-0.5390397034906926,-1.1143002249480238
4.164999999999999,-2.054957642615132,-0.5646070317031576,-1.1505210429146622
4.168500000000002,-1.8333758767696875,-0.605088198373914,-1.201655699339592
4.171999999999997,-1.6799736528241498,-0.6615495996759307,-1.247461865558183
4.1755,-1.502068751509864,-0.7520990265986485,-1.298596521983113
4.179000000000002,-1.3912769959225155,-0.8256053133756417,-1.3390776886538696
4.182499999999997,-1.289009428401908,-0.9363953236337376,-1.3987347878162877
4.186,-1.231483376256175,-1.0173594023045027,-1.4402806053307606
4.189500000000002,-1.1867401155520485,-1.124953714702197,-1.494610959616092
4.192999999999998,-1.17821767281456,-1.203785001027025,-1.5287007305660454
4.1965,-1.1931332566021038,-1.298596521983113,-1.5702482934097703
4.200000000000003,-1.21017814207708,-1.3571889703018147,-1.5958156216222352
4.203499999999998,-1.2495929125748682,-1.4243021160287526,-1.6256432985388185
4.207000000000001,-1.2794223348207032,-1.4583918869787058,-1.6394924861533935
4.210500000000003,-1.3060543138768848,-1.4818281681744856,-1.650144230578315
4.213999999999999,-1.3199035014914595,-1.490350610911974,-1.6533416737679685
4.217500000000001,-1.2996629181560817,-1.483959215191171,-1.6458838818741963
4.221000000000004,-1.2783559386477348,-1.4722410745932808,-1.64055713699711
4.224499999999999,-1.2389411681499467,-1.4573254908057371,-1.6139251579409286
4.2280000000000015,-1.2165695377978836,-1.4349556057829258,-1.575575038286857
4.231499999999997,-1.1941979074458202,-1.4381513036433275,-1.4562608399620207
4.234999999999999,-1.2144384907811985,-1.4285624647328707,-1.3752985066205077
4.238500000000002,-1.2559843082956712,-1.369971761743421,-1.2932697771060262
4.241999999999997,-1.3017922198435146,-1.3348173399497512,-1.2261566313790884
4.2455,-1.3497311784080428,-1.2911404754185931,-1.1174959228084254
4.249000000000002,-1.3731674596038226,-1.2485282617311515,-1.0418603343439992
4.252499999999998,-1.367840714726736,-1.1888711625687334,-0.958766953985801
4.256,-1.342273386514271,-1.1473253450542604,-0.903371948856753
4.259500000000003,-1.2666377980498449,-1.0887328967355587,-0.8319967090964449
4.262999999999998,-1.1856754647083318,-1.0471870792210858,-0.7776663548111135
4.266500000000001,-1.0461224283773694,-0.9885963762316362,-0.7180110009779472
4.270000000000003,-0.9395927668233912,-0.9491798604045962,-0.6903126257487973
4.273499999999999,-0.8000379851631767,-0.9086986937338396,-0.6508961099217573
4.277000000000001,-0.7041618133633722,-0.8980452039796664,-0.6200020368322057
4.280500000000004,-0.600827849669796,-0.9065676467171546,-0.5720648235969293
4.283999999999999,-0.5411707505073777,-0.9193504381587612,-0.5379750526469761
4.287500000000001,-0.4900360940824479,-0.9321349749296196,-0.4974938859762197
4.290999999999997,-0.4793843496575265,-0.9395927668233912,-0.4708619069200382
4.294499999999999,-0.480449000501243,-0.9545066052816829,-0.4282496932325966
4.298000000000002,-0.5017542346803379,-0.968355792896258,-0.3984202709867616
4.301499999999997,-0.5550199381219528,-0.9907256779190692,-0.3504830577514853
4.305,-0.6093502924072843,-1.0045748655336442,-0.3068061932203272
4.308500000000002,-0.697768672313317,-1.0344025424502272,-0.2450180470412239
4.311999999999998,-0.7627525163528219,-1.0610362668356608,-0.1906876927558924
4.3155,-0.861824386013028,-1.1025820843501335,-0.110790010258096
4.319000000000003,-0.9395927668233912,-1.132411506595969,-0.0543303542853314
4.322499999999998,-1.0461224283773694,-1.1558477877917488,0.0053267448770866
4.3260000000000005,-1.131345110423,-1.1515856937583784,0.029827676916583
4.329500000000003,-1.2208298865020015,-1.1494546467416935,0.0436768645311581
4.332999999999998,-1.2655731472061282,-1.1462589488812918,0.0404811666707564
4.336500000000001,-1.2996629181560817,-1.132411506595969,0.0095870935812048
4.340000000000003,-1.310314662581003,-1.130280459579284,-0.0117181405978899
4.343499999999999,-1.3273595480559794,-1.132411506595969,-0.0362208179666383
4.347000000000001,-1.3603846681622165,-1.124953714702197,-0.0564614013020165
4.350499999999997,-1.4243021160287526,-1.1047131313668188,-0.0841580312019145
4.353999999999999,-1.4818281681744856,-1.0844725480314406,-0.1022693128498597
4.357500000000002,-1.5702482934097703,-1.0546431257856057,-0.1267702448893561
4.360999999999997,-1.6352303921200233,-1.039729287327314,-0.150206526085136
4.3645,-1.7087366788970164,-1.0194887039919358,-0.180035948330971
4.368000000000002,-1.763067033182348,-0.9939213757794708,-0.2002765316663493
4.3714999999999975,-1.8141999442780257,-0.9385263706504228,-0.2205171150017275
4.375,-1.8536164601050655,-0.8905874120858945,-0.2269085107225308
4.3785000000000025,-1.889837278071704,-0.8117561257610666,-0.2247774637058457
4.381999999999998,-1.9090114652341137,-0.7520990265986485,-0.2183860679850424
4.3855,-1.9143382101112003,-0.6722030894301041,-0.1906876927558924
4.389000000000003,-1.903686465686279,-0.6114795940947174,-0.1619246666830259
4.392499999999998,-1.866400996875924,-0.533712958613606,-0.1118564064310645
4.396000000000001,-1.8099395955739075,-0.4793843496575265,-0.0649838440395048
4.399500000000003,-1.7108677259137015,-0.4101401569139035,0.0149138384582915
4.402999999999999,-1.6085984130638418,-0.3622011983493752,0.0777666354811113
4.406500000000001,-1.4402806053307606,-0.2929570056057522,0.1651203645434275
4.410000000000004,-1.2943361732789946,-0.2535404897787122,0.2269085107225308
4.413499999999999,-1.0610362668356608,-0.2045368803704674,0.302544099186957
4.417000000000002,-0.8810003185046897,-0.1704471094205142,0.3494166615785167
4.420499999999997,-0.630655526586379,-0.1395530363309626,0.3909642244222418
4.424,-0.4516859744283765,-0.1118564064310645,0.4048134120368167
4.427500000000002,-0.2311688594266489,-0.0852244273748831,0.4144005056180216
4.430999999999997,-0.0905494269227178,-0.0671131457269379,0.4165315526347067
4.4345,0.0521993072686464,-0.0490036094082447,0.4080091098972184
4.438000000000002,0.1171831513081512,-0.041545817514473,0.3962909692993285
4.441499999999998,0.1534022239455376,-0.0330233747769847,0.3760503859639502
4.445,0.1342280367831279,-0.0330233747769847,0.3568744534722885
4.448500000000003,0.0639174478665363,-0.0404811666707564,0.3281114273994219
4.451999999999998,-0.0234362811957798,-0.0479389585645282,0.300413052170272
4.455500000000001,-0.1704471094205142,-0.0649838440395048,0.2546051406224288
4.459000000000003,-0.3131975889411305,-0.1033339636935762,0.2396913021641372
4.462499999999999,-0.561411333842756,-0.1065296615539778,0.2727164222703739
4.466000000000001,-0.7936465894423735,-0.0841580312019145,0.2823035158515788
4.469500000000004,-1.1174959228084254,-0.1129210572747811,0.286565609884949
4.472999999999999,-1.3465354805476413,-0.1576643179789077,0.2982837504828389
4.4765000000000015,-1.6309700434159051,-0.1960144376329791,0.2940216564494687
4.479999999999997,-1.822722387015514,-0.2322352555996175,0.2769767709744921
4.483499999999999,-2.0506972939110133,-0.2684543282370038,0.2514094427620272
4.487000000000002,-2.1998374238231806,-0.3036087500306735,0.2407576983371057
4.490499999999997,-2.362828486679175,-0.3472873598910836,0.2322352555996175
4.494,-2.461900356339381,-0.3781796876513833,0.2428870000245388
4.497500000000002,-2.538602340976776,-0.4207919013388249,0.260998281672484
4.500999999999998,-2.559909320485123,-0.452750625272093,0.2876302607286655
4.5045,-2.550320481574666,-0.5006895838366213,0.3217200316786187
4.508000000000003,-2.50983931490391,-0.5422354013510943,0.3547434064556034
4.511499999999998,-2.4235502366853097,-0.5933700577760241,0.3877685265618402
4.515000000000001,-2.341523252500081,-0.6295908757426625,0.4080091098972184
4.518500000000003,-2.221144403331528,-0.6849858808717105,0.4207919013388249
4.521999999999999,-2.123137184515038,-0.7265316983861836,0.4314453910929982
4.525500000000001,-1.9889091477319103,-0.7797974018277984,0.4346410889533998
4.529000000000004,-1.894097626775822,-0.8288010112360433,0.43890318298677
4.532499999999999,-1.774785173780238,-0.8841960163650913,0.4442281825346047
4.536000000000001,-1.6948874912824414,-0.933199625773336,0.4484902765679749
4.539499999999997,-1.5958156216222352,-0.9822032351815808,0.4548816722887781
4.542999999999999,-1.5393542203202186,-1.0194887039919358,0.4591437663221482
4.546500000000002,-1.4871549130515724,-1.0802104539980706,0.4570127193054631
4.549999999999997,-1.4818281681744856,-1.122822667685512,0.4879067923950148
4.5535,-1.527636079722329,-1.0855371988751572,0.5486285424011496
4.557000000000002,-1.5958156216222352,-1.0663630117127476,0.5837829641948193
4.5604999999999976,-1.6853003977012364,-1.095126037785614,0.6253287817092923
4.564,-1.728977262232395,-1.1004510373334488,0.6572875056425604
4.567500000000003,-1.7513488925844578,-1.1079088292272203,0.6434400633572375
4.570999999999998,-1.7364333087969146,-1.1281494125625986,0.6157416881280875
4.5745000000000005,-1.7076702827240478,-1.134540808283402,0.5624759846864725
4.578000000000003,-1.6714512100866616,-1.138802902316772,0.5241258650324012
4.581499999999998,-1.6235122515221332,-1.160108136495867,0.4687308599033531
4.585000000000001,-1.5766396891305736,-1.167565928389639,0.4261186462159115
4.588500000000003,-1.527636079722329,-1.1814151160042137,0.3739193389472651
4.591999999999999,-1.4935463087723757,-1.17821767281456,0.3323735214327921
4.595500000000001,-1.4690453767328793,-1.16649953221667,0.2801724688348938
4.598999999999997,-1.4626522356828238,-1.145194298037575,0.2439533961975074
4.602499999999999,-1.464783282699509,-1.1057777822105357,0.2045368803704674
4.606000000000002,-1.476501423297399,-1.0663630117127476,0.1885583910684593
4.609499999999997,-1.5010041006661472,-1.000314516829526,0.1747092034538843
4.613,-1.520178287828557,-0.9545066052816829,0.1757738542976009
4.616500000000002,-1.550007710074392,-0.889522761242178,0.1864273440517743
4.619999999999997,-1.563855152359715,-0.8405191518339332,0.2013411825100658
4.6235,-1.5958156216222352,-0.7925801932694049,0.2279731615662473
4.627000000000002,-1.6203165536617317,-0.7659482142132235,0.2546051406224288
4.630499999999998,-1.6576020224720869,-0.7105532090841755,0.286565609884949
4.634,-1.6895607464053546,-0.6540918077821589,0.2961527034661538
4.637500000000003,-1.7183237724782212,-0.5859140112115044,0.2950880526224372
4.640999999999998,-1.7332376109365126,-0.533712958613606,0.2972173543098703
4.644500000000001,-1.735368657953198,-0.4602084171658648,0.3089354949077603
4.648000000000003,-1.7268462152157096,-0.4197272504951083,0.3227846825223353
4.651499999999999,-1.695952142126158,-0.3760503859639502,0.3451563128743986
4.655000000000001,-1.6576020224720869,-0.3643322453660603,0.3675279432264619
4.658500000000004,-1.599011319482637,-0.3590055004889736,0.3813771308410369
4.661999999999999,-1.5681172463930857,-0.3536787556118869,0.3813771308410369
4.6655000000000015,-1.5329628245994156,-0.3611348021764067,0.3515477085952018
4.668999999999997,-1.52656968354936,-0.3632658491930918,0.3302424744161071
4.672499999999999,-1.5510723609181087,-0.38350643252847,0.2940216564494687
4.676000000000002,-1.5894224805721802,-0.4005513180034466,0.2663250265495707
4.679499999999997,-1.6618641165054566,-0.4325100419367148,0.2269085107225308
4.683,-1.7343040071094815,-0.4634041150262664,0.1981454846496642
4.686500000000002,-1.8450940173675772,-0.5092120265741096,0.1672514115601126
4.689999999999998,-1.9303184447424608,-0.5454328445407479,0.1512729222581045
4.6935,-2.0315213614193515,-0.600827849669796,0.1406194325039311
4.697000000000003,-2.093307762269203,-0.644504714200954,0.1427504795206162
4.700499999999998,-2.1593562571524245,-0.6924436727654824,0.1544686201185061
4.704000000000001,-2.193446028102377,-0.7201403026653803,0.1683160624038291
4.707500000000003,-2.2264711482086144,-0.7723396099340267,0.1885583910684593
4.710999999999999,-2.241384986666906,-0.8043000791965469,0.2151903701246408
4.714500000000001,-2.248842778560677,-0.8330613599401614,0.258867234655799
4.718000000000004,-2.233927194773134,-0.8650218292026817,0.2918906094327836
4.721499999999999,-2.1966417259627797,-0.901240901840068,0.3526141047681703
4.725000000000001,-2.147638116554534,-0.9310703240859032,0.4069427137242498
4.728499999999997,-2.059219736648502,-0.9992481206565574,0.4996249329929048
4.731999999999999,-1.9739953092736189,-1.0759501052939522,0.5795208701614492
4.735500000000002,-1.8514854130883809,-1.1995246523229068,0.7062911150508053
4.738999999999997,-1.7662627310427494,-1.2975318711393966,0.8128207766047831
4.7425,-1.6703848139136932,-1.4200400219953824,0.960898001002486
4.746000000000002,-1.6213812045054483,-1.498873053649462,1.073819058277267
4.749499999999998,-1.57770433997429,-1.599011319482637,1.2240255843624033
4.753,-1.5574637566389118,-1.6693201630699763,1.332686292933066
4.756500000000003,-1.5510723609181087,-1.7598713353219464,1.4669143297161942
4.759999999999998,-1.5521370117618252,-1.8280491318926009,1.5585301528118805
4.7635000000000005,-1.5627905015159986,-1.900489022496625,1.648014928890882
4.767000000000003,-1.57770433997429,-1.9931712417652805,1.7598713353219464
4.770499999999998,-1.6139251579409286,-2.074133575106793,1.862138902842554
4.774000000000001,-1.649079579734598,-2.118875090481668,1.931383095586177
4.777500000000003,-1.7044745848636462,-2.147638116554534,1.992104845592312
4.780999999999999,-1.808874944730191,-2.181727887504488,2.054957642615132
4.784500000000001,-1.917533907971602,-2.1987727729794644,2.0901120644088014
4.787999999999997,-2.087982762721368,-2.229666846069016,2.113548345604581
4.791499999999999,-2.285061851198064,-2.2552341742814805,2.124201835358755
4.795000000000002,-2.444857216193657,-2.275474757616859,2.1263328823754395
4.798499999999997,-2.603586185016281,-2.292519643091836,2.117810439637952
4.802,-2.824101554688757,-2.314889528114647,2.0869163665484
4.805500000000002,-2.988157268388468,-2.321282669164702,2.04749985072136
4.8089999999999975,-3.2054786855297936,-2.326609414041789,1.9814531011673904
4.8125,-3.358880909475331,-2.3372611584667102,1.9324494917591453
4.8160000000000025,-3.5229366231750423,-2.348979299064601,1.8770527413008455
4.819499999999998,-3.615617097114445,-2.354306043941687,1.8450940173675772
4.823,-3.69231908175184,-2.366024184539577,1.8141999442780257
4.826500000000003,-3.705103618522698,-2.362828486679175,1.790763663082246
4.829999999999998,-3.66462070652269,-2.362828486679175,1.7683920327301823
4.833500000000001,-3.585789420197862,-2.363893137522892,1.7513488925844578
4.837000000000003,-3.4196026594814657,-2.3617638358354585,1.7268462152157096
4.840499999999999,-3.260873690658842,-2.3617638358354585,1.7151280746178197
4.844000000000001,-3.0020064560030426,-2.350045695237569,1.7034099340199298
4.847500000000004,-2.780424690157598,-2.3393922054833958,1.7140634237741033
4.850999999999999,-2.460835705495665,-2.320216272991734,1.735368657953198
4.854500000000002,-2.2158176584544407,-2.3074334815501274,1.7545445904448598
4.857999999999997,-1.887706231055019,-2.279735106320977,1.7918300592552143
4.8615,-1.649079579734598,-2.264821267862686,1.820593085328081
4.865000000000002,-1.3603846681622165,-2.2328625439294174,1.865334600702956
4.868499999999997,-1.1696952300770718,-2.2072952157169525,1.8983597208091925
4.872,-0.944917766371226,-2.1593562571524245,1.9505590280778389
4.875500000000002,-0.7979069381464917,-2.118875090481668,1.9878444968881936
4.878999999999998,-0.6231994800218592,-2.060284387492218,2.0389791533131234
4.8825,-0.5092120265741096,-2.0229989186818638,2.080524970827597
4.886000000000003,-0.3781796876513833,-1.9654728665361303,2.118875090481668
4.889499999999998,-0.3046751462036421,-1.9143382101112003,2.1455088148671013
4.893000000000001,-0.2386266513204207,-1.8323112259259708,2.1614873041691096
4.896500000000003,-0.2151903701246408,-1.7769144754676711,2.1732054447669995
4.899999999999999,-0.2183860679850424,-1.6980831891428432,2.1806632366607714
4.903500000000001,-0.2311688594266489,-1.64055713699711,2.185989981537858
4.907000000000004,-0.2641939795328856,-1.5798353869909751,2.1795968404878026
4.910499999999999,-0.286565609884949,-1.536158522459817,2.176401142627401
4.9140000000000015,-0.3046751462036421,-1.482892819018202,2.1700097469065978
4.917499999999997,-0.316393286801532,-1.4413470015037293,2.162553700342078
4.920999999999999,-0.3153286359578155,-1.3827562985142796,2.157226955464991
4.924500000000002,-0.3195889846619337,-1.338013037810153,2.1561605592920228
4.927999999999997,-0.3313071252598236,-1.2719645429269315,2.155095908448306
4.9315,-0.3472873598910836,-1.2176341886416,2.144442418694133
4.935000000000002,-0.38350643252847,-1.1526520899313473,2.13805102297333
4.938499999999998,-0.4165315526347067,-1.1004510373334488,2.146573465710818
4.942,-0.4591437663221482,-1.043991381360684,2.1614873041691096
4.945500000000003,-0.4889714432387313,-0.9992481206565574,2.1753364917836846
4.948999999999998,-0.5156034222949128,-0.9534402091087144,2.181727887504488
4.952500000000001,-0.5326483077698895,-0.928939277069218,2.190250330241976
4.956000000000003,-0.5390397034906926,-0.9023072980130364,2.192381377258661
4.959499999999999,-0.5305172607532044,-0.8937848552755481,2.197708122135748
4.963000000000001,-0.519865516328283,-0.8948495061192646,2.2030348670128346
4.966500000000004,-0.5092120265741096,-0.8991098548233829,2.2094262627336376
4.969999999999999,-0.492167141099133,-0.905502995873438,2.2158176584544407
4.973500000000001,-0.4783179534845579,-0.903371948856753,2.219013356314843
4.976999999999997,-0.4602084171658648,-0.9023072980130364,2.2179487054711258
4.980499999999999,-0.4420988808471717,-0.905502995873438,2.2115573097503227
4.984000000000002,-0.4186608543221398,-0.9150900894546428,2.200903819996149
4.987499999999997,-0.3920288752659583,-0.9225478813484148,2.193446028102377
4.991,-0.3440916620306821,-0.9459841625441944,2.1806632366607714
4.994500000000002,-0.2950880526224372,-0.9736807924440926,2.1700097469065978
4.9979999999999976,-0.2237128128621291,-0.9992481206565574,2.140182069990015
5.0015,-0.1587289688226243,-1.0173594023045027,2.111419043917148
5.005000000000003,-0.0596570991624181,-1.0269464958857075,2.062415434508903
5.008499999999998,0.0255673282124649,-1.0333378916065108,2.0208678716651782
5.0120000000000005,0.1608600158393093,-1.0407956835002825,1.9590814708153272
5.015500000000003,0.2737810731140905,-1.0471870792210858,1.9090114652341137
5.018999999999998,0.4452945787075733,-1.0525138240981724,1.8429629703508923
5.022500000000001,0.5827165680218508,-1.0621009176793774,1.7865033143781277
5.026000000000003,0.7584921676487036,-1.0716880112605822,1.7161927254615363
5.029499999999999,0.8831313655213747,-1.065296615539779,1.658666673315803
5.033000000000001,1.022684401852337,-1.0493181262377709,1.5798353869909751
5.036499999999997,1.106844178383504,-1.037599985639881,1.5169825899681555
5.039999999999999,1.1931332566021038,-1.0130973082711323,1.4477383972245323
5.043500000000002,1.2463972147144666,-0.9939213757794708,1.395539089955886
5.046999999999997,1.3060543138768848,-0.9662247458795729,1.3305552459163812
5.0505,1.353991527112161,-0.9481134642316276,1.29646722029568
5.054000000000002,1.4189753711516655,-0.942788464683793,1.254919657451955
5.057499999999997,1.4711746784203124,-0.9534402091087144,1.2282876783957732
5.061,1.5404188711639353,-0.9758118394607777,1.1995246523229068
5.064500000000002,1.5851621318680618,-0.9928567249357544,1.176088371127127
5.067999999999998,1.6384260899804248,-1.0173594023045027,1.136671855300087
5.0715,1.6671891160532917,-1.032273240762794,1.106844178383504
5.075000000000003,1.6906253972490712,-1.0621009176793774,1.0706233604168656
5.078499999999998,1.6970185382991263,-1.0823415010147557,1.043991381360684
5.082000000000001,1.695952142126158,-1.1185623189813938,1.0109662612544474
5.085500000000003,1.686365048544953,-1.1494546467416935,0.9853989330419826
5.088999999999999,1.66825551222626,-1.1899375587417018,0.9577023031420844
5.092500000000001,1.650144230578315,-1.219765235658285,0.9385263706504228
5.096000000000004,1.6277743455555036,-1.2623774493457267,0.912959042437958
5.099499999999999,1.6075337622201251,-1.2943361732789946,0.889522761242178
5.1030000000000015,1.5862267827117784,-1.338013037810153,0.8660864800463982
5.106499999999997,1.5766396891305736,-1.374233855776791,0.8469105475547365
5.109999999999999,1.5904888767451486,-1.4200400219953824,0.8234742663589566
5.113500000000002,1.6288389963992198,-1.450934095084934,0.8117561257610666
5.116999999999997,1.7076702827240478,-1.490350610911974,0.8011026360068932
5.1205,1.7971568041323012,-1.5148515429514704,0.7989733343194602
5.124000000000002,1.9484279810611536,-1.545745616041022,0.8085604279006651
5.127499999999998,2.0826560178442817,-1.563855152359715,0.820278568498555
5.131,2.2818661533376625,-1.569181897236802,0.8437148496943347
5.134500000000003,2.4320726794227983,-1.5702482934097703,0.8607597351693115
5.137999999999998,2.6355449089495493,-1.5627905015159986,0.8831313655213747
5.141500000000001,2.780424690157598,-1.5521370117618252,0.905502995873438
5.145000000000003,2.94874249789068,-1.545745616041022,0.9374617198067065
5.148499999999999,3.0627282060091776,-1.536158522459817,0.9651583497066044
5.152000000000001,3.185238102194415,-1.5191136369848404,1.0130973082711323
5.155500000000004,3.25767799279844,-1.492481657928659,1.0525138240981724
5.158999999999999,3.32053078982126,-1.4690453767328793,1.1185623189813938
5.162500000000001,3.337575675296237,-1.453065142101619,1.176088371127127
5.165999999999997,3.32053078982126,-1.4306935117495558,1.247461865558183
5.169499999999999,3.2779185761338185,-1.4157796732912642,1.2943361732789946
5.173000000000002,3.180976008161045,-1.402996881849658,1.3529268762684443
5.176499999999997,3.093622279098729,-1.4008658348329728,1.3880812980621142
5.18,2.959394242315601,-1.405126183537091,1.4285624647328707
5.183500000000002,2.84647318504082,-1.4157796732912642,1.4477383972245323
5.186999999999998,2.702658054676488,-1.4253667668724692,1.4658479335432255
5.1905,2.5652343200329577,-1.4424116523474455,1.4679789805599106
5.194000000000003,2.47468489311024,-1.4541297929453356,1.4573254908057371
5.197499999999998,2.390526861908325,-1.474370376280714,1.4434780485204144
5.2010000000000005,2.3074334815501274,-1.498873053649462,1.4147150224475475
5.204500000000003,2.2584298721418827,-1.5169825899681555,1.3859519963746811
5.207999999999998,2.1987727729794644,-1.5382895694765022,1.3497311784080428
5.211500000000001,2.152964861431621,-1.5595948036555969,1.3124457095976878
5.215000000000003,2.1018302050066917,-1.5766396891305736,1.2698334959102464
5.218499999999999,2.0666757832130216,-1.584095735695093,1.2368101211332618
5.222000000000001,2.037912757140155,-1.583031084851377,1.1867401155520485
5.225499999999997,2.053892991771415,-1.5766396891305736,1.1558477877917488
5.228999999999999,2.118875090481668,-1.5670525955493688,1.1153666211209925
5.232500000000002,2.208359866560669,-1.561725850672282,1.0897992929085274
5.235999999999997,2.386264767874956,-1.5414852673369035,1.065296615539779
5.2395,2.5471247837142648,-1.525505032705644,1.0525138240981724
5.243000000000002,2.782555737174284,-1.520178287828557,1.0493181262377709
5.2464999999999975,2.96046063848857,-1.5137868921077535,1.0546431257856057
5.25,3.186302753038132,-1.5105911942473522,1.065296615539779
5.2535000000000025,3.3279868363857794,-1.5137868921077535,1.0770147561376688
5.256999999999998,3.474999409939766,-1.5169825899681555,1.0897992929085274
5.2605,3.548503951387507,-1.525505032705644,1.0993863864897322
5.264000000000003,3.599638607812437,-1.531896428426447,1.1015174335064173
5.267499999999998,3.612421399254044,-1.534027475443132,1.095126037785614
5.271000000000001,3.580462675320775,-1.5382895694765022,1.0876682458918423
5.274500000000003,3.5293280188958454,-1.5425499181806204,1.0748854544502358
5.277999999999999,3.4323871962523245,-1.5436145690243368,1.0546431257856057
5.281500000000001,3.3343799774358347,-1.5404188711639353,1.0344025424502272
5.285000000000004,3.1671285658757222,-1.5382895694765022,1.0067059125503293
5.288499999999999,3.030769482075909,-1.5393542203202186,0.9896610270753528
5.292000000000002,2.8177101589679534,-1.5372231733035338,0.9662247458795729
5.295499999999997,2.6568501431286444,-1.534027475443132,0.9502445112483128
5.299,2.4363347734561684,-1.527636079722329,0.9257435792088164
5.302500000000002,2.285061851198064,-1.512722241264037,0.9108279954212728
5.305999999999997,2.113548345604581,-1.4935463087723757,0.8873917142254929
5.3095,2.011280778083973,-1.4637186318557929,0.8746089227838865
5.313000000000002,1.9345787934465783,-1.4200400219953824,0.8564993864651933
5.316499999999998,1.920729605832004,-1.3870166472183978,0.84584589671102
5.32,1.9494926319048704,-1.3433397826872395,0.8277363603923268
5.323500000000003,2.0027583353464853,-1.3167078036310582,0.8170828706381533
5.326999999999998,2.107156949883778,-1.2772912878040183,0.8096250787443816
5.330500000000001,2.1913149810856924,-1.254919657451955,0.8074957770569485
5.334000000000003,2.3053024345334423,-1.215503141624915,0.8074957770569485
5.337499999999999,2.389460465735357,-1.196328954462505,0.8011026360068932
5.341000000000001,2.4874676845518464,-1.1771530219708437,0.7968422873027752
5.344500000000004,2.5631050183455244,-1.1654348813729536,0.7893844954090034
5.347999999999999,2.658981190145329,-1.1622391835125518,0.7755353077944284
5.3515000000000015,2.7303564299056373,-1.1654348813729536,0.7606214693361367
5.354999999999997,2.820905856828355,-1.1707616262500404,0.7361205372966404
5.358499999999999,2.879498305147057,-1.1867401155520485,0.7158799539612621
5.362000000000002,2.9380890081365063,-1.2027203501833084,0.6871169278883955
5.365499999999997,2.957264940628168,-1.215503141624915,0.6604849488322142
5.369,2.947676101717711,-1.2304187254124583,0.6349176206197492
5.372500000000002,2.917848424801128,-1.247461865558183,0.6221330838488908
5.375999999999998,2.8432774871804187,-1.2666377980498449,0.6104149432510009
5.3795,2.7633798046826223,-1.284747334368538,0.6040235475301975
5.383000000000003,2.646198398703723,-1.3113810587539714,0.602958896686481
5.386499999999998,2.550320481574666,-1.326294897212263,0.6061545945468827
5.390000000000001,2.4139631431041053,-1.3454708297039246,0.6040235475301975
5.393500000000003,2.320216272991734,-1.3603846681622165,0.6114795940947174
5.396999999999999,2.201968470839866,-1.374233855776791,0.6295908757426625
5.400500000000001,2.117810439637952,-1.3848856002017127,0.6455693650446706
5.404000000000004,2.015541126788092,-1.3934080429392008,0.6764634381342222
5.407499999999999,1.945232283200752,-1.3923433920954844,0.6988350684862855
5.411000000000001,1.8791837883175309,-1.3870166472183978,0.7201403026653803
5.414499999999997,1.844029366523861,-1.3859519963746811,0.7339894902799553
5.417999999999999,1.8387026216467743,-1.3806252514975943,0.7425119330174437
5.421500000000002,1.8685302985633567,-1.367840714726736,0.7425119330174437
5.424999999999997,1.946296934044469,-1.3646450168663344,0.7329248394362388
5.4285,2.0304567105756357,-1.361449319005933,0.7201403026653803
5.432000000000002,2.158291606308708,-1.3625139698496491,0.6967040214696004
5.4354999999999976,2.256298825125197,-1.367840714726736,0.6817901830113089
5.439,2.3809380229978685,-1.3752985066205077,0.6540918077821589
5.442500000000003,2.464031403356066,-1.383820949357996,0.628524479569694
5.445999999999998,2.553516179435068,-1.3859519963746811,0.5976321518093943
5.4495000000000005,2.616368976457888,-1.3923433920954844,0.5795208701614492
5.453000000000003,2.6888088670619124,-1.3966037407996024,0.5518242402615512
5.456499999999998,2.7442056175202123,-1.397670136972571,0.5379750526469761
5.460000000000001,2.804927367526347,-1.3987347878162877,0.5219948180157161
5.463500000000003,2.832623997426245,-1.399799438660004,0.5092120265741096
5.466999999999999,2.86245341967208,-1.397670136972571,0.492167141099133
5.470500000000001,2.85819132563871,-1.3923433920954844,0.480449000501243
5.473999999999997,2.832623997426245,-1.3848856002017127,0.4761869064678729
5.477499999999999,2.785751435034685,-1.3763631574642243,0.4761869064678729
5.481000000000002,2.707984799553574,-1.3731674596038226,0.4761869064678729
5.484499999999997,2.6398052576536672,-1.3667760638830195,0.4783179534845579
5.488,2.5428644350101464,-1.3593182719892478,0.4772533026408414
5.491500000000002,2.4757495439539565,-1.356122574128846,0.4719265577637547
5.494999999999997,2.4001139554895303,-1.3486665275643264,0.4559463231324946
5.4985,2.3575017418020887,-1.342273386514271,0.43890318298677
5.502000000000002,2.3223473200084186,-1.3348173399497512,0.4186608543221398
5.505499999999998,2.3159559242876155,-1.3358819907934678,0.4026823650201317
5.509,2.3116938302542454,-1.3348173399497512,0.3845728287014385
5.512500000000003,2.3053024345334423,-1.340144084826838,0.3675279432264619
5.515999999999998,2.285061851198064,-1.3454708297039246,0.3451563128743986
5.519500000000001,2.262690220846,-1.3507958292517597,0.3291760782431385
5.523000000000003,2.2168823092981573,-1.3550579232851294,0.3036087500306735
5.526499999999999,2.1785321896440863,-1.356122574128846,0.2833681666952953
5.530000000000001,2.1284639293921246,-1.3571889703018147,0.2567361876391139
5.533500000000004,2.09117846058177,-1.351862225424728,0.2460844432141925
5.536999999999999,2.05176194475473,-1.3454708297039246,0.2269085107225308
5.5405000000000015,2.02832566355895,-1.3358819907934678,0.2226464166891606
5.543999999999997,2.014476475944375,-1.326294897212263,0.2237128128621291
5.547499999999999,1.9995626374860835,-1.3188371053184913,0.2311688594266489
5.551000000000002,1.975059960117335,-1.3028586160164832,0.2514094427620272
5.554499999999997,1.9633418195194452,-1.2943361732789946,0.2652586303766022
5.558,1.9345787934465783,-1.28048698566442,0.2833681666952953
5.561500000000002,1.915404606284169,-1.275160240787333,0.302544099186957
5.564999999999998,1.8962286737925071,-1.284747334368538,0.3270467765557054
5.5685,1.8802484391612475,-1.3028586160164832,0.341960615013997
5.572000000000003,1.8642699498592392,-1.3444044335309562,0.3579391043160051
5.575499999999998,1.852551809261349,-1.374233855776791,0.3653968962097769
5.579000000000001,1.8408336686634592,-1.411517579257894,0.3792460838243518
5.582500000000003,1.8429629703508923,-1.4413470015037293,0.3867021303888716
5.585999999999999,1.844029366523861,-1.4786324703140838,0.3952245731263599
5.589500000000001,1.8514854130883809,-1.506329100213982,0.3930952714389268
5.593000000000004,1.852551809261349,-1.545745616041022,0.3930952714389268
5.596499999999999,1.849356111400948,-1.5809000378346918,0.3877685265618402
5.600000000000001,1.8397672724904908,-1.61285876176796,0.3728546881035486
5.603499999999997,1.8333758767696875,-1.6330993451033382,0.3643322453660603
5.606999999999999,1.8397672724904908,-1.6693201630699763,0.3355692192931938
5.610500000000002,1.8685302985633567,-1.6980831891428432,0.3110665419244454
5.613999999999997,1.9420365853403505,-1.7247151681990245,0.2695207244099723
5.6175,2.0251299656985484,-1.7428264498469697,0.2364956043037356
5.621000000000002,2.1561605592920228,-1.749217845567773,0.1960144376329791
5.624499999999998,2.2680169657230875,-1.7534781942718909,0.1715135055934827
5.628,2.425681283701995,-1.7406954028302846,0.1438151303643327
5.631500000000003,2.5311462944122565,-1.730041913076111,0.1235745470289545
5.634999999999998,2.647263049547439,-1.7172591216345048,0.0990718696602061
5.6385000000000005,2.702658054676488,-1.7023452831762131,0.0862890782185996
