time,Gyr_X,Gyr_Y,Gyr_Z
0.0,-0.03978,0.086152,-0.131489
0.0024999999999977,-0.036925,0.085764,-0.132884
0.0050000000000238,-0.035194,0.081281,-0.133248
0.0075000000000216,-0.037888,0.084706,-0.134254
0.0100000000000193,-0.036849,0.083207,-0.133428
0.012500000000017,-0.035888,0.081497,-0.132877
0.0150000000000147,-0.036709,0.080017,-0.128162
0.0175000000000125,-0.03357,0.082694,-0.128687
0.0200000000000102,-0.036125,0.080713,-0.131558
0.0225000000000079,-0.037982,0.076605,-0.129075
0.0250000000000056,-0.035395,0.080029,-0.130609
0.0275000000000034,-0.036076,0.079682,-0.12902
0.0300000000000011,-0.033271,0.082847,-0.127904
0.0324999999999988,-0.034276,0.077563,-0.127369
0.035000000000025,-0.033182,0.077402,-0.126557
0.0375000000000227,-0.033461,0.081054,-0.125265
0.0400000000000204,-0.036222,0.078374,-0.124198
0.0425000000000181,-0.03451,0.073715,-0.121818
0.0450000000000159,-0.032815,0.074821,-0.122474
0.0475000000000136,-0.034975,0.071951,-0.118989
0.0500000000000113,-0.035009,0.071345,-0.118133
0.052500000000009,-0.033456,0.075308,-0.114973
0.0550000000000068,-0.032789,0.074864,-0.11871
0.0575000000000045,-0.032116,0.070163,-0.116786
0.0600000000000022,-0.03051,0.071454,-0.11041
0.0625,-0.032412,0.066762,-0.113213
0.0649999999999977,-0.028783,0.069483,-0.106364
0.0675000000000238,-0.027755,0.068723,-0.110468
0.0700000000000216,-0.027221,0.068174,-0.104794
0.0725000000000193,-0.028339,0.067989,-0.102048
0.075000000000017,-0.026928,0.069993,-0.100327
0.0775000000000147,-0.029562,0.065582,-0.099637
0.0800000000000125,-0.026782,0.063378,-0.097711
0.0825000000000102,-0.028659,0.066025,-0.092837
0.0850000000000079,-0.024888,0.064068,-0.094406
0.0875000000000056,-0.029556,0.065728,-0.091933
0.0900000000000034,-0.029449,0.06552,-0.090471
0.0925000000000011,-0.028569,0.059431,-0.087266
0.0949999999999988,-0.030115,0.064018,-0.086839
0.097500000000025,-0.029854,0.064313,-0.085825
0.1000000000000227,-0.027835,0.061969,-0.0836
0.1025000000000204,-0.025249,0.062647,-0.082511
0.1050000000000181,-0.02507,0.059734,-0.081161
0.1075000000000159,-0.022584,0.060504,-0.079782
0.1100000000000136,-0.022772,0.062452,-0.075725
0.1125000000000113,-0.021294,0.057235,-0.075313
0.1150000000000091,-0.020568,0.056147,-0.073172
0.1175000000000068,-0.018208,0.056142,-0.070612
0.1200000000000045,-0.023296,0.05608,-0.06641
0.1225000000000022,-0.020711,0.050686,-0.064173
0.125,-0.021407,0.052839,-0.06514
0.1274999999999977,-0.018528,0.047998,-0.061338
0.1300000000000238,-0.020477,0.04583,-0.06035
0.1325000000000216,-0.018902,0.044503,-0.057246
0.1350000000000193,-0.014989,0.045682,-0.055407
0.137500000000017,-0.01746,0.039593,-0.053568
0.1400000000000147,-0.014661,0.037467,-0.051074
0.1425000000000125,-0.013667,0.04309,-0.046749
0.1450000000000102,-0.015451,0.039022,-0.047685
0.1475000000000079,-0.017422,0.036102,-0.045633
0.1500000000000056,-0.015512,0.035363,-0.043753
0.1525000000000034,-0.01487,0.034373,-0.040019
0.1550000000000011,-0.01515,0.034516,-0.039269
0.1574999999999988,-0.014296,0.032253,-0.040124
0.160000000000025,-0.012402,0.032903,-0.035805
0.1625000000000227,-0.016858,0.031803,-0.037649
0.1650000000000204,-0.01272,0.031696,-0.035676
0.1675000000000182,-0.010297,0.030804,-0.034088
0.1700000000000159,-0.01388,0.031698,-0.033192
0.1725000000000136,-0.010434,0.029268,-0.034109
0.1750000000000113,-0.009583,0.030839,-0.031056
0.1775000000000091,-0.010301,0.027307,-0.031014
0.1800000000000068,-0.01059,0.024625,-0.026768
0.1825000000000045,-0.009811,0.028314,-0.027975
0.1850000000000022,-0.010395,0.028803,-0.028259
0.1875,-0.009193,0.021633,-0.02778
0.1899999999999977,-0.003856,0.022412,-0.026675
0.1925000000000238,-0.010699,0.021327,-0.024724
0.1950000000000216,-0.005384,0.019626,-0.021029
0.1975000000000193,-0.008017,0.021213,-0.024787
0.200000000000017,-0.007983,0.021642,-0.023505
0.2025000000000147,-0.006442,0.019716,-0.018495
0.2050000000000125,-0.009842,0.017286,-0.019024
0.2075000000000102,-0.009061,0.014268,-0.019054
0.2100000000000079,-0.006661,0.016195,-0.023493
0.2125000000000056,-0.004753,0.019051,-0.020654
0.2150000000000034,-0.003502,0.014191,-0.019048
0.2175000000000011,-0.004837,0.012837,-0.019488
0.2199999999999988,-0.008869,0.0135,-0.022112
0.222500000000025,-0.006114,0.015401,-0.017063
0.2250000000000227,-0.00864,0.012504,-0.019011
0.2275000000000204,-0.006606,0.012361,-0.017563
0.2300000000000182,-0.005485,0.015537,-0.016153
0.2325000000000159,-0.002958,0.014257,-0.017126
0.2350000000000136,-0.005096,0.01644,-0.016928
0.2375000000000113,-0.003585,0.015927,-0.016882
0.2400000000000091,-0.003487,0.01188,-0.013678
0.2425000000000068,-0.002274,0.011986,-0.016803
0.2450000000000045,-0.004357,0.012201,-0.014961
0.2475000000000022,-0.00177,0.012245,-0.015809
0.25,-0.004378,0.015736,-0.011779
0.2524999999999977,-0.004986,0.014407,-0.014156
0.2550000000000239,-0.003131,0.011867,-0.012547
0.2575000000000216,-0.003916,0.013623,-0.014114
0.2600000000000193,-0.00331,0.012501,-0.010276
0.262500000000017,-0.005035,0.015099,-0.010884
0.2650000000000148,-0.008929,0.013279,-0.011304
0.2675000000000125,-0.006631,0.014048,-0.013703
0.2700000000000102,-0.003035,0.011935,-0.011961
0.2725000000000079,-0.004713,0.015906,-0.010818
0.2750000000000057,-0.006768,0.015115,-0.011545
0.2775000000000034,-0.004926,0.015835,-0.010298
0.2800000000000011,-0.003351,0.013088,-0.00975
0.2824999999999988,-0.005759,0.013802,-0.009619
0.285000000000025,-0.005677,0.013909,-0.009176
0.2875000000000227,-0.002497,0.017274,-0.015792
0.2900000000000204,-0.00599,0.014483,-0.011271
0.2925000000000182,-0.006051,0.011133,-0.011632
0.2950000000000159,-0.003253,0.015096,-0.012915
0.2975000000000136,-0.005417,0.014248,-0.011432
0.3000000000000113,-0.008471,0.015386,-0.011398
0.3025000000000091,-0.005293,0.016022,-0.013632
0.3050000000000068,-0.007784,0.021703,-0.0112
0.3075000000000045,-0.007388,0.01324,-0.00986
0.3100000000000023,-0.007847,0.014434,-0.016169
0.3125,-0.005218,0.018292,-0.012097
0.3149999999999977,-0.003605,0.019761,-0.013846
0.3175000000000239,-0.004028,0.01755,-0.016452
0.3200000000000216,-0.008401,0.016677,-0.016463
0.3225000000000193,-0.007258,0.018268,-0.014612
0.325000000000017,-0.005707,0.017265,-0.016461
0.3275000000000148,-0.006463,0.019037,-0.014104
0.3300000000000125,-0.010259,0.018277,-0.014432
0.3325000000000102,-0.006466,0.021584,-0.020821
0.3350000000000079,-0.005887,0.018539,-0.018513
0.3375000000000057,-0.009447,0.020383,-0.019914
0.3400000000000034,-0.009362,0.024294,-0.023066
0.3425000000000011,-0.009546,0.02541,-0.020833
0.3449999999999988,-0.008912,0.022259,-0.021793
0.347500000000025,-0.00861,0.023964,-0.02289
0.3500000000000227,-0.010186,0.024158,-0.020872
0.3525000000000204,-0.009345,0.021362,-0.027992
0.3550000000000182,-0.007841,0.024737,-0.023749
0.3575000000000159,-0.010668,0.024126,-0.024186
0.3600000000000136,-0.00938,0.024229,-0.023711
0.3625000000000113,-0.009526,0.023737,-0.025967
0.3650000000000091,-0.009328,0.027437,-0.027829
0.3675000000000068,-0.011806,0.02837,-0.029902
0.3700000000000045,-0.010885,0.025428,-0.028345
0.3725000000000023,-0.009796,0.026334,-0.031285
0.375,-0.007991,0.027973,-0.032337
0.3774999999999977,-0.009902,0.027194,-0.033271
0.3800000000000239,-0.012328,0.027981,-0.03404
0.3825000000000216,-0.012581,0.02839,-0.034776
0.3850000000000193,-0.010891,0.03209,-0.037283
0.387500000000017,-0.010467,0.029736,-0.037877
0.3900000000000148,-0.013655,0.033794,-0.037438
0.3925000000000125,-0.014515,0.032965,-0.039092
0.3950000000000102,-0.012098,0.0298,-0.038059
0.3975000000000079,-0.013307,0.030486,-0.043347
0.4000000000000057,-0.014828,0.03216,-0.042699
0.4025000000000034,-0.010793,0.032219,-0.044835
0.4050000000000011,-0.013801,0.032113,-0.043607
0.4074999999999988,-0.012128,0.031919,-0.045614
0.410000000000025,-0.016034,0.032715,-0.049187
0.4125000000000227,-0.016135,0.031156,-0.046273
0.4150000000000204,-0.014241,0.031848,-0.047599
0.4175000000000182,-0.014056,0.033373,-0.047761
0.4200000000000159,-0.013897,0.032624,-0.045101
0.4225000000000136,-0.014855,0.032837,-0.04832
0.4250000000000113,-0.012191,0.034697,-0.049707
0.4275000000000091,-0.014417,0.034273,-0.050612
0.4300000000000068,-0.016606,0.034447,-0.049336
0.4325000000000045,-0.015205,0.035972,-0.05257
0.4350000000000023,-0.016671,0.033831,-0.052117
0.4375,-0.016329,0.039824,-0.0523
0.4399999999999977,-0.016122,0.036628,-0.053476
0.4425000000000239,-0.016397,0.03775,-0.0554
0.4450000000000216,-0.016944,0.036598,-0.055513
0.4475000000000193,-0.01584,0.036321,-0.05538
0.450000000000017,-0.014083,0.037398,-0.0543
0.4525000000000148,-0.016462,0.035959,-0.055831
0.4550000000000125,-0.01433,0.033344,-0.055978
0.4575000000000102,-0.015128,0.036689,-0.0532
0.4600000000000079,-0.018117,0.03638,-0.054818
0.4625000000000057,-0.016962,0.038043,-0.054482
0.4650000000000034,-0.012162,0.039221,-0.057559
0.4675000000000011,-0.01805,0.040687,-0.060456
0.4699999999999988,-0.01708,0.03861,-0.058053
0.472500000000025,-0.016628,0.040176,-0.057194
0.4750000000000227,-0.015572,0.040326,-0.059037
0.4775000000000204,-0.017987,0.037902,-0.056799
0.4800000000000182,-0.017235,0.038243,-0.057448
0.4825000000000159,-0.018173,0.040091,-0.056817
0.4850000000000136,-0.015406,0.042977,-0.057143
0.4875000000000113,-0.014091,0.039396,-0.058241
0.4900000000000091,-0.017045,0.041527,-0.061134
0.4925000000000068,-0.014718,0.040484,-0.060524
0.4950000000000045,-0.016264,0.041381,-0.059266
0.4975000000000023,-0.014539,0.040834,-0.060441
0.5,-0.016738,0.041691,-0.059566
0.5024999999999977,-0.01843,0.040445,-0.059293
0.5050000000000239,-0.017571,0.038906,-0.063151
0.5075000000000216,-0.018485,0.043093,-0.058864
0.5100000000000193,-0.019239,0.042445,-0.059071
0.512500000000017,-0.020185,0.042001,-0.05904
0.5150000000000148,-0.019169,0.041201,-0.058962
0.5175000000000125,-0.019051,0.038437,-0.061674
0.5200000000000102,-0.014775,0.039839,-0.061822
0.522500000000008,-0.01605,0.039253,-0.064489
0.5250000000000057,-0.0176,0.040934,-0.05973
0.5275000000000034,-0.019777,0.043117,-0.059547
0.5300000000000011,-0.015351,0.041487,-0.058281
0.5324999999999989,-0.015607,0.042281,-0.061499
0.535000000000025,-0.015432,0.040234,-0.057104
0.5375000000000227,-0.017117,0.04149,-0.05945
0.5400000000000205,-0.015029,0.041243,-0.060695
0.5425000000000182,-0.015862,0.03965,-0.060818
0.5450000000000159,-0.017065,0.042988,-0.056472
0.5475000000000136,-0.015688,0.039021,-0.055735
0.5500000000000114,-0.011185,0.038036,-0.056881
0.5525000000000091,-0.019209,0.040304,-0.05734
0.5550000000000068,-0.015636,0.037833,-0.054123
0.5575000000000045,-0.01446,0.03738,-0.054635
0.5600000000000023,-0.012575,0.035866,-0.054811
0.5625,-0.014465,0.039411,-0.050725
0.5649999999999977,-0.016968,0.034475,-0.053024
0.5675000000000239,-0.013779,0.038859,-0.049692
0.5700000000000216,-0.012124,0.03113,-0.047679
0.5725000000000193,-0.013322,0.032575,-0.048308
0.575000000000017,-0.013071,0.03005,-0.044747
0.5775000000000148,-0.010552,0.0351,-0.045525
0.5800000000000125,-0.012651,0.030377,-0.044248
0.5825000000000102,-0.01373,0.031339,-0.044018
0.585000000000008,-0.009932,0.030699,-0.040959
0.5875000000000057,-0.008616,0.028325,-0.039205
0.5900000000000034,-0.012387,0.027882,-0.036497
0.5925000000000011,-0.009944,0.02586,-0.037149
0.5949999999999989,-0.011314,0.022849,-0.031458
0.597500000000025,-0.008455,0.022232,-0.030033
0.6000000000000227,-0.008491,0.020281,-0.031784
0.6025000000000205,-0.007774,0.021102,-0.028881
0.6050000000000182,-0.007583,0.02021,-0.02799
0.6075000000000159,-0.005841,0.019556,-0.020151
0.6100000000000136,-0.003655,0.015939,-0.023274
0.6125000000000114,-0.007208,0.017906,-0.015248
0.6150000000000091,-0.002652,0.016855,-0.015555
0.6175000000000068,-0.002182,0.014658,-0.011384
0.6200000000000045,-0.002408,0.013606,-0.010467
0.6225000000000023,-0.003429,0.012905,-0.008149
0.625,-0.002506,0.009844,-0.003783
0.6274999999999977,-0.002299,0.009713,0.000937
0.6300000000000239,-0.000998,0.007794,-0.003164
0.6325000000000216,-0.000617,0.004751,0.000515
0.6350000000000193,-0.000496,0.002385,0.004064
0.637500000000017,0.001351,0.005787,0.009201
0.6400000000000148,0.000545,0.00067,0.009523
0.6425000000000125,-0.001019,0.000452,0.012756
0.6450000000000102,0.001889,0.001264,0.014245
0.647500000000008,8e-06,0.000664,0.018021
0.6500000000000057,0.004539,-0.005186,0.019741
0.6525000000000034,0.004264,-0.004856,0.020304
0.6550000000000011,0.002754,-0.00391,0.023908
0.6574999999999989,0.006007,-0.005175,0.027573
0.660000000000025,0.006979,-0.005373,0.025698
0.6625000000000227,0.004482,-0.006877,0.028939
0.6650000000000205,0.009084,-0.011863,0.030449
0.6675000000000182,0.012306,-0.010769,0.031862
0.6700000000000159,0.011411,-0.013086,0.030188
0.6725000000000136,0.011895,-0.01439,0.034226
0.6750000000000114,0.004558,-0.01491,0.037772
0.6775000000000091,0.007359,-0.016932,0.044508
0.6800000000000068,0.011911,-0.018468,0.040912
0.6825000000000045,0.011244,-0.020282,0.042806
0.6850000000000023,0.014228,-0.023001,0.045555
0.6875,0.009654,-0.021318,0.048036
0.6899999999999977,0.013331,-0.022563,0.051767
0.6925000000000239,0.013501,-0.025263,0.04972
0.6950000000000216,0.014374,-0.024083,0.051974
0.6975000000000193,0.017428,-0.028397,0.050154
0.700000000000017,0.013456,-0.029093,0.056269
0.7025000000000148,0.015622,-0.032203,0.058223
0.7050000000000125,0.017672,-0.02967,0.059385
0.7075000000000102,0.017072,-0.035329,0.06121
0.710000000000008,0.014638,-0.029443,0.063541
0.7125000000000057,0.016116,-0.028707,0.063712
0.7150000000000034,0.018055,-0.031497,0.067992
0.7175000000000011,0.017706,-0.031456,0.074894
0.7199999999999989,0.019185,-0.033531,0.072961
0.722500000000025,0.018818,-0.032637,0.073459
0.7250000000000227,0.022956,-0.036283,0.072742
0.7275000000000205,0.024099,-0.036268,0.077044
0.7300000000000182,0.019365,-0.034402,0.074755
0.7325000000000159,0.020842,-0.03559,0.078773
0.7350000000000136,0.020276,-0.040795,0.08266
0.7375000000000114,0.021087,-0.041944,0.084198
0.7400000000000091,0.01983,-0.040688,0.085931
0.7425000000000068,0.024212,-0.045143,0.086223
0.7450000000000045,0.02375,-0.047387,0.088281
0.7475000000000023,0.023799,-0.045018,0.090622
0.75,0.023506,-0.044183,0.092056
0.7524999999999977,0.025304,-0.048141,0.095003
0.7550000000000239,0.02427,-0.049417,0.095152
0.7575000000000216,0.026796,-0.050029,0.095093
0.7600000000000193,0.031468,-0.051346,0.096547
0.762500000000017,0.024226,-0.053863,0.098654
0.7650000000000148,0.027081,-0.053136,0.104853
0.7675000000000125,0.028788,-0.053078,0.106274
0.7700000000000102,0.028517,-0.050852,0.106978
0.772500000000008,0.027115,-0.056137,0.108629
0.7750000000000057,0.027382,-0.053869,0.111013
0.7775000000000034,0.031914,-0.056577,0.110631
0.7800000000000011,0.029961,-0.056392,0.11254
0.7824999999999989,0.030532,-0.058289,0.114695
0.785000000000025,0.026543,-0.057548,0.117739
0.7875000000000227,0.032496,-0.060132,0.115309
0.7900000000000205,0.030943,-0.059244,0.122631
0.7925000000000182,0.03523,-0.059894,0.121333
0.7950000000000159,0.032768,-0.061914,0.121795
0.7975000000000136,0.032268,-0.062637,0.12505
0.8000000000000114,0.03231,-0.061175,0.126562
0.8025000000000091,0.034795,-0.064543,0.130191
0.8050000000000068,0.035364,-0.063151,0.13062
0.8075000000000045,0.034226,-0.062202,0.129016
0.8100000000000023,0.032766,-0.065541,0.130554
0.8125,0.034524,-0.066705,0.130504
0.8149999999999977,0.034905,-0.066365,0.131329
0.8175000000000239,0.035364,-0.065468,0.132608
0.8200000000000216,0.033605,-0.067592,0.134034
0.8225000000000193,0.034735,-0.06751,0.138166
0.825000000000017,0.037428,-0.065733,0.134493
0.8275000000000148,0.035349,-0.066172,0.1376
0.8300000000000125,0.03827,-0.068782,0.139023
0.8325000000000102,0.035468,-0.069483,0.136776
0.835000000000008,0.0362,-0.068632,0.136947
0.8375000000000057,0.036031,-0.068426,0.138418
0.8400000000000034,0.036695,-0.071271,0.138634
0.8425000000000011,0.036017,-0.068514,0.138456
0.8449999999999989,0.036822,-0.0696,0.138014
0.847500000000025,0.036762,-0.070985,0.138714
0.8500000000000227,0.039611,-0.070122,0.137926
0.8525000000000205,0.037514,-0.068825,0.137731
0.8550000000000182,0.038644,-0.068825,0.140979
0.8575000000000159,0.033478,-0.071393,0.142322
0.8600000000000136,0.035504,-0.068824,0.145362
0.8625000000000114,0.037504,-0.068969,0.140508
0.8650000000000091,0.037809,-0.071354,0.142398
0.8675000000000068,0.036331,-0.070129,0.139343
0.8700000000000045,0.036056,-0.074646,0.138175
0.8725000000000023,0.037485,-0.071728,0.138628
0.875,0.034755,-0.07084,0.139908
0.8774999999999977,0.038166,-0.07256,0.138012
0.8800000000000239,0.037185,-0.070728,0.139562
0.8825000000000216,0.035281,-0.070931,0.138074
0.8850000000000193,0.038178,-0.069314,0.136506
0.887500000000017,0.037681,-0.067034,0.138579
0.8900000000000148,0.037081,-0.06841,0.137994
0.8925000000000125,0.036908,-0.067648,0.134376
0.8950000000000102,0.040016,-0.066648,0.136093
0.897500000000008,0.035667,-0.069295,0.137375
0.9000000000000057,0.037652,-0.067437,0.134189
0.9025000000000034,0.03641,-0.070179,0.134555
0.9050000000000012,0.036786,-0.069109,0.135177
0.9074999999999988,0.035756,-0.072266,0.132983
0.910000000000025,0.035361,-0.065972,0.132643
0.9125000000000228,0.036418,-0.0682,0.13172
0.9150000000000204,0.036228,-0.066194,0.129586
0.9175000000000182,0.035284,-0.070715,0.131287
0.920000000000016,0.036036,-0.067604,0.127111
0.9225000000000136,0.033414,-0.067346,0.129113
0.9250000000000114,0.033558,-0.06762,0.126093
0.9275000000000092,0.035507,-0.066334,0.127231
0.9300000000000068,0.035708,-0.0663,0.125477
0.9325000000000044,0.033391,-0.062703,0.12295
0.9350000000000024,0.033592,-0.063276,0.12076
0.9375,0.036345,-0.062719,0.122077
0.9399999999999976,0.031985,-0.061162,0.121681
0.942500000000024,0.032561,-0.063397,0.119592
0.9450000000000216,0.03195,-0.059329,0.117768
0.9475000000000192,0.033332,-0.06393,0.117388
0.950000000000017,0.031685,-0.060014,0.118449
0.9525000000000148,0.032933,-0.059031,0.115791
0.9550000000000124,0.035781,-0.063536,0.114475
0.9575000000000102,0.035877,-0.059244,0.115751
0.960000000000008,0.033785,-0.057644,0.11579
0.9625000000000056,0.034352,-0.059807,0.114048
0.9650000000000034,0.032005,-0.060193,0.112251
0.9675000000000012,0.03084,-0.057882,0.110567
0.9699999999999988,0.030869,-0.05807,0.114041
0.972500000000025,0.029885,-0.055549,0.110232
0.9750000000000228,0.030363,-0.057228,0.109132
0.9775000000000204,0.03084,-0.057018,0.113135
0.9800000000000182,0.033148,-0.054243,0.11094
0.982500000000016,0.031789,-0.055596,0.108043
0.9850000000000136,0.029752,-0.057554,0.108694
0.9875000000000114,0.033189,-0.05677,0.106149
0.9900000000000092,0.032929,-0.056034,0.103786
0.9925000000000068,0.031056,-0.055648,0.109229
0.9950000000000044,0.029699,-0.054707,0.106274
0.9975000000000024,0.030368,-0.056283,0.105865
1.0,0.030307,-0.054355,0.104599
1.0024999999999975,0.031022,-0.053091,0.106411
1.005000000000024,0.031465,-0.052974,0.106741
1.0075000000000216,0.030451,-0.051184,0.103381
1.010000000000019,0.028604,-0.053912,0.104419
1.012500000000017,0.027552,-0.052556,0.104795
1.0150000000000148,0.03256,-0.053534,0.102951
1.0175000000000125,0.029085,-0.050956,0.102902
1.0200000000000102,0.030874,-0.054656,0.104942
1.022500000000008,0.031134,-0.053386,0.102452
1.0250000000000057,0.028274,-0.048918,0.105379
1.0275000000000034,0.030082,-0.054248,0.102558
1.0300000000000011,0.030678,-0.052878,0.104643
1.0324999999999989,0.030352,-0.053339,0.107747
1.035000000000025,0.031283,-0.054468,0.108296
1.0375000000000227,0.03063,-0.052701,0.105888
1.0400000000000205,0.032426,-0.05561,0.106431
1.0425000000000182,0.034124,-0.056309,0.106599
1.045000000000016,0.031859,-0.055,0.106236
1.0475000000000136,0.03253,-0.057314,0.108572
1.0500000000000114,0.034384,-0.057638,0.108355
1.052500000000009,0.02899,-0.053024,0.1118
1.0550000000000068,0.029527,-0.057755,0.106924
1.0575000000000043,0.034773,-0.05661,0.111376
1.0600000000000025,0.033856,-0.061154,0.110944
1.0625,0.034832,-0.059204,0.112554
1.0649999999999975,0.037838,-0.057271,0.115123
1.067500000000024,0.037245,-0.059618,0.115041
1.0700000000000216,0.038882,-0.063924,0.114935
1.072500000000019,0.034586,-0.061466,0.118793
1.075000000000017,0.035826,-0.061168,0.115306
1.0775000000000148,0.040405,-0.061442,0.117939
1.0800000000000125,0.040286,-0.063302,0.119966
1.0825000000000102,0.041196,-0.064804,0.12018
1.085000000000008,0.0373,-0.063458,0.122938
1.0875000000000057,0.040852,-0.064744,0.125463
1.0900000000000034,0.039562,-0.0686,0.123941
1.0925000000000011,0.040155,-0.066601,0.124579
1.0949999999999989,0.041711,-0.067142,0.129613
1.097500000000025,0.039335,-0.0661,0.128869
1.1000000000000227,0.03963,-0.066312,0.127313
1.1025000000000205,0.044001,-0.068527,0.130036
1.1050000000000182,0.043353,-0.072019,0.134315
1.107500000000016,0.045728,-0.075087,0.132946
1.1100000000000136,0.043952,-0.073311,0.137823
1.1125000000000114,0.044548,-0.073257,0.134566
1.115000000000009,0.045312,-0.077561,0.13712
1.1175000000000068,0.044736,-0.077713,0.140665
1.1200000000000043,0.043855,-0.074546,0.14214
1.1225000000000025,0.04411,-0.077187,0.142979
1.125,0.049,-0.073692,0.143469
1.1274999999999975,0.04944,-0.080641,0.145405
1.130000000000024,0.05134,-0.080138,0.144338
1.1325000000000216,0.052477,-0.079475,0.14862
1.135000000000019,0.054849,-0.078416,0.151732
1.137500000000017,0.05011,-0.080949,0.154232
1.1400000000000148,0.054974,-0.082006,0.154866
1.1425000000000125,0.055169,-0.083812,0.155651
1.1450000000000102,0.054153,-0.088756,0.158995
1.147500000000008,0.055643,-0.08298,0.161191
1.1500000000000057,0.057802,-0.084203,0.16204
1.1525000000000034,0.055636,-0.085717,0.164772
1.1550000000000011,0.057014,-0.088602,0.170714
1.1574999999999989,0.058875,-0.090352,0.170404
1.160000000000025,0.062116,-0.088589,0.171132
1.1625000000000227,0.064618,-0.091268,0.170889
1.1650000000000205,0.064497,-0.089644,0.1723
1.1675000000000182,0.064104,-0.090173,0.173969
1.170000000000016,0.066698,-0.095373,0.1779
1.1725000000000136,0.066841,-0.093554,0.179335
1.1750000000000114,0.068457,-0.093099,0.181351
1.177500000000009,0.068522,-0.09107,0.182991
1.1800000000000068,0.067941,-0.094457,0.186779
1.1825000000000043,0.068995,-0.096248,0.189813
1.1850000000000025,0.072109,-0.092773,0.189254
1.1875,0.069546,-0.093539,0.191369
1.1899999999999975,0.071748,-0.097421,0.192622
1.192500000000024,0.075502,-0.096431,0.19534
1.1950000000000216,0.081142,-0.096941,0.195365
1.197500000000019,0.076856,-0.093015,0.198328
1.200000000000017,0.076846,-0.092207,0.201476
1.2025000000000148,0.079373,-0.093977,0.199146
1.2050000000000125,0.080163,-0.092876,0.204914
1.2075000000000102,0.079448,-0.093107,0.204473
1.210000000000008,0.081591,-0.092877,0.201061
1.2125000000000057,0.07991,-0.093122,0.201778
1.2150000000000034,0.081881,-0.089066,0.201852
1.2175000000000011,0.082971,-0.089024,0.202802
1.2199999999999989,0.084292,-0.090222,0.206807
1.222500000000025,0.083681,-0.088112,0.206219
1.2250000000000227,0.082832,-0.086801,0.205728
1.2275000000000205,0.082345,-0.087535,0.206625
1.2300000000000182,0.081676,-0.087385,0.209711
1.232500000000016,0.083715,-0.085922,0.209749
1.2350000000000136,0.079731,-0.083005,0.207778
1.2375000000000114,0.082487,-0.087242,0.208755
1.240000000000009,0.08195,-0.089674,0.207248
1.2425000000000068,0.07645,-0.086622,0.206637
1.2450000000000043,0.075731,-0.09034,0.204716
1.2475000000000025,0.075427,-0.089601,0.205574
1.25,0.071544,-0.088581,0.206863
1.2524999999999975,0.071931,-0.087851,0.201629
1.255000000000024,0.071882,-0.087704,0.202423
1.2575000000000216,0.064173,-0.093983,0.202051
1.260000000000019,0.066384,-0.088978,0.19953
1.262500000000017,0.062863,-0.089172,0.197572
1.2650000000000148,0.060786,-0.090981,0.19523
1.2675000000000125,0.063255,-0.090586,0.196408
1.2700000000000102,0.060748,-0.088488,0.194214
1.272500000000008,0.06117,-0.087377,0.193409
1.2750000000000057,0.059088,-0.091554,0.190815
1.2775000000000034,0.058305,-0.086962,0.190832
1.2800000000000011,0.056751,-0.089504,0.182222
1.2824999999999989,0.056527,-0.08543,0.180974
1.285000000000025,0.053997,-0.08485,0.179584
1.2875000000000227,0.051766,-0.08397,0.179317
1.2900000000000205,0.057263,-0.081089,0.179876
1.2925000000000182,0.056601,-0.083385,0.172784
1.295000000000016,0.055072,-0.080457,0.176056
1.2975000000000136,0.054304,-0.082262,0.169953
1.3000000000000114,0.052836,-0.078374,0.168934
1.302500000000009,0.052821,-0.076014,0.168381
1.3050000000000068,0.049955,-0.077534,0.161093
1.3075000000000043,0.050444,-0.075321,0.159901
1.3100000000000025,0.050334,-0.073607,0.15674
1.3125,0.049212,-0.071362,0.154746
1.3149999999999975,0.050681,-0.071719,0.154357
1.317500000000024,0.047078,-0.068259,0.149774
1.3200000000000216,0.044363,-0.066841,0.147391
1.322500000000019,0.045786,-0.06332,0.146966
1.325000000000017,0.042201,-0.065261,0.142054
1.3275000000000148,0.043955,-0.064589,0.138112
1.3300000000000125,0.037818,-0.064816,0.134652
1.3325000000000102,0.042776,-0.058909,0.129516
1.335000000000008,0.041478,-0.060613,0.132471
1.3375000000000057,0.04045,-0.056317,0.129079
1.3400000000000034,0.03879,-0.060406,0.124937
1.3425000000000011,0.037845,-0.060181,0.121253
1.3449999999999989,0.036284,-0.056328,0.120018
1.347500000000025,0.034607,-0.054458,0.120253
1.3500000000000227,0.032882,-0.051849,0.116957
1.3525000000000205,0.033132,-0.053436,0.112898
1.3550000000000182,0.033784,-0.05172,0.111242
1.357500000000016,0.033222,-0.049242,0.10974
1.3600000000000136,0.032077,-0.050548,0.105443
1.3625000000000114,0.029803,-0.045697,0.105891
1.365000000000009,0.032922,-0.043653,0.103796
1.3675000000000068,0.030053,-0.042634,0.102364
1.3700000000000043,0.028495,-0.046096,0.095081
1.3725000000000025,0.030493,-0.047643,0.096912
1.375,0.026909,-0.040838,0.095538
1.3774999999999975,0.027656,-0.040312,0.092772
1.380000000000024,0.027355,-0.043793,0.089463
1.3825000000000216,0.028134,-0.040708,0.087249
1.385000000000019,0.025407,-0.035,0.088681
1.387500000000017,0.024398,-0.038631,0.082626
1.3900000000000148,0.023415,-0.037466,0.080334
1.3925000000000125,0.022811,-0.036971,0.081561
1.3950000000000102,0.020742,-0.034302,0.077605
1.397500000000008,0.025811,-0.034209,0.075426
1.4000000000000057,0.024999,-0.031269,0.071596
1.4025000000000034,0.024147,-0.030278,0.07178
1.4050000000000011,0.021693,-0.032073,0.068805
1.4074999999999989,0.021905,-0.028297,0.069772
1.410000000000025,0.021826,-0.02977,0.066557
1.4125000000000227,0.016583,-0.027908,0.06424
1.4150000000000205,0.020174,-0.025071,0.065129
1.4175000000000182,0.019065,-0.02929,0.062237
1.420000000000016,0.017139,-0.026523,0.060869
1.4225000000000136,0.017183,-0.027537,0.059154
1.4250000000000114,0.016101,-0.023417,0.057287
1.427500000000009,0.015591,-0.0264,0.053902
1.4300000000000068,0.018061,-0.025493,0.051985
1.4325000000000043,0.015467,-0.025174,0.052695
1.4350000000000025,0.018295,-0.021406,0.052974
1.4375,0.01455,-0.020321,0.048719
1.4399999999999975,0.017124,-0.026977,0.047576
1.442500000000024,0.015518,-0.02294,0.046766
1.4450000000000216,0.013547,-0.021541,0.04765
1.447500000000019,0.016268,-0.02023,0.046224
1.450000000000017,0.014444,-0.019577,0.046452
1.4525000000000148,0.013628,-0.019407,0.047605
1.4550000000000125,0.011372,-0.01989,0.043818
1.4575000000000102,0.015284,-0.021874,0.04425
1.460000000000008,0.012784,-0.019804,0.041289
1.4625000000000057,0.012469,-0.016782,0.042457
1.4650000000000034,0.012048,-0.015861,0.043688
1.4675000000000011,0.013556,-0.016771,0.039615
1.4699999999999989,0.013135,-0.018768,0.037801
1.472500000000025,0.012784,-0.014417,0.039559
1.4750000000000227,0.013088,-0.01424,0.039878
1.4775000000000205,0.01544,-0.015067,0.034804
1.4800000000000182,0.013015,-0.01293,0.036339
1.482500000000016,0.007541,-0.013466,0.035206
1.4850000000000136,0.010907,-0.013223,0.034095
1.4875000000000114,0.007623,-0.010945,0.034521
1.490000000000009,0.011254,-0.01222,0.036608
1.4925000000000068,0.007596,-0.0113,0.031986
1.4950000000000043,0.008371,-0.01145,0.033795
1.4975000000000025,0.009168,-0.006084,0.031366
1.5,0.009426,-0.012083,0.030474
1.5024999999999975,0.007851,-0.013398,0.032286
1.505000000000024,0.006948,-0.009476,0.030064
1.5075000000000216,0.00998,-0.011839,0.028139
1.510000000000019,0.008172,-0.009976,0.028294
1.512500000000017,0.006645,-0.007984,0.027552
1.5150000000000148,0.007115,-0.006676,0.029678
1.5175000000000125,0.00461,-0.006333,0.026003
1.5200000000000102,0.004487,-0.009292,0.025906
1.522500000000008,0.008499,-0.010806,0.025328
1.5250000000000057,0.007743,-0.007257,0.0282
1.5275000000000034,0.004917,-0.00795,0.025725
1.5300000000000011,0.003564,-0.005716,0.02627
1.5324999999999989,0.006562,-0.004478,0.024602
1.535000000000025,0.002878,-0.004819,0.024597
1.5375000000000227,0.004639,-0.005397,0.022338
1.5400000000000205,0.005983,-0.008604,0.02196
1.5425000000000182,0.005875,-0.005133,0.02316
1.545000000000016,0.002422,-0.003289,0.02133
1.5475000000000136,0.005639,-0.003372,0.02322
1.5500000000000114,0.00594,-0.002034,0.01918
1.552500000000009,0.004638,-0.00204,0.020672
1.5550000000000068,0.003835,-9.5e-05,0.022223
1.5575000000000043,0.003584,8.3e-05,0.019905
1.5600000000000025,0.004016,-0.005668,0.021385
1.5625,0.00248,0.000419,0.016818
1.5649999999999975,0.003072,-5.1e-05,0.018173
1.567500000000024,0.000917,-0.002909,0.016475
1.5700000000000216,0.001664,-0.001591,0.018433
1.572500000000019,0.006904,0.002185,0.019728
1.575000000000017,0.003842,0.000342,0.015364
1.5775000000000148,0.004099,-0.001924,0.015285
1.5800000000000125,0.005876,-0.002223,0.017459
1.5825000000000102,0.002489,0.001492,0.020313
1.585000000000008,0.001869,-0.001194,0.017842
1.5875000000000057,0.004186,-0.003886,0.01731
1.5900000000000034,0.003163,8.1e-05,0.013299
1.5925000000000011,0.003203,-0.0017,0.016416
1.5949999999999989,0.001318,-8.6e-05,0.017274
1.597500000000025,0.000156,0.002458,0.017986
1.6000000000000227,0.002242,0.000145,0.01464
1.6025000000000205,0.005225,0.000783,0.016307
1.6050000000000182,0.001036,0.000302,0.014638
1.607500000000016,0.001817,0.000715,0.015519
1.6100000000000136,0.002734,0.001147,0.01347
1.6125000000000114,0.003336,-0.003657,0.016668
1.615000000000009,0.000549,0.000831,0.015991
1.6175000000000068,0.001583,-0.001718,0.016279
1.6200000000000043,0.004343,0.003279,0.012835
1.6225000000000025,0.00027,0.001093,0.016355
1.625,0.003722,0.00078,0.015102
1.6274999999999975,0.001808,0.000451,0.016535
1.630000000000024,0.00324,-0.001663,0.016507
1.6325000000000216,0.001819,-0.002594,0.015648
1.635000000000019,0.00783,-0.00086,0.014143
1.637500000000017,0.002673,-0.001687,0.019168
1.6400000000000148,0.001823,-0.001138,0.016009
1.6425000000000125,0.005054,-0.003468,0.016188
1.6450000000000102,0.003193,-0.004201,0.017206
1.647500000000008,0.001649,0.000975,0.014155
1.6500000000000057,0.000858,-0.002833,0.020573
1.6525000000000034,0.001756,-0.000125,0.013896
1.6550000000000011,0.006232,-0.005478,0.015219
1.6574999999999989,0.003167,-0.001943,0.014717
1.660000000000025,0.001956,0.001463,0.01753
1.6625000000000227,0.003315,-0.00103,0.017295
1.6650000000000205,0.004113,0.000151,0.016815
1.6675000000000182,0.003623,-0.003259,0.017882
1.670000000000016,0.002982,-0.00459,0.017954
1.6725000000000136,0.004808,5.7e-05,0.018237
1.6750000000000114,0.006001,-0.001219,0.013714
1.677500000000009,0.002486,-0.000979,0.017236
1.6800000000000068,0.000723,0.000196,0.018627
1.6825000000000043,0.004502,-0.001267,0.018477
1.6850000000000025,0.005294,-0.001487,0.017013
1.6875,0.006049,0.000364,0.019363
1.6899999999999975,0.002608,0.000932,0.02168
1.692500000000024,0.002629,-0.000972,0.02288
1.6950000000000216,0.004247,-0.00301,0.017837
1.697500000000019,0.002573,-0.000109,0.019834
1.700000000000017,0.001944,0.000774,0.018322
1.7025000000000148,0.002862,-0.002664,0.016714
1.7050000000000125,0.003087,-0.000146,0.01872
1.7075000000000102,0.004288,0.002649,0.017581
1.710000000000008,0.002862,0.000779,0.015291
1.7125000000000057,0.002586,-0.003476,0.016504
1.7150000000000034,0.00655,-0.002943,0.017049
1.7175000000000011,0.006717,-0.002965,0.016583
1.7199999999999989,0.00473,-0.00357,0.015792
1.722500000000025,0.005176,-0.002706,0.015659
1.7250000000000227,0.005747,-0.003424,0.014511
1.7275000000000205,0.004714,-0.001465,0.012628
1.7300000000000182,0.003525,8.7e-05,0.013972
1.732500000000016,0.002423,-0.003211,0.016752
1.7350000000000136,0.003348,-0.007053,0.014435
1.7375000000000114,0.006012,-0.003353,0.011388
1.740000000000009,0.004555,-0.004914,0.013303
1.7425000000000068,0.007495,-0.005102,0.015379
1.7450000000000043,0.007793,-0.006522,0.017219
1.7475000000000025,0.004276,-0.006384,0.015996
1.75,0.000732,-0.000118,0.012182
1.7524999999999975,0.004288,-0.001666,0.015298
1.755000000000024,0.00435,0.001096,0.014865
1.7575000000000216,0.003589,-0.004451,0.016502
1.760000000000019,0.004081,-0.000431,0.013631
1.762500000000017,0.004411,-0.000253,0.01316
1.7650000000000148,0.003874,-0.002216,0.011926
1.7675000000000125,0.002459,0.001822,0.015786
1.7700000000000102,0.000881,0.002844,0.01495
1.772500000000008,0.002003,0.00324,0.014476
1.7750000000000057,0.001175,0.001515,0.012725
1.7775000000000034,0.002774,0.000667,0.012849
1.7800000000000011,-0.002646,0.000637,0.011794
1.7824999999999989,0.001938,0.002097,0.013985
1.785000000000025,0.001933,0.001348,0.013698
1.7875000000000227,0.004896,0.002722,0.010446
1.7900000000000205,-0.004195,0.003248,0.011054
1.7925000000000182,0.001246,-0.00065,0.014076
1.795000000000016,0.003982,-0.000679,0.012741
1.7975000000000136,-0.000207,-0.001043,0.011729
1.8000000000000114,-0.000142,0.002626,0.011729
1.802500000000009,0.00278,-0.001274,0.007125
1.8050000000000068,0.002319,-0.00173,0.011111
1.8075000000000043,0.001562,0.002327,0.011381
1.8100000000000025,0.001412,0.001212,0.010341
1.8125,0.00209,0.000515,0.010336
1.8149999999999975,0.004303,0.001165,0.007782
1.817500000000024,0.000986,0.003438,0.013108
1.8200000000000216,0.000306,0.005265,0.010309
1.8225000000000195,0.001504,0.004434,0.009464
1.825000000000017,0.002294,0.00414,0.008609
1.8275000000000148,-0.002079,0.004432,0.009998
1.8300000000000125,0.00047,0.002434,0.010378
1.8325000000000105,0.000937,0.004757,0.008862
1.835000000000008,-0.002044,0.009199,0.008347
1.8375000000000057,-0.000998,0.008868,0.006235
1.8400000000000036,-0.000133,0.007039,0.008618
1.8425000000000007,-0.000687,0.009613,0.010031
1.8449999999999989,-0.002578,0.008611,0.008938
1.847500000000025,-0.002663,0.011133,0.007794
1.8500000000000227,-0.000897,0.007053,0.003877
1.8525000000000205,-0.002077,0.0085,0.004704
1.8550000000000184,-0.003371,0.01057,0.002808
1.857500000000016,-0.001983,0.007557,0.004368
1.8600000000000136,-0.000228,0.011078,0.003349
1.8625000000000116,-0.002557,0.008557,0.004626
1.865000000000009,-0.000821,0.010889,0.005657
1.8675000000000068,-0.003107,0.008316,0.00268
1.8700000000000043,-0.003743,0.006897,0.002163
1.8725000000000025,-0.005691,0.008001,0.000154
1.875,-0.004019,0.011987,0.003026
1.8774999999999975,-0.005193,0.011299,-0.003546
1.880000000000024,-0.000252,0.011327,0.000412
1.8825000000000216,-0.001511,0.012916,-0.001153
1.8850000000000195,-0.00599,0.012974,-0.001803
1.887500000000017,-0.001864,0.007137,-0.001906
1.8900000000000148,-0.001504,0.010382,-0.001101
1.8925000000000125,-0.002871,0.010005,-0.004812
1.8950000000000105,-0.005434,0.012445,-0.00205
1.897500000000008,-0.003646,0.009813,-0.002658
1.9000000000000057,-0.001955,0.008219,-0.00242
1.9025000000000036,-0.004151,0.0122,-0.002323
1.9050000000000007,-0.005105,0.008833,-0.00336
1.9074999999999989,-0.004174,0.010891,-0.004262
1.910000000000025,-0.003687,0.009633,-0.003898
1.9125000000000227,-0.000924,0.013057,-0.003751
1.9150000000000205,-0.003497,0.00952,-0.005189
1.9175000000000184,-0.003231,0.010129,-0.003237
1.920000000000016,-0.002609,0.007627,-0.004244
1.9225000000000136,-0.004037,0.009901,-0.006169
1.9250000000000116,-0.005943,0.011256,-0.005235
1.927500000000009,-0.00181,0.009523,-0.004886
1.9300000000000068,0.002027,0.00649,-0.003938
1.9325000000000043,-0.00311,0.010505,-0.005983
1.9350000000000025,-0.007004,0.010038,-0.005038
1.9375,-0.002325,0.005502,-0.004637
1.9399999999999975,0.000707,0.006286,-0.0054
1.942500000000024,-0.003128,0.006821,-0.005394
1.9450000000000216,-0.003941,0.007496,-0.002308
1.9475000000000195,-0.003475,0.008974,-0.002486
1.950000000000017,0.001269,0.006653,-0.004894
1.9525000000000148,-0.002269,0.008791,-0.0035
1.9550000000000125,-0.000991,0.005298,-0.004743
1.9575000000000105,-0.000659,0.002415,-0.00284
1.960000000000008,0.002807,0.0053,0.000321
1.9625000000000057,-0.001311,0.004827,-0.001813
1.9650000000000036,-0.00049,0.006861,-0.003983
1.9675000000000007,-0.001124,0.003646,0.001145
1.9699999999999989,-0.000551,0.005838,5.7e-05
1.972500000000025,-2.7e-05,0.007013,0.001452
1.9750000000000227,-0.000173,0.00331,0.002715
1.9775000000000205,-0.001958,0.003294,0.000552
1.9800000000000184,-0.001925,0.005614,0.002445
1.982500000000016,-0.001378,0.005422,0.004407
1.9850000000000136,-0.004464,0.004569,0.003911
1.9875000000000116,0.000166,0.004695,0.004692
1.990000000000009,0.000662,0.005173,0.006854
1.9925000000000068,0.000713,0.00395,0.007603
1.9950000000000043,0.000482,0.007921,0.004775
1.9975000000000025,0.002525,0.002385,0.005961
2.0,0.002221,0.003243,0.008788
2.0024999999999977,0.003982,-0.002529,0.008079
2.005000000000024,6.8e-05,0.001916,0.00672
2.0075000000000216,0.001367,-0.002472,0.013293
2.0100000000000198,-6.6e-05,-0.00077,0.010341
2.012500000000017,0.003035,0.001272,0.012592
2.015000000000015,0.00468,-0.000568,0.011917
2.0175000000000125,0.001102,-0.001253,0.010545
2.0200000000000102,-0.000721,-0.000705,0.013759
2.022500000000008,0.002974,-0.003506,0.012905
2.0250000000000057,0.006718,-0.000793,0.012902
2.0275000000000034,0.004507,-0.000969,0.015787
2.030000000000001,0.002804,-0.002278,0.018776
2.032499999999999,0.001585,-0.000304,0.016668
2.035000000000025,0.000439,0.001297,0.015175
2.0375000000000227,0.002127,0.000706,0.017492
2.0400000000000205,0.003699,0.002513,0.018349
2.042500000000018,0.008809,-0.000191,0.019936
2.045000000000016,0.005602,-0.004548,0.020625
2.0475000000000136,0.002375,-0.003883,0.014936
