time,Gyr_X,Gyr_Y,Gyr_Z
0.0,0.0053267448770866,-0.0063913957208032,-0.002131047016685
0.0035000000000025,0.0085224427374883,-0.0042603487041181,-0.0042603487041181
0.0069999999999978,0.0074577918937717,-0.0031956978604016,-0.0053267448770866
0.0105000000000003,0.0106534897541733,-0.0053267448770866,-0.0042603487041181
0.0140000000000028,0.0085224427374883,-0.0042603487041181,-0.0042603487041181
0.0174999999999982,0.0106534897541733,-0.002131047016685,-0.0063913957208032
0.0210000000000007,0.0074577918937717,-0.0010646508437165,-0.0031956978604016
0.0245000000000032,0.0095870935812048,-0.0063913957208032,-0.0063913957208032
0.0279999999999986,0.0085224427374883,0.0,-0.0063913957208032
0.0315000000000011,0.0063913957208032,-0.0031956978604016,-0.0063913957208032
0.0350000000000036,0.0095870935812048,-0.0010646508437165,-0.0031956978604016
0.038499999999999,0.0074577918937717,-0.0031956978604016,0.0
0.0420000000000015,0.0074577918937717,-0.0010646508437165,-0.0042603487041181
0.045500000000004,0.0106534897541733,-0.0031956978604016,-0.0042603487041181
0.0489999999999994,0.0085224427374883,-0.002131047016685,-0.0053267448770866
0.0525000000000019,0.0085224427374883,-0.0053267448770866,-0.002131047016685
0.0559999999999973,0.0074577918937717,0.0,-0.0031956978604016
0.0594999999999998,0.0063913957208032,-0.0031956978604016,-0.0010646508437165
0.0630000000000023,0.0106534897541733,-0.0042603487041181,-0.0063913957208032
0.0664999999999977,0.0095870935812048,-0.002131047016685,-0.0063913957208032
0.0700000000000002,0.0074577918937717,-0.0053267448770866,-0.0053267448770866
0.0735000000000027,0.0074577918937717,-0.0010646508437165,-0.0042603487041181
0.0769999999999981,0.0095870935812048,-0.0053267448770866,-0.0063913957208032
0.0805000000000006,0.0106534897541733,-0.0063913957208032,-0.002131047016685
0.0840000000000031,0.0074577918937717,-0.0042603487041181,-0.002131047016685
0.0874999999999985,0.0074577918937717,0.0,-0.0053267448770866
0.091000000000001,0.0106534897541733,-0.0042603487041181,-0.0074577918937717
0.0945000000000035,0.0074577918937717,-0.0042603487041181,-0.0031956978604016
0.0979999999999989,0.0074577918937717,-0.002131047016685,-0.0031956978604016
0.1015000000000014,0.0085224427374883,-0.002131047016685,-0.0042603487041181
0.1050000000000039,0.0074577918937717,-0.0042603487041181,-0.0063913957208032
0.1084999999999993,0.0063913957208032,-0.002131047016685,-0.0053267448770866
0.1120000000000018,0.0095870935812048,-0.0010646508437165,-0.002131047016685
0.1154999999999972,0.0106534897541733,-0.0042603487041181,-0.0042603487041181
0.1189999999999997,0.0106534897541733,-0.0042603487041181,-0.0074577918937717
0.1225000000000022,0.0106534897541733,-0.0031956978604016,-0.0031956978604016
0.1259999999999976,0.0085224427374883,-0.0031956978604016,-0.0031956978604016
0.1295000000000001,0.0074577918937717,-0.0053267448770866,-0.0042603487041181
0.1330000000000026,0.0117181405978899,-0.0031956978604016,-0.0063913957208032
0.136499999999998,0.0117181405978899,-0.0063913957208032,-0.0031956978604016
0.1400000000000005,0.0085224427374883,-0.002131047016685,-0.0085224427374883
0.143500000000003,0.0085224427374883,-0.0031956978604016,-0.0042603487041181
0.1469999999999984,0.0085224427374883,-0.0053267448770866,-0.0063913957208032
0.1505000000000009,0.0085224427374883,-0.0063913957208032,-0.0010646508437165
0.1540000000000034,0.0085224427374883,-0.0042603487041181,-0.002131047016685
0.1574999999999988,0.0095870935812048,-0.0053267448770866,-0.0031956978604016
0.1610000000000013,0.0074577918937717,-0.0010646508437165,-0.0042603487041181
0.1645000000000038,0.0095870935812048,-0.0085224427374883,-0.0074577918937717
0.1679999999999992,0.0063913957208032,-0.0042603487041181,-0.0042603487041181
0.1715000000000017,0.0085224427374883,-0.0042603487041181,-0.0042603487041181
0.1749999999999971,0.0106534897541733,-0.0031956978604016,-0.0042603487041181
0.1784999999999996,0.0095870935812048,-0.0010646508437165,-0.0042603487041181
0.1820000000000021,0.0085224427374883,-0.0042603487041181,-0.0063913957208032
0.1854999999999975,0.0085224427374883,-0.0063913957208032,-0.0031956978604016
0.189,0.0074577918937717,-0.0042603487041181,-0.0031956978604016
0.1925000000000025,0.0095870935812048,0.0,-0.0063913957208032
0.1959999999999979,0.0106534897541733,-0.0042603487041181,-0.002131047016685
0.1995000000000004,0.0085224427374883,-0.002131047016685,-0.0010646508437165
0.2030000000000029,0.0106534897541733,-0.002131047016685,-0.0042603487041181
0.2064999999999983,0.0074577918937717,-0.0010646508437165,-0.0063913957208032
0.2100000000000008,0.0095870935812048,-0.0053267448770866,-0.0042603487041181
0.2135000000000033,0.0117181405978899,-0.0031956978604016,-0.0063913957208032
0.2169999999999987,0.0106534897541733,0.0,-0.0053267448770866
0.2205000000000012,0.0085224427374883,-0.0042603487041181,-0.0042603487041181
0.2240000000000037,0.0095870935812048,-0.002131047016685,-0.0031956978604016
0.2274999999999991,0.0053267448770866,-0.0042603487041181,-0.0053267448770866
0.2310000000000016,0.0074577918937717,-0.0063913957208032,-0.0031956978604016
0.2345000000000041,0.0106534897541733,-0.0031956978604016,-0.0042603487041181
0.2379999999999995,0.0095870935812048,-0.0042603487041181,-0.0053267448770866
0.241500000000002,0.0095870935812048,-0.002131047016685,-0.0042603487041181
0.2449999999999974,0.0085224427374883,-0.0042603487041181,-0.0095870935812048
0.2484999999999999,0.0085224427374883,-0.0031956978604016,-0.0053267448770866
0.2520000000000024,0.0085224427374883,-0.002131047016685,-0.0031956978604016
0.2554999999999978,0.0085224427374883,-0.0053267448770866,-0.0042603487041181
0.2590000000000003,0.0095870935812048,-0.0053267448770866,-0.002131047016685
0.2625000000000028,0.0095870935812048,-0.0042603487041181,-0.0053267448770866
0.2659999999999982,0.0085224427374883,-0.002131047016685,-0.0042603487041181
0.2695000000000007,0.0063913957208032,-0.0063913957208032,-0.0042603487041181
0.2730000000000032,0.0063913957208032,-0.0010646508437165,-0.0042603487041181
0.2764999999999986,0.0063913957208032,-0.0053267448770866,-0.002131047016685
0.2800000000000011,0.0063913957208032,-0.0053267448770866,-0.0031956978604016
0.2835000000000036,0.0074577918937717,-0.0031956978604016,-0.0063913957208032
0.286999999999999,0.0031956978604016,-0.0031956978604016,-0.0042603487041181
0.2905000000000015,0.0095870935812048,-0.0042603487041181,-0.0042603487041181
0.294000000000004,0.0085224427374883,-0.002131047016685,-0.0053267448770866
0.2974999999999994,0.0074577918937717,-0.0031956978604016,-0.0085224427374883
0.3010000000000019,0.0074577918937717,-0.0031956978604016,-0.0053267448770866
0.3044999999999973,0.0063913957208032,-0.0053267448770866,-0.002131047016685
0.3079999999999998,0.0074577918937717,-0.0031956978604016,-0.0042603487041181
0.3115000000000023,0.0063913957208032,-0.0053267448770866,-0.002131047016685
0.3149999999999977,0.0095870935812048,-0.0042603487041181,-0.0053267448770866
0.3185000000000002,0.0085224427374883,-0.0042603487041181,-0.0042603487041181
0.3220000000000027,0.0074577918937717,-0.002131047016685,-0.002131047016685
0.3254999999999981,0.0085224427374883,0.0,-0.0053267448770866
0.3290000000000006,0.0095870935812048,-0.002131047016685,-0.0085224427374883
0.3325000000000031,0.0085224427374883,-0.0074577918937717,-0.0074577918937717
0.3359999999999985,0.0074577918937717,-0.0010646508437165,-0.0031956978604016
0.339500000000001,0.0063913957208032,-0.0042603487041181,-0.0042603487041181
0.3430000000000035,0.0085224427374883,-0.002131047016685,-0.0053267448770866
0.3464999999999989,0.0074577918937717,-0.002131047016685,-0.002131047016685
0.3500000000000014,0.0095870935812048,-0.002131047016685,-0.0031956978604016
0.3535000000000039,0.0095870935812048,-0.002131047016685,-0.0053267448770866
0.3569999999999993,0.0106534897541733,-0.002131047016685,-0.002131047016685
0.3605000000000018,0.0085224427374883,-0.0053267448770866,-0.0010646508437165
0.3639999999999972,0.0095870935812048,-0.0010646508437165,-0.0063913957208032
0.3674999999999997,0.0074577918937717,-0.0031956978604016,-0.0063913957208032
0.3710000000000022,0.0063913957208032,-0.0053267448770866,-0.002131047016685
0.3744999999999976,0.0085224427374883,-0.0063913957208032,-0.0053267448770866
0.3780000000000001,0.0095870935812048,-0.002131047016685,-0.0053267448770866
0.3815000000000026,0.0042603487041181,-0.0053267448770866,-0.002131047016685
0.384999999999998,0.0106534897541733,-0.0053267448770866,-0.0063913957208032
0.3885000000000005,0.0063913957208032,-0.002131047016685,-0.0053267448770866
0.392000000000003,0.0063913957208032,-0.0010646508437165,-0.0042603487041181
0.3954999999999984,0.0085224427374883,-0.0031956978604016,-0.0053267448770866
0.3990000000000009,0.0085224427374883,-0.0053267448770866,-0.0031956978604016
0.4025000000000034,0.0085224427374883,-0.0053267448770866,-0.0074577918937717
0.4059999999999988,0.0095870935812048,-0.0053267448770866,-0.002131047016685
0.4095000000000013,0.0063913957208032,-0.0042603487041181,-0.0031956978604016
0.4130000000000038,0.0063913957208032,-0.0053267448770866,-0.0042603487041181
0.4164999999999992,0.0095870935812048,-0.0031956978604016,-0.0053267448770866
0.4200000000000017,0.0074577918937717,-0.002131047016685,-0.0042603487041181
0.4234999999999971,0.0095870935812048,-0.0031956978604016,-0.0074577918937717
0.4269999999999996,0.0074577918937717,-0.0063913957208032,-0.0042603487041181
0.4305000000000021,0.0085224427374883,-0.0042603487041181,-0.0053267448770866
0.4339999999999975,0.0117181405978899,-0.0031956978604016,-0.0063913957208032
0.4375,0.0085224427374883,-0.0042603487041181,-0.0063913957208032
0.4410000000000025,0.0106534897541733,-0.002131047016685,-0.0053267448770866
0.4444999999999979,0.0085224427374883,-0.0042603487041181,-0.0063913957208032
0.4480000000000004,0.0106534897541733,-0.0042603487041181,-0.0063913957208032
0.4515000000000029,0.0074577918937717,0.0,-0.0063913957208032
0.4549999999999983,0.0085224427374883,-0.002131047016685,-0.002131047016685
0.4585000000000008,0.0074577918937717,0.0,-0.0042603487041181
0.4620000000000033,0.0074577918937717,-0.0042603487041181,-0.0074577918937717
0.4654999999999987,0.0053267448770866,-0.002131047016685,-0.0031956978604016
0.4690000000000012,0.0074577918937717,-0.0042603487041181,-0.0031956978604016
0.4725000000000037,0.0106534897541733,-0.0042603487041181,0.0
0.4759999999999991,0.0085224427374883,-0.0053267448770866,-0.0053267448770866
0.4795000000000016,0.0085224427374883,-0.0074577918937717,-0.0042603487041181
0.4830000000000041,0.0053267448770866,-0.0010646508437165,-0.0031956978604016
0.4864999999999995,0.0053267448770866,-0.0074577918937717,-0.0074577918937717
0.490000000000002,0.0085224427374883,-0.002131047016685,-0.0031956978604016
0.4934999999999974,0.0106534897541733,-0.0042603487041181,-0.0053267448770866
0.4969999999999999,0.0117181405978899,-0.002131047016685,-0.0042603487041181
0.5005000000000024,0.0074577918937717,-0.0042603487041181,-0.002131047016685
0.5039999999999978,0.0106534897541733,-0.0010646508437165,-0.0063913957208032
0.5075000000000003,0.0095870935812048,-0.0085224427374883,-0.0063913957208032
0.5110000000000028,0.0095870935812048,-0.0031956978604016,-0.0031956978604016
0.5144999999999982,0.0106534897541733,-0.002131047016685,-0.0010646508437165
0.5180000000000007,0.0095870935812048,-0.0031956978604016,-0.0053267448770866
0.5215000000000032,0.0074577918937717,0.0,-0.0031956978604016
0.5249999999999986,0.0042603487041181,-0.0170448854749766,0.002131047016685
0.5285000000000011,-0.0042603487041181,-0.041545817514473,0.0042603487041181
0.5320000000000036,-0.0074577918937717,-0.0660484948832214,-0.0074577918937717
0.535499999999999,-0.0085224427374883,-0.0713752397603081,-0.013849187614575
0.5390000000000015,-0.0085224427374883,-0.0532657034416149,-0.0149138384582915
0.542500000000004,-0.0074577918937717,-0.0213052341790947,-0.0074577918937717
0.5459999999999994,0.0010646508437165,0.02769837522915,0.0
0.5495000000000019,0.0106534897541733,0.0564614013020165,0.0031956978604016
0.5529999999999973,0.029827676916583,0.0703088435873395,0.002131047016685
0.5564999999999998,0.0436768645311581,0.0521993072686464,-0.0063913957208032
0.5600000000000023,0.0394165158270399,0.0255673282124649,-0.0095870935812048
0.5634999999999977,0.0255673282124649,0.0010646508437165,-0.0053267448770866
0.5670000000000002,0.0106534897541733,-0.0085224427374883,0.0
0.5705000000000027,0.0063913957208032,-0.0117181405978899,-0.0010646508437165
0.5739999999999981,0.0063913957208032,-0.0053267448770866,-0.0074577918937717
0.5775000000000006,0.0117181405978899,-0.0063913957208032,-0.0117181405978899
0.5810000000000031,0.0127827914416064,-0.0074577918937717,-0.0127827914416064
0.5844999999999985,0.0117181405978899,-0.0042603487041181,-0.002131047016685
0.588000000000001,-0.0010646508437165,0.0,0.0
0.5915000000000035,0.0,0.0042603487041181,0.0031956978604016
0.5949999999999989,0.0,0.0117181405978899,-0.0074577918937717
0.5985000000000014,0.0074577918937717,0.0117181405978899,-0.0106534897541733
0.6020000000000039,0.0053267448770866,0.0,-0.0053267448770866
0.6054999999999993,0.0042603487041181,-0.0106534897541733,-0.0031956978604016
0.6090000000000018,0.0042603487041181,-0.0127827914416064,0.002131047016685
0.6124999999999972,0.0117181405978899,-0.01598023463126,-0.0031956978604016
0.6159999999999997,0.0202405833353782,-0.0106534897541733,-0.0042603487041181
0.6195000000000022,0.0223716303520633,-0.0031956978604016,-0.0053267448770866
0.6229999999999976,0.0181095363186931,0.002131047016685,-0.0053267448770866
0.6265000000000001,0.0106534897541733,-0.0010646508437165,0.0
0.6300000000000026,0.002131047016685,0.0,0.0
0.633499999999998,0.0010646508437165,-0.0010646508437165,0.0
0.6370000000000005,0.0031956978604016,0.0,-0.0053267448770866
0.640500000000003,0.0042603487041181,0.0,-0.0106534897541733
0.6439999999999984,0.0010646508437165,-0.0010646508437165,-0.0042603487041181
0.6475000000000009,0.0031956978604016,-0.0074577918937717,0.002131047016685
0.6510000000000034,0.0042603487041181,-0.0127827914416064,-0.0031956978604016
0.6544999999999987,0.0117181405978899,-0.0117181405978899,-0.0053267448770866
0.6580000000000013,0.01598023463126,-0.0085224427374883,-0.0085224427374883
0.6615000000000038,0.01598023463126,0.0,-0.0042603487041181
0.6649999999999991,0.0170448854749766,0.0,0.002131047016685
0.6685000000000016,0.0106534897541733,0.002131047016685,0.0
0.6720000000000041,0.0106534897541733,0.0,-0.0106534897541733
0.6754999999999995,0.0053267448770866,0.0,-0.0245026773687483
0.679000000000002,0.0,-0.0106534897541733,0.0
0.6824999999999974,-0.0063913957208032,-0.0085224427374883,0.0287630260728665
0.6859999999999999,0.0,0.002131047016685,0.0042603487041181
0.6895000000000024,0.0149138384582915,-0.002131047016685,-0.0500682602519613
0.6929999999999978,0.0213052341790947,-0.0085224427374883,0.0010646508437165
0.6965000000000003,-0.0010646508437165,0.0,0.0063913957208032
0.7000000000000028,0.0074577918937717,0.0053267448770866,-0.0245026773687483
0.7034999999999982,0.002131047016685,-0.0010646508437165,0.0191759324916617
0.7070000000000007,0.0053267448770866,0.0,-0.0234362811957798
0.7105000000000032,0.0372854688103548,-0.0031956978604016,0.0117181405978899
0.7139999999999986,0.0,-0.002131047016685,-0.0181095363186931
0.7175000000000011,0.0202405833353782,-0.0149138384582915,0.0127827914416064
0.7210000000000036,-0.0223716303520633,0.0042603487041181,-0.0053267448770866
0.724499999999999,0.0170448854749766,-0.0063913957208032,0.0181095363186931
0.7280000000000015,-0.0223716303520633,0.0,-0.0181095363186931
0.731500000000004,0.0245026773687483,-0.0063913957208032,0.013849187614575
0.7349999999999994,-0.0031956978604016,0.0031956978604016,-0.0351544217936697
0.7385000000000019,0.0031956978604016,-0.002131047016685,0.0149138384582915
0.7419999999999973,0.0234362811957798,-0.002131047016685,-0.0170448854749766
0.7454999999999998,-0.0106534897541733,0.0010646508437165,-0.01598023463126
0.7490000000000023,0.0362208179666383,0.0,0.0053267448770866
0.7524999999999977,0.0202405833353782,-0.0095870935812048,-0.0351544217936697
0.7560000000000002,0.0,-0.002131047016685,0.0117181405978899
0.7595000000000027,0.0340897709499532,-0.0053267448770866,0.0095870935812048
0.7629999999999981,-0.0170448854749766,-0.0085224427374883,-0.02769837522915
0.7665000000000006,-0.0202405833353782,0.0,0.0085224427374883
0.7700000000000031,0.0394165158270399,-0.0031956978604016,-0.0074577918937717
0.7734999999999985,0.0053267448770866,-0.002131047016685,-0.0340897709499532
0.777000000000001,0.0,0.002131047016685,0.013849187614575
0.7805000000000035,0.029827676916583,-0.0010646508437165,0.0202405833353782
0.7839999999999989,-0.0053267448770866,-0.0031956978604016,-0.0287630260728665
0.7875000000000014,-0.0234362811957798,0.0053267448770866,-0.0085224427374883
0.7910000000000039,0.0394165158270399,-0.0042603487041181,0.0117181405978899
0.7944999999999993,0.0436768645311581,-0.0106534897541733,-0.01598023463126
0.7980000000000018,-0.0213052341790947,-0.0031956978604016,-0.013849187614575
0.8014999999999972,-0.0042603487041181,0.0010646508437165,0.0149138384582915
0.8049999999999997,0.0426122136874415,-0.0106534897541733,-0.0010646508437165
0.8085000000000022,0.0181095363186931,-0.0149138384582915,-0.0319587239332681
0.8119999999999976,-0.0266319790561814,0.0063913957208032,0.0
0.8155000000000001,0.002131047016685,0.0031956978604016,0.0223716303520633
0.8190000000000026,0.0362208179666383,-0.0074577918937717,-0.013849187614575
0.822499999999998,0.0031956978604016,-0.0117181405978899,-0.0319587239332681
0.8260000000000005,-0.0181095363186931,0.0053267448770866,0.0042603487041181
0.829500000000003,0.0085224427374883,0.0053267448770866,0.0181095363186931
0.8329999999999984,0.0394165158270399,-0.0117181405978899,-0.01598023463126
0.8365000000000009,0.0095870935812048,-0.0117181405978899,-0.0308940730895516
0.8400000000000034,-0.0202405833353782,0.002131047016685,0.0
0.8434999999999988,0.002131047016685,0.0063913957208032,0.0245026773687483
0.8470000000000013,0.041545817514473,-0.0149138384582915,-0.0042603487041181
0.8505000000000038,0.0213052341790947,-0.0127827914416064,-0.0287630260728665
0.8539999999999992,-0.0223716303520633,0.002131047016685,-0.0074577918937717
0.8575000000000017,-0.0117181405978899,0.0074577918937717,0.0127827914416064
0.8609999999999971,0.0468725623915597,-0.0010646508437165,0.0053267448770866
0.8644999999999996,0.0308940730895516,-0.0063913957208032,-0.0106534897541733
0.8680000000000021,-0.0266319790561814,0.0042603487041181,-0.0213052341790947
0.8714999999999975,-0.0266319790561814,0.0031956978604016,-0.0010646508437165
0.875,0.0372854688103548,-0.0053267448770866,0.01598023463126
0.8785000000000025,0.0468725623915597,-0.0074577918937717,0.0
0.8819999999999979,-0.0106534897541733,-0.0074577918937717,-0.0308940730895516
0.8855000000000004,-0.0223716303520633,-0.002131047016685,-0.0191759324916617
0.8890000000000029,0.01598023463126,-0.0010646508437165,0.0202405833353782
0.8924999999999983,0.0383501196540714,-0.002131047016685,0.013849187614575
0.8960000000000008,0.0202405833353782,-0.0106534897541733,-0.02769837522915
0.8995000000000033,-0.0053267448770866,-0.0095870935812048,-0.0330233747769847
0.9029999999999988,-0.0181095363186931,0.0053267448770866,0.0063913957208032
0.9065000000000012,0.0031956978604016,0.0042603487041181,0.0181095363186931
0.9100000000000036,0.0426122136874415,-0.0095870935812048,-0.0042603487041181
0.9134999999999992,0.029827676916583,-0.0117181405978899,-0.0213052341790947
0.9170000000000016,-0.029827676916583,0.0010646508437165,-0.01598023463126
0.920500000000004,-0.0266319790561814,0.002131047016685,-0.0010646508437165
0.9239999999999996,0.0394165158270399,0.002131047016685,0.0170448854749766
0.927500000000002,0.0468725623915597,-0.002131047016685,0.0010646508437165
0.9309999999999974,-0.002131047016685,-0.0085224427374883,-0.0266319790561814
0.9345,-0.0202405833353782,-0.002131047016685,-0.0213052341790947
0.9380000000000024,0.0,0.0063913957208032,0.0149138384582915
0.9414999999999978,0.0213052341790947,0.0042603487041181,0.0223716303520633
0.9450000000000004,0.041545817514473,-0.0127827914416064,-0.01598023463126
0.9485000000000028,0.0170448854749766,-0.0106534897541733,-0.0213052341790947
0.9519999999999982,-0.0319587239332681,-0.0010646508437165,-0.0074577918937717
0.9555000000000008,-0.0234362811957798,0.0042603487041181,-0.0010646508437165
0.9590000000000032,0.0394165158270399,-0.0010646508437165,0.0095870935812048
0.9624999999999986,0.0468725623915597,-0.0053267448770866,0.002131047016685
0.9660000000000012,-0.0042603487041181,-0.0095870935812048,-0.0266319790561814
0.9695000000000036,-0.0202405833353782,-0.0031956978604016,-0.0255673282124649
0.972999999999999,-0.0010646508437165,0.0031956978604016,0.0117181405978899
0.9765000000000016,0.01598023463126,0.0063913957208032,0.0191759324916617
0.980000000000004,0.0458079115478431,-0.0117181405978899,-0.0106534897541733
0.9834999999999994,0.0287630260728665,-0.0149138384582915,-0.0202405833353782
0.987000000000002,-0.0319587239332681,-0.0042603487041181,-0.0170448854749766
0.9904999999999972,-0.029827676916583,-0.0042603487041181,0.0
0.9939999999999998,0.0351544217936697,-0.0117181405978899,0.0181095363186931
0.9975000000000024,0.041545817514473,-0.0234362811957798,0.0063913957208032
1.0009999999999977,0.0085224427374883,-0.0319587239332681,-0.0255673282124649
1.0045000000000002,-0.0127827914416064,-0.0191759324916617,-0.0308940730895516
1.008000000000003,-0.0234362811957798,0.0170448854749766,0.002131047016685
1.011499999999998,0.0,0.0319587239332681,0.01598023463126
1.0150000000000006,0.0596570991624181,0.0255673282124649,0.0053267448770866
1.018500000000003,0.0532657034416149,0.0170448854749766,-0.0042603487041181
1.0219999999999985,-0.0095870935812048,0.0191759324916617,-0.0266319790561814
1.025500000000001,-0.0245026773687483,0.0042603487041181,-0.0181095363186931
1.0290000000000037,0.0095870935812048,0.002131047016685,0.0191759324916617
1.0324999999999989,0.0181095363186931,-0.0149138384582915,0.0223716303520633
1.0360000000000014,0.0191759324916617,-0.0362208179666383,-0.0149138384582915
1.039500000000004,0.0085224427374883,-0.0351544217936697,-0.0245026773687483
1.0429999999999993,0.0,-0.0255673282124649,-0.0266319790561814
1.0465000000000018,-0.0181095363186931,0.0,0.0010646508437165
1.0499999999999972,-0.0063913957208032,0.0117181405978899,0.0095870935812048
1.0534999999999997,0.0543303542853314,0.0127827914416064,0.0085224427374883
1.0570000000000022,0.0490036094082447,0.0106534897541733,0.0
1.0604999999999976,-0.0117181405978899,0.0095870935812048,-0.02769837522915
1.064,-0.0287630260728665,0.0042603487041181,-0.0223716303520633
1.0675000000000026,0.0074577918937717,0.0063913957208032,0.0170448854749766
1.070999999999998,0.0308940730895516,-0.0095870935812048,0.0181095363186931
1.0745000000000005,-0.002131047016685,-0.0223716303520633,-0.0255673282124649
1.078000000000003,0.002131047016685,-0.0234362811957798,-0.0319587239332681
1.0814999999999984,0.0245026773687483,-0.0191759324916617,0.0191759324916617
1.0850000000000009,0.0340897709499532,-0.0170448854749766,-0.0170448854749766
1.0885000000000034,-0.0149138384582915,0.0,-0.0042603487041181
1.0919999999999987,0.02769837522915,0.0074577918937717,0.0223716303520633
1.0955000000000013,0.0031956978604016,0.0063913957208032,-0.0351544217936697
1.0990000000000038,-0.0074577918937717,0.0095870935812048,0.0074577918937717
1.1024999999999991,0.0308940730895516,0.0074577918937717,-0.0202405833353782
1.1060000000000016,-0.0074577918937717,0.0042603487041181,-0.0202405833353782
1.109500000000004,0.0234362811957798,-0.0074577918937717,0.0010646508437165
1.1129999999999995,-0.0106534897541733,-0.0074577918937717,-0.0245026773687483
1.116500000000002,0.013849187614575,-0.01598023463126,0.0095870935812048
1.1199999999999974,-0.0063913957208032,-0.0095870935812048,-0.029827676916583
1.1235,0.0213052341790947,-0.01598023463126,0.0074577918937717
1.1270000000000024,-0.0010646508437165,0.0010646508437165,-0.0202405833353782
1.1304999999999978,0.0330233747769847,-0.002131047016685,0.0
1.1340000000000003,0.0,0.0095870935812048,-0.0117181405978899
1.1375000000000028,0.0266319790561814,-0.002131047016685,-0.0149138384582915
1.1409999999999982,-0.002131047016685,0.0063913957208032,0.0053267448770866
1.1445000000000007,0.013849187614575,0.002131047016685,-0.0319587239332681
1.1480000000000032,0.0031956978604016,-0.0010646508437165,0.01598023463126
1.1514999999999986,-0.0085224427374883,-0.0074577918937717,-0.0117181405978899
1.1550000000000011,0.0127827914416064,-0.0106534897541733,-0.0031956978604016
1.1585000000000036,-0.0085224427374883,-0.0106534897541733,0.01598023463126
1.161999999999999,0.0095870935812048,-0.0063913957208032,-0.0319587239332681
1.1655000000000015,0.0106534897541733,-0.0031956978604016,0.0010646508437165
1.169000000000004,0.0127827914416064,-0.0031956978604016,0.0042603487041181
1.1724999999999994,0.0063913957208032,0.0106534897541733,-0.0319587239332681
1.176000000000002,0.0234362811957798,-0.002131047016685,0.0085224427374883
1.179499999999997,0.0053267448770866,-0.0031956978604016,0.0170448854749766
1.1829999999999998,0.0149138384582915,0.0095870935812048,-0.0319587239332681
1.1865000000000023,0.0202405833353782,-0.0053267448770866,-0.0127827914416064
1.1899999999999975,0.0,-0.0149138384582915,0.0245026773687483
1.1935000000000002,0.0031956978604016,-0.0010646508437165,-0.0095870935812048
1.1970000000000027,0.0074577918937717,-0.0042603487041181,-0.029827676916583
1.200499999999998,0.002131047016685,-0.0149138384582915,0.0117181405978899
1.2040000000000006,0.0031956978604016,-0.0053267448770866,0.0202405833353782
1.2075000000000031,0.0063913957208032,0.0074577918937717,-0.0213052341790947
1.2109999999999983,0.0085224427374883,0.0,-0.0255673282124649
1.214500000000001,0.0127827914416064,-0.0117181405978899,0.0117181405978899
1.2180000000000035,0.0106534897541733,0.002131047016685,0.0213052341790947
1.221499999999999,0.0085224427374883,0.0085224427374883,-0.0127827914416064
1.2250000000000014,0.0127827914416064,-0.0042603487041181,-0.0351544217936697
1.228500000000004,0.0149138384582915,-0.013849187614575,-0.0106534897541733
1.231999999999999,0.0031956978604016,-0.0095870935812048,0.0245026773687483
1.2355000000000018,0.0053267448770866,-0.0074577918937717,0.0191759324916617
1.2389999999999972,0.0074577918937717,-0.0010646508437165,-0.0245026773687483
1.2424999999999995,0.01598023463126,0.0031956978604016,-0.0319587239332681
1.2460000000000022,0.0117181405978899,-0.0085224427374883,-0.0095870935812048
1.2494999999999976,-0.0010646508437165,-0.0127827914416064,0.0127827914416064
1.253,-0.002131047016685,0.0,0.0074577918937717
1.2565000000000026,0.0074577918937717,0.0053267448770866,-0.002131047016685
1.259999999999998,0.0266319790561814,0.0,-0.0149138384582915
1.2635000000000003,0.02769837522915,-0.0031956978604016,-0.0213052341790947
1.267000000000003,0.0042603487041181,-0.0031956978604016,-0.0127827914416064
1.2704999999999984,-0.0117181405978899,-0.0063913957208032,0.0010646508437165
1.274000000000001,-0.0074577918937717,-0.0095870935812048,0.0127827914416064
1.2775000000000034,0.0074577918937717,-0.0095870935812048,0.0074577918937717
1.2809999999999988,0.0319587239332681,-0.0042603487041181,-0.0149138384582915
1.2845000000000013,0.0330233747769847,-0.0031956978604016,-0.0202405833353782
1.2880000000000038,0.0127827914416064,0.0,-0.0095870935812048
1.2914999999999992,-0.0053267448770866,0.0031956978604016,0.0
1.2950000000000017,-0.0106534897541733,0.0053267448770866,0.0031956978604016
1.298499999999997,0.002131047016685,0.0010646508437165,-0.0053267448770866
1.3019999999999996,0.0170448854749766,-0.0063913957208032,-0.0181095363186931
1.305500000000002,0.0223716303520633,-0.0063913957208032,-0.0095870935812048
1.3089999999999975,0.0117181405978899,-0.0085224427374883,0.002131047016685
1.3125,0.0031956978604016,-0.0074577918937717,0.0
1.3160000000000025,0.002131047016685,-0.0063913957208032,-0.002131047016685
1.319499999999998,0.0042603487041181,-0.0053267448770866,-0.0042603487041181
1.3230000000000004,0.0127827914416064,-0.0031956978604016,-0.0127827914416064
1.326500000000003,0.0127827914416064,0.0,-0.0149138384582915
1.3299999999999983,0.0063913957208032,-0.0010646508437165,-0.002131047016685
1.3335000000000008,0.0031956978604016,-0.0010646508437165,0.0085224427374883
1.3370000000000033,0.0095870935812048,0.0,0.0
1.3404999999999987,0.0095870935812048,-0.0042603487041181,-0.0095870935812048
1.3440000000000012,0.0063913957208032,-0.0063913957208032,-0.01598023463126
1.3475000000000037,0.0053267448770866,-0.002131047016685,-0.0053267448770866
1.350999999999999,0.002131047016685,-0.0042603487041181,0.0010646508437165
1.3545000000000016,0.0010646508437165,-0.0010646508437165,0.0
1.358000000000004,0.0095870935812048,-0.0010646508437165,-0.0074577918937717
1.3614999999999997,0.0234362811957798,-0.0074577918937717,-0.0074577918937717
1.365000000000002,0.0170448854749766,-0.0010646508437165,-0.0010646508437165
1.3684999999999974,0.0117181405978899,0.0,-0.0053267448770866
1.372,0.002131047016685,0.0,-0.0053267448770866
1.3755000000000024,0.002131047016685,-0.0053267448770866,0.0
1.3789999999999978,0.0031956978604016,-0.0053267448770866,-0.0010646508437165
1.3825000000000005,0.0095870935812048,-0.0042603487041181,-0.0063913957208032
1.3860000000000028,0.0095870935812048,-0.0063913957208032,-0.0074577918937717
1.3894999999999982,0.0085224427374883,-0.0053267448770866,-0.0053267448770866
1.393000000000001,0.0042603487041181,-0.0031956978604016,0.0031956978604016
1.3965000000000032,0.0042603487041181,-0.0010646508437165,-0.0042603487041181
1.3999999999999986,0.0106534897541733,-0.0010646508437165,-0.0074577918937717
1.403500000000001,0.0127827914416064,-0.0053267448770866,-0.0095870935812048
1.4070000000000036,0.0085224427374883,0.0,-0.002131047016685
1.410499999999999,0.0074577918937717,-0.002131047016685,-0.0010646508437165
1.4140000000000017,0.0074577918937717,0.0,-0.0010646508437165
1.417500000000004,0.0117181405978899,-0.0042603487041181,-0.0042603487041181
1.4209999999999994,0.0085224427374883,-0.0042603487041181,-0.0085224427374883
1.424500000000002,0.0053267448770866,-0.002131047016685,-0.0042603487041181
1.4279999999999973,0.002131047016685,-0.0010646508437165,-0.0063913957208032
1.4314999999999998,0.002131047016685,-0.0042603487041181,-0.0053267448770866
1.4350000000000025,0.0053267448770866,-0.0031956978604016,-0.0031956978604016
1.4384999999999977,0.0117181405978899,-0.0031956978604016,-0.0031956978604016
1.4420000000000002,0.0106534897541733,-0.0031956978604016,-0.0074577918937717
1.445500000000003,0.0085224427374883,-0.002131047016685,-0.0074577918937717
1.448999999999998,0.0053267448770866,-0.0010646508437165,-0.0042603487041181
1.4525000000000006,0.0053267448770866,-0.0042603487041181,-0.0042603487041181
1.456000000000003,0.0042603487041181,-0.0074577918937717,-0.0053267448770866
1.4594999999999985,0.0095870935812048,-0.0042603487041181,-0.0085224427374883
1.463000000000001,0.0095870935812048,-0.0063913957208032,-0.0053267448770866
1.4665000000000037,0.0095870935812048,-0.0042603487041181,-0.0042603487041181
1.4699999999999989,0.0042603487041181,-0.0053267448770866,-0.0042603487041181
1.4735000000000014,0.0063913957208032,0.002131047016685,0.0
1.477000000000004,0.0074577918937717,0.0,-0.0031956978604016
1.4804999999999993,0.0074577918937717,-0.0063913957208032,-0.0031956978604016
1.4840000000000018,0.0042603487041181,-0.0010646508437165,-0.0095870935812048
1.4874999999999972,0.0074577918937717,0.0,0.0
1.4909999999999997,0.0053267448770866,0.0,0.0010646508437165
1.4945000000000022,0.0117181405978899,-0.0042603487041181,-0.002131047016685
1.4979999999999976,0.0095870935812048,-0.0042603487041181,-0.0085224427374883
1.5015,0.0095870935812048,-0.0053267448770866,-0.0053267448770866
1.5050000000000026,0.0053267448770866,-0.002131047016685,0.0
1.508499999999998,0.0095870935812048,-0.0042603487041181,-0.0042603487041181
1.5120000000000005,0.0085224427374883,-0.002131047016685,-0.0053267448770866
1.515500000000003,0.0106534897541733,-0.0053267448770866,-0.0085224427374883
1.5189999999999984,0.0074577918937717,0.0,-0.002131047016685
1.5225000000000009,0.0085224427374883,-0.002131047016685,-0.002131047016685
1.5260000000000034,0.0074577918937717,0.0,-0.0042603487041181
1.5294999999999987,0.0042603487041181,-0.0063913957208032,-0.0053267448770866
1.5330000000000013,0.0085224427374883,-0.002131047016685,-0.0042603487041181
1.5365000000000038,0.0095870935812048,-0.0031956978604016,-0.0042603487041181
1.5399999999999991,0.0085224427374883,-0.002131047016685,-0.0074577918937717
1.5435000000000016,0.0117181405978899,-0.002131047016685,-0.0031956978604016
1.547000000000004,0.0127827914416064,-0.0010646508437165,0.0
1.5504999999999995,0.0106534897541733,-0.0031956978604016,0.0
1.554000000000002,0.0117181405978899,-0.0031956978604016,-0.0053267448770866
1.5574999999999974,0.0085224427374883,-0.0042603487041181,-0.0074577918937717
1.561,0.0074577918937717,-0.0085224427374883,-0.0063913957208032
1.5645000000000024,0.0085224427374883,-0.0053267448770866,0.0
1.5679999999999978,0.0074577918937717,-0.002131047016685,-0.002131047016685
1.5715000000000003,0.0074577918937717,-0.0042603487041181,-0.0053267448770866
1.5750000000000028,0.0085224427374883,-0.0053267448770866,-0.0074577918937717
1.5784999999999982,0.0085224427374883,0.0,-0.0042603487041181
1.5820000000000007,0.0095870935812048,-0.002131047016685,-0.002131047016685
1.5855000000000032,0.0095870935812048,-0.0042603487041181,-0.0042603487041181
1.5889999999999986,0.0095870935812048,-0.0063913957208032,-0.0085224427374883
1.5925000000000011,0.0117181405978899,-0.0031956978604016,-0.0053267448770866
1.5960000000000036,0.0106534897541733,-0.0031956978604016,-0.0042603487041181
1.599499999999999,0.0085224427374883,-0.0042603487041181,-0.0042603487041181
1.6030000000000015,0.0053267448770866,-0.0031956978604016,-0.0042603487041181
1.606500000000004,0.0074577918937717,-0.0074577918937717,-0.0010646508437165
1.6099999999999994,-0.0937468701123714,-0.0106534897541733,-0.0053267448770866
1.613500000000002,-0.1587289688226243,0.0404811666707564,-0.0170448854749766
1.616999999999997,-0.1747092034538843,0.0788312863248278,-0.01598023463126
1.6204999999999998,-0.2205171150017275,0.0756355884644262,-0.0319587239332681
1.6240000000000023,-0.1736428072809158,0.0937468701123714,-0.029827676916583
1.6274999999999975,-0.1214435000122694,0.0394165158270399,-0.02769837522915
1.6310000000000002,-0.069244192743623,0.0053267448770866,-0.013849187614575
1.6345000000000027,0.0127827914416064,0.0031956978604016,0.0106534897541733
1.637999999999998,0.0447432607041266,-0.0213052341790947,0.01598023463126
1.6415000000000006,0.1193124529955843,-0.0255673282124649,0.0063913957208032
1.6450000000000031,0.1512729222581045,-0.0585907029894496,0.0
1.6484999999999983,0.1811005991746876,-0.0948115209560879,-0.0042603487041181
1.652000000000001,0.1853609478788057,-0.1118564064310645,-0.0010646508437165
1.6555000000000035,0.180035948330971,-0.1022693128498597,-0.0042603487041181
1.658999999999999,0.1534022239455376,-0.0788312863248278,0.0
1.6625000000000014,0.1257055940456395,-0.0181095363186931,0.0
1.666000000000004,0.0958761717998045,0.0170448854749766,0.0031956978604016
1.669499999999999,0.0383501196540714,0.0479389585645282,0.0031956978604016
1.6730000000000018,-0.0042603487041181,0.0447432607041266,-0.0031956978604016
1.6764999999999972,-0.0660484948832214,0.0394165158270399,0.0
1.6799999999999995,-0.0862890782185996,0.0202405833353782,0.0010646508437165
1.6835000000000022,-0.0990718696602061,0.0031956978604016,-0.0042603487041181
1.6869999999999976,-0.0852244273748831,-0.0010646508437165,-0.0095870935812048
1.6905,-0.0394165158270399,-0.002131047016685,-0.0063913957208032
1.6940000000000026,0.0031956978604016,-0.013849187614575,-0.002131047016685
1.697499999999998,0.055395005129048,-0.0245026773687483,-0.0042603487041181
1.7010000000000003,0.0777666354811113,-0.0308940730895516,-0.0042603487041181
1.704500000000003,0.0916158230956863,-0.0213052341790947,-0.0063913957208032
1.7079999999999984,0.0862890782185996,-0.0095870935812048,-0.0063913957208032
1.711500000000001,0.0681795418999064,0.0074577918937717,-0.0063913957208032
1.7150000000000034,0.0436768645311581,0.0117181405978899,-0.0106534897541733
1.7184999999999988,0.0063913957208032,0.0117181405978899,-0.0063913957208032
1.7220000000000013,-0.0095870935812048,0.002131047016685,-0.0042603487041181
1.7255000000000038,-0.0404811666707564,-0.0063913957208032,0.002131047016685
1.7289999999999992,-0.0436768645311581,-0.013849187614575,0.0
1.7325000000000017,-0.041545817514473,-0.0095870935812048,-0.0042603487041181
1.735999999999997,-0.0340897709499532,-0.002131047016685,-0.0010646508437165
1.7394999999999996,-0.0149138384582915,-0.0010646508437165,-0.002131047016685
1.743000000000002,0.0053267448770866,-0.0031956978604016,-0.0042603487041181
1.7464999999999975,0.0351544217936697,0.0,-0.0063913957208032
1.75,0.0532657034416149,-0.0031956978604016,-0.0085224427374883
1.7535000000000025,0.0607217500061347,0.0,-0.0074577918937717
1.756999999999998,0.0575260521457331,0.0,-0.0053267448770866
1.7605000000000004,0.041545817514473,-0.0010646508437165,-0.0074577918937717
1.764000000000003,0.013849187614575,-0.0074577918937717,-0.0053267448770866
1.7674999999999983,-0.0053267448770866,-0.0074577918937717,-0.0010646508437165
1.7710000000000008,-0.02769837522915,-0.0127827914416064,-0.0010646508437165
1.7745000000000033,-0.0330233747769847,-0.0149138384582915,-0.0010646508437165
1.7779999999999987,-0.029827676916583,-0.01598023463126,0.002131047016685
1.7815000000000012,-0.0202405833353782,-0.0202405833353782,0.0010646508437165
1.7850000000000037,0.0031956978604016,-0.0234362811957798,-0.002131047016685
1.788499999999999,0.0170448854749766,-0.02769837522915,-0.0063913957208032
1.7920000000000016,0.0308940730895516,-0.0234362811957798,-0.0106534897541733
1.795500000000004,0.0383501196540714,-0.0149138384582915,-0.0117181405978899
1.7989999999999997,0.0340897709499532,0.0,-0.0074577918937717
1.802500000000002,0.0308940730895516,0.0053267448770866,-0.0074577918937717
1.8059999999999972,0.0255673282124649,0.0127827914416064,-0.002131047016685
1.8095,0.0181095363186931,0.0085224427374883,-0.0010646508437165
1.8130000000000024,0.0074577918937717,0.0117181405978899,-0.0042603487041181
1.8164999999999976,-0.0074577918937717,0.0074577918937717,-0.0042603487041181
1.8200000000000005,-0.0266319790561814,0.0085224427374883,-0.0063913957208032
1.8235000000000028,-0.02769837522915,0.0042603487041181,-0.002131047016685
1.8269999999999984,-0.0223716303520633,-0.002131047016685,-0.0085224427374883
1.830500000000001,-0.013849187614575,-0.0095870935812048,-0.0053267448770866
1.8340000000000032,0.0095870935812048,-0.0181095363186931,-0.0053267448770866
1.8374999999999984,0.0266319790561814,-0.0234362811957798,-0.0031956978604016
1.841000000000001,0.0404811666707564,-0.0245026773687483,-0.0010646508437165
1.844500000000004,0.0394165158270399,-0.0319587239332681,-0.0010646508437165
1.847999999999999,0.0351544217936697,-0.0266319790561814,-0.0063913957208032
1.8515000000000013,0.0234362811957798,-0.0245026773687483,-0.0063913957208032
1.855000000000004,0.0074577918937717,-0.0245026773687483,-0.0063913957208032
1.8584999999999996,-0.0074577918937717,-0.0245026773687483,-0.002131047016685
1.8620000000000017,-0.0372854688103548,-0.0170448854749766,-0.0031956978604016
1.8654999999999973,-0.0426122136874415,-0.0234362811957798,-0.0042603487041181
1.869,-0.0511346564249298,-0.0234362811957798,-0.0053267448770866
1.8725000000000025,-0.0521993072686464,-0.0255673282124649,-0.0085224427374883
1.8759999999999977,-0.0500682602519613,-0.0255673282124649,-0.0149138384582915
1.8795,-0.0362208179666383,-0.0255673282124649,-0.0117181405978899
1.883000000000003,-0.0170448854749766,-0.0191759324916617,-0.013849187614575
1.886499999999998,0.0,-0.0117181405978899,-0.01598023463126
1.8900000000000008,0.0234362811957798,-0.0074577918937717,-0.0170448854749766
1.893500000000003,0.0362208179666383,-0.0085224427374883,-0.013849187614575
1.8969999999999985,0.0458079115478431,0.002131047016685,0.0010646508437165
1.900500000000001,0.0468725623915597,0.0085224427374883,0.0074577918937717
1.9040000000000037,0.0479389585645282,0.0255673282124649,0.0031956978604016
1.9074999999999989,0.0436768645311581,0.0351544217936697,-0.0031956978604016
1.9110000000000011,0.0340897709499532,0.0287630260728665,-0.002131047016685
1.914500000000004,0.0191759324916617,0.0330233747769847,-0.002131047016685
1.9179999999999997,0.0095870935812048,0.0213052341790947,0.0063913957208032
1.9215000000000015,0.0042603487041181,0.0063913957208032,0.0063913957208032
1.9249999999999967,0.0,0.0085224427374883,-0.0223716303520633
1.9285,-0.002131047016685,0.0255673282124649,-0.0479389585645282
1.9320000000000024,-0.0095870935812048,0.0426122136874415,-0.055395005129048
1.9354999999999976,-0.0245026773687483,0.0394165158270399,-0.0308940730895516
1.939,-0.041545817514473,0.0330233747769847,0.0213052341790947
1.9425000000000023,-0.0213052341790947,-0.0063913957208032,0.041545817514473
1.945999999999998,0.0511346564249298,-0.041545817514473,0.0085224427374883
1.9495000000000005,0.0713752397603081,-0.0383501196540714,-0.0063913957208032
1.953000000000003,0.0820287295144815,-0.0330233747769847,-0.0287630260728665
1.9564999999999984,0.0479389585645282,-0.0149138384582915,-0.0202405833353782
1.9600000000000009,-0.0074577918937717,0.0191759324916617,0.0031956978604016
1.9635000000000036,-0.0319587239332681,0.0436768645311581,0.013849187614575
1.9669999999999987,-0.0287630260728665,0.0585907029894496,0.0074577918937717
1.9705000000000013,-0.0042603487041181,0.0468725623915597,-0.0031956978604016
1.974000000000004,0.029827676916583,0.0308940730895516,-0.0127827914416064
1.9774999999999991,0.0319587239332681,0.0053267448770866,0.0
1.9810000000000016,0.0351544217936697,-0.0255673282124649,0.0181095363186931
1.984499999999997,0.029827676916583,-0.0468725623915597,0.0266319790561814
1.9879999999999995,0.0351544217936697,-0.0596570991624181,0.0213052341790947
1.991500000000002,0.0500682602519613,-0.0564614013020165,0.0063913957208032
1.9949999999999972,0.0617864008498512,-0.0490036094082447,-0.0010646508437165
1.9985,0.0671131457269379,-0.0372854688103548,-0.0031956978604016
2.0020000000000024,0.0649838440395048,-0.0181095363186931,0.0
2.005499999999998,0.0585907029894496,-0.0095870935812048,0.0053267448770866
2.0090000000000003,0.0458079115478431,-0.002131047016685,0.0031956978604016
2.012500000000003,0.0383501196540714,0.0010646508437165,0.0
2.0159999999999982,0.0202405833353782,-0.0053267448770866,0.0010646508437165
2.0195000000000007,0.0074577918937717,-0.0031956978604016,0.0042603487041181
2.0230000000000032,-0.0053267448770866,-0.0042603487041181,-0.0042603487041181
2.026499999999998,-0.0127827914416064,-0.0042603487041181,-0.0031956978604016
2.030000000000001,-0.0085224427374883,-0.0042603487041181,-0.0085224427374883
2.033500000000004,0.0063913957208032,-0.0010646508437165,-0.0095870935812048
2.036999999999999,0.0170448854749766,-0.002131047016685,-0.013849187614575
2.040500000000001,0.0202405833353782,0.0053267448770866,-0.01598023463126
2.044000000000004,0.0149138384582915,0.01598023463126,-0.0127827914416064
2.0474999999999994,0.0,0.0223716303520633,-0.01598023463126
2.051000000000002,-0.02769837522915,0.0330233747769847,-0.01598023463126
2.0544999999999973,-0.041545817514473,0.0340897709499532,-0.0170448854749766
2.058,-0.0617864008498512,0.0394165158270399,-0.0213052341790947
2.0615000000000023,-0.0777666354811113,0.0372854688103548,-0.0181095363186931
2.0649999999999977,-0.0926804739394028,0.0362208179666383,-0.0149138384582915
2.0685,-0.0905494269227178,0.0245026773687483,-0.0095870935812048
2.0720000000000027,-0.0798976824977964,0.013849187614575,-0.0085224427374883
2.075499999999998,-0.0490036094082447,-0.002131047016685,-0.002131047016685
2.0790000000000006,0.0,-0.0213052341790947,-0.0010646508437165
2.082500000000003,0.0266319790561814,-0.0308940730895516,-0.002131047016685
2.0859999999999985,0.0607217500061347,-0.0362208179666383,-0.0031956978604016
2.089500000000001,0.0671131457269379,-0.0340897709499532,-0.002131047016685
2.0930000000000035,0.0724398906040246,-0.02769837522915,0.0010646508437165
2.096499999999999,0.0681795418999064,-0.0234362811957798,-0.0031956978604016
2.1000000000000014,0.0596570991624181,-0.0170448854749766,-0.0031956978604016
2.103500000000004,0.0447432607041266,-0.0202405833353782,-0.002131047016685
2.1069999999999998,0.029827676916583,-0.0191759324916617,0.0010646508437165
2.110500000000002,0.0095870935812048,-0.01598023463126,0.0031956978604016
2.113999999999997,-0.0042603487041181,-0.0106534897541733,0.0074577918937717
2.1175,-0.0085224427374883,-0.0095870935812048,0.0053267448770866
2.121000000000002,0.0,-0.0127827914416064,0.0010646508437165
2.1244999999999976,0.0117181405978899,-0.0095870935812048,0.0
2.128,0.0319587239332681,-0.0106534897541733,0.0010646508437165
2.1315000000000026,0.0511346564249298,-0.0063913957208032,0.002131047016685
2.134999999999998,0.0628527970228197,-0.0095870935812048,0.002131047016685
2.1385000000000005,0.0713752397603081,-0.0074577918937717,0.0031956978604016
2.142000000000003,0.0713752397603081,-0.0117181405978899,0.0074577918937717
2.1454999999999984,0.0660484948832214,-0.0181095363186931,0.0063913957208032
2.149000000000001,0.055395005129048,-0.0287630260728665,0.0085224427374883
2.1525000000000034,0.0340897709499532,-0.0340897709499532,0.0031956978604016
2.155999999999999,0.0127827914416064,-0.029827676916583,0.0063913957208032
2.1595000000000013,-0.0031956978604016,-0.0223716303520633,0.0
2.163000000000004,-0.0181095363186931,-0.013849187614575,-0.002131047016685
2.166499999999999,-0.0170448854749766,-0.0031956978604016,-0.0095870935812048
2.1700000000000017,-0.0085224427374883,0.0,-0.0106534897541733
2.173499999999997,0.0063913957208032,0.002131047016685,-0.0117181405978899
2.177,0.0149138384582915,0.0,-0.0117181405978899
2.180500000000002,0.0213052341790947,-0.0042603487041181,-0.0170448854749766
2.183999999999997,0.0181095363186931,-0.0149138384582915,-0.0170448854749766
2.1875,0.002131047016685,-0.0319587239332681,-0.02769837522915
2.1910000000000025,-0.0117181405978899,-0.0404811666707564,-0.02769837522915
2.194499999999998,-0.029827676916583,-0.0458079115478431,-0.0287630260728665
2.1980000000000004,-0.0362208179666383,-0.0543303542853314,-0.0245026773687483
2.201500000000003,-0.0447432607041266,-0.0521993072686464,-0.0191759324916617
2.2049999999999983,-0.0490036094082447,-0.055395005129048,-0.01598023463126
2.208500000000001,-0.0383501196540714,-0.0458079115478431,-0.01598023463126
2.2120000000000037,-0.0245026773687483,-0.0447432607041266,-0.013849187614575
2.2154999999999987,-0.0095870935812048,-0.0372854688103548,-0.0063913957208032
2.219000000000001,0.0053267448770866,-0.0340897709499532,-0.0010646508437165
2.222500000000004,0.02769837522915,-0.0394165158270399,0.0010646508437165
2.225999999999999,0.0426122136874415,-0.0383501196540714,0.0
2.2295000000000016,0.0671131457269379,-0.0404811666707564,-0.0010646508437165
2.233000000000004,0.069244192743623,-0.0468725623915597,0.0010646508437165
2.2364999999999995,0.0724398906040246,-0.055395005129048,0.002131047016685
2.240000000000002,0.0713752397603081,-0.0628527970228197,0.0085224427374883
2.2434999999999974,0.0628527970228197,-0.0617864008498512,0.0117181405978899
2.247,0.0564614013020165,-0.0532657034416149,0.0170448854749766
2.2505000000000024,0.0426122136874415,-0.0287630260728665,0.0170448854749766
2.253999999999998,0.029827676916583,-0.0063913957208032,0.013849187614575
2.2575000000000003,0.0042603487041181,0.0223716303520633,0.0053267448770866
2.261000000000003,-0.01598023463126,0.0436768645311581,-0.002131047016685
2.264499999999998,-0.0308940730895516,0.0681795418999064,-0.0074577918937717
2.2680000000000007,-0.041545817514473,0.0724398906040246,-0.002131047016685
2.271500000000003,-0.0404811666707564,0.0735062867769931,-0.0010646508437165
2.2749999999999986,-0.0394165158270399,0.0617864008498512,0.0031956978604016
2.278500000000001,-0.0202405833353782,0.0404811666707564,-0.002131047016685
2.282000000000004,-0.0095870935812048,0.0213052341790947,-0.0063913957208032
2.285499999999999,0.0,-0.002131047016685,-0.0074577918937717
2.289000000000001,-0.0031956978604016,-0.0095870935812048,-0.0095870935812048
2.292500000000004,-0.0287630260728665,-0.0085224427374883,-0.0117181405978899
2.296,-0.0458079115478431,0.0,-0.0149138384582915
2.299500000000002,-0.0660484948832214,0.0213052341790947,-0.0213052341790947
2.3029999999999973,-0.0798976824977964,0.0372854688103548,-0.0287630260728665
2.3065,-0.096942567972773,0.0490036094082447,-0.0340897709499532
2.3100000000000023,-0.1012029166768912,0.0585907029894496,-0.0234362811957798
2.3134999999999977,-0.1022693128498597,0.0703088435873395,-0.02769837522915
2.317,-0.1033339636935762,0.0660484948832214,-0.02769837522915
2.3205000000000027,-0.0841580312019145,0.0436768645311581,-0.0319587239332681
2.323999999999998,-0.083093380358198,0.0255673282124649,-0.0255673282124649
2.327500000000001,-0.0628527970228197,0.0053267448770866,-0.0149138384582915
2.331000000000003,-0.0447432607041266,-0.0031956978604016,-0.0117181405978899
2.3344999999999985,-0.0181095363186931,0.0042603487041181,-0.0191759324916617
2.338000000000001,-0.0031956978604016,0.0063913957208032,-0.0213052341790947
2.3415000000000035,0.0085224427374883,0.0223716303520633,-0.029827676916583
2.344999999999999,0.0085224427374883,0.0213052341790947,-0.0245026773687483
2.3485000000000014,0.002131047016685,0.0170448854749766,-0.0202405833353782
2.352000000000004,-0.0053267448770866,0.0095870935812048,-0.0213052341790947
2.3554999999999997,-0.0181095363186931,-0.0042603487041181,-0.01598023463126
2.3590000000000018,-0.0202405833353782,-0.0181095363186931,-0.0170448854749766
2.362499999999997,-0.0223716303520633,-0.0383501196540714,-0.0117181405978899
2.366,-0.0234362811957798,-0.0511346564249298,-0.0106534897541733
2.369500000000002,-0.0074577918937717,-0.0681795418999064,-0.0063913957208032
2.3729999999999976,0.0085224427374883,-0.083093380358198,-0.0031956978604016
2.3765,0.0394165158270399,-0.0884201252352847,-0.0074577918937717
2.3800000000000026,0.0617864008498512,-0.0894847760790012,-0.0085224427374883
2.383499999999998,0.0745709376207097,-0.0767019846373948,-0.0063913957208032
2.3870000000000005,0.0820287295144815,-0.0596570991624181,-0.0085224427374883
2.390500000000003,0.0745709376207097,-0.0340897709499532,-0.0042603487041181
2.3939999999999984,0.0628527970228197,-0.0170448854749766,-0.0085224427374883
2.397500000000001,0.0436768645311581,0.0106534897541733,-0.0031956978604016
2.401000000000004,0.02769837522915,0.029827676916583,0.0
2.4044999999999987,0.0106534897541733,0.041545817514473,0.0053267448770866
2.4080000000000013,-0.0063913957208032,0.0490036094082447,0.0053267448770866
2.411500000000004,-0.0031956978604016,0.0468725623915597,0.0074577918937717
2.414999999999999,0.0,0.0426122136874415,0.0106534897541733
2.4185000000000016,0.0053267448770866,0.0447432607041266,0.0
2.421999999999997,0.0170448854749766,0.0362208179666383,0.0
2.4254999999999995,0.0372854688103548,0.0202405833353782,-0.0053267448770866
2.429000000000002,0.041545817514473,0.0085224427374883,-0.0053267448770866
2.432499999999997,0.0468725623915597,0.0010646508437165,0.0191759324916617
2.436,0.0756355884644262,0.0436768645311581,0.0767019846373948
2.4395000000000024,0.1065296615539778,0.1043986145372928,0.0767019846373948
2.442999999999998,0.1480754790684509,0.1267702448893561,0.041545817514473
2.4465000000000003,0.1874919948954908,0.1139874534477496,-0.0191759324916617
2.450000000000003,0.166186760716396,0.0862890782185996,-0.041545817514473
2.4534999999999982,0.0735062867769931,0.0202405833353782,-0.0266319790561814
2.4570000000000007,-0.0106534897541733,-0.0245026773687483,0.0
2.4605000000000032,-0.0841580312019145,-0.0575260521457331,0.0223716303520633
2.463999999999998,-0.1001382658331746,-0.0639174478665363,0.0245026773687483
2.467500000000001,-0.055395005129048,-0.083093380358198,-0.0010646508437165
2.471000000000004,-0.0170448854749766,-0.069244192743623,-0.0266319790561814
2.474499999999999,0.0255673282124649,-0.0394165158270399,-0.02769837522915
2.478000000000001,0.0287630260728665,-0.013849187614575,-0.0106534897541733
2.481500000000004,0.0223716303520633,0.02769837522915,0.0181095363186931
2.4849999999999994,0.0245026773687483,0.0596570991624181,0.013849187614575
2.488500000000002,0.0404811666707564,0.0809623333415129,-0.0095870935812048
2.4919999999999973,0.0479389585645282,0.0639174478665363,-0.0330233747769847
2.4955,0.0490036094082447,0.0383501196540714,-0.0340897709499532
2.4990000000000023,0.0245026773687483,-0.0106534897541733,-0.0191759324916617
2.5024999999999977,0.0063913957208032,-0.041545817514473,0.0
2.506,-0.0095870935812048,-0.0639174478665363,0.0
2.5095000000000027,-0.0053267448770866,-0.0649838440395048,-0.0031956978604016
2.512999999999998,0.0,-0.0468725623915597,-0.0127827914416064
2.5165000000000006,0.0063913957208032,-0.0223716303520633,-0.0127827914416064
2.520000000000003,-0.0010646508437165,0.0010646508437165,-0.0149138384582915
2.5234999999999985,-0.0042603487041181,0.0170448854749766,-0.0053267448770866
2.527000000000001,0.0031956978604016,0.0404811666707564,0.002131047016685
2.5305000000000035,0.013849187614575,0.0468725623915597,-0.0031956978604016
2.533999999999999,0.0362208179666383,0.0330233747769847,-0.0095870935812048
2.5375000000000014,0.041545817514473,0.0170448854749766,-0.013849187614575
2.541000000000004,0.0362208179666383,-0.0106534897541733,-0.0031956978604016
2.5444999999999998,0.0181095363186931,-0.0266319790561814,0.0042603487041181
2.548000000000002,0.002131047016685,-0.0458079115478431,0.0085224427374883
2.551499999999997,-0.0031956978604016,-0.0404811666707564,0.0
2.555,0.0,-0.0266319790561814,-0.002131047016685
2.558500000000002,0.0031956978604016,-0.0117181405978899,-0.0042603487041181
2.5619999999999976,0.0031956978604016,0.0127827914416064,0.0010646508437165
2.5655,0.002131047016685,0.0234362811957798,0.0031956978604016
2.5690000000000026,0.0106534897541733,0.0245026773687483,0.0031956978604016
2.572499999999998,0.0149138384582915,0.0234362811957798,0.0010646508437165
2.5760000000000005,0.0234362811957798,0.0127827914416064,-0.0010646508437165
2.579500000000003,0.01598023463126,0.0,-0.0042603487041181
2.5829999999999984,0.0074577918937717,-0.0127827914416064,-0.0074577918937717
2.586500000000001,0.002131047016685,-0.0255673282124649,-0.0031956978604016
2.5900000000000034,-0.0085224427374883,-0.0319587239332681,-0.002131047016685
2.593499999999999,0.0,-0.0319587239332681,-0.0053267448770866
2.5970000000000013,-0.0010646508437165,-0.013849187614575,-0.0127827914416064
2.600500000000004,0.0,-0.0010646508437165,-0.013849187614575
2.603999999999999,-0.002131047016685,0.0117181405978899,-0.0063913957208032
2.6075000000000017,-0.002131047016685,0.0202405833353782,-0.0063913957208032
2.610999999999997,-0.0063913957208032,0.0170448854749766,-0.0074577918937717
2.6145,-0.002131047016685,0.0095870935812048,-0.0085224427374883
2.618000000000002,0.0,0.0,-0.0095870935812048
2.621499999999997,-0.0031956978604016,-0.0085224427374883,-0.013849187614575
2.625,-0.0053267448770866,-0.0170448854749766,-0.0031956978604016
2.6285000000000025,0.0010646508437165,-0.0213052341790947,-0.0031956978604016
2.631999999999998,0.002131047016685,-0.0245026773687483,0.0
2.6355000000000004,0.0085224427374883,-0.01598023463126,-0.0042603487041181
2.639000000000003,0.0106534897541733,-0.0042603487041181,0.0
2.6424999999999983,0.0117181405978899,0.0010646508437165,-0.002131047016685
2.646000000000001,0.0117181405978899,0.0085224427374883,0.0010646508437165
2.6495000000000037,0.0074577918937717,0.0170448854749766,0.002131047016685
2.6529999999999987,0.0074577918937717,0.0042603487041181,0.0010646508437165
2.656500000000001,0.0085224427374883,0.0,0.002131047016685
2.660000000000004,0.0095870935812048,-0.0063913957208032,0.0010646508437165
2.663499999999999,0.002131047016685,-0.0074577918937717,0.002131047016685
2.6670000000000016,0.0063913957208032,-0.013849187614575,0.0010646508437165
2.670500000000004,0.0053267448770866,-0.0074577918937717,0.0
2.6739999999999995,0.0085224427374883,-0.0063913957208032,0.0
2.677500000000002,0.0127827914416064,-0.0031956978604016,-0.0031956978604016
2.6809999999999974,0.0181095363186931,-0.0010646508437165,-0.0063913957208032
2.6845,0.0191759324916617,0.0074577918937717,-0.0063913957208032
2.6880000000000024,0.013849187614575,0.0085224427374883,-0.002131047016685
2.691499999999998,0.0106534897541733,0.0,-0.0053267448770866
2.6950000000000003,0.0095870935812048,-0.002131047016685,-0.0106534897541733
2.698500000000003,0.0042603487041181,-0.0085224427374883,-0.0127827914416064
2.701999999999998,0.002131047016685,-0.0095870935812048,-0.0074577918937717
2.7055000000000007,0.0,-0.0117181405978899,-0.0106534897541733
2.709000000000003,0.0063913957208032,-0.0085224427374883,-0.0074577918937717
2.7124999999999986,0.0074577918937717,-0.0042603487041181,-0.0127827914416064
2.716000000000001,0.0085224427374883,0.0,-0.0106534897541733
2.719500000000004,0.01598023463126,0.0010646508437165,-0.0117181405978899
2.722999999999999,0.01598023463126,0.0031956978604016,-0.0127827914416064
2.726500000000001,0.0202405833353782,0.0,-0.0095870935812048
2.730000000000004,0.0149138384582915,0.0,-0.0063913957208032
2.7335,0.0127827914416064,-0.002131047016685,-0.0074577918937717
2.737000000000002,0.0095870935812048,-0.0074577918937717,-0.0074577918937717
2.7404999999999973,0.0106534897541733,-0.0095870935812048,-0.0053267448770866
2.744,0.0053267448770866,-0.0106534897541733,-0.0031956978604016
2.7475000000000023,0.0085224427374883,-0.0063913957208032,-0.0010646508437165
2.7509999999999977,0.0106534897541733,0.0,0.0
2.7545,0.013849187614575,-0.0010646508437165,-0.002131047016685
2.7580000000000027,0.0149138384582915,0.0,-0.0031956978604016
2.761499999999998,0.0191759324916617,0.0,-0.002131047016685
2.765000000000001,0.0191759324916617,-0.002131047016685,0.0
2.768500000000003,0.01598023463126,-0.002131047016685,-0.0031956978604016
2.7719999999999985,0.01598023463126,-0.0095870935812048,0.002131047016685
2.775500000000001,0.0117181405978899,-0.0085224427374883,0.0
2.7790000000000035,0.0095870935812048,-0.0074577918937717,-0.0031956978604016
2.782499999999999,0.0085224427374883,-0.0085224427374883,-0.0042603487041181
2.7860000000000014,0.0085224427374883,-0.0031956978604016,-0.0031956978604016
2.789500000000004,0.0042603487041181,-0.0010646508437165,-0.0053267448770866
2.7929999999999997,0.0042603487041181,0.002131047016685,-0.0042603487041181
2.7965000000000018,0.0053267448770866,-0.0010646508437165,-0.0053267448770866
2.799999999999997,0.0042603487041181,0.0031956978604016,-0.0074577918937717
2.8035,0.0031956978604016,-0.0010646508437165,-0.0053267448770866
2.807000000000002,0.0042603487041181,-0.0042603487041181,-0.0085224427374883
2.8104999999999976,0.0053267448770866,-0.0095870935812048,-0.0074577918937717
2.814,0.002131047016685,-0.0053267448770866,-0.0074577918937717
2.8175000000000026,0.0074577918937717,-0.0074577918937717,-0.0085224427374883
2.820999999999998,0.0042603487041181,-0.0063913957208032,-0.0053267448770866
2.8245000000000005,0.0,-0.0063913957208032,-0.0063913957208032
2.828000000000003,0.002131047016685,0.0,-0.0042603487041181
2.8314999999999984,0.0031956978604016,-0.0010646508437165,-0.0053267448770866
2.835000000000001,0.002131047016685,-0.0010646508437165,-0.0063913957208032
2.838500000000004,0.002131047016685,-0.002131047016685,-0.0085224427374883
2.8419999999999987,0.0053267448770866,0.0,-0.0063913957208032
2.8455000000000013,0.0053267448770866,-0.0053267448770866,-0.0053267448770866
2.849000000000004,0.0053267448770866,-0.0053267448770866,-0.002131047016685
2.852499999999999,0.0063913957208032,-0.0074577918937717,0.0
2.8560000000000016,0.0074577918937717,-0.0074577918937717,-0.0042603487041181
2.859499999999997,0.0095870935812048,-0.002131047016685,0.0
2.8629999999999995,0.0085224427374883,0.0,0.0
2.866500000000002,0.0085224427374883,-0.002131047016685,0.0
2.869999999999997,0.0095870935812048,0.0,0.0
2.8735,0.0074577918937717,-0.002131047016685,0.0
2.8770000000000024,0.0085224427374883,-0.0031956978604016,0.0010646508437165
2.880499999999998,0.0063913957208032,-0.0042603487041181,0.0
2.8840000000000003,0.0042603487041181,-0.0063913957208032,-0.002131047016685
2.887500000000003,0.0053267448770866,-0.0063913957208032,-0.0042603487041181
2.8909999999999982,0.0053267448770866,-0.0074577918937717,-0.0053267448770866
2.8945000000000007,0.0095870935812048,-0.002131047016685,-0.0074577918937717
2.8980000000000032,0.0074577918937717,-0.0031956978604016,-0.0063913957208032
2.901499999999998,0.0074577918937717,-0.002131047016685,-0.0063913957208032
2.905000000000001,0.0085224427374883,-0.0042603487041181,-0.0085224427374883
2.908500000000004,0.0053267448770866,-0.002131047016685,-0.0063913957208032
2.911999999999999,0.0031956978604016,0.0,-0.0074577918937717
2.915500000000001,0.0053267448770866,0.0,-0.0106534897541733
2.919000000000004,0.0053267448770866,-0.0042603487041181,-0.0063913957208032
2.9224999999999994,0.0031956978604016,-0.0031956978604016,-0.0085224427374883
2.926000000000002,0.0042603487041181,-0.0042603487041181,-0.0053267448770866
2.9294999999999973,0.0031956978604016,-0.002131047016685,-0.0106534897541733
2.933,0.0031956978604016,-0.002131047016685,-0.0106534897541733
2.9365000000000023,0.0031956978604016,-0.002131047016685,-0.0106534897541733
2.9399999999999977,0.0031956978604016,-0.002131047016685,-0.0106534897541733
2.9435,0.0127827914416064,-0.0074577918937717,-0.0063913957208032
2.9470000000000027,0.0106534897541733,-0.0053267448770866,-0.0042603487041181
2.950499999999998,0.013849187614575,-0.0053267448770866,-0.0063913957208032
2.9540000000000006,0.0117181405978899,-0.0063913957208032,0.0
2.957500000000003,0.0095870935812048,-0.0042603487041181,-0.0042603487041181
2.9609999999999985,0.0095870935812048,-0.0053267448770866,-0.002131047016685
2.964500000000001,0.0127827914416064,-0.0010646508437165,-0.0010646508437165
2.9680000000000035,0.0106534897541733,-0.0063913957208032,-0.002131047016685
2.971499999999999,0.0117181405978899,0.0,-0.002131047016685
2.9750000000000014,0.0127827914416064,-0.002131047016685,0.002131047016685
2.978500000000004,0.0127827914416064,-0.0010646508437165,-0.0042603487041181
2.9819999999999998,0.0127827914416064,-0.0031956978604016,0.0
2.985500000000002,0.0117181405978899,-0.002131047016685,-0.0031956978604016
2.988999999999997,0.01598023463126,-0.002131047016685,-0.0031956978604016
2.9925,0.013849187614575,-0.0010646508437165,0.0
2.996000000000002,0.0106534897541733,-0.0031956978604016,-0.0010646508437165
2.9994999999999976,0.0085224427374883,-0.0053267448770866,-0.0053267448770866
3.003,0.0106534897541733,-0.0063913957208032,-0.0063913957208032
3.0065000000000026,0.0106534897541733,-0.002131047016685,-0.0074577918937717
3.009999999999998,0.0085224427374883,-0.002131047016685,-0.0074577918937717
3.0135000000000005,0.0063913957208032,-0.002131047016685,-0.0095870935812048
3.017000000000003,0.0063913957208032,-0.0063913957208032,-0.0074577918937717
3.0204999999999984,0.0074577918937717,-0.0042603487041181,-0.0095870935812048
3.024000000000001,0.0074577918937717,-0.002131047016685,-0.0031956978604016
3.0275000000000034,0.0074577918937717,-0.002131047016685,-0.0085224427374883
3.030999999999999,0.0085224427374883,-0.0042603487041181,-0.0063913957208032
3.0345000000000013,0.0063913957208032,-0.002131047016685,-0.0053267448770866
3.038000000000004,0.0074577918937717,-0.0053267448770866,-0.0042603487041181
3.041499999999999,0.0063913957208032,-0.0042603487041181,-0.0063913957208032
3.0450000000000017,0.0074577918937717,-0.002131047016685,-0.002131047016685
3.048499999999997,0.0085224427374883,-0.0031956978604016,-0.0053267448770866
3.052,0.0085224427374883,0.0,-0.0010646508437165
3.055500000000002,0.0085224427374883,0.0,-0.002131047016685
3.058999999999997,0.0074577918937717,-0.0042603487041181,-0.0031956978604016
3.0625,0.0074577918937717,-0.002131047016685,-0.0010646508437165
3.0660000000000025,0.0095870935812048,-0.0031956978604016,0.0
3.069499999999998,0.0095870935812048,-0.002131047016685,-0.0010646508437165
3.0730000000000004,0.0074577918937717,-0.002131047016685,0.0
3.076500000000003,0.0117181405978899,-0.002131047016685,-0.0010646508437165
3.0799999999999983,0.0085224427374883,-0.0074577918937717,-0.0031956978604016
3.083500000000001,0.0117181405978899,-0.0031956978604016,0.0010646508437165
3.0870000000000037,0.0095870935812048,-0.0042603487041181,-0.0010646508437165
3.0904999999999987,0.0095870935812048,0.0,-0.0031956978604016
3.094000000000001,0.0063913957208032,-0.0010646508437165,-0.0053267448770866
3.097500000000004,0.0010646508437165,-0.0031956978604016,-0.013849187614575
3.100999999999999,0.0053267448770866,-0.0085224427374883,-0.0085224427374883
3.1045000000000016,0.0053267448770866,-0.0106534897541733,0.0202405833353782
3.108000000000004,0.0053267448770866,-0.0053267448770866,0.0170448854749766
3.1114999999999995,0.01598023463126,0.0042603487041181,-0.0426122136874415
3.115000000000002,0.0191759324916617,-0.0031956978604016,-0.0362208179666383
3.1184999999999974,0.0010646508437165,-0.0074577918937717,0.0266319790561814
3.122,-0.0117181405978899,0.0053267448770866,-0.0053267448770866
3.1255000000000024,0.0042603487041181,-0.0010646508437165,-0.0085224427374883
3.128999999999998,0.0010646508437165,-0.0085224427374883,0.0106534897541733
3.1325000000000003,0.0245026773687483,-0.0031956978604016,-0.029827676916583
3.136000000000003,0.0213052341790947,-0.0095870935812048,0.013849187614575
3.139499999999998,-0.0010646508437165,-0.0085224427374883,-0.0351544217936697
3.1430000000000007,0.0063913957208032,-0.0085224427374883,0.0181095363186931
3.146500000000003,-0.0010646508437165,0.0010646508437165,-0.0223716303520633
3.1499999999999986,0.0149138384582915,-0.0063913957208032,0.0223716303520633
3.153500000000001,0.013849187614575,-0.0042603487041181,-0.0351544217936697
3.157000000000004,0.0170448854749766,-0.0031956978604016,0.0106534897541733
3.160499999999999,0.0245026773687483,-0.0053267448770866,-0.0106534897541733
3.164000000000001,-0.0053267448770866,-0.002131047016685,0.0127827914416064
3.167500000000004,0.0255673282124649,-0.002131047016685,0.0181095363186931
3.171,-0.0063913957208032,-0.0031956978604016,-0.0245026773687483
3.174500000000002,0.0042603487041181,-0.002131047016685,0.0149138384582915
3.1779999999999973,0.0223716303520633,-0.0053267448770866,-0.0266319790561814
3.1815,-0.0170448854749766,0.0,-0.0170448854749766
3.1850000000000023,0.0308940730895516,0.002131047016685,0.01598023463126
3.1884999999999977,0.0234362811957798,-0.0095870935812048,-0.0223716303520633
3.192,-0.013849187614575,0.0042603487041181,0.0053267448770866
3.1955000000000027,0.0319587239332681,0.0031956978604016,0.0223716303520633
3.198999999999998,0.013849187614575,-0.0042603487041181,-0.0319587239332681
3.202500000000001,-0.0191759324916617,-0.002131047016685,-0.01598023463126
3.206000000000003,-0.0085224427374883,0.0031956978604016,0.0191759324916617
3.2094999999999985,0.0340897709499532,-0.0095870935812048,-0.013849187614575
3.213000000000001,0.0010646508437165,-0.0106534897541733,-0.0330233747769847
3.2165000000000035,-0.0042603487041181,0.002131047016685,0.0085224427374883
3.219999999999999,0.0372854688103548,-0.0010646508437165,0.013849187614575
3.2235000000000014,0.0074577918937717,-0.0085224427374883,-0.0330233747769847
3.227000000000004,-0.0266319790561814,-0.0042603487041181,-0.0245026773687483
3.2304999999999997,0.0213052341790947,0.0,0.01598023463126
3.2340000000000018,0.0447432607041266,-0.0053267448770866,0.002131047016685
3.237499999999997,-0.013849187614575,-0.0042603487041181,-0.029827676916583
3.241,-0.0266319790561814,0.0,-0.013849187614575
3.244500000000002,0.0319587239332681,0.0,0.01598023463126
3.2479999999999976,0.0468725623915597,-0.0095870935812048,-0.0010646508437165
3.2515,-0.0191759324916617,-0.0031956978604016,-0.0245026773687483
3.2550000000000026,-0.0234362811957798,0.002131047016685,-0.0085224427374883
3.258499999999998,0.0340897709499532,-0.0031956978604016,0.0149138384582915
3.2620000000000005,0.0468725623915597,-0.0063913957208032,0.002131047016685
3.265500000000003,-0.0074577918937717,-0.0053267448770866,-0.0255673282124649
3.2689999999999984,-0.0287630260728665,0.002131047016685,-0.0106534897541733
3.272500000000001,0.0266319790561814,0.002131047016685,0.0181095363186931
3.276000000000004,0.0436768645311581,-0.0085224427374883,0.0063913957208032
3.2794999999999987,-0.0031956978604016,-0.0085224427374883,-0.0245026773687483
3.2830000000000013,-0.0202405833353782,-0.0010646508437165,-0.0170448854749766
3.286500000000004,0.0127827914416064,0.0042603487041181,0.0202405833353782
3.289999999999999,0.0362208179666383,0.0,0.0213052341790947
3.2935000000000016,0.01598023463126,-0.0095870935812048,-0.0234362811957798
3.296999999999997,-0.0095870935812048,-0.0074577918937717,-0.02769837522915
3.3004999999999995,-0.0074577918937717,0.0042603487041181,0.0127827914416064
3.304000000000002,0.0106534897541733,0.0,0.0202405833353782
3.307499999999997,0.041545817514473,-0.0095870935812048,-0.0095870935812048
3.311,0.0181095363186931,-0.0117181405978899,-0.0223716303520633
3.3145000000000024,-0.0319587239332681,0.002131047016685,-0.0053267448770866
3.317999999999998,-0.0202405833353782,0.0031956978604016,0.0063913957208032
3.3215000000000003,0.0458079115478431,-0.0010646508437165,0.0042603487041181
3.325000000000003,0.0436768645311581,-0.0106534897541733,-0.0074577918937717
3.3284999999999982,-0.0234362811957798,-0.0031956978604016,-0.0245026773687483
3.3320000000000007,-0.0330233747769847,-0.002131047016685,-0.0202405833353782
3.3355000000000032,0.0181095363186931,0.0031956978604016,0.0170448854749766
3.338999999999998,0.0394165158270399,-0.0042603487041181,0.01598023463126
3.342500000000001,0.0127827914416064,-0.0074577918937717,-0.0255673282124649
3.346000000000004,-0.0085224427374883,-0.0031956978604016,-0.0330233747769847
3.349499999999999,-0.0213052341790947,0.013849187614575,0.0
3.353000000000001,-0.002131047016685,0.013849187614575,0.0106534897541733
3.356500000000004,0.0372854688103548,0.0053267448770866,-0.0085224427374883
3.3599999999999994,0.02769837522915,0.0042603487041181,-0.0191759324916617
3.363500000000002,-0.0351544217936697,0.0127827914416064,-0.0181095363186931
3.3669999999999973,-0.0340897709499532,0.0170448854749766,-0.0095870935812048
3.3705,0.0245026773687483,0.0074577918937717,0.01598023463126
3.3740000000000023,0.0372854688103548,0.0042603487041181,0.0127827914416064
3.3774999999999977,0.0031956978604016,0.0,-0.02769837522915
3.381,-0.01598023463126,0.0042603487041181,-0.0266319790561814
3.3845000000000027,-0.0223716303520633,0.0202405833353782,0.0074577918937717
3.387999999999998,-0.002131047016685,0.0181095363186931,0.0223716303520633
3.3915000000000006,0.0511346564249298,0.01598023463126,0.0042603487041181
3.395000000000003,0.0426122136874415,0.0191759324916617,-0.002131047016685
3.3984999999999985,-0.0245026773687483,0.0287630260728665,-0.0127827914416064
3.402000000000001,-0.029827676916583,0.0351544217936697,-0.0053267448770866
3.4055000000000035,0.0213052341790947,0.0340897709499532,0.02769837522915
3.408999999999999,0.0372854688103548,0.0308940730895516,0.0234362811957798
3.4125000000000014,0.0234362811957798,0.0191759324916617,-0.0149138384582915
3.416000000000004,0.0085224427374883,0.0202405833353782,-0.01598023463126
3.4194999999999998,-0.0223716303520633,0.0287630260728665,0.0031956978604016
3.423000000000002,-0.0063913957208032,0.0223716303520633,0.01598023463126
3.426499999999997,0.0564614013020165,0.0095870935812048,0.0127827914416064
3.43,0.0575260521457331,0.0,0.0
3.433500000000002,0.0010646508437165,-0.0085224427374883,-0.0245026773687483
3.4369999999999976,-0.0117181405978899,-0.0149138384582915,-0.029827676916583
3.4405,0.0074577918937717,-0.0202405833353782,0.0117181405978899
3.4440000000000026,0.0181095363186931,-0.0330233747769847,0.0127827914416064
3.447499999999998,0.0436768645311581,-0.0500682602519613,-0.0170448854749766
3.4510000000000005,0.0319587239332681,-0.0575260521457331,-0.0245026773687483
3.454500000000003,-0.0287630260728665,-0.0500682602519613,-0.0202405833353782
3.4579999999999984,-0.0319587239332681,-0.0468725623915597,-0.0127827914416064
3.461500000000001,0.029827676916583,-0.0479389585645282,0.0106534897541733
3.4650000000000034,0.0436768645311581,-0.0468725623915597,0.0031956978604016
3.468499999999999,0.0149138384582915,-0.0532657034416149,-0.029827676916583
3.4720000000000013,0.0010646508437165,-0.041545817514473,-0.0362208179666383
3.475500000000004,-0.0223716303520633,-0.0149138384582915,-0.0085224427374883
3.478999999999999,-0.0170448854749766,-0.002131047016685,0.0053267448770866
3.4825000000000017,0.0490036094082447,-0.0095870935812048,0.0127827914416064
3.485999999999997,0.0490036094082447,-0.0095870935812048,0.0127827914416064
3.4895,0.0490036094082447,-0.0095870935812048,0.0127827914416064
3.493000000000002,0.0490036094082447,-0.0095870935812048,0.0127827914416064
3.496499999999997,0.0010646508437165,0.0170448854749766,0.0106534897541733
3.5,0.0085224427374883,0.0074577918937717,0.0181095363186931
3.5035000000000025,0.0383501196540714,-0.0117181405978899,-0.0031956978604016
3.506999999999998,0.0223716303520633,-0.0202405833353782,-0.0106534897541733
3.5105000000000004,-0.0351544217936697,-0.0149138384582915,-0.0191759324916617
3.514000000000003,-0.0308940730895516,-0.0085224427374883,-0.0127827914416064
3.5174999999999983,0.0308940730895516,-0.0010646508437165,0.0191759324916617
3.521000000000001,0.0479389585645282,0.0,0.0202405833353782
3.5245000000000037,0.0351544217936697,-0.0127827914416064,-0.013849187614575
3.5279999999999987,0.0191759324916617,-0.0085224427374883,-0.0181095363186931
3.531500000000001,-0.0308940730895516,0.0117181405978899,-0.0063913957208032
3.535000000000004,-0.0234362811957798,0.0170448854749766,-0.002131047016685
3.538499999999999,0.0404811666707564,0.0063913957208032,0.0170448854749766
3.5420000000000016,0.0447432607041266,-0.0031956978604016,0.0127827914416064
3.545500000000004,0.0031956978604016,-0.0223716303520633,-0.0234362811957798
3.5489999999999995,-0.0149138384582915,-0.0234362811957798,-0.0255673282124649
3.552500000000002,-0.0255673282124649,-0.0063913957208032,0.0031956978604016
3.5559999999999974,-0.0106534897541733,-0.0031956978604016,0.0074577918937717
3.5595,0.0500682602519613,-0.01598023463126,0.002131047016685
3.5630000000000024,0.0500682602519613,-0.0149138384582915,-0.0063913957208032
3.566499999999998,0.0426122136874415,-0.0106534897541733,-0.0149138384582915
3.5700000000000003,-0.0245026773687483,0.002131047016685,-0.0266319790561814
3.573500000000003,-0.0340897709499532,0.0181095363186931,-0.0213052341790947
3.576999999999998,0.0074577918937717,0.0287630260728665,0.0117181405978899
3.5805000000000007,0.0223716303520633,0.02769837522915,0.0117181405978899
3.584000000000003,0.029827676916583,0.0106534897541733,-0.0149138384582915
3.5874999999999986,0.0117181405978899,0.002131047016685,-0.0202405833353782
3.591000000000001,-0.0479389585645282,0.0106534897541733,-0.0191759324916617
3.594500000000004,-0.0447432607041266,0.0085224427374883,-0.0117181405978899
3.597999999999999,0.01598023463126,0.0085224427374883,0.0181095363186931
3.601500000000001,0.0372854688103548,0.0042603487041181,0.01598023463126
3.605000000000004,0.02769837522915,-0.0170448854749766,-0.0191759324916617
3.6085,0.0223716303520633,-0.0234362811957798,-0.0149138384582915
3.612000000000002,-0.002131047016685,-0.0074577918937717,0.0
3.615499999999997,0.0063913957208032,-0.0095870935812048,0.0074577918937717
3.619,0.0767019846373948,-0.0127827914416064,0.0191759324916617
3.6225000000000014,0.0745709376207097,-0.01598023463126,0.0170448854749766
3.6259999999999977,0.0319587239332681,-0.0223716303520633,-0.0191759324916617
3.6295,0.002131047016685,-0.0149138384582915,-0.0255673282124649
3.6330000000000022,-0.0181095363186931,0.002131047016685,0.0010646508437165
3.636499999999998,-0.0095870935812048,0.0010646508437165,0.013849187614575
3.640000000000001,0.0458079115478431,-0.0202405833353782,0.013849187614575
3.643500000000003,0.0458079115478431,-0.0362208179666383,0.0
3.6469999999999994,-0.0127827914416064,-0.0479389585645282,-0.02769837522915
3.650500000000001,-0.0234362811957798,-0.055395005129048,-0.02769837522915
3.654000000000004,-0.0106534897541733,-0.0383501196540714,0.0063913957208032
3.657499999999999,0.0063913957208032,-0.0447432607041266,0.0074577918937717
3.661000000000002,0.0575260521457331,-0.0639174478665363,-0.0106534897541733
3.664500000000004,0.0532657034416149,-0.0671131457269379,-0.0149138384582915
3.6679999999999993,-0.0106534897541733,-0.0564614013020165,-0.0340897709499532
3.6715000000000018,-0.0181095363186931,-0.0426122136874415,-0.029827676916583
3.674999999999997,0.0106534897541733,-0.0181095363186931,0.0053267448770866
3.6785,0.0191759324916617,0.0,0.0095870935812048
3.682000000000002,0.041545817514473,-0.0010646508437165,-0.0149138384582915
3.6854999999999976,0.0181095363186931,0.0170448854749766,-0.0234362811957798
3.689,-0.0585907029894496,0.0479389585645282,-0.029827676916583
3.6925000000000026,-0.0798976824977964,0.0767019846373948,-0.0266319790561814
3.695999999999998,-0.0458079115478431,0.0937468701123714,0.0117181405978899
3.699500000000001,-0.0447432607041266,0.1012029166768912,0.0149138384582915
3.703000000000003,-0.0308940730895516,0.1022693128498597,-0.0127827914416064
3.7064999999999984,-0.0266319790561814,0.1033339636935762,-0.0149138384582915
3.710000000000001,-0.0767019846373948,0.1075943123976944,-0.0127827914416064
3.7135000000000034,-0.0543303542853314,0.0937468701123714,-0.0042603487041181
3.716999999999999,0.01598023463126,0.0671131457269379,0.0245026773687483
3.720500000000001,0.0447432607041266,0.0319587239332681,0.0213052341790947
3.724000000000004,0.0447432607041266,0.0,-0.0085224427374883
3.727499999999999,0.0436768645311581,-0.0266319790561814,-0.0127827914416064
3.7310000000000016,0.0042603487041181,-0.0319587239332681,-0.0031956978604016
3.734499999999997,0.0191759324916617,-0.0458079115478431,0.0042603487041181
3.738,0.0841580312019145,-0.0585907029894496,0.01598023463126
3.741500000000002,0.0948115209560879,-0.0628527970228197,0.0170448854749766
3.744999999999997,0.0745709376207097,-0.069244192743623,-0.01598023463126
3.7485,0.0426122136874415,-0.055395005129048,-0.0149138384582915
3.7520000000000016,-0.0085224427374883,-0.0266319790561814,0.002131047016685
3.755499999999998,-0.0213052341790947,-0.0106534897541733,0.0
3.759,0.0308940730895516,-0.0117181405978899,0.0095870935812048
3.762500000000003,0.0319587239332681,-0.0063913957208032,0.0031956978604016
3.7659999999999982,0.0,-0.0053267448770866,-0.0245026773687483
3.7695000000000007,-0.0042603487041181,-0.0063913957208032,-0.0245026773687483
3.7730000000000032,-0.0319587239332681,0.0095870935812048,-0.0074577918937717
3.776499999999999,-0.013849187614575,0.0170448854749766,-0.0074577918937717
3.780000000000001,0.0575260521457331,0.0234362811957798,0.0
3.783500000000004,0.0628527970228197,0.0372854688103548,-0.0031956978604016
3.786999999999999,0.029827676916583,0.0426122136874415,-0.029827676916583
3.7905000000000015,0.0063913957208032,0.0490036094082447,-0.0255673282124649
3.794000000000004,-0.0266319790561814,0.0596570991624181,0.0
3.7975,-0.0095870935812048,0.0564614013020165,0.0106534897541733
3.801000000000002,0.0607217500061347,0.0436768645311581,0.01598023463126
3.804499999999997,0.0713752397603081,0.0351544217936697,0.0117181405978899
3.808,0.0287630260728665,0.0245026773687483,-0.0181095363186931
3.8115000000000014,0.013849187614575,0.0191759324916617,-0.0202405833353782
3.8149999999999977,-0.0106534897541733,0.0213052341790947,0.0
3.8185,-0.0085224427374883,0.0149138384582915,0.002131047016685
3.8220000000000023,0.055395005129048,0.0106534897541733,0.0
3.825499999999998,0.0628527970228197,0.0010646508437165,-0.0031956978604016
3.8290000000000006,0.0127827914416064,-0.0031956978604016,-0.0255673282124649
3.832500000000003,0.002131047016685,0.0,-0.0191759324916617
3.8359999999999994,-0.0181095363186931,0.0106534897541733,0.002131047016685
3.839500000000001,-0.0106534897541733,0.0234362811957798,0.0063913957208032
3.843000000000004,0.0575260521457331,0.01598023463126,0.0063913957208032
3.846499999999999,0.0628527970228197,0.0127827914416064,0.0
3.8500000000000014,0.0085224427374883,0.002131047016685,-0.0223716303520633
3.853500000000004,0.0,0.0031956978604016,-0.0202405833353782
3.8569999999999993,-0.0181095363186931,0.0106534897541733,0.0074577918937717
3.860500000000002,0.002131047016685,0.0053267448770866,0.0063913957208032
3.863999999999997,0.0862890782185996,-0.0042603487041181,0.0063913957208032
3.8675,0.1065296615539778,0.0010646508437165,-0.0042603487041181
3.871000000000002,0.0458079115478431,0.0149138384582915,-0.0287630260728665
3.8744999999999976,0.0213052341790947,0.0,-0.0362208179666383
3.878,-0.0010646508437165,0.0181095363186931,-0.013849187614575
3.8815000000000026,0.0213052341790947,0.0404811666707564,-0.01598023463126
3.884999999999998,0.0873537290623162,0.0426122136874415,-0.0095870935812048
3.888500000000001,0.0756355884644262,0.0596570991624181,-0.0149138384582915
3.892000000000003,0.02769837522915,0.0649838440395048,-0.0351544217936697
3.8954999999999984,0.0042603487041181,0.0617864008498512,-0.0351544217936697
3.899000000000001,0.0053267448770866,0.0649838440395048,-0.029827676916583
3.9025000000000034,0.0245026773687483,0.0575260521457331,-0.0340897709499532
3.905999999999999,0.1033339636935762,0.0404811666707564,-0.02769837522915
3.909500000000001,0.1278348957330726,0.0202405833353782,-0.0372854688103548
3.913000000000004,0.0713752397603081,0.0074577918937717,-0.0649838440395048
3.916499999999999,0.0596570991624181,0.0,-0.0639174478665363
3.9200000000000017,0.029827676916583,0.0149138384582915,-0.0426122136874415
3.923499999999997,0.0319587239332681,0.0213052341790947,-0.0308940730895516
3.927,0.1182478021518678,0.0127827914416064,-0.01598023463126
3.930500000000002,0.1278348957330726,0.0053267448770866,-0.0063913957208032
3.9339999999999975,0.096942567972773,-0.0031956978604016,-0.0245026773687483
3.9375,0.1054650107102613,-0.0053267448770866,-0.0223716303520633
3.9410000000000025,0.1225098961852379,-0.013849187614575,-0.0191759324916617
3.944499999999998,0.1395530363309626,-0.0117181405978899,0.002131047016685
3.948,0.1864273440517743,-0.0287630260728665,0.0106534897541733
3.951500000000003,0.3036087500306735,-0.0532657034416149,0.01598023463126
3.9549999999999983,0.3547434064556034,-0.0862890782185996,0.0181095363186931
3.958500000000001,0.3355692192931938,-0.110790010258096,-0.0063913957208032
3.9620000000000033,0.3685925940701784,-0.1427504795206162,-0.0106534897541733
3.965499999999999,0.3632658491930918,-0.1576643179789077,-0.0031956978604016
3.969000000000001,0.3909642244222418,-0.191754088928861,0.0
3.972500000000004,0.4751222556241564,-0.2098636252475541,0.0042603487041181
3.975999999999999,0.4634041150262664,-0.2279731615662473,0.0010646508437165
3.9795000000000016,0.4069427137242498,-0.2407576983371057,-0.0213052341790947
3.982999999999997,0.3675279432264619,-0.2258421145495622,-0.0245026773687483
3.9865,0.2929570056057522,-0.2024058333537824,-0.01598023463126
3.990000000000002,0.258867234655799,-0.1715135055934827,-0.0191759324916617
3.993499999999997,0.3089354949077603,-0.1470108282247343,-0.0010646508437165
3.997,0.2705853752536888,-0.1150521042914662,-0.0031956978604016
4.000500000000002,0.2119946722642392,-0.1065296615539778,-0.0245026773687483
4.003999999999998,0.152337573101821,-0.0798976824977964,-0.0255673282124649
4.0075,0.0607217500061347,-0.0575260521457331,-0.0191759324916617
4.011000000000003,0.0308940730895516,-0.0351544217936697,-0.0149138384582915
4.014499999999998,0.0798976824977964,-0.013849187614575,0.0063913957208032
4.018000000000001,0.0628527970228197,-0.0042603487041181,0.0095870935812048
4.021500000000003,0.0404811666707564,-0.0053267448770866,-0.0117181405978899
4.024999999999999,0.0,-0.002131047016685,-0.0223716303520633
4.028500000000001,-0.0926804739394028,0.0106534897541733,-0.0255673282124649
4.032000000000004,-0.1257055940456395,0.0266319790561814,-0.0223716303520633
4.035499999999999,-0.0894847760790012,0.0447432607041266,0.0042603487041181
4.0390000000000015,-0.1022693128498597,0.0628527970228197,0.0127827914416064
4.042500000000004,-0.1001382658331746,0.0639174478665363,-0.0053267448770866
4.045999999999999,-0.1150521042914662,0.0671131457269379,-0.0095870935812048
4.049500000000002,-0.1896230419121759,0.0713752397603081,-0.0245026773687483
4.052999999999997,-0.1832316461913727,0.0671131457269379,-0.0266319790561814
4.0565,-0.1182478021518678,0.0724398906040246,-0.0063913957208032
4.060000000000002,-0.0767019846373948,0.0596570991624181,-0.013849187614575
4.063499999999998,-0.0181095363186931,0.0308940730895516,-0.0255673282124649
4.067,0.0085224427374883,0.0149138384582915,-0.0436768645311581
4.070500000000003,-0.0394165158270399,0.0,-0.0660484948832214
4.073999999999998,-0.0234362811957798,-0.0245026773687483,-0.0681795418999064
4.077500000000001,0.0170448854749766,-0.0234362811957798,-0.055395005129048
4.081000000000003,0.0426122136874415,-0.0404811666707564,-0.0596570991624181
4.084499999999999,0.1033339636935762,-0.0607217500061347,-0.0671131457269379
4.088000000000001,0.1001382658331746,-0.0745709376207097,-0.0639174478665363
4.091500000000004,0.0234362811957798,-0.0756355884644262,-0.0820287295144815
4.094999999999999,-0.0117181405978899,-0.055395005129048,-0.0521993072686464
4.098500000000001,-0.0447432607041266,-0.0170448854749766,0.0
4.102000000000004,-0.0862890782185996,0.013849187614575,0.0362208179666383
4.105499999999999,-0.0585907029894496,0.0191759324916617,0.0500682602519613
4.109000000000002,-0.1022693128498597,0.0170448854749766,0.041545817514473
4.112499999999997,-0.1896230419121759,0.0053267448770866,0.0085224427374883
4.116,-0.2354309534600191,0.0031956978604016,-0.0010646508437165
4.119500000000002,-0.2727164222703739,0.0213052341790947,0.013849187614575
4.1229999999999976,-0.2929570056057522,0.041545817514473,0.01598023463126
4.1265,-0.2418223491808223,0.0511346564249298,0.0287630260728665
4.130000000000003,-0.2641939795328856,0.0532657034416149,0.0287630260728665
4.133499999999998,-0.3281114273994219,0.0426122136874415,0.0010646508437165
4.1370000000000005,-0.3590055004889736,0.0458079115478431,-0.0010646508437165
4.140500000000003,-0.4122694586013365,0.0543303542853314,0.0063913957208032
4.143999999999998,-0.4325100419367148,0.0521993072686464,0.0063913957208032
4.147500000000001,-0.3824417816847534,0.0532657034416149,0.0223716303520633
4.151000000000003,-0.3962909692993285,0.0511346564249298,0.0170448854749766
4.154499999999999,-0.4303807402492817,0.0330233747769847,-0.0085224427374883
4.158000000000001,-0.4506213235846599,0.02769837522915,-0.0191759324916617
4.161500000000004,-0.5092120265741096,0.0255673282124649,-0.0213052341790947
4.164999999999999,-0.5006895838366213,0.013849187614575,-0.0223716303520633
4.168500000000002,-0.4122694586013365,0.0213052341790947,-0.0042603487041181
4.171999999999997,-0.341960615013997,0.02769837522915,-0.0063913957208032
4.1755,-0.2769767709744921,0.0330233747769847,-0.0245026773687483
4.179000000000002,-0.1832316461913727,0.0521993072686464,-0.0223716303520633
4.182499999999997,-0.1715135055934827,0.0660484948832214,-0.0308940730895516
4.186,-0.0905494269227178,0.0820287295144815,-0.0223716303520633
4.189500000000002,-0.0042603487041181,0.0905494269227178,0.0095870935812048
4.192999999999998,0.0181095363186931,0.0671131457269379,0.0213052341790947
4.1965,0.0500682602519613,0.0340897709499532,0.0181095363186931
4.200000000000003,0.0340897709499532,0.0,0.0191759324916617
4.203499999999998,-0.0500682602519613,-0.0223716303520633,0.0
4.207000000000001,-0.0905494269227178,-0.0532657034416149,0.0010646508437165
4.210500000000003,-0.0820287295144815,-0.0532657034416149,0.0213052341790947
4.213999999999999,-0.1086607085706629,-0.0809623333415129,0.0223716303520633
4.217500000000001,-0.0820287295144815,-0.1097253594143795,0.0223716303520633
4.221000000000004,-0.1171831513081512,-0.1470108282247343,0.0149138384582915
4.224499999999999,-0.1789695521580025,-0.166186760716396,-0.0202405833353782
4.2280000000000015,-0.1693824585767977,-0.1832316461913727,-0.0319587239332681
4.231500000000004,-0.136357338470561,-0.1832316461913727,-0.0234362811957798
4.234999999999999,-0.0724398906040246,-0.2066679273871525,-0.0213052341790947
4.238500000000002,0.0191759324916617,-0.2311688594266489,-0.0213052341790947
4.241999999999997,0.0532657034416149,-0.274847469287059,-0.0372854688103548
4.2455,0.0170448854749766,-0.3131975889411305,-0.0671131457269379
4.249000000000002,0.0255673282124649,-0.3451563128743986,-0.0767019846373948
4.252499999999998,0.0106534897541733,-0.3568744534722885,-0.0660484948832214
4.256,0.0202405833353782,-0.3824417816847534,-0.0724398906040246
4.259500000000003,0.0926804739394028,-0.3813771308410369,-0.0564614013020165
4.262999999999998,0.0937468701123714,-0.3749839897909817,-0.0404811666707564
4.266500000000001,0.0511346564249298,-0.3845728287014385,-0.0617864008498512
4.270000000000003,0.0223716303520633,-0.3717882919305801,-0.0511346564249298
4.273499999999999,-0.0436768645311581,-0.3472873598910836,-0.0330233747769847
4.277000000000001,-0.0628527970228197,-0.3227846825223353,-0.0074577918937717
4.280500000000004,-0.0181095363186931,-0.2897613077453506,0.0245026773687483
4.283999999999999,-0.0383501196540714,-0.2524758389349957,0.0340897709499532
4.287500000000001,-0.0713752397603081,-0.2418223491808223,0.013849187614575
4.291000000000004,-0.1171831513081512,-0.2162550209683574,0.0
4.294499999999999,-0.2087989744038376,-0.205601531214184,-0.0223716303520633
4.298000000000002,-0.258867234655799,-0.2013411825100658,-0.0500682602519613
4.301499999999997,-0.3174579376452486,-0.1928187397725775,-0.0798976824977964
4.305,-0.3057397970473587,-0.1757738542976009,-0.0777666354811113
4.308500000000002,-0.3611348021764067,-0.1704471094205142,-0.1033339636935762
4.311999999999998,-0.3867021303888716,-0.1725781564371993,-0.1352926876268444
4.3155,-0.4016177141764152,-0.1651203645434275,-0.1587289688226243
4.319000000000003,-0.4442281825346047,-0.1565979218059392,-0.1811005991746876
4.322499999999998,-0.4026823650201317,-0.1459461773810178,-0.1960144376329791
4.3260000000000005,-0.3121311927681619,-0.1299659427497577,-0.180035948330971
4.329500000000003,-0.2439533961975074,-0.1289012919060412,-0.180035948330971
4.332999999999998,-0.1768385051413174,-0.150206526085136,-0.180035948330971
4.336500000000001,-0.1470108282247343,-0.1640557136997109,-0.180035948330971
4.340000000000003,-0.191754088928861,-0.1811005991746876,-0.1906876927558924
4.343499999999999,-0.1757738542976009,-0.1938833906162941,-0.180035948330971
4.347000000000001,-0.1406194325039311,-0.1864273440517743,-0.1491418752414194
4.350500000000004,-0.1065296615539778,-0.1992101354933808,-0.1416840833476476
4.353999999999999,-0.0308940730895516,-0.2098636252475541,-0.1310323389227262
4.357500000000002,-0.0042603487041181,-0.2130593231079557,-0.1182478021518678
4.360999999999997,-0.0617864008498512,-0.2301042085829324,-0.1065296615539778
4.3645,-0.1427504795206162,-0.2322352555996175,-0.0127827914416064
4.368000000000002,-0.2322352555996175,-0.2109282760912707,0.0585907029894496
4.3714999999999975,-0.2492801410745941,-0.1896230419121759,0.1033339636935762
4.375,-0.1640557136997109,-0.1811005991746876,0.138488385487246
4.3785000000000025,-0.1203788491685528,-0.1821652500184041,0.1544686201185061
4.381999999999998,-0.1225098961852379,-0.1949497867892626,0.1374237346435295
4.3855,-0.0617864008498512,-0.1949497867892626,0.1406194325039311
4.389000000000003,-0.0628527970228197,-0.1811005991746876,0.1491418752414194
4.392499999999998,-0.0181095363186931,-0.1683160624038291,0.1491418752414194
4.396000000000001,0.0745709376207097,-0.1480754790684509,0.180035948330971
4.399500000000003,0.1129210572747811,-0.1299659427497577,0.1811005991746876
4.402999999999999,0.1235745470289545,-0.124639197872671,0.1640557136997109
4.406500000000001,0.138488385487246,-0.0990718696602061,0.1640557136997109
4.410000000000004,0.1086607085706629,-0.0724398906040246,0.1534022239455376
4.413499999999999,0.1320969897664428,-0.0436768645311581,0.150206526085136
4.417000000000002,0.2013411825100658,-0.0010646508437165,0.1672514115601126
4.420499999999997,0.2173214171413259,0.0319587239332681,0.1448797812080492
4.424,0.219450718828759,0.0511346564249298,0.1203788491685528
4.427500000000002,0.1981454846496642,0.1022693128498597,0.0980072188164895
4.430999999999997,0.1171831513081512,0.1448797812080492,0.0713752397603081
4.4345,0.0852244273748831,0.2045368803704674,0.0575260521457331
4.438000000000002,0.1012029166768912,0.260998281672484,0.0713752397603081
4.441499999999998,0.083093380358198,0.3036087500306735,0.0671131457269379
4.445,0.1043986145372928,0.3249157295390203,0.0596570991624181
4.448500000000003,0.0745709376207097,0.3440916620306821,0.0575260521457331
4.451999999999998,-0.0042603487041181,0.3408942188410284,0.0308940730895516
4.455500000000001,-0.02769837522915,0.3334381722765087,0.0340897709499532
4.459000000000003,-0.029827676916583,0.3345028231202252,0.0490036094082447
4.462499999999999,-0.0223716303520633,0.3057397970473587,0.0468725623915597
4.466000000000001,0.0330233747769847,0.2801724688348938,0.0511346564249298
4.469500000000004,0.0394165158270399,0.247149094057909,0.0383501196540714
4.472999999999999,0.0010646508437165,0.2151903701246408,0.0106534897541733
4.4765000000000015,0.0095870935812048,0.1853609478788057,0.0063913957208032
4.480000000000004,0.0191759324916617,0.1757738542976009,0.0181095363186931
4.483499999999999,0.0617864008498512,0.1491418752414194,0.0202405833353782
4.487000000000002,0.1683160624038291,0.1331616406101593,0.0308940730895516
4.490499999999997,0.2215817658454441,0.1118564064310645,0.0308940730895516
4.494,0.2269085107225308,0.0926804739394028,0.0
4.497500000000002,0.2705853752536888,0.083093380358198,-0.0063913957208032
4.500999999999998,0.258867234655799,0.0905494269227178,0.0
4.5045,0.2940216564494687,0.1001382658331746,0.0074577918937717
4.508000000000003,0.3760503859639502,0.1129210572747811,0.0351544217936697
4.511499999999998,0.3920288752659583,0.1139874534477496,0.0479389585645282
4.515000000000001,0.3867021303888716,0.1001382658331746,0.0351544217936697
4.518500000000003,0.3792460838243518,0.0958761717998045,0.0362208179666383
4.521999999999999,0.3217200316786187,0.0841580312019145,0.0330233747769847
4.525500000000001,0.3153286359578155,0.0756355884644262,0.0340897709499532
4.529000000000004,0.3611348021764067,0.0745709376207097,0.0607217500061347
4.532499999999999,0.3568744534722885,0.0703088435873395,0.055395005129048
4.536000000000001,0.3675279432264619,0.0649838440395048,0.0362208179666383
4.539500000000004,0.3387649171535954,0.0671131457269379,0.01598023463126
4.542999999999999,0.2514094427620272,0.0628527970228197,-0.0191759324916617
4.546500000000002,0.2205171150017275,0.0671131457269379,-0.0458079115478431
4.549999999999997,0.2247774637058457,0.0820287295144815,-0.0468725623915597
4.5535,0.2002765316663493,0.0713752397603081,-0.0788312863248278
4.557000000000002,0.2173214171413259,0.0639174478665363,-0.1075943123976944
4.5604999999999976,0.1725781564371993,0.0521993072686464,-0.1448797812080492
4.564,0.083093380358198,0.0340897709499532,-0.1970790884766957
4.567500000000003,0.0308940730895516,0.0340897709499532,-0.2311688594266489
4.570999999999998,0.0053267448770866,0.0468725623915597,-0.2375620004767041
4.5745000000000005,-0.013849187614575,0.0490036094082447,-0.260998281672484
4.578000000000003,0.029827676916583,0.0543303542853314,-0.2716500260974054
4.581499999999998,0.0191759324916617,0.0649838440395048,-0.288694911572382
4.585000000000001,-0.0223716303520633,0.0639174478665363,-0.3174579376452486
4.588500000000003,-0.0330233747769847,0.0852244273748831,-0.3227846825223353
4.591999999999999,-0.0372854688103548,0.1171831513081512,-0.2961527034661538
4.595500000000001,0.0095870935812048,0.1406194325039311,-0.2620629325162006
4.599000000000004,0.0735062867769931,0.1427504795206162,-0.2620629325162006
4.602499999999999,0.0777666354811113,0.152337573101821,-0.2599318854995155
4.606000000000002,0.0798976824977964,0.1672514115601126,-0.2087989744038376
4.609499999999997,0.1565979218059392,0.1619246666830259,-0.1651203645434275
4.613,0.1715135055934827,0.1406194325039311,-0.1832316461913727
4.616500000000002,0.1619246666830259,0.1289012919060412,-0.1416840833476476
4.619999999999997,0.2354309534600191,0.1139874534477496,-0.0958761717998045
4.6235,0.2141239739516723,0.0884201252352847,-0.1086607085706629
4.627000000000002,0.1938833906162941,0.0703088435873395,-0.0543303542853314
4.630499999999998,0.219450718828759,0.041545817514473,-0.0564614013020165
4.634,0.1651203645434275,0.02769837522915,-0.0426122136874415
4.637500000000003,0.1906876927558924,0.0074577918937717,-0.013849187614575
4.640999999999998,0.1565979218059392,0.0,-0.0404811666707564
4.644500000000001,0.1757738542976009,0.0031956978604016,-0.002131047016685
4.648000000000003,0.152337573101821,0.0117181405978899,-0.0372854688103548
4.651499999999999,0.1672514115601126,0.0436768645311581,-0.0074577918937717
4.655000000000001,0.1395530363309626,0.0756355884644262,-0.0490036094082447
4.658500000000004,0.1427504795206162,0.1299659427497577,-0.0255673282124649
4.661999999999999,0.0990718696602061,0.1821652500184041,-0.0681795418999064
4.6655000000000015,0.0820287295144815,0.2620629325162006,-0.0596570991624181
4.669000000000004,0.0362208179666383,0.3376985209806268,-0.0788312863248278
4.672499999999999,0.0106534897541733,0.4175962034784233,-0.0937468701123714
4.676000000000002,-0.0287630260728665,0.4996249329929048,-0.1001382658331746
4.679499999999997,-0.0372854688103548,0.5422354013510943,-0.124639197872671
4.683,-0.0436768645311581,0.5923054069323076,-0.0990718696602061
4.686500000000002,-0.0660484948832214,0.6189373859884891,-0.1235745470289545
4.689999999999998,-0.0564614013020165,0.628524479569694,-0.1086607085706629
4.6935,-0.0767019846373948,0.6317219227593476,-0.0777666354811113
4.697000000000003,-0.0958761717998045,0.6178727351447726,-0.069244192743623
4.700499999999998,-0.0873537290623162,0.5976321518093943,-0.0234362811957798
4.704000000000001,-0.110790010258096,0.5603466829990394,0.0394165158270399
4.707500000000003,-0.0958761717998045,0.5134723752782278,0.055395005129048
4.710999999999999,-0.0703088435873395,0.4303807402492817,0.1097253594143795
4.714500000000001,-0.0532657034416149,0.3622011983493752,0.1480754790684509
4.718000000000004,-0.0010646508437165,0.2716500260974054,0.1555332709622227
4.721499999999999,0.0362208179666383,0.2002765316663493,0.1725781564371993
4.725000000000001,0.1001382658331746,0.1150521042914662,0.2024058333537824
4.728500000000004,0.138488385487246,0.0681795418999064,0.2002765316663493
4.731999999999999,0.1928187397725775,0.0085224427374883,0.1853609478788057
4.735500000000002,0.2354309534600191,-0.0191759324916617,0.180035948330971
4.738999999999997,0.2769767709744921,-0.0436768645311581,0.1747092034538843
4.7425,0.3068061932203272,-0.0511346564249298,0.1459461773810178
4.746000000000002,0.3334381722765087,-0.0575260521457331,0.0937468701123714
4.749499999999998,0.3494166615785167,-0.0543303542853314,0.0660484948832214
4.753,0.3515477085952018,-0.0383501196540714,0.0362208179666383
4.756500000000003,0.3355692192931938,-0.0191759324916617,0.0010646508437165
4.759999999999998,0.3100018910807288,0.0106534897541733,-0.0468725623915597
4.7635000000000005,0.2833681666952953,0.0362208179666383,-0.0841580312019145
4.767000000000003,0.2386266513204207,0.083093380358198,-0.1193124529955843
4.770499999999998,0.2109282760912707,0.1278348957330726,-0.1406194325039311
4.774000000000001,0.1608600158393093,0.1896230419121759,-0.1597953649955928
4.777500000000003,0.1278348957330726,0.2386266513204207,-0.1811005991746876
4.780999999999999,0.0937468701123714,0.3036087500306735,-0.2002765316663493
4.784500000000001,0.0671131457269379,0.3387649171535954,-0.2109282760912707
4.788000000000004,0.0383501196540714,0.3856374795451551,-0.2119946722642392
4.791499999999999,0.0191759324916617,0.4133358547743051,-0.2077325782308691
4.795000000000002,-0.002131047016685,0.4293143440763132,-0.1970790884766957
4.798499999999997,-0.0191759324916617,0.4367721359700849,-0.1832316461913727
4.802,-0.0404811666707564,0.4165315526347067,-0.1565979218059392
4.805500000000002,-0.0490036094082447,0.3994866671597301,-0.138488385487246
4.8089999999999975,-0.0745709376207097,0.3590055004889736,-0.1001382658331746
4.8125,-0.0926804739394028,0.3313071252598236,-0.0617864008498512
4.8160000000000025,-0.1203788491685528,0.2897613077453506,-0.0031956978604016
4.819499999999998,-0.1427504795206162,0.2546051406224288,0.0490036094082447
4.823,-0.1565979218059392,0.2087989744038376,0.1139874534477496
4.826500000000003,-0.1608600158393093,0.1715135055934827,0.1640557136997109
4.829999999999998,-0.1491418752414194,0.1182478021518678,0.2034722295267509
4.833500000000001,-0.138488385487246,0.0788312863248278,0.2237128128621291
4.837000000000003,-0.1161167551351827,0.0202405833353782,0.2364956043037356
4.840499999999999,-0.0958761717998045,-0.0213052341790947,0.2290395577392158
4.844000000000001,-0.0735062867769931,-0.0745709376207097,0.2162550209683574
4.847500000000004,-0.0671131457269379,-0.1043986145372928,0.1949497867892626
4.850999999999999,-0.0724398906040246,-0.1331616406101593,0.1640557136997109
4.854500000000002,-0.0916158230956863,-0.1416840833476476,0.136357338470561
4.857999999999997,-0.1235745470289545,-0.1406194325039311,0.1065296615539778
4.8615,-0.1512729222581045,-0.1267702448893561,0.0820287295144815
4.865000000000002,-0.1970790884766957,-0.1012029166768912,0.0500682602519613
4.868499999999997,-0.233299906443334,-0.0735062867769931,0.0287630260728665
4.872,-0.274847469287059,-0.0255673282124649,-0.0063913957208032
4.875500000000002,-0.3014794483432405,0.0085224427374883,-0.0351544217936697
4.878999999999998,-0.3270467765557054,0.0532657034416149,-0.069244192743623
4.8825,-0.3462209637181151,0.0852244273748831,-0.0905494269227178
4.886000000000003,-0.3675279432264619,0.1225098961852379,-0.124639197872671
4.889499999999998,-0.3856374795451551,0.1512729222581045,-0.1491418752414194
4.893000000000001,-0.4058780628805333,0.1938833906162941,-0.1672514115601126
4.896500000000003,-0.4239875991992265,0.2247774637058457,-0.1693824585767977
4.899999999999999,-0.4452945787075733,0.2652586303766022,-0.1672514115601126
4.903500000000001,-0.4559463231324946,0.2993484013265554,-0.1544686201185061
4.907000000000004,-0.4591437663221482,0.3323735214327921,-0.1320969897664428
4.910499999999999,-0.4506213235846599,0.3526141047681703,-0.1054650107102613
4.9140000000000015,-0.4154651564617382,0.3643322453660603,-0.0681795418999064
4.917500000000004,-0.3813771308410369,0.3600701513326901,-0.0394165158270399
4.920999999999999,-0.3110665419244454,0.3472873598910836,-0.0042603487041181
4.924500000000002,-0.2407576983371057,0.3238510786953038,0.0213052341790947
4.927999999999997,-0.1416840833476476,0.2940216564494687,0.0511346564249298
4.9315,-0.0607217500061347,0.2705853752536888,0.0660484948832214
4.935000000000002,0.0500682602519613,0.2460844432141925,0.0841580312019145
4.938499999999998,0.1320969897664428,0.2279731615662473,0.0905494269227178
4.942,0.2290395577392158,0.2130593231079557,0.0926804739394028
4.945500000000003,0.302544099186957,0.2013411825100658,0.0926804739394028
4.948999999999998,0.3813771308410369,0.1928187397725775,0.0852244273748831
4.952500000000001,0.4410324846742031,0.1842962970350892,0.0777666354811113
4.956000000000003,0.5060163287137079,0.177904901314286,0.0649838440395048
4.959499999999999,0.5411707505073777,0.1811005991746876,0.0575260521457331
4.963000000000001,0.5837829641948193,0.1928187397725775,0.041545817514473
4.966500000000004,0.6061545945468827,0.1981454846496642,0.0351544217936697
4.969999999999999,0.6231994800218592,0.2109282760912707,0.029827676916583
4.973500000000001,0.628524479569694,0.2237128128621291,0.02769837522915
4.977000000000004,0.6242641308655758,0.2396913021641372,0.0191759324916617
4.980499999999999,0.6072192453905992,0.2439533961975074,0.01598023463126
4.984000000000002,0.5773915684740161,0.2503447919183106,0.0074577918937717
4.987499999999997,0.5433017975240628,0.2631275833599171,0.0
4.991,0.4836446983616446,0.2705853752536888,-0.01598023463126
4.994500000000002,0.4325100419367148,0.2780431671474606,-0.0245026773687483
4.9979999999999976,0.3515477085952018,0.288694911572382,-0.0404811666707564
5.0015,0.286565609884949,0.2918906094327836,-0.0543303542853314
5.005000000000003,0.2002765316663493,0.2950880526224372,-0.069244192743623
5.008499999999998,0.1342280367831279,0.2950880526224372,-0.0788312863248278
5.0120000000000005,0.0490036094082447,0.2897613077453506,-0.0884201252352847
5.015500000000003,-0.0117181405978899,0.2812388650078622,-0.0884201252352847
5.018999999999998,-0.0873537290623162,0.2673896773932873,-0.0884201252352847
5.022500000000001,-0.136357338470561,0.2535404897787122,-0.0820287295144815
5.026000000000003,-0.1832316461913727,0.2301042085829324,-0.0798976824977964
5.029499999999999,-0.2077325782308691,0.2141239739516723,-0.0735062867769931
5.033000000000001,-0.2258421145495622,0.1842962970350892,-0.0639174478665363
5.036500000000004,-0.2269085107225308,0.1640557136997109,-0.0617864008498512
5.039999999999999,-0.2141239739516723,0.1214435000122694,-0.0564614013020165
5.043500000000002,-0.1874919948954908,0.0894847760790012,-0.0479389585645282
5.046999999999997,-0.1512729222581045,0.0436768645311581,-0.0362208179666383
5.0505,-0.1033339636935762,0.0042603487041181,-0.013849187614575
5.054000000000002,-0.0671131457269379,-0.0308940730895516,0.0085224427374883
5.057499999999997,-0.0127827914416064,-0.0745709376207097,0.0362208179666383
5.061,0.0223716303520633,-0.1182478021518678,0.0628527970228197
5.064500000000002,0.0724398906040246,-0.180035948330971,0.0990718696602061
5.067999999999998,0.1012029166768912,-0.2322352555996175,0.1214435000122694
5.0715,0.1257055940456395,-0.2940216564494687,0.1416840833476476
5.075000000000003,0.136357338470561,-0.3355692192931938,0.1576643179789077
5.078499999999998,0.1225098961852379,-0.3867021303888716,0.1693824585767977
5.082000000000001,0.1054650107102613,-0.41120480775762,0.1693824585767977
5.085500000000003,0.0756355884644262,-0.4293143440763132,0.1683160624038291
5.088999999999999,0.0468725623915597,-0.4325100419367148,0.1534022239455376
5.092500000000001,0.0095870935812048,-0.4186608543221398,0.1352926876268444
5.096000000000004,-0.013849187614575,-0.4037470158638482,0.1086607085706629
5.099499999999999,-0.0479389585645282,-0.3803107346680683,0.069244192743623
5.1030000000000015,-0.0756355884644262,-0.3568744534722885,0.0351544217936697
5.106500000000004,-0.1161167551351827,-0.3291760782431385,-0.0191759324916617
5.109999999999999,-0.1459461773810178,-0.2972173543098703,-0.0564614013020165
5.113500000000002,-0.2045368803704674,-0.2503447919183106,-0.1129210572747811
5.116999999999997,-0.2556715367953973,-0.2109282760912707,-0.1512729222581045
5.1205,-0.3206536355056502,-0.138488385487246,-0.2045368803704674
5.124000000000002,-0.3749839897909817,-0.0862890782185996,-0.2386266513204207
5.127499999999998,-0.4495549274116914,-0.013849187614575,-0.2791078179911772
5.131,-0.4889714432387313,0.0372854688103548,-0.3089354949077603
5.134500000000003,-0.5379750526469761,0.0980072188164895,-0.3345028231202252
5.137999999999998,-0.5550199381219528,0.1299659427497577,-0.3526141047681703
5.141500000000001,-0.5539552872782363,0.1555332709622227,-0.3622011983493752
5.145000000000003,-0.5422354013510943,0.1672514115601126,-0.3611348021764067
5.148499999999999,-0.5017542346803379,0.1651203645434275,-0.3462209637181151
5.152000000000001,-0.4655351620429515,0.1565979218059392,-0.3302424744161071
5.155500000000004,-0.4090737607409349,0.1416840833476476,-0.2918906094327836
5.158999999999999,-0.3611348021764067,0.1203788491685528,-0.258867234655799
5.162500000000001,-0.2929570056057522,0.0884201252352847,-0.2077325782308691
5.166000000000004,-0.2439533961975074,0.0660484948832214,-0.1672514115601126
5.169499999999999,-0.1768385051413174,0.0266319790561814,-0.110790010258096
5.173000000000002,-0.1257055940456395,-0.002131047016685,-0.069244192743623
5.176499999999997,-0.0607217500061347,-0.0447432607041266,-0.0031956978604016
5.18,-0.01598023463126,-0.0767019846373948,0.041545817514473
5.183500000000002,0.0458079115478431,-0.1203788491685528,0.1033339636935762
5.186999999999998,0.0905494269227178,-0.1470108282247343,0.1416840833476476
5.1905,0.150206526085136,-0.1906876927558924,0.1832316461913727
5.194000000000003,0.1938833906162941,-0.2183860679850424,0.205601531214184
5.197499999999998,0.2290395577392158,-0.260998281672484,0.2183860679850424
5.2010000000000005,0.2290395577392158,-0.260998281672484,0.2183860679850424
5.204500000000003,0.2290395577392158,-0.260998281672484,0.2183860679850424
5.207999999999998,0.2290395577392158,-0.260998281672484,0.2183860679850424
5.211500000000001,0.1704471094205142,-0.2876302607286655,0.1683160624038291
5.215000000000003,0.1203788491685528,-0.260998281672484,0.1406194325039311
5.218499999999999,0.0394165158270399,-0.2034722295267509,0.0990718696602061
5.222000000000001,-0.0149138384582915,-0.1544686201185061,0.0660484948832214
5.225500000000004,-0.0873537290623162,-0.0767019846373948,0.0117181405978899
5.228999999999999,-0.124639197872671,-0.0127827914416064,-0.0234362811957798
5.232500000000002,-0.166186760716396,0.0596570991624181,-0.0767019846373948
5.235999999999997,-0.1842962970350892,0.1065296615539778,-0.1139874534477496
5.2395,-0.1992101354933808,0.1619246666830259,-0.1619246666830259
5.243000000000002,-0.2024058333537824,0.1928187397725775,-0.1842962970350892
5.2464999999999975,-0.2045368803704674,0.2343645572870505,-0.2087989744038376
5.25,-0.2087989744038376,0.2567361876391139,-0.2237128128621291
5.2535000000000025,-0.2077325782308691,0.2876302607286655,-0.2183860679850424
5.256999999999998,-0.205601531214184,0.3014794483432405,-0.2087989744038376
5.2605,-0.1896230419121759,0.3078708440640437,-0.1842962970350892
5.264000000000003,-0.1757738542976009,0.300413052170272,-0.1565979218059392
5.267499999999998,-0.1320969897664428,0.2695207244099723,-0.1203788491685528
5.271000000000001,-0.0937468701123714,0.2311688594266489,-0.0724398906040246
5.274500000000003,-0.0223716303520633,0.1512729222581045,-0.0255673282124649
5.277999999999999,0.0340897709499532,0.083093380358198,0.0106534897541733
5.281500000000001,0.1161167551351827,-0.0191759324916617,0.055395005129048
5.285000000000004,0.180035948330971,-0.0937468701123714,0.083093380358198
5.288499999999999,0.2599318854995155,-0.1789695521580025,0.1022693128498597
5.292000000000002,0.3110665419244454,-0.2354309534600191,0.110790010258096
5.295499999999997,0.3600701513326901,-0.2823035158515788,0.1203788491685528
5.299,0.3845728287014385,-0.3036087500306735,0.1150521042914662
5.302500000000002,0.3888331774055567,-0.2950880526224372,0.0958761717998045
5.305999999999997,0.3792460838243518,-0.2823035158515788,0.0788312863248278
5.3095,0.355809802628572,-0.2460844432141925,0.0468725623915597
5.313000000000002,0.3217200316786187,-0.2098636252475541,0.02769837522915
5.316499999999998,0.2801724688348938,-0.1608600158393093,-0.0074577918937717
5.32,0.2535404897787122,-0.1406194325039311,-0.029827676916583
5.323500000000003,0.2077325782308691,-0.1118564064310645,-0.069244192743623
5.326999999999998,0.1832316461913727,-0.1054650107102613,-0.0958761717998045
5.330500000000001,0.1459461773810178,-0.0926804739394028,-0.1374237346435295
5.334000000000003,0.1193124529955843,-0.0905494269227178,-0.166186760716396
5.337499999999999,0.0798976824977964,-0.0703088435873395,-0.2034722295267509
5.341000000000001,0.0447432607041266,-0.0543303542853314,-0.2343645572870505
5.344500000000004,-0.0010646508437165,-0.0266319790561814,-0.258867234655799
5.347999999999999,-0.0351544217936697,-0.0031956978604016,-0.2727164222703739
5.3515000000000015,-0.0756355884644262,0.0351544217936697,-0.2876302607286655
5.355000000000004,-0.1075943123976944,0.0596570991624181,-0.2876302607286655
5.358499999999999,-0.1235745470289545,0.0852244273748831,-0.2716500260974054
5.362000000000002,-0.1310323389227262,0.1012029166768912,-0.247149094057909
5.365499999999997,-0.1235745470289545,0.1043986145372928,-0.2045368803704674
5.369,-0.1033339636935762,0.0884201252352847,-0.1672514115601126
5.372500000000002,-0.0756355884644262,0.0585907029894496,-0.1150521042914662
5.375999999999998,-0.0575260521457331,0.0330233747769847,-0.0777666354811113
5.3795,-0.029827676916583,-0.0053267448770866,-0.0383501196540714
5.383000000000003,-0.01598023463126,-0.0372854688103548,-0.0095870935812048
5.386499999999998,-0.0127827914416064,-0.0735062867769931,0.013849187614575
5.390000000000001,-0.0127827914416064,-0.096942567972773,0.0330233747769847
5.393500000000003,-0.0149138384582915,-0.1342280367831279,0.0447432607041266
5.396999999999999,-0.0127827914416064,-0.1704471094205142,0.0607217500061347
5.400500000000001,-0.0010646508437165,-0.2247774637058457,0.0585907029894496
5.404000000000004,0.0245026773687483,-0.288694911572382,0.0607217500061347
5.407499999999999,0.0436768645311581,-0.3355692192931938,0.055395005129048
5.411000000000001,0.0671131457269379,-0.41120480775762,0.0372854688103548
5.414500000000004,0.0767019846373948,-0.4580773701491797,0.0223716303520633
5.417999999999999,0.0713752397603081,-0.5049499325407395,0.0053267448770866
5.421500000000002,0.0543303542853314,-0.519865516328283,-0.0063913957208032
5.424999999999997,0.0149138384582915,-0.5113430735907947,-0.0266319790561814
5.4285,-0.0308940730895516,-0.4964292351325031,-0.0340897709499532
5.432000000000002,-0.0916158230956863,-0.4548816722887781,-0.0404811666707564
5.4354999999999976,-0.1427504795206162,-0.4197272504951083,-0.041545817514473
5.439,-0.2077325782308691,-0.3728546881035486,-0.0362208179666383
5.442500000000003,-0.2482137449016255,-0.3291760782431385,-0.029827676916583
5.445999999999998,-0.2908259585890671,-0.2950880526224372,-0.0106534897541733
5.4495000000000005,-0.3217200316786187,-0.2780431671474606,0.0031956978604016
5.453000000000003,-0.3547434064556034,-0.258867234655799,0.0319587239332681
5.456499999999998,-0.3792460838243518,-0.2524758389349957,0.0543303542853314
5.460000000000001,-0.4175962034784233,-0.2492801410745941,0.0884201252352847
5.463500000000003,-0.4410324846742031,-0.2514094427620272,0.1182478021518678
5.466999999999999,-0.4708619069200382,-0.2546051406224288,0.1587289688226243
5.470500000000001,-0.4964292351325031,-0.258867234655799,0.191754088928861
5.474000000000004,-0.5070809795574245,-0.2759121201307756,0.2279731615662473
5.477499999999999,-0.5124077244345112,-0.2854992137119804,0.2535404897787122
5.481000000000002,-0.5102766774178261,-0.3089354949077603,0.2812388650078622
5.484499999999997,-0.5102766774178261,-0.3195889846619337,0.2929570056057522
5.488,-0.4911024902554164,-0.3174579376452486,0.3014794483432405
5.491500000000002,-0.4836446983616446,-0.314262239784847,0.3046751462036421
5.494999999999997,-0.4751222556241564,-0.2823035158515788,0.3100018910807288
5.4985,-0.4761869064678729,-0.2514094427620272,0.3100018910807288
5.502000000000002,-0.4761869064678729,-0.2002765316663493,0.3100018910807288
5.505499999999998,-0.4783179534845579,-0.1587289688226243,0.3089354949077603
5.509,-0.480449000501243,-0.0990718696602061,0.3014794483432405
5.512500000000003,-0.4761869064678729,-0.0596570991624181,0.2961527034661538
5.515999999999998,-0.4719265577637547,-0.0106534897541733,0.2844345628682639
5.519500000000001,-0.4602084171658648,0.0063913957208032,0.2791078179911772
5.523000000000003,-0.4325100419367148,0.0351544217936697,0.2684543282370038
5.526499999999999,-0.4101401569139035,0.0436768645311581,0.2652586303766022
5.530000000000001,-0.3653968962097769,0.055395005129048,0.2546051406224288
5.533500000000004,-0.3217200316786187,0.0649838440395048,0.2514094427620272
5.536999999999999,-0.2546051406224288,0.0713752397603081,0.2396913021641372
5.5405000000000015,-0.1970790884766957,0.0681795418999064,0.2343645572870505
5.544000000000004,-0.1086607085706629,0.0639174478665363,0.2215817658454441
5.547499999999999,-0.0383501196540714,0.0543303542853314,0.2162550209683574
5.551000000000002,0.0500682602519613,0.02769837522915,0.2066679273871525
5.554499999999997,0.1139874534477496,0.0031956978604016,0.2024058333537824
5.558,0.2002765316663493,-0.0245026773687483,0.2002765316663493
5.561500000000002,0.2492801410745941,-0.0362208179666383,0.2002765316663493
5.564999999999998,0.2950880526224372,-0.0426122136874415,0.219450718828759
5.5685,0.3238510786953038,-0.0436768645311581,0.2375620004767041
5.572000000000003,0.3483520107348002,-0.0330233747769847,0.2673896773932873
5.575499999999998,0.3622011983493752,-0.0223716303520633,0.2854992137119804
5.579000000000001,0.3856374795451551,-0.01598023463126,0.3057397970473587
5.582500000000003,0.41120480775762,-0.0181095363186931,0.3206536355056502
5.585999999999999,0.4484902765679749,-0.0255673282124649,0.3206536355056502
5.589500000000001,0.4825800475179281,-0.0330233747769847,0.3110665419244454
5.593000000000004,0.5156034222949128,-0.0404811666707564,0.2929570056057522
5.596499999999999,0.5443664483677794,-0.0404811666707564,0.2780431671474606
5.600000000000001,0.5646070317031576,-0.0319587239332681,0.2514094427620272
5.603500000000004,0.5720648235969293,-0.0202405833353782,0.2311688594266489
5.606999999999999,0.5699337765802444,-0.0085224427374883,0.205601531214184
5.610500000000002,0.5667380787198427,-0.0074577918937717,0.1842962970350892
5.613999999999997,0.5433017975240628,-0.0170448854749766,0.1480754790684509
5.6175,0.5209301671719996,-0.0308940730895516,0.1118564064310645
5.621000000000002,0.4761869064678729,-0.0607217500061347,0.069244192743623
5.624499999999998,0.4420988808471717,-0.0916158230956863,0.041545817514473
5.628,0.3824417816847534,-0.1289012919060412,-0.0010646508437165
5.631500000000003,0.3334381722765087,-0.1597953649955928,-0.0223716303520633
5.634999999999998,0.2652586303766022,-0.1896230419121759,-0.0490036094082447
5.6385000000000005,0.2141239739516723,-0.2130593231079557,-0.0681795418999064
5.642000000000003,0.1491418752414194,-0.2407576983371057,-0.0841580312019145
5.645499999999998,0.0990718696602061,-0.2599318854995155,-0.1012029166768912
5.649000000000001,0.0394165158270399,-0.2801724688348938,-0.1193124529955843
5.652500000000003,-0.0010646508437165,-0.2929570056057522,-0.1310323389227262
5.655999999999999,-0.0543303542853314,-0.3131975889411305,-0.1395530363309626
5.659500000000001,-0.0862890782185996,-0.3270467765557054,-0.1448797812080492
5.663000000000004,-0.1203788491685528,-0.3387649171535954,-0.1374237346435295
5.666499999999999,-0.1459461773810178,-0.3462209637181151,-0.1289012919060412
5.670000000000002,-0.166186760716396,-0.3547434064556034,-0.1139874534477496
5.673499999999997,-0.166186760716396,-0.3590055004889736,-0.0948115209560879
5.677,-0.1576643179789077,-0.369657244913895,-0.0713752397603081
5.680500000000002,-0.1459461773810178,-0.3685925940701784,-0.0543303542853314
5.6839999999999975,-0.1118564064310645,-0.3728546881035486,-0.0340897709499532
5.6875,-0.083093380358198,-0.3707236410868635,-0.0223716303520633
5.6910000000000025,-0.0436768645311581,-0.3590055004889736,-0.0085224427374883
