time,Gyr_X,Gyr_Y,Gyr_Z
0.0,-0.0132134747117413,0.0016369505405351,-0.0129548784539792
0.009999999999998,-0.0156888828280528,-0.0003042724858716,-0.0029551729531697
0.019999999999996,-0.0154942585115943,0.0017735980308117,-0.0073526183829579
0.0300000000000011,-0.0168202624151163,0.0042185747327018,-0.0019100084384784
0.0399999999999991,-0.0172108667678112,0.0051255815667744,-0.0013140255469224
0.0499999999999971,-0.0176974586150677,0.0036241009421898,-0.0050521232756618
0.0599999999999951,-0.020180647346184,-0.0002720324202628,0.0047942772516197
0.0700000000000002,-0.0171908165148031,0.0014895286520943,-0.003849169623545
0.0799999999999983,-0.0167681286795784,0.0049882881610554,-0.0075514207438953
0.0899999999999963,-0.0168403007848838,0.0045831684037078,-0.0101954200152571
0.1000000000000014,-0.0168010025919813,0.0060332729287818,-0.0124579045703876
0.1099999999999994,-0.0168807777405625,-0.0010715603685022,-0.0120617486727041
0.1199999999999974,-0.0162383036410606,0.0003057800462305,-0.0164111277436244
0.1299999999999954,-0.0191672071959662,-0.0019357682723076,-0.0127628388340804
0.1400000000000005,-0.0154696599414513,0.001041824609422,-0.009248093291517
0.1499999999999985,-0.0178869920727632,0.0006243046412828,-0.0055257285338661
0.1599999999999966,-0.0173636897766904,-0.0015274048386994,-0.0019663942434765
0.1700000000000017,-0.0196251536151478,-0.0012291432291763,0.0017090382328627
0.1799999999999997,-0.0207451808758505,-0.0001850053518971,-0.0010153385712106
0.1899999999999977,-0.0146189582972551,0.0029444597913902,-0.0049543942087897
0.1999999999999957,-0.0170387855229473,0.0046698722134643,-0.004968056007617
0.2100000000000008,-0.0191944188080028,-0.0089261406539818,-0.011601248438999
0.2199999999999988,-0.0202652668009224,-0.0088797040926319,-0.0183309861990569
0.2299999999999968,-0.0153748330846858,-0.0043062715682376,-0.0145640907785403
0.240000000000002,-0.0172028728880617,-0.0017639148503619,-0.0107041607386729
0.25,-0.0148718189697124,0.0009758883333279,-0.009996629573788
0.259999999999998,-0.023187203004175,0.0054793815438886,-0.0055336939704523
0.269999999999996,-0.0190469712489297,0.0031663755268076,-0.0030470593249627
0.2800000000000011,-0.0156934075337088,0.0069209936012177,-0.0055607785177968
0.2899999999999991,-0.0182282196148909,0.0047413125117534,-0.0032544204194015
0.2999999999999971,-0.0150890776688936,0.0020535310951469,-0.0031009512444745
0.3099999999999951,-0.0166728153235445,0.0038944061398353,-0.0107591829793157
0.3200000000000003,-0.0150550360706092,0.0024706961212024,-0.0044871251684816
0.3299999999999983,-0.0153740550702894,0.0011891315088936,-0.0096915756840101
0.3399999999999963,-0.0175839348621943,-0.0039429119416725,-0.0089882566331183
0.3500000000000014,-0.021068138002725,-0.0004295244573805,-0.0051551852384508
0.3599999999999994,-0.0156292302059415,0.0039202089318119,-0.0093658991255527
0.3699999999999974,-0.0160560832997566,0.001241825571328,-0.004611525959291
0.3799999999999954,-0.0175689629023285,0.0003524389501041,-0.0067449621568619
0.3900000000000005,-0.0195739272369455,0.0070506834416121,-0.0050777755076315
0.3999999999999986,-0.0180693166898422,-0.00038265610176,-0.0082348637871043
0.4099999999999966,-0.0179582272419194,0.0048917786133874,-0.0113933538214119
0.4200000000000017,-0.019603833703627,0.0039851359498448,-0.0128070576210981
0.4299999999999997,-0.0240801819345997,0.0003130155557146,-0.0209560531413335
0.4399999999999977,-0.0289773906915504,0.005691076638824,-0.0199854697265939
0.4499999999999957,-0.0354914871472835,0.0014787564397829,-0.0303780534844608
0.4600000000000008,-0.0342192306029836,0.0033831979845443,-0.0328048182636923
0.4699999999999988,-0.0221021504984429,0.002841514843461,-0.0320256609511769
0.4799999999999969,-0.0179413549985078,0.0060184271718736,-0.0270693461752845
0.490000000000002,-0.0314858408326597,0.0064025589514403,-0.0153939290337811
0.5,-0.0302289480345974,0.0054509273554215,-0.010255717538008
0.509999999999998,-0.0255305355352695,0.0046421554077377,-0.0071015026437179
0.519999999999996,-0.0178021215026423,0.0134612755261191,-0.0008322418841178
0.5300000000000011,-0.0153895439087404,0.0123324157751644,0.002447808162997
0.5399999999999991,-0.016620507074535,0.0038316001883354,0.0119837248820719
0.5499999999999972,-0.022098183404036,0.0102821082512832,0.0141283338945675
0.5599999999999952,-0.0206247201128476,0.0065457998516754,0.0180218069040654
0.5700000000000003,-0.0220778114900556,0.0086988759657573,0.0168669309745464
0.5799999999999983,-0.0262518625412591,0.005536989274005,0.0119201197107276
0.5899999999999963,-0.0233432262717887,0.0066272454658583,0.0136032425060663
0.6000000000000014,-0.0156278559611038,0.0065706874740285,0.0147995930555843
0.6099999999999994,-0.0199428106329793,0.0051467904224572,0.0115061592323635
0.6199999999999974,-0.0362613688416971,0.0069723592810476,0.0206090446680694
0.6299999999999955,-0.0335530299680805,0.0063955921742638,0.0378142378585253
0.6400000000000006,-0.0377985060941851,0.0114101255098457,0.0431310757406481
0.6499999999999986,-0.023159204875352,0.0112459057732292,0.0579228971416494
0.6600000000000037,-0.0266036326792581,0.0097891940658206,0.0698961331242884
0.6699999999999946,-0.0193909196591771,0.0084854678186964,0.0842480257538829
0.6799999999999997,-0.0354655697790948,0.0021194264507765,0.1180141380461879
0.6900000000000048,-0.0374291383532738,0.0089191563465811,0.149436221054406
0.6999999999999957,-0.0431930998603944,0.0141698955436037,0.1667900989792515
0.7100000000000009,-0.0547395897879335,0.0105099845609765,0.1742701563957227
0.7199999999999918,-0.0604511322562964,0.0039606839233757,0.1753514927975057
0.7299999999999969,-0.0751220169931123,0.0092996333472299,0.1741160526996235
0.740000000000002,-0.0934986408605901,0.0121681341470698,0.1784428826110245
0.7499999999999929,-0.1207098439739954,0.0079894808769691,0.1859911121722115
0.759999999999998,-0.1470544107104466,0.010491678828729,0.1829401349093171
0.7700000000000031,-0.1813497892419791,0.0097113228343852,0.1816458185320275
0.779999999999994,-0.2114719322235346,0.0067529454589369,0.1687090125412391
0.7899999999999991,-0.2273818619795289,0.0104635013777749,0.1697374562929898
0.8000000000000043,-0.238393706409805,0.0198515621348844,0.1771734663953898
0.8099999999999952,-0.2579192046156759,0.0039963343237073,0.2005175543944444
0.8200000000000003,-0.266387872558321,0.0104059811031201,0.2192613735902873
0.8300000000000054,-0.2716069152886689,0.0088583008695827,0.2494332125306695
0.8399999999999963,-0.2878388769251219,-0.0020392949035197,0.2707529178844171
0.8500000000000014,-0.2957904364602654,-0.0060861695073776,0.2756315244799475
0.8599999999999923,-0.2943574656521295,-0.0031060373510408,0.2914855398658101
0.8699999999999974,-0.2779997792628589,0.0020488471971008,0.3011407861848534
0.8800000000000026,-0.2528443917532686,0.0133813398332027,0.3097291510916274
0.8899999999999935,-0.2021239883691295,0.0189331320335634,0.318297950194342
0.8999999999999986,-0.1451497067865975,0.0249155665599612,0.3272964882449705
0.9100000000000036,-0.0934382483435122,0.0364894461956783,0.3292080686819639
0.9199999999999946,-0.0312877634818978,0.0363948641079889,0.3358939259708435
0.9299999999999996,0.0404815384354243,0.048651544309454,0.3642231450738812
0.9400000000000048,0.1231268425430403,0.0659402903403797,0.3841582731144882
0.9499999999999956,0.1862334684948139,0.0821826064017239,0.405048360085223
0.9600000000000009,0.2569007439523302,0.1061447251724852,0.4236263989084423
0.9699999999999918,0.3174298464460839,0.1287719905810946,0.4415877959209658
0.9799999999999968,0.3346554302832915,0.1476077815280054,0.4551026760708715
0.990000000000002,0.3251604725790791,0.1457911814385144,0.4676925417493315
0.9999999999999928,0.3034947423329495,0.1312473668986856,0.4859396071772637
1.009999999999998,0.2780413142122705,0.1312580294996569,0.4974506215731754
1.0200000000000031,0.2765300433340549,0.1218970489653441,0.5142691728170188
1.029999999999994,0.2868368002608074,0.1083983754516489,0.5244115012038736
1.0399999999999991,0.3126393413881648,0.1039905888611959,0.5334662983201444
1.0500000000000045,0.3295504445219133,0.092766404099215,0.5483691324209563
1.0599999999999952,0.3281271204052807,0.0867522104983543,0.5689886982484583
1.0700000000000005,0.2990916235756057,0.0734694100384305,0.5875135417060804
1.0800000000000054,0.2603897098485432,0.0624623309020531,0.6185445249377509
1.0899999999999963,0.2155117475787466,0.0571725999256592,0.6519583137561006
1.1000000000000014,0.1781442035622585,0.0457519909363516,0.6773437795367813
1.1099999999999923,0.1544412968932232,0.0474624903495834,0.7122567099426353
1.1199999999999974,0.1500703655229112,0.0400963722740248,0.7653733459616211
1.1300000000000026,0.1463852050426605,0.0260489657356119,0.7966273608172032
1.1399999999999937,0.1384819434149967,0.0220767986551998,0.8461199595722936
1.1499999999999986,0.1302624807557199,0.017387219002683,0.8908059692824272
1.1600000000000037,0.12367892250875,0.0224791398336593,0.9142592226954612
1.1699999999999946,0.1342700321320593,0.0233851707914706,0.939904119332292
1.1799999999999995,0.1531930020039324,0.0295916856667899,0.9680608943596698
1.1900000000000048,0.182674585195901,0.0447657144091045,1.0040895013658044
1.1999999999999955,0.2085959097240554,0.0602719963201451,1.0300468408313568
1.2100000000000009,0.2282839417265079,0.0708730451049481,1.0647635226793954
1.2199999999999918,0.2241974411713161,0.0794574582960529,1.0831800677612524
1.2299999999999969,0.1951619809982105,0.087412150110801,1.108998546396753
1.240000000000002,0.1734424769329723,0.1144183373661492,1.1140594599614897
1.249999999999993,0.1535946142548606,0.1483224303679093,1.1217910590589009
1.259999999999998,0.1396951751255676,0.1733371580899891,1.1190986609410785
1.2700000000000031,0.120926433785701,0.1979096336838776,1.1107568378971822
1.279999999999994,0.107778475167287,0.2242719381156001,1.1031220265845123
1.2899999999999991,0.0872799226232901,0.2517181979523966,1.078032558795369
1.3000000000000045,0.0595645154223705,0.267746779009613,1.0569024627271972
1.3099999999999952,0.0258993977576779,0.2898808977378784,1.035612388855759
1.3200000000000005,-0.0100279226761454,0.3125315299646713,1.0190814510053303
1.3300000000000054,-0.0522501068567745,0.3229076736897167,1.0003639646918037
1.3399999999999963,-0.0819596148289668,0.3401298794172676,0.9812924725951268
1.3500000000000014,-0.0946959975288961,0.3594735848660055,0.9571458851003996
1.3599999999999923,-0.1254452992922917,0.3783369909620847,0.934021499432556
1.3699999999999974,-0.1493051252415374,0.3840079838002512,0.9161647888663166
1.3800000000000026,-0.155940909791615,0.3904259754492244,0.8982651833235239
1.3899999999999937,-0.170975250600772,0.3951312548164956,0.8850287817837059
1.3999999999999986,-0.1912524517032017,0.3953737763892034,0.8737701069224418
1.4100000000000037,-0.2045341228148309,0.3945324464149639,0.8688203244124167
1.4199999999999946,-0.2284994980431529,0.3868250725795233,0.8615221726381986
1.4299999999999995,-0.2516530451316782,0.3866321050889911,0.8542627289230748
1.4400000000000048,-0.2549325815082546,0.3889962420715486,0.8460782182224958
1.4499999999999955,-0.248850290007908,0.3836320334906027,0.8355046965423053
1.4600000000000009,-0.2268358267057015,0.3712116459479613,0.8246258076146307
1.4699999999999918,-0.2080612284443594,0.3632592491017905,0.8111111358020301
1.4799999999999969,-0.1839430408096675,0.3578149359835662,0.7925336728672548
1.490000000000002,-0.1686116261886025,0.3432935713373521,0.77739203863782
1.499999999999993,-0.1672859162039923,0.330401915326261,0.7608394128051323
1.509999999999998,-0.1750740535590624,0.313095156259971,0.7484651140154552
1.5200000000000031,-0.177427560282829,0.3028990633296045,0.7386695756504275
1.529999999999994,-0.1528990120208358,0.287859533360577,0.7229434659963861
1.5399999999999991,-0.1318144296662139,0.278747165010749,0.694803302890232
1.5500000000000045,-0.1172394631270703,0.2512824510945315,0.6782411399204474
1.5599999999999952,-0.1199609754374415,0.2250588053526013,0.6534125081000534
1.5700000000000005,-0.130608465829343,0.1983665292792651,0.6342868411359968
1.5800000000000054,-0.1503589389942776,0.1684094043676446,0.5970840514255831
1.5899999999999963,-0.178206815424521,0.1386618113042876,0.5587907343998053
1.6000000000000014,-0.2074240824658124,0.1063319302800784,0.5341045417096649
1.6099999999999923,-0.2356615313834125,0.088447168450759,0.4984118743038296
1.6199999999999974,-0.2553522263630667,0.0646536916453189,0.4710281823855463
1.6300000000000026,-0.2579247637832282,0.0400810865977759,0.4410683486980567
1.6399999999999937,-0.248894963933076,0.0194493230686263,0.4034493780533844
1.6499999999999986,-0.2444796098896893,-0.0161435069376566,0.378029001744336
1.6600000000000037,-0.2176868842691212,-0.038329050904083,0.3511560774820404
1.6699999999999946,-0.1824919568986666,-0.0607402085061252,0.3233604633702547
1.6799999999999995,-0.1672638913726865,-0.0920313616574918,0.3010147498073858
1.6900000000000048,-0.146936011457201,-0.1122851274649636,0.2706382769167754
1.6999999999999955,-0.1401136412428317,-0.1347421460455469,0.2556655292355655
1.7100000000000009,-0.1314179228988298,-0.1547809204106599,0.2354258267624872
1.7199999999999918,-0.1213596505898114,-0.1717544001693845,0.2071753079035361
1.7299999999999969,-0.1164689959145778,-0.1822705994597475,0.1786896590603679
1.740000000000002,-0.1042052044255824,-0.1956301385867582,0.1514869475281585
1.749999999999993,-0.1001668276772531,-0.2145609609000774,0.1144659660250013
1.759999999999998,-0.0950692373495687,-0.2209014629824416,0.0714763110280732
1.7700000000000031,-0.1010061668012529,-0.2347718614471118,0.0367605704835352
1.779999999999994,-0.1163267070569463,-0.2535691776904554,-0.008644432808691
1.7899999999999991,-0.1366342719474114,-0.2689862499055691,-0.0490890345066464
1.8000000000000045,-0.1566534565682051,-0.2742376879242721,-0.0878518640872161
1.8099999999999952,-0.1649978392182716,-0.2778337638494488,-0.1242163449392706
1.8200000000000005,-0.1721118746901095,-0.274448890004508,-0.1430676522352322
1.8300000000000052,-0.1591860590567288,-0.2784925506692202,-0.1669060701527611
1.8399999999999963,-0.1366857846365523,-0.2853089769631494,-0.1827878141620878
1.8500000000000012,-0.1049513282694256,-0.279581637813984,-0.1960722314110759
1.8599999999999923,-0.0696463105163652,-0.2741486971789474,-0.2126686802766508
1.8699999999999972,-0.023644631627099,-0.2597825975631464,-0.2154828187260181
1.8800000000000023,0.0180534738267639,-0.2558893090141236,-0.2174248400754813
1.8899999999999932,0.0398423338598492,-0.2580789617654012,-0.2156467832916592
1.8999999999999984,0.0637224798506469,-0.2506778117951884,-0.2133741056777586
1.910000000000004,0.0761094914456577,-0.2394777456545479,-0.2132754602307604
1.9199999999999944,0.0979569299865717,-0.233356084996063,-0.2191819925897752
1.93,0.1171581043148278,-0.2259699727316626,-0.2227589836264378
1.9400000000000048,0.1162566517500493,-0.2119120314403186,-0.228439842852309
1.949999999999996,0.1008133893440685,-0.2040261699391811,-0.2354401742072809
1.9600000000000009,0.0708114798243522,-0.2066650525926232,-0.2358877470654735
1.969999999999992,0.0421546170305977,-0.2120557975638297,-0.2273248108180254
1.9799999999999969,0.010424022642027,-0.2188228412732145,-0.2262676389489672
1.990000000000002,-0.0285184824572776,-0.2191684662804765,-0.2181936878791562
1.999999999999993,-0.0548978880903145,-0.214878264505104,-0.2083214108414189
2.009999999999998,-0.0682058152232099,-0.210584602051871,-0.2106265940958264
2.020000000000003,-0.0638444216788117,-0.2010573661220578,-0.2139443045199388
2.029999999999994,-0.0465592541859651,-0.2059785541754855,-0.2162411980329862
2.039999999999999,-0.0322969554328418,-0.196518396372191,-0.2165913211721331
2.0500000000000043,-0.0172560302999773,-0.1851349198237396,-0.2162930687506606
2.059999999999995,-0.0035197830802493,-0.1793085385429578,-0.2196297337246373
2.0700000000000003,0.0101175492520882,-0.1685129941557021,-0.2246020294092033
2.0800000000000054,0.0315999690476102,-0.1571721925076851,-0.2233235896926631
2.0899999999999963,0.0743993628431338,-0.140836307224391,-0.2251913805966827
2.1000000000000014,0.1176851398201262,-0.1343310038606337,-0.2339121544506245
2.1099999999999923,0.1515535876252223,-0.1242351819035183,-0.2391657853705157
2.119999999999997,0.1796506641768235,-0.1109473231404286,-0.2449659602527142
2.1300000000000026,0.1841273522557781,-0.1082134415137676,-0.2531518852394102
2.139999999999993,0.1837173778011821,-0.100221304953521,-0.2622437258455854
2.1499999999999986,0.1726884901307978,-0.1049065941654114,-0.2733675758830068
2.160000000000004,0.1405539346583301,-0.1055143456678628,-0.2775421848103528
2.1699999999999946,0.1153372406286406,-0.1088953232890136,-0.2872311061689264
2.18,0.0921973064944956,-0.109622340422388,-0.2901688701141503
2.190000000000005,0.070019454128284,-0.1023089901667467,-0.2982291693620509
2.199999999999996,0.0546977444714815,-0.1019961720285535,-0.3037424117254762
2.210000000000001,0.053794156573629,-0.1036724605763432,-0.3018533255707404
2.219999999999992,0.0480979176524656,-0.1059234606745419,-0.2971951646314264
2.229999999999997,0.0432210895037554,-0.1062610244369842,-0.3034699383607604
2.240000000000002,0.0506798576814649,-0.1092375139808598,-0.2986742059864671
2.249999999999993,0.0545115975151144,-0.1026004629749856,-0.2883133586005705
2.259999999999998,0.0541212040302269,-0.0969569780657055,-0.2805837021163777
2.270000000000003,0.058946643543164,-0.0896481873580782,-0.2710127883639503
2.279999999999994,0.0571887037829034,-0.0766157879179717,-0.2661335173905955
2.289999999999999,0.0536654958323502,-0.0671481759520867,-0.266251798064126
2.3000000000000043,0.0549522247721176,-0.0541185550551278,-0.2634037075106033
2.309999999999995,0.0513333278114629,-0.0435156673088283,-0.2536352498622875
2.3200000000000003,0.047549218098562,-0.0328402582314368,-0.245166711149437
2.3300000000000054,0.0417298288932705,-0.0229676941765084,-0.2252578291106186
2.3399999999999963,0.0405665986982822,-0.0106658061572152,-0.2117607037338528
2.3500000000000014,0.0531856611036771,0.0024640432924226,-0.1944784236868004
2.3599999999999923,0.0576196245314042,0.0144624871536838,-0.1722635617424513
2.369999999999997,0.0593205903425275,0.0304412688732916,-0.149617086363908
2.3800000000000026,0.0608717232085345,0.0468369622176542,-0.1356493032966807
2.389999999999993,0.0725845602627531,0.0578702585449878,-0.1135671550945341
2.3999999999999986,0.0734374127870534,0.067692048372077,-0.0846888881317767
2.410000000000004,0.0522415388499519,0.0729606460034212,-0.0587482764185871
2.4199999999999946,0.0312104142309184,0.0798902172596128,-0.0411887505349041
2.43,0.0133774227175434,0.0925021592098621,-0.0225300509428052
2.440000000000005,0.0120050583472074,0.10020026686756,0.0034065625005062
2.449999999999996,0.0119110579378256,0.1009743317642939,0.0273568677420201
2.460000000000001,0.0106001831575475,0.1021468235530117,0.0482657194596164
2.469999999999992,-0.0142960108079003,0.0915342554304084,0.0668151292467788
2.479999999999997,-0.0439543289247999,0.0831894036670828,0.095887318288463
2.490000000000002,-0.0619545787337117,0.0855957097408295,0.1134967797100181
2.499999999999993,-0.0660004691424,0.0803784907600686,0.137472079532553
2.509999999999998,-0.0631442331802441,0.080400431172301,0.1563160619130354
2.520000000000003,-0.081566641108299,0.0832782138226124,0.164985788713997
2.529999999999994,-0.1141867556271408,0.0804765123215624,0.1814003153776785
2.539999999999999,-0.1477873617747214,0.0775073064705436,0.1866235603898647
2.5500000000000043,-0.1790094365213425,0.0666680995354476,0.1901704576210826
2.559999999999995,-0.2150573208849893,0.0688347491657447,0.1850934895766469
2.5700000000000003,-0.2469039262042849,0.0630162373210122,0.1868250604999498
2.5800000000000054,-0.2713122132941897,0.0685874910322082,0.2035038063105526
2.5899999999999963,-0.2543633077557227,0.0632129665313,0.209417864717856
2.6000000000000014,-0.2214129464258372,0.0755796027466549,0.2099642598151065
2.6099999999999923,-0.1785959485158042,0.0961703666815133,0.2181670984462028
2.619999999999997,-0.1214208375690616,0.1132153638324832,0.2244321406141379
2.6300000000000026,-0.0578172806231812,0.1209802932079612,0.2384989879805774
2.639999999999993,0.0216778426747392,0.1345194653701637,0.2530380069230424
2.6499999999999986,0.091143858099024,0.1496396210468504,0.266013570417363
2.660000000000004,0.1431090146894763,0.1611924796315604,0.2806892940190207
2.6699999999999946,0.1809298040346442,0.1830669443550893,0.2908687777076564
2.68,0.2074102538576261,0.184024741119793,0.3123424986344734
2.690000000000005,0.2068450646642339,0.193827339282581,0.3253619827866432
2.699999999999996,0.1955230698217984,0.19795187094623,0.3377069193381736
2.710000000000001,0.1857560723025286,0.205553883330493,0.3583512755388061
2.719999999999992,0.1490609958296247,0.2015027545682919,0.3631544402756136
2.729999999999997,0.1088055249258408,0.2104065270483855,0.3734941504368825
2.740000000000002,0.0552416830904269,0.2010596721290223,0.3842027989903608
2.749999999999993,-0.0038884212090857,0.1963486930085365,0.3932616762889621
2.759999999999998,-0.0482357089846448,0.1933527832466152,0.3978330601893088
2.770000000000003,-0.088672970687924,0.182209534489962,0.3993046476831229
2.779999999999994,-0.1261007459349715,0.1840285528945504,0.4026795291623589
2.789999999999999,-0.1491250845503028,0.1900357894826628,0.391692080900204
2.8000000000000043,-0.1624420438090447,0.1784142212797625,0.3870924043333638
2.809999999999995,-0.1574019591062123,0.1753793982164158,0.3834703281800045
2.8200000000000003,-0.144228100862326,0.1763366820443824,0.3836809138924079
2.8300000000000054,-0.1305974397842148,0.1676649623129582,0.3825379442536911
2.8399999999999963,-0.126840918465327,0.1557656727031157,0.3794895311947242
2.8500000000000014,-0.1372452325229959,0.1454623798097833,0.3786112472550986
2.8599999999999923,-0.1216870998461766,0.1366638628196395,0.3785806439437887
2.869999999999997,-0.1088480038079711,0.1297529153692797,0.3735262022005892
2.8800000000000026,-0.1025671522093887,0.1339906725991509,0.3610738655901974
2.889999999999993,-0.0974765315736637,0.1335015809662154,0.3589389843618946
2.8999999999999986,-0.0935388843296615,0.1318773927073779,0.3588236821996862
2.910000000000004,-0.0833703833510551,0.1176495633776943,0.3562090058825356
2.9199999999999946,-0.0814609585559167,0.1177579171510363,0.3571669788709497
2.93,-0.0798889119941576,0.1022616471448524,0.3571842627878689
2.940000000000005,-0.0629157458403489,0.0951371167126503,0.3603120531009191
2.949999999999996,-0.0578441508494883,0.0963249296802872,0.3591322629471106
2.960000000000001,-0.0361818625808453,0.0886141488983518,0.371489838127413
2.969999999999992,-0.0117304717221223,0.0963004818169026,0.3697080946820563
2.979999999999997,0.0145776711621008,0.1015370438100194,0.3599650861169614
2.990000000000002,0.0181025431776043,0.1069271329274682,0.3550906313061099
2.999999999999993,0.0196449344100576,0.1049157385757007,0.3490893503112639
3.009999999999998,0.0270924911783792,0.0962154267024588,0.3438494527431708
3.020000000000003,0.0186531680071289,0.0942619509803836,0.3327560243416208
3.029999999999994,0.0289616261606674,0.0865044490789005,0.3243373792160389
3.039999999999999,0.030299840624231,0.0857280302600511,0.3228097912416571
3.0500000000000043,0.0231933449840055,0.0804526104800346,0.31741567611959
3.059999999999995,0.0368182336777438,0.0793515294206014,0.3044423131358542
3.0700000000000003,0.0382967081896591,0.0870977347859729,0.2976854602003945
3.0800000000000054,0.047887358472123,0.0880380662477255,0.2899959615002166
3.0899999999999963,0.0658327952424074,0.0891694457950311,0.278274765737241
3.1000000000000014,0.0663712582043718,0.0848892084337384,0.2696975081404537
3.1099999999999923,0.0666739011798596,0.0874340958137541,0.2578038063827662
3.119999999999997,0.060027036864453,0.0861070740526119,0.2478519379010239
3.1300000000000026,0.0485164961874348,0.0720818247515947,0.2447163624514463
3.139999999999993,0.0370230632034163,0.0616524601714608,0.2374317253159535
3.1499999999999986,0.0391937983252508,0.0551532169219246,0.2298236316482089
3.160000000000004,0.0414252113668398,0.050360569011973,0.2238977774256647
3.1699999999999946,0.0498049828753886,0.0529322000249396,0.2151543559963724
3.18,0.0619258493556942,0.0566802168343941,0.2031151245749552
3.190000000000005,0.0606155835301284,0.0585084643105215,0.1969509694074576
3.199999999999996,0.0640058220613646,0.058805446213432,0.1875545753221489
3.210000000000001,0.0492617446323568,0.0609640420545701,0.1764258336653729
3.219999999999992,0.036109299408368,0.0589513566039631,0.1670319403162452
3.229999999999997,0.0303109071563595,0.0600019082585657,0.1581753184501718
3.240000000000002,0.0223714490064884,0.059193523640308,0.1537972110013062
3.249999999999993,0.0369948428398846,0.0591627499566296,0.1485471453177672
3.259999999999998,0.0378500229017115,0.0661784666797858,0.1457031259653252
3.270000000000003,0.0365395162576164,0.0654726009794752,0.1420893324304638
3.279999999999994,0.0199741668275542,0.0746783736413942,0.1382227700148176
3.289999999999999,0.0080639396193125,0.0872362505296243,0.1469945087151894
3.3000000000000043,0.0101904928322223,0.0814592110062827,0.1505591999049817
3.309999999999995,0.0143963628581251,0.0839633337177031,0.1508314387799454
3.3200000000000003,0.0244745923371906,0.0862596367983623,0.1604572831326556
3.3300000000000054,0.0404082263102866,0.1050158397166176,0.166276482683296
3.3399999999999963,0.0370371104184912,0.1048957449601027,0.1649661509384359
3.3500000000000014,0.0372853853724063,0.1107306440377911,0.1636286143151798
3.3599999999999923,0.0253455064667591,0.1144132238910854,0.1563322207826029
3.369999999999997,0.0124952902878627,0.1203593798551914,0.1437650851981459
3.3800000000000026,0.0122396985447587,0.1285768197552297,0.1462854919108615
3.389999999999993,0.0058310955588332,0.1266779634060362,0.1430744843539797
3.3999999999999986,0.0132840350294737,0.1343079122074783,0.140618748786358
3.410000000000004,0.0157229026569837,0.1564881606956842,0.1373872095447837
3.4199999999999946,0.029607055127156,0.1658426402917865,0.1392379041799656
3.43,0.0353276618048339,0.1756580624051145,0.1392516536056362
3.440000000000005,0.0326828481173573,0.1872476592258898,0.1314212392568637
3.449999999999996,0.0297345866033396,0.1932405104927507,0.1236318360041171
3.460000000000001,0.0134168324117609,0.1891972212123795,0.1258008141635333
3.469999999999992,-0.0227713182404649,0.1902677620245668,0.1323466301738064
3.479999999999997,-0.0515979070476562,0.1881133000485076,0.1326686140539184
3.490000000000002,-0.0719446922509924,0.1917990643216721,0.1367063739624181
3.499999999999993,-0.0859293284058127,0.1976283210742795,0.1327822093755165
3.509999999999998,-0.0871570761576912,0.191847174535539,0.1290375306637928
3.520000000000003,-0.0906841739085266,0.1938240468680632,0.1200838892338614
3.529999999999994,-0.0962722911083932,0.1865317641350898,0.1118612181837973
3.539999999999999,-0.0869198695081667,0.1895110635531626,0.1034022866276513
3.5500000000000043,-0.0570056152249236,0.1808391884120059,0.1057554417068787
3.559999999999995,-0.0451732641340354,0.1739426869244899,0.097990609555936
3.5700000000000003,-0.0377626086591846,0.1575894474007547,0.1097790474578641
3.5800000000000054,-0.0398198401742244,0.137052636014277,0.1126847908655505
3.5899999999999963,-0.0400643002827696,0.1296698878546637,0.118850606761708
3.6000000000000014,-0.0273828385247544,0.1072149981690203,0.1287321538767796
3.609999999999992,-0.0168250610720396,0.0987073571260799,0.1245949645795702
3.619999999999997,-0.0109274921621068,0.082658663845367,0.1207100302961195
3.6300000000000026,0.0033573968496441,0.0729795056188522,0.1139183411356639
3.6399999999999935,0.0169256527261217,0.058735337719856,0.1013154971373741
3.649999999999999,0.017371703924002,0.0337262210202478,0.0923574188417897
3.660000000000004,-0.0048020480992671,0.0099056504881338,0.0901515177893326
3.6699999999999946,-0.0343584584449416,-0.0215863938575319,0.094371938942373
3.68,-0.0604374746950351,-0.0518403534372035,0.0995658854443735
3.690000000000005,-0.063681232798275,-0.0750817100742576,0.0974373849200754
3.699999999999996,-0.0375708438496451,-0.085441447773111,0.088403596014918
3.710000000000001,-0.0125277226625125,-0.1158199835259108,0.0881353288212647
3.719999999999992,0.0180087901454049,-0.1230035765537522,0.0902742867291398
3.729999999999997,0.034514570593212,-0.1295924147315027,0.0838695633194673
3.740000000000002,0.0570490353027663,-0.1400480375218977,0.088189563231683
3.749999999999993,0.0548494209064879,-0.1592784839977913,0.088649014705834
3.759999999999998,0.0332256138824273,-0.1829192455117486,0.092632743125584
3.770000000000003,0.0133380985497574,-0.2007272052938884,0.0981820076937333
3.779999999999994,-0.0094382854138104,-0.2093356679616638,0.0945458882273974
3.789999999999999,-0.0181431172408759,-0.2206846465888263,0.0924644606918629
3.800000000000004,-0.0182136652229489,-0.2253759987776625,0.0805717366277236
3.809999999999995,-0.0087678483222408,-0.226167111195768,0.0651975148463811
3.82,0.023302028330586,-0.2256406579358728,0.0496081075769124
3.830000000000005,0.0522151508334545,-0.221699467026017,0.0432160140754911
3.839999999999996,0.0849238913693472,-0.2212918953694259,0.0439527507969874
3.8500000000000014,0.1236536103647932,-0.2228840612643561,0.0436630650088711
3.859999999999992,0.14672877527422,-0.218255017744244,0.0587126446248403
3.869999999999997,0.1747938777540454,-0.2181335041973201,0.0580070754508148
3.8800000000000026,0.186837992842258,-0.2226678006949533,0.0572967033079489
3.8899999999999935,0.186966194319425,-0.2150744995486775,0.0570854492297368
3.899999999999999,0.1754110269470403,-0.2102612282681306,0.0634366941335657
3.910000000000004,0.1611673258268214,-0.1996014267823764,0.0675065746806362
3.9199999999999946,0.1441958140536316,-0.1949287268172574,0.0581086379024105
3.93,0.125968558809508,-0.1876460994771756,0.0606556914735643
3.940000000000005,0.1138703532167798,-0.1834288929977381,0.0577865852044116
3.949999999999996,0.0684137358589078,-0.176659726939423,0.0517490797743748
3.960000000000001,0.0430183174356487,-0.1744972762615269,0.0551414460186391
3.969999999999992,0.0417728275962175,-0.1656156624279643,0.05917639933165
3.979999999999997,0.0493533296756654,-0.1480791429538613,0.0578478584104909
3.990000000000002,0.0696761607454862,-0.1365237242454486,0.0595349612490272
3.999999999999993,0.0645658639440899,-0.115482315342899,0.0535441955209875
4.009999999999998,0.0603893476826403,-0.0917851811559204,0.0511572366498673
4.020000000000003,0.0588342132711874,-0.0761487616795566,0.0659926691661718
4.029999999999994,0.0721386817553067,-0.0575474331965054,0.0722077241783744
4.039999999999999,0.1116249378022049,-0.0328067633751489,0.0866289492472718
4.050000000000004,0.1456825574648935,-0.0063755991324991,0.0884244106038308
4.059999999999995,0.1670687982281136,0.0219079523774318,0.0838220350114553
4.07,0.1716615247981149,0.0496219815424684,0.0726274485323915
4.080000000000005,0.1740418602765382,0.0729405534939879,0.0655800581754375
4.089999999999996,0.1555370116527358,0.0860876443394857,0.0626143118917122
4.100000000000001,0.1262799387386137,0.1032695320489133,0.0541073301826144
4.109999999999992,0.1263820581901487,0.122069970499068,0.0426989844638842
4.119999999999997,0.1122334917616196,0.1267326424638855,0.0407184969652736
4.130000000000003,0.1050970037072498,0.1397952004453924,0.0447053476480667
4.1399999999999935,0.0944159322272198,0.1536842702761015,0.0428636553120961
4.149999999999999,0.0921282531897194,0.1532867321793531,0.0484449901888439
4.160000000000004,0.1055920428535316,0.1663562039244223,0.0505508920500245
4.169999999999995,0.1313751621890389,0.1765846487446146,0.0463959577010724
4.18,0.1573158629349433,0.1861635494708932,0.0540114161943124
4.190000000000005,0.1692762141598887,0.1913220347988511,0.0533535526264055
4.199999999999996,0.1491001864390979,0.1790665117368743,0.0527966856851263
4.210000000000001,0.1255599904961802,0.166106763683093,0.0679504501120897
4.219999999999992,0.1081614998228099,0.1483446494291389,0.0778085835324953
4.229999999999997,0.0896022738781055,0.1423876149794655,0.0855515666622049
4.240000000000002,0.0801749325789312,0.1391851702922867,0.0907287935528922
4.249999999999993,0.0606223246214497,0.1292131063576852,0.1000564849661006
4.259999999999998,0.0457179931958244,0.114274344664248,0.0876802862638148
4.270000000000003,0.0234872966739494,0.1056721830717809,0.0706750696517744
4.279999999999994,0.0144104982995706,0.0836547621615453,0.0659836931574098
4.289999999999999,0.0121411848054223,0.0601299076481392,0.0488538418822604
4.300000000000004,0.0224509915542742,0.0420968631318253,0.0434575712964619
4.309999999999995,0.0351711730606328,0.0251415724740787,0.0288251968432526
4.32,0.0634030987169102,0.0176698864168499,0.0092606026218649
4.330000000000005,0.1059312716252907,-0.0024637259172324,-0.009965550917156
4.339999999999996,0.1365584715037539,-0.0159994548615819,-0.0219237345532467
4.350000000000001,0.1629075174285082,-0.0385546511851059,-0.038797830636518
4.359999999999992,0.1620394408164646,-0.0513965788390596,-0.0551630532701578
4.369999999999997,0.1789227962965733,-0.068751747368411,-0.0711713801297803
4.380000000000003,0.1885046151487943,-0.0763695059508256,-0.0880890358907389
4.3899999999999935,0.1813070522698445,-0.0834401583681563,-0.1053384161038055
4.399999999999999,0.1530452597381781,-0.0966783138838835,-0.1274699386875131
4.410000000000004,0.1281648942310124,-0.1062333178643218,-0.1394648803114166
4.419999999999995,0.1008063264929102,-0.1044196309930671,-0.1606469325097134
4.43,0.0775841540957087,-0.094558020217323,-0.1846780045505936
4.440000000000005,0.0636895044227725,-0.100666192415598,-0.1998213185818376
4.449999999999996,0.0457873360525706,-0.0910162078518732,-0.2110279392193211
4.460000000000001,0.0274171026000918,-0.0829489831647394,-0.2185982347709464
4.469999999999992,0.0161457887773017,-0.0681834114427253,-0.2240007465312843
4.479999999999997,0.0289257749324532,-0.0608046705259555,-0.223559894080462
4.490000000000002,0.0383177113018193,-0.0472781661682928,-0.2233935023474103
4.499999999999993,0.0761297706128929,-0.028138010256535,-0.2344459433187739
4.509999999999998,0.1157061859315333,-0.012742797436291,-0.2398263650214912
4.520000000000003,0.1361247311179513,-0.0059107983440882,-0.2368842662098677
4.529999999999994,0.1596519180731011,-0.0052893848849313,-0.2222419826131315
4.539999999999999,0.161469996421708,-0.0038712073227152,-0.2080693347221934
4.550000000000004,0.1375799198453368,-0.005427908050508,-0.1862776006852068
4.559999999999995,0.1124296132903718,-0.0062978439378162,-0.1643364056817011
4.57,0.0805679184639237,-0.0103816789682088,-0.1476282346733981
4.580000000000005,0.0569194242539831,-0.011922381475645,-0.1376774376530354
4.589999999999996,0.0324916250181901,-0.0179898849484186,-0.1326208200334414
4.600000000000001,-0.0084639999213894,-0.0381831038634522,-0.1176659133578261
4.609999999999992,-0.0485572048694471,-0.0451600653489931,-0.1054594993023664
4.619999999999997,-0.0796608270916925,-0.0594351471097799,-0.0908188890310414
4.630000000000003,-0.1016068719705219,-0.0734260617551516,-0.0695214665737301
4.6399999999999935,-0.1152135062659716,-0.0867279051234249,-0.0603965918345853
4.649999999999999,-0.1009062703201937,-0.1000489744491068,-0.0483382766571376
4.660000000000004,-0.0936793823106759,-0.1049848191089506,-0.0525661589911297
4.669999999999995,-0.0953210918285793,-0.107137231901851,-0.0577249810081815
4.68,-0.10034151025248,-0.1096670425649993,-0.0663647790750836
4.690000000000005,-0.1099032481569051,-0.1193304787501568,-0.0692964045366697
4.699999999999996,-0.1036084778231469,-0.1351180726903784,-0.0670641259845306
4.710000000000001,-0.0780174705918213,-0.1527355889422222,-0.0767160324003717
4.719999999999992,-0.0706172652275673,-0.1533440984911556,-0.084233023525265
4.729999999999997,-0.0743673322579819,-0.1656968093976643,-0.0870464586060599
4.740000000000002,-0.0865062061316594,-0.173570742779024,-0.0902896604235667
4.749999999999993,-0.0812815476680738,-0.1723095398916973,-0.0967506923040701
4.759999999999998,-0.0739192462897502,-0.1621984947298191,-0.1114482545560067
4.770000000000003,-0.0605930054411864,-0.1523773368175517,-0.1214698609624009
4.779999999999994,-0.0549812474276515,-0.1390262759688471,-0.1245148960465766
4.789999999999999,-0.0733989852946443,-0.122573892081166,-0.1154808964634648
4.800000000000004,-0.0916021856764188,-0.1093615258348173,-0.0816608543013796
4.809999999999995,-0.1197688043057139,-0.0878835082388505,-0.0480384689572406
4.82,-0.1117567691419908,-0.0601002949924879,-0.0080775744379355
4.830000000000005,-0.10705400260457,-0.035745351111694,0.0280642570799891
4.839999999999996,-0.1103311525542001,-0.015553985588603,0.0635305811863582
4.850000000000001,-0.1291944626069961,0.0038287462888874,0.0859621237852095
4.859999999999992,-0.1424828989290132,0.0125903867320253,0.1140044584404588
4.869999999999997,-0.144513113119955,0.0356959460211662,0.1471001484632385
4.880000000000003,-0.1551457786987807,0.0505864622000343,0.1714300219604743
4.8899999999999935,-0.1563874655768223,0.0642994846791201,0.188058686917713
4.899999999999999,-0.1612240239216821,0.0700520971004119,0.2202953172455856
4.910000000000004,-0.1685737685064975,0.0773812342652039,0.2459508948040582
4.919999999999995,-0.1830874505668639,0.1004739591439663,0.259818090357107
4.93,-0.1771497598156707,0.1164224122312754,0.2849524060283609
4.940000000000005,-0.1716783213218217,0.1270416190221378,0.3082258119673035
4.949999999999996,-0.1644159154990001,0.1522822298913421,0.3345079495475053
4.960000000000001,-0.1666613334177237,0.163961542279457,0.3574036647365292
4.969999999999992,-0.1934367913465631,0.1757971220161938,0.3690675403318726
4.979999999999997,-0.2133153586783413,0.1712520743216067,0.3768090629637313
4.990000000000002,-0.2138475078923604,0.1541349565159196,0.3772537039289857
4.999999999999993,-0.1887819491916837,0.1226853517742205,0.377839775790307
5.009999999999998,-0.1644574374140797,0.0767068324407184,0.3755128511942206
5.020000000000003,-0.1422909823264377,0.017350301750951,0.3717702394742863
5.029999999999994,-0.1396998151244288,-0.0576936353316867,0.3722103325690113
5.039999999999999,-0.1520862807536179,-0.110705745310449,0.3818716677913992
5.050000000000004,-0.178328515514155,-0.1489958613305021,0.3930094379176622
5.059999999999995,-0.2039672542095295,-0.174440747215156,0.4030269003023983
5.07,-0.2070598935468024,-0.1896991453826414,0.4126348523848069
5.080000000000005,-0.2064599381192827,-0.2130683357105608,0.4106839557093288
5.089999999999996,-0.1965371124395364,-0.2432811089684226,0.4024687862001705
5.100000000000001,-0.2050133122875591,-0.2632218406194306,0.3871125710720384
5.109999999999992,-0.2368651734340042,-0.2934754509628199,0.3675381344670498
5.119999999999997,-0.2773482679971057,-0.3160982006458532,0.3689362005740108
5.130000000000003,-0.3240728152541928,-0.3472511906727108,0.3521470395007302
5.1399999999999935,-0.3558429758534818,-0.4006783040525166,0.3504140203618885
5.149999999999999,-0.3440601283494889,-0.4704969572940294,0.3586553751622284
5.160000000000004,-0.2892572686901506,-0.5192833140445544,0.3583245392551509
5.169999999999995,-0.2229076975613086,-0.5272931820444512,0.3655732218919203
5.18,-0.1991306410268192,-0.5169985190080334,0.3568438105269759
5.190000000000005,-0.2036055149068146,-0.4938329560915106,0.353073080506164
5.199999999999996,-0.1987385767696776,-0.4807158542004132,0.3558829820758028
5.210000000000001,-0.1764132289174187,-0.4349418366133848,0.3472103906324107
5.219999999999992,-0.1421411525652268,-0.3853831570839918,0.3529529575674544
5.229999999999997,-0.0980416018616915,-0.3080958385011272,0.3569257488851879
5.240000000000002,-0.0584917285769421,-0.2413902350257815,0.3855439387169362
5.249999999999993,-0.0018643184825469,-0.2049469073008989,0.4188500183774445
5.259999999999998,0.0329013048034579,-0.1643511961230555,0.464142124759465
5.270000000000003,0.0437260238461607,-0.1424965384293533,0.5107251941290419
5.279999999999994,0.0197297810117165,-0.1203193012606332,0.5406151069698107
5.289999999999999,-0.018801564558922,-0.0982144334543253,0.5771821312843863
5.300000000000004,-0.0547879476919667,-0.0719516474472999,0.598734137974947
5.309999999999995,-0.0988402358201068,-0.0420990792821377,0.6155647611304486
5.32,-0.1358145758109536,-0.0248682252893548,0.6144741610475101
5.330000000000005,-0.1622891885221142,0.0008408481183891,0.6138391402905765
5.339999999999996,-0.1892314617919492,0.0123673780536133,0.610101156294161
5.350000000000001,-0.2215350304293165,0.0108827359482276,0.6042246693582155
5.359999999999992,-0.2380759148567951,0.0107449256160619,0.6112071558048301
5.369999999999997,-0.2453619450370534,-0.0049504399728513,0.6108388510713783
5.380000000000003,-0.2437144381074384,-0.008765788888019,0.6110340614027202
5.3899999999999935,-0.2257127548833125,-0.012183238116159,0.5956821459785013
5.399999999999999,-0.2047363152229876,-0.0137410018220882,0.5825007861164778
5.410000000000004,-0.1891103887628666,0.0003606009858163,0.5579591759058243
5.419999999999995,-0.1885839117476098,0.0208416401021155,0.529585059757243
5.43,-0.1987758028320206,0.026770706449057,0.5089642820624424
5.440000000000005,-0.2128239897282766,0.0373232311984293,0.484909462675605
5.449999999999996,-0.1851977282797718,0.0434422522305833,0.4680277895990067
5.460000000000001,-0.1442951388413808,0.0284028198477702,0.4582180420565769
5.469999999999992,-0.0819070644410568,0.0216231152967676,0.4496151416217033
5.479999999999997,-0.0210877701879002,0.0193471234967989,0.4465280915455271
5.490000000000002,0.0260510298858191,0.0192929050719169,0.43735932884006
5.499999999999993,0.0425798313656085,0.0209196272810397,0.4208638426148231
5.509999999999998,0.0537625836816011,0.0366578903972181,0.4059975203381937
5.520000000000003,0.0679804507296561,0.0600577471035784,0.3960990730288375
5.529999999999994,0.0767127350691616,0.0845327399651911,0.3888627692999309
5.539999999999999,0.0846429470738589,0.1166398520539524,0.3832224447270783
5.550000000000004,0.0818675340695899,0.137583859761283,0.3810770022801718
5.559999999999995,0.067932787147896,0.1562721518573015,0.3871655585068798
5.57,0.0154442261120643,0.1857736537320579,0.383685277213052
5.580000000000005,-0.0496952761328239,0.2074402303503689,0.3738572543015661
5.589999999999996,-0.1234184296917492,0.2216557973951802,0.3691776829679729
5.600000000000001,-0.1841444881887134,0.233501647367301,0.373859100553108
5.609999999999992,-0.2343429274263236,0.2413005982995682,0.3720168749737228
5.619999999999997,-0.2833837473907895,0.2491107132166157,0.3590379429500066
5.630000000000003,-0.3294986651118228,0.2517710613467013,0.3563594967475945
5.6399999999999935,-0.4264920584261646,0.2381021906353007,0.3678364942305016
5.649999999999999,-0.5998929739659862,0.216175311798313,0.3946238795042157
5.660000000000004,-0.803718727612359,0.2083120220350881,0.4180460763637039
5.669999999999995,-0.967959663502464,0.1840835059559879,0.4479851914202054
5.68,-1.0821801557742197,0.1665930127097727,0.4835183734985117
5.690000000000005,-1.1403940367605812,0.1591914398969779,0.5037374883973627
5.699999999999996,-1.1365690498725451,0.1385197419282275,0.5301731507371183
5.710000000000001,-1.0773557242845584,0.129796040095005,0.5600072836264675
5.719999999999992,-0.959850762398293,0.1189870844345949,0.5742572517824802
5.729999999999997,-0.7919929262780445,0.0983396047398696,0.5777995582464205
5.740000000000002,-0.5916812695438677,0.0858962840084304,0.5706894809784899
5.749999999999993,-0.3628436129712706,0.0621423144055837,0.5481856315933801
5.759999999999998,-0.1272390797917173,0.045226711464999,0.5059769785713064
5.770000000000003,0.1192379795185948,0.0262072156189293,0.4570668807597695
5.779999999999994,0.3475213080081442,0.0058247882075994,0.400210137681265
5.789999999999999,0.5423105988939124,-0.0020548921513519,0.3274889604511562
5.800000000000004,0.6777386948803269,-0.0235079436843208,0.2512247795189203
5.809999999999995,0.7630902306082917,-0.0363420220070265,0.1814900913416426
5.82,0.8165469759256102,-0.0459870831357345,0.1104759242817916
5.830000000000005,0.8186947963570843,-0.0681200142797418,0.0431046863512868
5.839999999999996,0.7961578544564927,-0.0713481881555587,-0.0013433482386283
5.850000000000001,0.7510250940339294,-0.085495907947189,-0.0416585501733194
5.859999999999992,0.6765963632050039,-0.0995231383322633,-0.0552917941891319
5.869999999999997,0.5845262085898985,-0.1258603887493272,-0.0435368058113988
5.880000000000003,0.4783852541895427,-0.1388537192190153,-0.0338238225235058
5.8899999999999935,0.3549235897114883,-0.1438184056754509,-0.0214279021405027
5.899999999999999,0.2180126574243425,-0.1598903937245616,0.0124626969748293
5.910000000000004,0.0774302884983125,-0.1693877741331096,0.0438679110956806
5.919999999999995,-0.0460775222122783,-0.1662934831112239,0.0584767314545737
5.93,-0.1481186307006525,-0.1753227325699332,0.0880472297689262
5.940000000000005,-0.2151884252026238,-0.1935238805937641,0.1206881172151459
5.949999999999996,-0.2659634854291888,-0.2109937217243575,0.1478013694352797
5.960000000000001,-0.2884451222966361,-0.2383789683013586,0.1884942718043504
5.969999999999992,-0.2939272097874216,-0.2648480110213647,0.2194025435221545
5.979999999999997,-0.3020989386894978,-0.2854237155274436,0.2512831552668369
5.990000000000002,-0.285683970829847,-0.3015328888049052,0.2788206922555246
5.999999999999993,-0.2623176843266486,-0.3175097238608171,0.2906215443145114
6.009999999999998,-0.2119007847435851,-0.3291675743453368,0.3008985797846942
6.020000000000003,-0.1609749070234276,-0.3279135584524129,0.294375384938757
6.029999999999994,-0.1148497916971457,-0.3034295356801182,0.2904776457386726
6.039999999999999,-0.0713955579176743,-0.2790721075058424,0.2761066636744885
6.050000000000004,-0.0344354633531209,-0.2482851755852177,0.2632291120814739
6.059999999999995,-0.0044064806165528,-0.2090804931273851,0.2491563827933444
6.07,0.0094739225412641,-0.1650268020022388,0.2347587365278308
6.080000000000005,0.0286102557545769,-0.1267116162742378,0.2228903506187531
6.089999999999996,0.0414006924211205,-0.0900078609337884,0.2089050219996052
6.100000000000001,0.0550531700911953,-0.0728177900838738,0.2064895163671548
6.109999999999992,0.0669126547397407,-0.0660871376670589,0.2102736120302319
6.119999999999997,0.0546905761700563,-0.0680633687387195,0.2174601175463684
6.130000000000003,0.0346438493394581,-0.0853271821874706,0.2336853477721263
6.1399999999999935,0.004593246571401,-0.0929359951039476,0.2394745259514008
6.149999999999999,-0.0288039856458453,-0.110823422278878,0.2529723034072818
6.160000000000004,-0.060434586114922,-0.1193988355848665,0.2766718181479587
6.169999999999995,-0.0721532123934694,-0.1274865977663401,0.302230007031098
6.18,-0.0837894365403004,-0.1290062928909245,0.3228947188759551
6.190000000000005,-0.0923886681543994,-0.1253913622174012,0.354297887280739
6.199999999999996,-0.0945202918527276,-0.1263881411278835,0.3866784686472419
6.210000000000001,-0.11915591363531,-0.128564801879319,0.4173923965244119
6.219999999999992,-0.1507002556187458,-0.1278523812211373,0.4565804214421688
6.229999999999997,-0.1953232438509786,-0.1144824845642543,0.4849732858920583
6.240000000000002,-0.238218153214365,-0.1043310440185452,0.5133286857324294
6.249999999999993,-0.2609012939122682,-0.0902301967013762,0.5271208191864799
6.259999999999998,-0.2620085141101973,-0.0856397476895804,0.5591798413817879
6.270000000000003,-0.2412876540014185,-0.0981444590245689,0.5870295208406965
6.279999999999994,-0.2249698929175715,-0.1116560939703458,0.6027107983349603
6.289999999999999,-0.2155065855306031,-0.1244049907264285,0.6129121909615078
6.300000000000004,-0.2148688730729044,-0.1037257371661468,0.6102611564071695
6.309999999999995,-0.2146221251104428,-0.0636981811762254,0.6013176684808182
6.32,-0.2095535628986694,-0.0334632415956971,0.5875193956307296
6.330000000000005,-0.1829284821534427,-0.0155697927965157,0.5726819429904951
6.339999999999996,-0.1418823840329596,-0.0005229050216909,0.5555055372084841
6.350000000000001,-0.0838773676769415,0.0025732777289258,0.5418486482697055
6.359999999999992,-0.0364645382798782,-0.0066887928664027,0.5324696195673047
6.369999999999997,0.002490562805958,-0.0108855836313081,0.519853555979874
6.380000000000003,0.0224419029907254,-0.0266657988748881,0.507131086906406
6.3899999999999935,0.0176860547264378,-0.0366577877932121,0.4965000844268242
6.399999999999999,0.0127670811031147,-0.0537159732187682,0.4921990361604242
6.410000000000004,0.0121916879867312,-0.0675986047337673,0.492072075248783
6.419999999999995,0.0064979910544695,-0.0963857153588083,0.5013658659607498
6.43,0.0129183157545139,-0.1154642583027581,0.5126168546198617
6.440000000000005,-0.0033705285624128,-0.1298926995473922,0.5264319997678678
6.449999999999996,-0.0323227098838117,-0.1203421585256967,0.5465926655703722
6.460000000000001,-0.0673616962247024,-0.0944391744143533,0.5674123066538751
6.469999999999992,-0.116290481606513,-0.0526008455741496,0.5805912934086861
6.479999999999997,-0.1286669793362228,-0.0133799864386867,0.5887456553632303
6.490000000000002,-0.1078947603746013,0.0240386169450524,0.587941383290879
6.499999999999993,-0.0665610515986652,0.0497155219903224,0.5971038094488661
6.509999999999998,-0.0093920914215646,0.0768056782339894,0.5974967642574777
6.520000000000003,0.0500647729883609,0.1021301506864427,0.5959658379744441
6.529999999999994,0.1140815429075025,0.1173334359510929,0.5919085832692671
6.539999999999999,0.160587135277511,0.1265319797231109,0.587738237189028
6.550000000000004,0.1868808925342528,0.1203683004746265,0.5862833495417078
6.559999999999995,0.200238968859691,0.1206421083549093,0.5881288820446272
6.57,0.204732877929321,0.1109130145901456,0.5958916065145176
6.580000000000005,0.210524677144046,0.1075371120236482,0.6100430603578095
6.589999999999996,0.2087681926117605,0.097793038133579,0.6371964697341965
6.600000000000001,0.2274008450486431,0.0885234319173248,0.6562422186188228
6.609999999999992,0.2495506153079009,0.0661884323516339,0.6795291857618669
6.619999999999997,0.2724001972907286,0.0390671777247139,0.6951908505341495
6.630000000000003,0.3063728011847325,0.0125724900516933,0.7188709583197292
6.6399999999999935,0.3402241481012555,-0.0166247101655534,0.7411383349105495
6.649999999999999,0.3722111508590155,-0.0467628527982,0.7669072150257744
6.660000000000004,0.405934762969162,-0.0599552318440998,0.784138756877086
6.669999999999995,0.4341849513629118,-0.0573346028073079,0.795511746328452
6.68,0.4500344686798171,-0.0625157613883745,0.798025734018047
6.690000000000005,0.4624443899838913,-0.0502608350256683,0.7981560761179903
6.699999999999996,0.4762000158248462,-0.0465434713343058,0.8076470519437582
6.710000000000001,0.4814762593234081,-0.042494705254842,0.8129587993790524
6.719999999999992,0.4774112095379544,-0.0471219733511988,0.8165286645285347
6.729999999999997,0.4608682027313538,-0.066434982224776,0.8123585312058587
6.740000000000002,0.4561450818316387,-0.0762180717164913,0.8175500283281899
6.749999999999993,0.4366030166754678,-0.0720515979371527,0.8034014710011782
6.759999999999998,0.4230177271911386,-0.0702189696113919,0.7881475773860153
6.770000000000003,0.4083905701157506,-0.0596564101992018,0.7589920494987634
6.779999999999994,0.3881993484800508,-0.061995376291056,0.7418463820963862
6.789999999999999,0.3701835383136873,-0.0569829753918678,0.7332522611024229
6.800000000000004,0.3361636714896071,-0.0803647965331079,0.7390362963221693
6.809999999999995,0.288355781596843,-0.1282095667564331,0.7619572801895121
6.82,0.2258666550458025,-0.1687560012875767,0.7690113801497694
6.830000000000005,0.1614051799206744,-0.2148847136772168,0.7722714025194506
6.839999999999996,0.1037775019377442,-0.232128581866938,0.764441690770352
6.850000000000001,0.0542639194098859,-0.227957582435302,0.7404016250295886
6.859999999999992,0.0392811170959481,-0.2077351393355795,0.6989165074060746
6.869999999999997,0.0424718747222459,-0.1858133768540044,0.6638473985232548
6.880000000000003,0.0390730837467351,-0.1657268820072791,0.6277086688218676
6.8899999999999935,0.0301125701013948,-0.1452567903379144,0.6068566648310957
6.899999999999999,0.0124513010501425,-0.1227494468083178,0.5853786861613925
6.910000000000004,-0.0206785876860955,-0.0926294580707809,0.5508847470451524
6.919999999999995,-0.0530033318190957,-0.0498582045940644,0.5177756535245674
6.93,-0.1057751574605365,-0.0222424138308107,0.4929908941206369
6.940000000000005,-0.1477500529488448,0.0136660964117458,0.4536521777139366
6.949999999999996,-0.2168837504717238,0.04074219632227,0.4281634481615904
6.960000000000001,-0.2806395531547372,0.0488387849500535,0.4182001925403531
6.969999999999992,-0.338879680292646,0.068693664496455,0.4040773082741387
6.979999999999997,-0.3714864940101885,0.0785359062828833,0.3981612085598439
6.990000000000002,-0.3684499371191919,0.088963219411852,0.3912741268130058
6.999999999999993,-0.3622961383784945,0.0997290409724424,0.3852091601478575
7.009999999999998,-0.3478863843841066,0.0894169263588138,0.388848994640293
7.020000000000003,-0.3360089179081632,0.0844679076115396,0.3954227652706492
7.029999999999994,-0.3061596125382462,0.0970042068321124,0.410816749831466
7.039999999999999,-0.2763297280025174,0.0961944696775764,0.4200247488470834
7.050000000000004,-0.2535901254326819,0.0834606446481059,0.4408447942552572
7.059999999999995,-0.2489925982860353,0.0683891132906917,0.4741876109008498
7.07,-0.2464725646661928,0.0620025780496445,0.4934238713928002
7.080000000000005,-0.2382480871312303,0.0652861454402174,0.5080674250447179
7.089999999999996,-0.2106499898919084,0.0763574382468916,0.5104387187754131
7.100000000000001,-0.1708519062486748,0.0900036243309547,0.503845388278088
7.109999999999992,-0.1181192140070084,0.0998084701097658,0.4953167825886047
7.119999999999997,-0.0539088275936826,0.0919337440777806,0.4812462537851995
7.130000000000003,0.0133599009971765,0.0978080877759473,0.460416899589128
7.1399999999999935,0.072005651096352,0.1166621780951926,0.430649889719555
7.149999999999999,0.1200466546821206,0.1160556178184627,0.4001247466220294
7.160000000000004,0.1718725753248961,0.1187268798547005,0.365417966144805
7.169999999999995,0.2136408933363231,0.1401775435306935,0.3386044535102936
7.18,0.2431743159849037,0.1574928041434799,0.2997971872258766
7.190000000000005,0.2649008134607069,0.1787630582052264,0.2520446460279421
7.199999999999996,0.3025856213261286,0.2085002859500866,0.1901328874530292
7.210000000000001,0.3487143981130243,0.2224917871031677,0.1045366348342587
7.219999999999992,0.3945144917196442,0.2222821514622878,0.0185403097668193
7.229999999999997,0.4202038866374698,0.2426524570107996,-0.0544898839730296
7.240000000000002,0.4423859147252006,0.2628470772322248,-0.1167550649001115
7.249999999999993,0.4440059834742907,0.2650050703192495,-0.165363591447579
7.259999999999998,0.4158264712839469,0.2474353571736713,-0.2104436368191754
7.270000000000003,0.3833551376103504,0.2267181998984478,-0.2177049996329145
7.279999999999994,0.3311161080584265,0.1934886015254039,-0.2119895168087172
7.289999999999999,0.2741694632893725,0.1639808292807687,-0.2212750737689207
7.300000000000004,0.2117928503631402,0.1813054532938224,-0.2006986923483389
7.309999999999995,0.1409703992770262,0.1723139949296288,-0.1971257256824227
7.32,0.0623157402664034,0.1377879640969928,-0.189702227153619
7.330000000000005,-0.0083099497722291,0.1117108708593724,-0.1663549201277516
7.339999999999996,-0.0938552350186879,0.0867822828986083,-0.1356756962532804
7.350000000000001,-0.1585660513547956,0.0636946524374338,-0.115199953674509
7.359999999999992,-0.2234082266580204,0.040226654874475,-0.093150164241511
7.369999999999997,-0.2772140589063094,0.013886800123153,-0.0852693009608701
7.380000000000003,-0.2961072122467225,-0.0168539655178857,-0.0717440932312712
7.3899999999999935,-0.2937168782272529,-0.0403686122350898,-0.0574970938048942
7.399999999999999,-0.2731566873159846,-0.0669948091074377,-0.0405608925449546
7.410000000000004,-0.2348261639374567,-0.0926831416825509,0.005549085971243
7.419999999999995,-0.1785133220337708,-0.1157066467582097,0.0354441128620143
7.43,-0.1099552257836928,-0.112928182866688,0.0412177131710018
7.440000000000005,-0.0379350362298269,-0.1007223388946645,0.0311168994322754
7.449999999999996,0.0416463436971404,-0.0923265962024768,0.0185929671695477
7.460000000000001,0.1133045614272391,-0.0865720461286588,0.0127101123357005
7.469999999999992,0.164142740271773,-0.0728179906508774,0.0086259247273614
7.479999999999997,0.194472608116285,-0.0560648755131149,-0.0005673002519687
7.490000000000002,0.2229504865904747,-0.0248575176761254,-0.0114302047120179
7.499999999999993,0.2344662154711176,-0.0038902958480272,-0.0201322892798122
7.509999999999998,0.2166992562455832,-0.0012084149336348,-0.024389245419073
7.520000000000003,0.2049828562330826,-0.0034683392664365,-0.0218441741852915
7.529999999999994,0.1804485702466066,-0.000401381189324,-0.0098641826725351
7.539999999999999,0.152590683567911,0.0047118992090124,-0.0049909413559116
7.550000000000004,0.111897767298459,0.0154971938241557,0.0005036303439498
7.559999999999995,0.0761835920885396,0.0272634871306471,0.0106904784360058
7.57,0.030221974408351,0.040197341937202,0.0163734188521917
7.580000000000005,-0.0104896453968331,0.0602731742085577,0.0164455280702021
7.589999999999996,-0.0448833946015455,0.0851739829620164,0.0130470892092234
7.600000000000001,-0.063965400333997,0.104450511238665,0.001991736434696
7.609999999999992,-0.0676396512836381,0.1276083041216431,-0.0058619070068012
7.619999999999997,-0.0793143057389131,0.1429841898377432,-0.0038982777422353
7.630000000000003,-0.0901528479753498,0.1574743909744703,-0.0002783831421364
7.6399999999999935,-0.0932724987412069,0.1632299082721168,0.0105770420998181
7.649999999999999,-0.1083916807606516,0.1596732956024959,0.0326098232290219
7.660000000000004,-0.1292254427134421,0.1482226204510429,0.0521244631412327
7.669999999999995,-0.1561500609272177,0.1346626662776623,0.0717746644721091
7.68,-0.1777511153501803,0.1328016094974012,0.0699722613222032
7.690000000000005,-0.1859638684737842,0.1261425736040075,0.0677531493906899
7.699999999999996,-0.1981961156826333,0.1332613323779296,0.0627157180841116
7.710000000000001,-0.2031170033130655,0.1429465697931386,0.0470609372190557
7.719999999999992,-0.1980595631537192,0.1727385077621393,0.0398562232198751
7.729999999999997,-0.2048872717415839,0.1901309638221014,0.0414020748516759
7.740000000000002,-0.2094614657081473,0.1879700517840413,0.0508922795904283
7.749999999999993,-0.2305974245074527,0.1678911273039112,0.0672239081197013
7.759999999999998,-0.2379644282817693,0.136007185346764,0.0934075747031855
7.770000000000003,-0.2381315741399024,0.1228761999452076,0.1156353520145593
7.779999999999994,-0.2468274227495421,0.1174761183075608,0.1174461076582362
7.789999999999999,-0.2464217708346694,0.1153001759684579,0.0993454054567828
7.800000000000004,-0.2745543118716636,0.1145069212131434,0.0851852387803712
7.809999999999995,-0.3219942217869811,0.1182456915567604,0.0617322699690221
7.82,-0.3753532345456448,0.1097702664135827,0.0443388494967732
7.830000000000005,-0.4164900134992668,0.0872338792039284,0.0256309018349758
7.839999999999996,-0.4415537613614465,0.0843040484271061,0.0141913582564703
7.850000000000001,-0.4534663343403144,0.087583573622627,-0.0010931661909473
7.859999999999992,-0.4351735616152972,0.0890235119869205,-0.0313626462928907
7.869999999999997,-0.4275364448981219,0.0994907815836059,-0.0521297141788465
7.880000000000003,-0.3856554749313228,0.130954952367886,-0.0649669984256652
7.8899999999999935,-0.3311929841904092,0.1779509143298643,-0.0740077660468483
7.899999999999999,-0.2487311328818622,0.2039764836248384,-0.0592158044463237
7.910000000000004,-0.1434658175592881,0.2127658525591362,-0.029953757906543
7.919999999999995,-0.043099791534141,0.205378913037251,0.0027988661248099
7.93,0.0598012928564754,0.1706895474097844,0.0475035154897827
7.940000000000005,0.173070902559617,0.1230665054712186,0.0837584812219532
7.949999999999996,0.3015288971097407,0.0925458735594443,0.1060070909296551
7.960000000000001,0.4328134684385587,0.1033295159637113,0.1090892860239969
7.969999999999992,0.5523344289710072,0.112722242980161,0.1006579399235854
7.979999999999997,0.6410060318238118,0.1012351706775005,0.1003127814736249
7.990000000000002,0.7278258760555936,0.0829273112675301,0.0985156212253639
7.999999999999993,0.7873995700530437,0.0522090554020517,0.0862430734010405
8.009999999999998,0.8301032996728253,0.0360915618044027,0.0607323764336397
8.020000000000003,0.8549421386885843,0.0195004049635929,0.0274911377407805
8.029999999999994,0.8530188934752365,-0.0102854487830306,-0.004303779116414
8.04,0.8288159541823279,-0.0424744846610486,-0.0269702279868222
8.050000000000004,0.7936200548132388,-0.0746121315413817,-0.0576074636395388
8.059999999999995,0.7391692499495154,-0.1191759493435675,-0.0639635766452896
8.07,0.6763666798760642,-0.172045319569473,-0.0760642178378214
8.080000000000005,0.6193812264288004,-0.2115499700721771,-0.1005481247986707
8.089999999999996,0.5462205815660883,-0.2536512752857015,-0.1187727644652563
8.100000000000001,0.475010120026817,-0.2714391223577429,-0.1469260252399812
8.109999999999992,0.4211779465475075,-0.2750640631424576,-0.1782957668704104
8.119999999999997,0.3633494705672211,-0.2635667455587056,-0.1931888668236382
8.130000000000003,0.2986863264286814,-0.2528784614628824,-0.2039819484843433
8.139999999999993,0.2369558599755778,-0.2394392360844249,-0.2122494335129806
8.149999999999999,0.1714645987969967,-0.2205351757864697,-0.2238012270207114
8.160000000000004,0.1046045028299221,-0.211184966210789,-0.2214089830646091
8.169999999999995,0.0478838045254141,-0.1920824280674588,-0.2111944592319503
8.18,-0.0200199207108242,-0.1664810849960945,-0.1920661313398566
8.190000000000005,-0.0932709115643537,-0.1444049802457274,-0.1799135233783902
8.199999999999996,-0.1493520978737211,-0.1189996160241724,-0.1715352210031537
8.21,-0.1946568067640535,-0.079340310065726,-0.1615367348146517
8.219999999999992,-0.227493038171095,-0.0467164838030305,-0.1625934170192177
8.229999999999997,-0.2548775644505149,-0.0141091310297055,-0.1566416092204679
8.240000000000002,-0.2652200595133492,0.0059940408940798,-0.1490640977195881
8.249999999999993,-0.2599400401331999,0.0191746634263613,-0.1595406621888624
8.259999999999998,-0.2525968254736734,0.0299079484109106,-0.1430433501620207
8.270000000000003,-0.2215897511146059,0.042677218248598,-0.1404990549147302
8.279999999999994,-0.1958738948314399,0.058771448004329,-0.1417355744685917
8.29,-0.1655887084072011,0.0743549016850537,-0.1333748992515003
8.300000000000004,-0.1204454802370495,0.1157273995287927,-0.1365908471881726
8.309999999999995,-0.0752599875997444,0.1420870627601565,-0.1369419361101592
8.32,-0.042669306761476,0.1620408283708162,-0.1326107079132194
8.330000000000005,-0.0125358346117029,0.1810527935613538,-0.1296438500018454
8.339999999999996,0.0147538136311796,0.1907516453110015,-0.1309393282341982
8.350000000000001,0.0428365904558199,0.1925739890553443,-0.1354385291150411
8.359999999999992,0.0799081904453265,0.1814616834197574,-0.1494220690801242
8.369999999999997,0.1162050113952047,0.1641488528886332,-0.1621966807517413
8.380000000000003,0.1499225298727803,0.1510296852160877,-0.1987170455347365
8.389999999999993,0.1955689840306058,0.1354305966118775,-0.2347490641956566
8.399999999999999,0.2318691256283375,0.1147303790101364,-0.2761516680012452
8.410000000000004,0.2485554091701687,0.1061538399025126,-0.3106025943720004
8.419999999999995,0.2617522102494926,0.0844898747547219,-0.3265939249044822
8.43,0.2561521131840391,0.0612416775797681,-0.3359560009888593
8.440000000000005,0.2404504385129424,0.0379200440656606,-0.3303015548454941
8.449999999999996,0.2195798721344667,0.0089769816397445,-0.3333210555525515
8.46,0.1835514633065431,-0.0056446399562095,-0.3447829217234865
8.469999999999992,0.1451221631307079,-0.0041842858960271,-0.3677772418221621
8.479999999999997,0.1032820662416492,-0.00996269016975,-0.401212256832363
8.490000000000002,0.0679254921005294,-0.0091840976367615,-0.4254709245491438
8.499999999999993,0.0406433841932612,-0.0176789164234083,-0.4356480159997801
8.509999999999998,-0.0007902161061995,-0.0419941338918231,-0.4383150793211461
8.520000000000003,-0.0549206953602295,-0.0701249052269065,-0.4327955398367778
8.529999999999994,-0.1043321880994538,-0.083343401927075,-0.4238164831751088
8.54,-0.1262543853105378,-0.0739084223174675,-0.4174472041784569
8.550000000000004,-0.1318786102049288,-0.0523211155272887,-0.4352426543995122
8.559999999999995,-0.1195957743810384,-0.0192591543888709,-0.4474456333786702
8.57,-0.0989664841570507,-0.0002559758549136,-0.4531268450985954
8.580000000000005,-0.076030928537779,-0.0038945559333784,-0.448496498522736
8.589999999999996,-0.0425819373740039,-0.027621487325092,-0.4339272282423448
8.600000000000001,-0.0174190886139548,-0.0618739394824485,-0.4239216575978195
8.609999999999992,0.0037759183677831,-0.1004466539737406,-0.409712704860718
8.619999999999997,0.0241873813689189,-0.1376542249201356,-0.4099801120678458
8.630000000000003,0.0525705651020566,-0.1572614785057844,-0.4154843093736298
8.639999999999993,0.0925670402212314,-0.1677177445628514,-0.4404944100629223
8.649999999999999,0.1564349011024892,-0.1465173021895576,-0.4683274226904698
8.660000000000004,0.2280004425774077,-0.1020412398597034,-0.490097175040868
8.669999999999995,0.2890061283997762,-0.0614093413861406,-0.5091134596851116
8.68,0.3179296711557175,-0.0444901934320283,-0.508038053261568
8.690000000000005,0.3039481724118279,-0.0560601652881945,-0.5056017932029108
8.699999999999996,0.2589416164983431,-0.0850577075150746,-0.5082771954182479
8.71,0.1836115614902261,-0.1328629507121035,-0.5018927461413791
8.719999999999992,0.110989781847347,-0.1856448428336359,-0.5144664281492675
8.729999999999997,0.0318715030120445,-0.2317523878348404,-0.5267521424298004
8.740000000000002,-0.0364434464138918,-0.2545717685102897,-0.5515676574479179
8.749999999999993,-0.0691122908630217,-0.2611067950267682,-0.5743624276171654
8.759999999999998,-0.0944231936738021,-0.2631305527981735,-0.5722319503490395
8.770000000000003,-0.1146814185290682,-0.2576603459519261,-0.5680286711985231
8.779999999999994,-0.1280737445302353,-0.2404423838255441,-0.5558614108385231
8.79,-0.1593081478244217,-0.2354837129016724,-0.5300294605912889
8.800000000000004,-0.1997157022583032,-0.2307616509881284,-0.4725404135294936
8.809999999999995,-0.2385694058876392,-0.2328050518294928,-0.3927545873711643
8.82,-0.2694746399321991,-0.2444036465142354,-0.2963057341384197
8.830000000000005,-0.2867412244114794,-0.2465885242645649,-0.2124677805501535
8.839999999999996,-0.2951799617615327,-0.2539778317118001,-0.1446314789966684
8.850000000000001,-0.3097170089795187,-0.2559389718570405,-0.0842501435444934
8.859999999999992,-0.3190214198885517,-0.2427784383954895,-0.0142934853302298
8.869999999999997,-0.3322287340012416,-0.2304487600059735,0.0673128323809553
8.880000000000003,-0.349557916214828,-0.1896622626027121,0.1437302750382892
8.889999999999993,-0.3521337703253487,-0.1476645299641895,0.2077442603567545
8.899999999999999,-0.3485536742832852,-0.1345651218154001,0.2594102975170793
8.910000000000004,-0.3360209796970742,-0.1278695210988279,0.3031789890311388
8.919999999999995,-0.3120611674575372,-0.1282539548783788,0.3200258324682193
8.93,-0.2891738328580934,-0.1250983586875999,0.3213339679240335
8.940000000000005,-0.2593860918147729,-0.1326352691940552,0.3152845244958295
8.949999999999996,-0.2341479854614263,-0.1419373731369701,0.2899446651370375
8.96,-0.2009467793503329,-0.1542472625607209,0.2746942156085533
8.969999999999992,-0.1577960990247113,-0.1698276555924178,0.2582281853888029
8.979999999999997,-0.1199850101049734,-0.1692283320267899,0.2357915463775195
8.990000000000002,-0.0789305973387309,-0.1796359667929696,0.2378252112149815
8.999999999999993,-0.0573800717695046,-0.2239516229152286,0.249971525244419
9.009999999999998,-0.0183619013083183,-0.2442984996783098,0.2377409713435713
9.020000000000003,0.0293056933972066,-0.2307926862117324,0.1928767779512014
9.029999999999994,0.0711205159126853,-0.2112183377567971,0.137404839042961
9.04,0.1062935696016246,-0.1740139931479634,0.0695765497047682
9.050000000000004,0.1305205038193178,-0.1105750814610354,-0.0185958378994605
9.059999999999995,0.1533334998407051,-0.0431540608189045,-0.1083831052305678
9.07,0.1635038647469652,0.0109398833046486,-0.1979466022089096
9.080000000000004,0.1751779800897171,0.036716598547546,-0.2775474549057419
9.089999999999996,0.18122555159989,0.0209238996447416,-0.3424930162855488
9.1,0.1838440539837751,-0.027215124581176,-0.3979262422274777
9.109999999999992,0.1732726628171036,-0.0944026861290755,-0.443195084938477
9.119999999999996,0.168576405531353,-0.1353770089602011,-0.4717293449851104
9.130000000000004,0.1660201477603753,-0.1562010366758693,-0.4955472761925529
9.139999999999992,0.1590013735515878,-0.1270915785956069,-0.5282638509921083
9.15,0.1329843373464,-0.050943664327124,-0.5598180266750908
9.160000000000004,0.0875856603181932,-0.0038533663238156,-0.5762831679571038
9.169999999999996,0.0584543711224076,0.007824750251111,-0.5761143220300713
9.18,0.0129384055574608,-0.0040454783125394,-0.5496555133821577
9.190000000000005,-0.0403703146354494,-0.0301658443629712,-0.5250044402738184
9.199999999999996,-0.1224938541536246,-0.0696274157780954,-0.4883726542151264
9.21,-0.2168948163426594,-0.1280132144433232,-0.4369483141631361
9.219999999999992,-0.2983133094068833,-0.1755582071213315,-0.4012223167786652
9.229999999999997,-0.3599567855000893,-0.1386499655453579,-0.3996767023860055
9.240000000000002,-0.4001663646364395,-0.0896557108811196,-0.4122285455660759
9.249999999999991,-0.3962694065662637,-0.0334045455164808,-0.4198406460029117
9.259999999999998,-0.3482458680226579,-0.0031027540448091,-0.4043420966785188
9.270000000000003,-0.2683327101306287,-0.0111532347692276,-0.3680877067780218
9.279999999999994,-0.1737280262013198,-0.0052831709981848,-0.3383233279207517
9.29,-0.0763009306462142,0.0032456892070225,-0.316535270138131
9.300000000000004,0.0203672402128711,0.0074762980499785,-0.3123755560832316
9.309999999999995,0.1210540879424031,0.0149970450234122,-0.304971244534764
9.32,0.2072895002189172,0.0095551857115022,-0.2727548669531338
9.330000000000004,0.2743956726142724,0.0067002786759751,-0.2387987549729333
9.339999999999996,0.3544676668350772,0.0247144516310169,-0.2165319788423703
9.35,0.4264821343590632,0.0535319322385895,-0.204567146123243
9.359999999999992,0.4917531227559383,0.079634863233487,-0.1826211418225398
9.369999999999996,0.5492021878118911,0.0870668200053043,-0.1561409250138269
9.380000000000004,0.5777309025765105,0.0962491704431793,-0.1405525102066272
9.389999999999992,0.5775619649519883,0.1196183298388881,-0.1420013622578179
9.4,0.5910004516922859,0.1336084377284832,-0.1874724203975549
9.410000000000004,0.5958492452723336,0.1160606791604122,-0.2210725979990125
9.419999999999996,0.558305014690946,0.1079521730708087,-0.2356247601053701
9.43,0.5012727139890525,0.1025904633277174,-0.2481386335567915
9.440000000000005,0.4436172762723355,0.0818537544715879,-0.2399435227314161
9.449999999999996,0.3536445224186387,0.0556814842583531,-0.2122025685267492
9.46,0.258581257694284,0.0262068619218179,-0.1554076162335594
9.469999999999992,0.1516345994034362,-0.0035259542905576,-0.1065854566065409
9.479999999999997,0.0203081312200217,-0.021740658469104,-0.0655837968985191
9.490000000000002,-0.0997179354992779,-0.0229326801896407,-0.0566736627672696
9.499999999999991,-0.1973683632453105,-0.0148406285273494,-0.07677892296007
9.509999999999998,-0.2580321834235347,0.0013158628787354,-0.085722260058491
9.520000000000003,-0.2935934075271222,0.0121834498517573,-0.0722175292263081
9.529999999999994,-0.3147535666086604,0.0213773580471543,-0.042000843409545
9.54,-0.3008612848282663,0.0390141705642977,-0.0236988745369864
9.550000000000004,-0.2466994041197984,0.060376194373049,-0.0393447034158072
9.559999999999995,-0.1736723614607173,0.0911563382909351,-0.0754951457532471
9.57,-0.1009877961930148,0.1039119025415428,-0.1167076338297286
9.580000000000004,-0.0156089695190201,0.1161987850146013,-0.1516812545039106
9.589999999999996,0.0520717025435051,0.1041456670451095,-0.1805441406969683
9.6,0.0993085544707062,0.0929173601239888,-0.1891627910151744
9.609999999999992,0.1337545375334407,0.0820655584790354,-0.1768932730600083
9.619999999999996,0.1495531454811459,0.0499469108545858,-0.1556534168341882
9.630000000000004,0.16284884547126,0.0320489434335805,-0.1365620192918251
9.639999999999992,0.1633647727811928,0.011339368253531,-0.1251925590073093
9.65,0.1691906164290867,0.0022084610477933,-0.1073854482973286
9.660000000000004,0.1627882931945463,-0.0154331873206368,-0.0802882167325559
9.669999999999996,0.1469709533800235,-0.0476922230530545,-0.0601066150714898
9.68,0.1119843823998088,-0.077717889451215,-0.0397416220077297
9.690000000000005,0.0562191319545438,-0.1011617433739523,-0.0320928583013071
9.699999999999996,-0.0134029256606529,-0.1165438505243289,-0.0293881650918434
9.71,-0.0791117214171998,-0.1264221679636933,-0.0173007230301346
9.719999999999992,-0.1165169214588004,-0.147929996889892,-0.012117894774392
9.729999999999997,-0.1243726112113594,-0.1684229696879281,-0.0146395498991363
9.740000000000002,-0.1105160598682119,-0.1797588277967731,-0.0263634313879702
9.749999999999991,-0.0667178978973581,-0.1458217809839246,-0.0533548958071049
9.759999999999998,-0.048860917141146,-0.1223241810420387,-0.0577592649907348
9.770000000000003,-0.049514945949227,-0.1070082492695837,-0.0582694975127552
9.779999999999994,-0.0557478499533281,-0.0959626361676852,-0.0592298648790324
9.79,-0.0679026488250293,-0.0985603823571543,-0.0518060020185551
9.800000000000004,-0.0769947972918747,-0.090186970771822,-0.0451008842786506
9.809999999999995,-0.176561161985341,-0.0105686956698833,-0.0503657514418207
9.82,-0.2765223887838548,0.0793073185564356,-0.0648062502759121
9.830000000000004,-0.2985788507614496,0.1269502098800774,-0.0561277814807105
9.839999999999996,-0.2615190131871475,0.1333474827201704,-0.0286184652967128
9.85,-0.2036131652209077,0.1455976383950872,0.0012938344057126
9.859999999999992,-0.1427247289850168,0.1552080415270608,0.0383399672643155
9.869999999999996,-0.0943274744202706,0.1324956724447642,0.0692266515645742
9.880000000000004,-0.0797480021424429,0.0948610070923407,0.1037811803384426
9.889999999999992,-0.0892773587505202,0.0420460636063889,0.1570956892429794
9.9,-0.0927329171772586,-0.0239706390877754,0.1883387009463997
9.910000000000004,-0.1093597579715402,-0.067348153485858,0.1959890327315077
9.919999999999996,-0.1261120912536299,-0.0797319818901924,0.1811875247935287
9.93,-0.2421486850484436,0.0089978287168561,0.1488817430640241
9.940000000000005,-0.4258658693911633,0.1325164283342458,0.114510449313751
9.949999999999996,-0.5583283010720521,0.1838154712674804,0.1098247308796744
9.96,-0.6554169663196515,0.2046429325690417,0.1093407845213682
9.969999999999992,-0.7126791453274606,0.1824440003999504,0.1215749813878572
9.979999999999997,-0.7637276715529762,0.1606383203092693,0.1356934945980887
9.990000000000002,-0.8046659662086348,0.1415228124830291,0.1402104965695888
9.999999999999991,-0.8272902601425741,0.1301387955284733,0.1480610917050563
10.009999999999998,-0.8218862175286372,0.1210027433645372,0.129318840550967
10.020000000000003,-0.7644930081907266,0.1063133673609633,0.1024685550391179
10.029999999999994,-0.6666976655028776,0.0827020599288348,0.0795765438529392
10.04,-0.5474558787528258,0.0464546664310132,0.0589290301498946
10.050000000000004,-0.4223710357204239,-0.0047884214569087,0.0428510583771809
10.059999999999995,-0.3261282565789054,-0.042854257337537,0.0469199077718025
10.07,-0.2610478230041165,-0.0456978138135798,0.043104384373167
10.080000000000004,-0.2245320838687837,-0.0640987328415329,0.0443011972168775
10.089999999999996,-0.1908777172689032,-0.0687030394708552,0.0465612825401618
10.1,-0.1594372847636296,-0.0653486754734725,0.0421487309724819
10.109999999999992,-0.1489787395210111,-0.0735142126067121,0.0376087856179463
10.119999999999996,-0.1667964942460216,-0.0862751610542809,0.0271553813452887
10.130000000000004,-0.2189991357001233,-0.0933839509232321,0.0122225428520515
10.139999999999992,-0.3032161361462046,-0.0986386327702474,0.0040952541035078
10.15,-0.412389833014653,-0.1136626637343857,-0.0055637134941593
10.160000000000004,-0.5270990362435843,-0.1297240730397721,-0.0065285134807715
10.169999999999996,-0.6328343925897297,-0.1396502793796228,-0.0217316350040503
10.18,-0.6746744170015845,-0.1145280136738436,0.0301017004405405
10.190000000000005,-0.7029571990581054,-0.1734734250775813,0.0205220432263682
10.199999999999996,-0.7614788294142498,-0.1899583994650028,-0.0779221297888765
10.21,-0.7300363112236152,-0.2015430840820679,-0.1164226058308124
10.219999999999992,-0.6461439660526572,-0.2480205856988441,-0.1574952091589694
10.229999999999997,-0.5441163846758114,-0.2819250183022006,-0.1820931417774232
10.240000000000002,-0.4311307279058453,-0.2902592470746397,-0.193952922866418
10.249999999999991,-0.2800803977605671,-0.2903324174709921,-0.170396820653616
10.259999999999998,-0.1150546469814547,-0.2839911134608023,-0.141392412187374
10.270000000000003,0.0158538867545707,-0.275013153921631,-0.0988579618144596
10.279999999999994,0.0688092278640913,-0.27851254768154,-0.0844801808898111
10.29,0.0589483786046704,-0.2555795824003498,-0.0763095250159488
10.300000000000004,0.0591216375846711,-0.2230886732354391,-0.0568766930516218
10.309999999999995,0.0881428640850738,-0.1788933652812442,-0.0426705982137856
10.32,0.1435042241266447,-0.1170716311833435,-0.0213357703745456
10.330000000000004,0.2327770693806297,-0.0677351305065533,0.0108254778422066
10.339999999999996,0.343440144322657,-0.0140676897160198,0.0560881132101124
10.35,0.449673069186024,0.0294304275458668,0.0975402760726506
10.359999999999992,0.5014334158175799,0.0659944205150088,0.1417085865677621
10.369999999999996,0.5184444818984151,0.0890703250895306,0.1785285495000671
10.380000000000004,0.530383367461893,0.1132393405486249,0.2098807397974021
10.389999999999992,0.5310031592039557,0.1386234306340485,0.2373991512292642
10.4,0.53962380516387,0.1547391026281996,0.2785312918341253
10.410000000000004,0.5534695110328564,0.1709138673633422,0.3265690700194159
10.419999999999996,0.5642753966583988,0.1896683419226106,0.362728453068683
10.43,0.5780112849119775,0.224272849746387,0.3934917308876771
10.440000000000005,0.5703692861619316,0.2391197112479968,0.4300426830024822
10.449999999999996,0.5277051619680246,0.2606966170439569,0.4659314164482007
10.46,0.4554177514461965,0.2805520049301421,0.4858505124414575
10.469999999999992,0.3424376961035006,0.296107580379614,0.5070090769087704
10.479999999999997,0.1970545861990947,0.2975464871784605,0.509029896342962
10.490000000000002,0.0205291600913266,0.2775444708760505,0.4929058072350232
10.499999999999991,-0.155370235056051,0.266714643885258,0.4652963249968525
10.509999999999998,-0.3126977723857952,0.271772157627929,0.4203976675886949
10.520000000000003,-0.4584790692881886,0.2856183854724073,0.3663091893413132
10.529999999999994,-0.5786919097280958,0.3016326875536019,0.3116456724445247
10.54,-0.683723799816006,0.3097052552335724,0.2698343209683465
10.550000000000004,-0.7713994679524667,0.3043128652299117,0.2434649058943759
10.559999999999995,-0.8222590377187445,0.280927034545741,0.2137161224959709
10.57,-0.8584973945861519,0.2465342082519621,0.2038945498051761
10.580000000000004,-0.8973844043572636,0.1901689288159321,0.2226090266322151
10.589999999999996,-0.8808844709231797,0.1451983506931478,0.2279717519080142
10.6,-0.794734657600874,0.1232625480236691,0.2323081065601756
10.609999999999992,-0.6219455652407245,0.1317830375573249,0.2238305803022651
10.619999999999996,-0.4154632177482587,0.1573285868517177,0.2017751734553907
10.630000000000004,-0.2226614089330902,0.1796139217282344,0.196897293070054
10.639999999999992,-0.0575859858669879,0.19469796490742,0.1971174203727914
10.65,0.0662963260637023,0.1979830870677522,0.1919491057963524
10.660000000000004,0.1465689058692017,0.2029839620759986,0.1710782602573116
10.669999999999996,0.1797582236372961,0.2125855865268742,0.1457714841354131
10.68,0.193936517568479,0.2329424350126177,0.0967904708177282
10.690000000000005,0.1721141806075836,0.2552232263992749,0.0298034111174809
10.699999999999996,0.1495182388670136,0.2830255209183203,-0.0397871785787631
10.71,0.1237119257339864,0.3038462265087431,-0.1242885985231751
10.719999999999992,0.1037695881799103,0.3156321169296363,-0.189591288148278
10.729999999999997,0.1007462809207216,0.3187621149363173,-0.2720698213557139
10.740000000000002,0.137498200214945,0.3211475441736378,-0.3509891602609087
10.749999999999991,0.2184721289915036,0.3119713332459625,-0.4154455173362721
10.759999999999998,0.2980298815868277,0.2797071778769558,-0.4571644560372108
10.770000000000003,0.3628844061493052,0.2309962220243211,-0.4937660375529533
10.779999999999994,0.4102280398064607,0.181541543965893,-0.5233857185795462
10.79,0.4168079579618922,0.1493097144494349,-0.5382550060337188
10.800000000000004,0.4022403298601367,0.1168877653672822,-0.5573292129876413
10.809999999999995,0.3517607581415806,0.0966944238834161,-0.5725190285101689
10.82,0.2863306673076387,0.07582114197513,-0.5728772488893507
10.830000000000004,0.2022222050465188,0.0678224290600463,-0.5753381076785162
10.839999999999996,0.1045168562087334,0.056249487892977,-0.5767132082609188
10.85,0.0111384052521006,0.0362403287250471,-0.5778511061804044
10.859999999999992,-0.0652113464731619,0.0298667471007331,-0.5811214662218089
10.869999999999996,-0.1115665852347357,0.0148016719398051,-0.5709985651496597
10.880000000000004,-0.1045682657347552,-0.0032921568641698,-0.556643727021502
10.889999999999992,-0.0657233876904535,-0.0506209500190445,-0.5467348037282154
10.9,0.0027180002073496,-0.0865880732114423,-0.5271937103746243
10.910000000000004,0.0513832597120447,-0.1235284754355294,-0.5002037768291249
10.919999999999996,0.0558174838608464,-0.1448931798201182,-0.4874915741276635
10.93,0.0175551846026924,-0.1365093891910216,-0.4572531431811178
10.940000000000005,-0.0388039680987063,-0.112460992044125,-0.4249395739743088
10.949999999999996,-0.0447401625035429,-0.0994800793796383,-0.4006328228613854
10.96,-0.0096357164186006,-0.101200879462412,-0.3788998178711651
10.969999999999992,0.0508530343092801,-0.1176458961463259,-0.3707368688749659
10.979999999999997,0.107777761435367,-0.1346589205303623,-0.3690790482662137
10.990000000000002,0.1448860821834291,-0.1375569234056729,-0.3757250156020179
10.999999999999991,0.1551757291137215,-0.1603406147240295,-0.3848592331068343
11.009999999999998,0.1405341504452262,-0.1611033423085328,-0.4016412311050842
11.020000000000003,0.1192666728751448,-0.1741017465291925,-0.4148252550614866
11.029999999999994,0.085727908262161,-0.1769160218742559,-0.411141810549916
11.04,0.0513242294953806,-0.1676288913341331,-0.4120253135580706
11.050000000000004,0.0315713822958702,-0.1529005118458704,-0.3985957123835523
11.059999999999995,0.0269803933556025,-0.1376130518734566,-0.3835981510987601
11.07,0.0445602965175093,-0.1259391559262183,-0.3578263654201538
11.080000000000004,0.0654635005571546,-0.1194005533359267,-0.3218382612283749
11.089999999999996,0.0810429608917298,-0.1227109173829671,-0.2815952164231798
11.1,0.0949549102268724,-0.1171985239773293,-0.2361520164555226
11.109999999999992,0.0826368775613621,-0.1273000175839337,-0.2009614298516395
11.119999999999996,0.0506658859321283,-0.1260248158451511,-0.163241416443598
11.130000000000004,0.015363703987077,-0.1152468786061117,-0.1330147795957595
11.139999999999992,-0.0039475909525374,-0.1089532931175782,-0.1033471335191479
11.15,-0.0016313431487941,-0.1112818542886475,-0.0678607065809359
11.160000000000004,0.0065248979475798,-0.1153592366564052,-0.0368437717919876
11.169999999999996,0.023501999287976,-0.1213905265064092,0.0011159837607702
11.18,0.0275854796060839,-0.1341243608495168,0.0447414222068031
11.190000000000005,0.0003695525297914,-0.1573630784452795,0.0883054574121321
11.199999999999996,-0.0299051338178799,-0.1721642910969207,0.1222931623116351
11.21,-0.0781479722543856,-0.1973465521175359,0.151729434762349
11.219999999999992,-0.2040352227666065,-0.1726348128100748,0.1763135030470678
11.229999999999997,-0.3441276738404061,-0.134012060148471,0.2101412844057609
11.240000000000002,-0.4264369094019996,-0.0936125726766586,0.2381315598570952
11.249999999999991,-0.4407118049373797,-0.0542417921662029,0.2744585884991279
11.259999999999998,-0.3780243671008367,-0.0379442729987128,0.3020295989643537
11.270000000000003,-0.2919312278578085,-0.0309202031620863,0.303256648345184
11.279999999999994,-0.159595805481337,-0.0465467429030825,0.3065694198664989
11.29,-0.0390534109681832,-0.0620601880061316,0.2915073276652273
11.300000000000004,0.0605128694261893,-0.089639034716684,0.2748350812864239
11.309999999999995,0.1225710518642508,-0.0994045465343771,0.2614750340467691
11.32,0.1280257559957225,-0.116102099200824,0.2441647876785295
11.330000000000004,0.1045747250902752,-0.1131571354601302,0.2345629720501884
11.339999999999996,0.0290578896015613,-0.1027834183116558,0.2099726011352014
11.35,-0.0685044680074842,-0.0630876227803853,0.1613780336713678
11.359999999999992,-0.1364020114557833,0.0004584211269157,0.1152058274470439
11.369999999999996,-0.1716949390717639,0.022564674129985,0.0836354520729645
11.380000000000004,-0.1650854942997636,0.0561021877704623,0.0574832065733775
11.389999999999992,-0.1456775005821521,0.0639357365302793,0.0603571085306689
11.4,-0.110755687507501,0.0741072777819466,0.0784284068124698
11.410000000000004,-0.0647023222828034,0.0765083641696232,0.085362875980689
11.419999999999996,-0.0312961598233427,0.060730077832105,0.0868912292946457
11.43,0.005311702634905,0.0502005958287184,0.076025038918876
11.440000000000005,-0.0559331308254073,0.0920819803390206,0.0499847069341435
11.449999999999996,-0.1970086963657231,0.1482275904461892,0.0299558255343901
11.46,-0.3007980401883716,0.1657270296906622,0.0130740925368556
11.469999999999992,-0.3496528557763741,0.16973093175639,-0.011828324377121
11.479999999999997,-0.3157772170622278,0.1563726032528433,-0.046924617877306
11.490000000000002,-0.2371662773802597,0.1312191538451929,-0.0798059046164905
11.499999999999991,-0.1533898580158546,0.1075078378978328,-0.1111654591884468
11.509999999999998,-0.0823753751344302,0.0842958023653032,-0.135780624620932
11.520000000000003,-0.0258079743284241,0.0594511156510283,-0.1453154541475444
11.529999999999994,0.0109241813145993,0.0468608065586191,-0.1448070587966328
11.54,0.0083420875002748,0.0369881401027324,-0.1377148771247507
11.550000000000004,0.0012453251465023,0.0340628350938605,-0.1267981341670128
11.559999999999995,-0.0216252485329178,0.0391926619229802,-0.1256854792909369
11.57,-0.0694164821763404,0.0532437629709249,-0.1254999172723425
11.580000000000004,-0.0911575884233293,0.0586540699015421,-0.1220520627616401
11.589999999999996,-0.0919796893078583,0.0636524308689324,-0.1124951888405176
11.6,-0.0702883307455312,0.070064680067384,-0.1206437504367407
11.609999999999992,-0.0173787145869134,0.0717227190651557,-0.1346220069193023
11.619999999999996,0.0505713818793419,0.0547974040045233,-0.1543541641359727
11.630000000000004,0.1230137669708863,0.0303609529517338,-0.1886045145796824
11.639999999999992,0.1854801214753399,0.0014576828783776,-0.2054715344798879
11.65,0.2226825096389382,-0.0410826507160097,-0.2188354431880909
11.660000000000004,0.2080493174794129,-0.0592468529665697,-0.2085144714201124
11.669999999999996,0.1523215872089899,-0.0714628139812756,-0.1873585855195691
11.68,0.069575140625258,-0.0893053707893446,-0.1722386773833818
11.690000000000005,-0.0144229330577594,-0.1188430059683309,-0.1529315689183161
11.699999999999996,-0.092090982790069,-0.1518187307939766,-0.1533550824446533
11.71,-0.1341815522196016,-0.1955886127054202,-0.1658457710694205
11.719999999999992,-0.152115877520745,-0.2399896168342294,-0.1795564491358418
11.729999999999997,-0.1446290321812527,-0.2731730735937138,-0.1877160125950331
11.740000000000002,-0.1255985917598949,-0.295927062768656,-0.2053621968618442
11.749999999999991,-0.076914724935491,-0.3017874707846307,-0.2072581857617474
11.759999999999998,-0.0071331995502578,-0.3000904599617304,-0.201626463362311
11.770000000000003,0.0206307315023753,-0.2792635533280573,-0.1855544597198387
11.779999999999994,-0.0212793828694475,-0.231426201101176,-0.1679325153680104
11.79,-0.0815765403602528,-0.1826742940553946,-0.1549884687053528
11.800000000000004,-0.1343596131655328,-0.1288158883940119,-0.1446825708546667
11.809999999999995,-0.146705931961453,-0.0817086307896334,-0.1547576785703718
11.82,-0.1067938240756762,-0.0532042708458215,-0.156998000533007
11.830000000000004,-0.0448585045703558,-0.0496302417268671,-0.1588959115136329
11.839999999999996,0.0421943853881739,-0.035301260524531,-0.1715469498532045
11.85,0.1295682727170618,-0.0320514663647678,-0.1839696055849792
11.859999999999992,0.1878950070538004,-0.0170843877196525,-0.2014152705396788
11.869999999999996,0.2366251273401824,-0.0055882154612041,-0.2226532323786926
11.880000000000004,0.2528341659648053,0.0091863858535421,-0.2498760029734803
11.889999999999992,0.2399260395091653,0.0175882526604341,-0.2701786257175009
11.9,0.2218624968594584,0.0066660132342895,-0.2969995458483701
11.910000000000004,0.1555349346838225,-0.0119958687891186,-0.3243381601694516
11.919999999999996,0.0990000493072066,-0.0324416468075505,-0.3374630538588207
11.93,0.0275174633097611,-0.0633349266111251,-0.340848318407733
11.940000000000005,-0.0466980637071247,-0.0886264773505296,-0.3302695687499152
11.949999999999996,-0.1208531704939282,-0.1083310002489713,-0.296989829235204
11.96,-0.2047417932816389,-0.1236298453145172,-0.2566545932307967
11.969999999999992,-0.253262221685118,-0.102567382450031,-0.2223371408554282
11.979999999999997,-0.274925833478457,-0.0938524429819208,-0.1872797509225918
11.990000000000002,-0.2776125793055879,-0.0620007432758835,-0.161636630010828
11.999999999999991,-0.2626366681138622,-0.0108299827708295,-0.1351072931941406
12.009999999999998,-0.2206495640774283,0.0171099519890593,-0.1228867349595136
12.020000000000003,-0.1385247474345373,0.032401764336216,-0.1189702826576371
12.029999999999994,-0.0486407836679852,0.048645886612865,-0.1329240268007532
12.04,0.0544608198575336,0.0552846620120896,-0.1622719446598944
12.050000000000004,0.132048749079067,0.071373345303963,-0.2013471589390476
12.059999999999995,0.1719801394278735,0.0884943271840746,-0.2355171806291489
12.07,0.1972310513378209,0.1091202354515185,-0.2815817400987383
12.080000000000004,0.2111711491348215,0.1285549848464876,-0.3318417737919717
12.089999999999996,0.2353149620834067,0.1342203504255694,-0.3822422492584466
12.1,0.2847247796389675,0.117875061535805,-0.4066923806780553
12.109999999999992,0.3308654813221996,0.0965192904351478,-0.4306557714009981
12.119999999999996,0.359401949796595,0.0725056584663813,-0.4421836763582314
12.130000000000004,0.3642109203890055,0.0383462231671031,-0.4295909303632347
12.139999999999992,0.3180495235069335,-0.014730061959301,-0.4090200272589935
12.15,0.2169117120351579,-0.0703274312526271,-0.3716716455602265
12.160000000000004,0.0547990987441751,-0.0975346197677928,-0.3176386922855057
12.169999999999996,-0.113194376163301,-0.1115791609411855,-0.2628254890037319
12.18,-0.2246419213277604,-0.1233880815580568,-0.2133318290404511
12.190000000000005,-0.2751203733601952,-0.1229049421370828,-0.154675342249264
12.199999999999996,-0.2517551904885822,-0.118157383908544,-0.0923126438485844
12.21,-0.2023590778743565,-0.1178551673383253,-0.0456644214309793
12.219999999999992,-0.1323345035184175,-0.0975187401183422,0.0106101807963138
12.229999999999997,-0.0432923639465321,-0.075969800101229,0.0506202244187183
12.240000000000002,0.0361053010712576,-0.059957166188826,0.0865939847839475
12.249999999999991,0.0732579765977888,-0.0532750991259997,0.1078066577934051
12.259999999999998,0.1069247273159452,-0.0355081844541403,0.1194273143970253
12.270000000000003,0.1369688915125799,-0.023224343168794,0.125221134518036
12.279999999999994,0.1367658607939955,-0.0121792807204824,0.1195845650528234
12.29,0.1250277443796155,-0.0010708900839222,0.1095191846017914
12.300000000000004,0.0837216397739152,0.0035136069993985,0.0947745514323234
12.309999999999995,0.0345496455754843,0.0090940855439498,0.0732040573484176
12.32,-0.0281873777432063,0.0120845898256799,0.0508837653526624
12.330000000000004,-0.0750589062054414,0.0167125685685568,0.0368068449945602
12.339999999999996,-0.1067645305711529,0.0073600967860372,0.0239348500315561
12.35,-0.1196962906290737,0.00404063787183,0.0301570950254637
12.359999999999992,-0.1269119714837485,-0.0041457150720617,0.0320401726231384
12.369999999999996,-0.1436298984146002,-0.0112556198499796,0.0506430132551448
12.380000000000004,-0.1437786509815583,-0.0075360375327201,0.0821080913744155
12.389999999999992,-0.1573189312936041,0.0048669534355875,0.1122986872915205
12.4,-0.1743395502375219,0.0076506580159727,0.1641967165189262
12.410000000000004,-0.1945910478450421,0.0198056547946401,0.2104882104484012
12.419999999999996,-0.216566502494273,0.0418940236900097,0.2698181327576328
12.43,-0.232059996982493,0.064080524623662,0.3415709133714977
12.440000000000005,-0.2499766875069546,0.0986561738214803,0.4319232569708401
12.449999999999996,-0.2599041644306325,0.1461008135714894,0.5368138393188571
12.46,-0.266644283241593,0.195526912043376,0.6848349999696469
12.469999999999992,-0.2629684259534028,0.2380118200597739,0.8701131364167
12.479999999999997,-0.2514451962764189,0.2918485620666287,1.0773148408449889
12.490000000000002,-0.2482353492177829,0.3605363494360838,1.3211029505933338
12.499999999999991,-0.2819626892789987,0.4522414217367246,1.5858163026168957
12.509999999999998,-0.3499116833196079,0.5499777361475461,1.898375131809987
12.520000000000003,-0.448813267523289,0.6469111592231485,2.2512835945741165
12.529999999999994,-0.5827023185626646,0.7529516735820069,2.6404337471492347
12.54,-0.7352242687097639,0.837286190484127,3.0587513841779046
12.550000000000004,-0.898172484404139,0.9257264539619956,3.506690118368569
12.559999999999995,-1.0868963097757456,1.000928712882902,3.947255084785662
12.57,-1.255915426717577,1.0893530779042686,4.406826493465924
12.580000000000004,-1.3754870804660908,1.1520687394975715,4.8573306231905535
12.589999999999996,-1.530981397895275,1.1803355573031569,5.2311589260046665
12.6,-1.6993656968233444,1.2093383922133123,5.561634562282881
12.609999999999992,-1.822199976527076,1.1908784830308323,5.854900802866215
12.619999999999996,-1.916868744762908,1.148877052767952,6.07901878727998
12.630000000000004,-1.9802595778056291,1.0773926595620682,6.277294754683456
12.639999999999992,-1.982237876242404,0.9984043586059016,6.464985670519164
12.65,-1.884292258058655,0.8916486344590607,6.6274366564414855
12.660000000000004,-1.7105930901865234,0.7795186867062097,6.7558522249209325
12.669999999999996,-1.4691466597963916,0.6741972100617021,6.87749228960165
12.68,-1.1725502914692918,0.5339595222061969,6.971070768397709
12.690000000000005,-0.8796637138676889,0.4118747545847449,7.024966397479178
12.699999999999996,-0.5996923937264019,0.2967894466302024,7.063084249279043
12.71,-0.340687051982257,0.176277706962155,7.088566055983232
12.719999999999992,-0.0836510869433872,0.0641192462105417,7.129873282186767
12.729999999999997,0.1354185009961609,-0.0677262743604523,7.149990551203713
12.740000000000002,0.3289657542887423,-0.173529301864177,7.171340448817588
12.749999999999991,0.496873600011406,-0.2773977620478053,7.173800448070487
12.759999999999998,0.6237739152880205,-0.375159445045952,7.151161012602968
12.770000000000003,0.742594014197587,-0.4293412382960981,7.099912795723888
12.779999999999994,0.8871079790920604,-0.4548370511729012,7.020219925267301
12.79,1.0428500587570129,-0.449040116986529,6.910272099335905
12.800000000000004,1.1439989568876343,-0.4584640612287135,6.757765172576676
12.809999999999995,1.1767033050421345,-0.4712493282203291,6.564484981572825
12.82,1.1319040767504531,-0.4761876098940987,6.346230490729317
12.830000000000004,1.014678984927073,-0.4936883154313337,6.098408356145182
12.839999999999996,0.8930816085827158,-0.5040541592176525,5.84735595728768
12.85,0.7720630577432361,-0.5185384176616187,5.566076254895388
12.859999999999992,0.6468472036126978,-0.5309042996002518,5.222728483071941
12.869999999999996,0.5301895328557066,-0.5420467864385063,4.834961827023572
12.880000000000004,0.3975891890937456,-0.5447077311445542,4.41582012167698
12.889999999999992,0.2375396426578989,-0.5438627530860191,4.000853242138992
12.9,0.0500316754716218,-0.5461602435255376,3.585291725959129
12.910000000000004,-0.1260928883386412,-0.5454361377454408,3.1738173210678244
12.919999999999996,-0.2820392316828225,-0.5434912986613669,2.77200940055636
12.93,-0.3795188475325221,-0.5308327934155059,2.387683263976662
12.940000000000005,-0.4204904898587727,-0.5061799143600313,2.024164728819565
12.949999999999996,-0.4397020938848903,-0.4724764722121917,1.691287726920566
12.96,-0.4324308785320948,-0.4223796119744139,1.3778301603096936
12.969999999999992,-0.4289110368220044,-0.3651026644634635,1.0682045886406075
12.979999999999997,-0.4470427381688769,-0.3134077840773659,0.7454152358230316
12.990000000000002,-0.4734846832645963,-0.248799408456551,0.44810976495343
12.999999999999991,-0.4985513781761017,-0.2079479742349967,0.1772131249422779
13.009999999999998,-0.5118512957314866,-0.1856857425029034,-0.0797987369138171
13.020000000000003,-0.5093246660298428,-0.187506544346479,-0.3110196527544149
13.029999999999994,-0.4797708880649063,-0.1935118110157297,-0.5334842592522154
13.04,-0.4247813009226726,-0.215847142949318,-0.7681251068755893
13.050000000000004,-0.3595959407580167,-0.233163638551769,-1.0056509710930197
13.059999999999995,-0.3071467800552717,-0.2578457319125977,-1.2515909028506107
13.07,-0.2976533288641692,-0.2972122625722795,-1.505175829315809
13.080000000000004,-0.3169443412980293,-0.3290774187215682,-1.7607607988979177
13.089999999999996,-0.337151559489008,-0.3863185289713043,-2.037958837033432
13.1,-0.3435318758362151,-0.448434921750918,-2.3610342071380064
13.109999999999992,-0.3430507343026909,-0.4826564015431759,-2.7476950339727706
13.119999999999996,-0.3193539426809019,-0.4935955931679351,-3.197236072812605
13.130000000000004,-0.2928401831543841,-0.4830558720822787,-3.739832441033232
13.139999999999992,-0.2820523068929426,-0.4690450108358274,-4.342453384727256
13.15,-0.2822573541691596,-0.4464995920137003,-4.982485051077587
13.160000000000004,-0.2782120874252292,-0.4027260495375247,-5.646582747228855
13.169999999999996,-0.2733937477085718,-0.3753988728014674,-6.296394031099449
13.18,-0.3073179555159747,-0.3672330052480143,-6.873302488044634
13.190000000000005,-0.3654901443442302,-0.4028336367661093,-7.377848082132798
13.199999999999996,-0.452172039115966,-0.4698030317469803,-7.787328193155428
13.21,-0.5563742010910906,-0.5633589801246135,-8.112426360223926
13.219999999999992,-0.6627815969341048,-0.6633476667290069,-8.374335196276277
13.229999999999997,-0.7608324220714453,-0.7462348979484946,-8.6125968715115
13.240000000000002,-0.8296429328915038,-0.7862666120696521,-8.857161322624524
13.249999999999991,-0.8666839038511853,-0.77540789993222,-9.072535724977032
13.259999999999998,-0.8539285647188666,-0.7386529879487936,-9.257968530588284
13.270000000000003,-0.7808653254607612,-0.703346844787848,-9.369022798550835
13.279999999999994,-0.6573607373602967,-0.652784376070641,-9.422667227750688
13.29,-0.4669444627713164,-0.6112731999016151,-9.428262143287514
13.300000000000004,-0.231694331299776,-0.5786450555266119,-9.39405174118226
13.309999999999995,0.0167972391192743,-0.5462723396367297,-9.318876004516298
13.32,0.2496892909709062,-0.5012448832860805,-9.207390109955968
13.330000000000004,0.4217239232476386,-0.4100101884027696,-9.05922015955829
13.339999999999996,0.5678879259856507,-0.2909326273037693,-8.878048646825793
13.35,0.7422200670922982,-0.206668931982482,-8.666675223857458
13.359999999999992,0.9578761966510954,-0.1771651693454009,-8.441178566216292
13.369999999999996,1.1407689299108823,-0.1446304982558994,-8.202405961110928
13.380000000000004,1.2814344353077654,-0.1051962843732499,-7.952114039010604
13.389999999999992,1.375907296391939,-0.0392319109965287,-7.686653426032439
13.4,1.4373181916756212,0.0114565745253516,-7.440070934795996
13.410000000000004,1.4955173384474911,0.0138584963432729,-7.1854435777972245
13.419999999999996,1.5432285304493978,-0.0262543661736792,-6.863438333827778
13.43,1.5438780004788306,-0.1044916070813594,-6.461435094028641
13.440000000000005,1.4551199906554828,-0.218382669626136,-6.004320313708694
13.449999999999996,1.2853058946988114,-0.3080549938698715,-5.507330353123511
13.46,1.0638282647905923,-0.3489793529947259,-5.014685928654287
13.469999999999992,0.8634766155944159,-0.3697224455603685,-4.552322406564119
13.479999999999997,0.726196067820046,-0.3819466725179739,-4.086535543765888
13.490000000000002,0.6269810937155094,-0.3935755004542615,-3.699479512726439
13.499999999999991,0.5859011053062547,-0.3589109183815341,-3.3213170555091094
13.509999999999998,0.5512243384170625,-0.3350484050977985,-2.988296343727756
13.520000000000003,0.4405728186773899,-0.2992005110647128,-2.716071096670633
13.529999999999994,0.3668760621172655,-0.2324870123947612,-2.416459169736752
13.54,0.2684858789741934,-0.1781020272677674,-2.133055726165827
13.550000000000004,0.1382023732186268,-0.1449693365342972,-1.882102756865986
13.559999999999995,0.0717435964320577,-0.1255548006570601,-1.6414793409786903
13.57,0.0617018364329886,-0.1080578264505432,-1.378249123859178
13.580000000000004,0.0692462617262417,-0.1394303637141196,-1.1355361666565709
13.589999999999996,0.0851615322718564,-0.1748358154334699,-0.9014953894848936
13.6,0.1209202933065185,-0.1971116042257447,-0.6687893259909332
13.609999999999992,0.1245025398123966,-0.2241704508520719,-0.4436274664819727
13.619999999999996,0.0932528366499206,-0.2135588967476766,-0.1873579481925565
13.630000000000004,0.0437637534019174,-0.2069960957565605,0.1079118088929773
13.639999999999992,-0.0772267770091549,-0.2134484627624718,0.4200262591225903
13.65,-0.2614615755436329,-0.2360071377895106,0.7559880224751893
13.660000000000004,-0.4496201494545755,-0.2648552563976896,1.1574292864172993
13.669999999999996,-0.647311946195301,-0.2921193425580872,1.6101833428468817
13.68,-0.8523901116025918,-0.3423798484219927,2.137407609934335
13.690000000000005,-1.0736237203986598,-0.409923880999283,2.729509860273506
13.699999999999996,-1.330073662490051,-0.5010712571156246,3.380609678337405
13.71,-1.6309441653928485,-0.6219838260273415,4.066502051407035
13.719999999999992,-1.966252709737088,-0.7670135648343857,4.752959656533056
13.729999999999997,-2.254034444364446,-0.924867443970546,5.456195773961954
13.740000000000002,-2.43657851118727,-1.0488626090400237,6.178608656098287
13.749999999999991,-2.508727328564872,-1.1239887490922438,6.929910459802262
13.759999999999998,-2.4640958108382933,-1.1576690103893053,7.669092355922072
13.770000000000003,-2.3451031217297618,-1.1238213757688695,8.33526438570459
13.779999999999994,-2.229052716395267,-1.0278267970778352,8.928700117564052
13.79,-2.140556229649201,-0.915025982012286,9.4522673927798
13.800000000000004,-2.0299390676880997,-0.8593378297974933,9.880895521919152
13.809999999999995,-1.951556124225189,-0.8641652442949441,10.19154753201447
13.82,-1.9596970371717064,-0.920135054947516,10.342844110244464
13.830000000000004,-1.9257363771142368,-1.0093392970155208,10.346398059915762
13.839999999999996,-1.744314044731786,-1.1071127011847242,10.190584509322216
13.85,-1.310077622929125,-1.1564258820276745,9.8007836279291
13.859999999999992,-0.7067968588514797,-1.1189344954564229,9.243411214491156
13.869999999999996,-0.1029528551089752,-1.021147531976469,8.617971435641714
13.880000000000004,0.439161932040503,-0.8816202480380233,8.013649399331863
13.889999999999992,0.8432641257267636,-0.7304288613298202,7.500565464046007
13.9,1.1917281517127003,-0.5528348592710659,7.076142113672964
13.910000000000004,1.554395809010723,-0.312214983162441,6.662937847273548
13.919999999999996,1.9032190367999,-0.0592765492696636,6.235491016731527
13.93,2.1574392768813366,0.1769800016304809,5.812679804947228
13.940000000000005,2.2135506967592877,0.3806772229063277,5.437202492830334
13.949999999999996,2.0728989737286714,0.5521253240515377,5.073923801488174
13.96,1.7801861663337786,0.6487630977575808,4.7017739732656825
13.969999999999992,1.4032432399309684,0.641842036309277,4.31945914657191
13.979999999999997,1.0666450801989675,0.595715260813298,3.9067168124563594
13.990000000000002,0.7684518976048753,0.5087153091690951,3.4774321192762194
13.999999999999991,0.4854584167442476,0.399280797232619,3.0065007167225843
14.009999999999998,0.2507211662012749,0.2962014318234107,2.5639984581942428
14.020000000000003,0.1177080915708367,0.2196548058353613,2.224017985573792
14.029999999999994,0.0627874346354913,0.1566703533730015,1.9827467835902324
14.04,0.0227364446188335,0.0940957555179879,1.8342870434286624
14.050000000000004,-0.0052635732034198,0.0458588835537483,1.7394433248228984
14.059999999999995,-0.0175681866473266,-0.0060463538881165,1.6642213277342706
14.07,-1.07282728557286e-05,-0.0454014021542079,1.5883344066586598
14.080000000000004,0.0611951348457926,-0.0612470671213097,1.4854783883850229
14.089999999999996,0.1440507553623966,-0.0746715875694952,1.3638714117015025
14.1,0.1941828041746094,-0.1009357873636699,1.2441296013232046
14.109999999999992,0.2282808691953761,-0.1293074957876949,1.1408808433270914
14.119999999999996,0.2438365770687952,-0.1473362250260448,1.0536770969943603
14.130000000000004,0.2376080487968911,-0.1608327821871173,0.957395605524957
14.139999999999992,0.2351066167427287,-0.1722308952474865,0.8401574973414371
14.15,0.2236796229477076,-0.1823167976033722,0.7112020214847489
14.160000000000004,0.2037182353436768,-0.1846762029163903,0.5671344699874775
14.169999999999996,0.1781549313245388,-0.1995768368371477,0.4277992623607095
14.18,0.1273848835666211,-0.224408966501992,0.2838080337846482
14.190000000000005,0.0719248949724848,-0.2543554681499678,0.1316023711853722
14.199999999999996,0.019038965988665,-0.3035317461911813,-0.0328107781260098
14.21,-0.0313210215993726,-0.3580882758218801,-0.2231956439882066
14.219999999999992,-0.0978696329862597,-0.4247644979531346,-0.452613447009599
14.229999999999997,-0.1659533594026519,-0.4936388267569166,-0.7328259105119814
14.240000000000002,-0.2174316736168149,-0.5704187208009001,-1.101596135571178
14.249999999999991,-0.2617987220501123,-0.6747125800445998,-1.574255784295519
14.259999999999998,-0.2631937338172594,-0.7897698353356307,-2.211149893550047
14.270000000000003,-0.2123210310440995,-0.8654400317485619,-3.017016463919363
14.279999999999994,-0.1012141615101016,-0.8424235058491725,-3.9290861305143623
14.29,0.0351587614346329,-0.7799369851557961,-4.859444004438567
14.300000000000004,0.1602072195394168,-0.692545792740437,-5.766790348203068
14.309999999999995,0.2251648050439303,-0.5875634157204774,-6.635522382844084
14.32,0.272284384400858,-0.482123066661494,-7.4569668194978735
14.330000000000004,0.3435165990366955,-0.3900464252481284,-8.200531623996453
14.339999999999996,0.4097461176492915,-0.3648511145253075,-8.788462561278978
14.35,0.3977845533034873,-0.3445299797872273,-9.200261782473548
14.359999999999992,0.2698411977702725,-0.3233679448688704,-9.435735714415191
14.369999999999996,0.0972461382988408,-0.3455874878620809,-9.525533563175232
14.380000000000004,-0.0858351808059499,-0.3593676775313354,-9.558893294926207
14.389999999999992,-0.2493289267324494,-0.3345394206449486,-9.562240354445048
14.4,-0.3052337174113969,-0.3726128070964249,-9.507549019661504
14.410000000000004,-0.2031012043861179,-0.4854816249813349,-9.361133525097582
14.419999999999996,-0.052728322754228,-0.6536092552865339,-9.113035537463851
14.43,0.0577914887436932,-0.8580745642532811,-8.78758510622658
14.440000000000005,0.1482864105618413,-1.0480469698378616,-8.429572133079745
14.449999999999996,0.2737698918291978,-1.2369892676595138,-8.05254042504011
14.46,0.4193878850901684,-1.361155806987688,-7.597215597333876
14.469999999999992,0.4891304630833483,-1.3923672325469256,-7.0995595483924605
14.479999999999997,0.4596238802525694,-1.341131947658162,-6.616420292039669
14.490000000000002,0.3892537483050247,-1.2551286390720142,-6.174003057142466
14.499999999999991,0.3327466157783096,-1.175297419891267,-5.792218045696826
14.509999999999998,0.3280910550748017,-1.0845343259805496,-5.5078782406256535
14.520000000000003,0.420895047090993,-0.9740600291087188,-5.282658845211314
14.529999999999994,0.620787445497505,-0.8121111912803556,-5.09442978836941
14.54,0.8581465631434998,-0.599484740416117,-4.93752129636995
14.550000000000004,1.095201114489445,-0.3765939060011244,-4.784379828297667
14.559999999999995,1.2921225740751543,-0.1423680682820067,-4.617038571445659
14.57,1.43327952387784,0.0638158921578948,-4.419566151278163
14.580000000000004,1.5215102876811182,0.237691762101739,-4.216106774055373
14.589999999999996,1.562215775759188,0.3399696753480636,-3.996127854893568
14.6,1.5712816316945877,0.3800054094520557,-3.7330588694953946
14.609999999999992,1.588336693014378,0.4122729020522905,-3.408317405306766
14.619999999999996,1.587813361245586,0.427394559590385,-3.0825076226674253
14.630000000000004,1.5363082202528653,0.432098264591199,-2.7705450267182634
14.639999999999992,1.456561854818588,0.4185444534932184,-2.451126804582352
14.65,1.334125699228387,0.3877406098589123,-2.1390732339290066
14.660000000000004,1.140839150571371,0.351383842965372,-1.8414953155909688
14.669999999999996,0.8864830300728699,0.3097057649838011,-1.525585897269644
14.68,0.5973770460000019,0.241556251378441,-1.2099486668582462
14.690000000000005,0.2766098148290547,0.1598169328757228,-0.8946619432415678
14.699999999999996,-0.0383718694584821,0.07383211782296,-0.5702962659060514
14.71,-0.3114397821494347,-0.0308155666997768,-0.2530484131550352
14.719999999999992,-0.5344334806720239,-0.137852655483279,0.0616054624402906
14.729999999999997,-0.7021577076956023,-0.2396365562899382,0.3690929246478064
14.740000000000002,-0.8351350759591203,-0.3501189586920963,0.6584994344206031
14.749999999999991,-0.9143626883820736,-0.4452104704484508,0.925589733756577
14.759999999999998,-0.965362980503614,-0.5412450647440661,1.165216931757259
14.770000000000003,-1.0114664521128915,-0.6349741698430975,1.3847182077870506
14.779999999999994,-1.0557478476208733,-0.6996780161923133,1.611274321554904
14.79,-1.1089798049716966,-0.7533446632223421,1.860788368705132
14.800000000000004,-1.1327856358240105,-0.8050552588971269,2.132618575487192
14.809999999999995,-1.1455597181096862,-0.8398088044674064,2.425470764363081
14.82,-1.1470692128246258,-0.8693342315737007,2.747248583529835
14.830000000000004,-1.1201557673166915,-0.8795424084549107,3.085431692381956
14.839999999999996,-1.0754467448563323,-0.8687533930770415,3.461001736588523
14.85,-1.0169218886339249,-0.8510700678652557,3.875004744110021
14.859999999999992,-0.9278248113632792,-0.8390130993693542,4.3237725668621305
14.869999999999996,-0.7954117892484255,-0.8218883097719352,4.794069055337855
14.880000000000004,-0.6258624683544567,-0.7806699616820315,5.266882286821217
14.889999999999992,-0.4358019293953262,-0.6967303356176076,5.737302923193853
14.9,-0.237987722965136,-0.5668955513147921,6.236790701523303
14.910000000000004,-0.0537633941116447,-0.3927938762212534,6.750038057519177
14.919999999999996,0.0946558935639969,-0.1774240212942756,7.258020656013191
14.93,0.138016017670695,0.0870437942134849,7.726254874556289
14.940000000000005,0.0538952841060875,0.3882024677513601,8.14029920061127
14.949999999999996,-0.1092365550001324,0.6185779597061013,8.461408748567914
14.96,-0.3829179082549059,0.7598412776649541,8.729350909968353
14.969999999999992,-0.7259179719732025,0.771046035502181,8.967432372735301
14.979999999999997,-1.0645229772443197,0.6561446565295631,9.169625644628194
14.990000000000002,-1.3495006816427548,0.4243966676109072,9.31282964061929
14.999999999999991,-1.4959662370826992,0.1381970645982609,9.30348281535944
15.009999999999998,-1.4509245056063538,-0.0665893277175752,9.064135770400377
15.020000000000003,-1.1935796393336038,-0.1317910695152371,8.559650005857858
15.029999999999994,-0.731606458585414,-0.1018912979800763,7.944244751130244
15.04,-0.217618462675359,-0.0552335683295492,7.314037345301673
15.050000000000004,0.2499261887468237,0.0669053741805756,6.722318022623706
15.059999999999995,0.597666581150838,0.2682656549718562,6.183675183028681
15.07,0.7747541114832662,0.4779651119914117,5.663790653397509
15.080000000000004,0.8642619520077895,0.6032310392925802,5.201034908174391
15.089999999999996,0.9488297061830342,0.6453572203095909,4.77622081447606
15.1,1.064107500271284,0.7521373451895528,4.337286468155264
15.109999999999992,1.0966225017588502,0.8035292308261657,3.7995373746277226
15.119999999999996,1.0282930236240542,0.7953112802750728,3.1849408890734354
15.130000000000004,0.8975648388467717,0.78164995713005,2.593081777742272
15.139999999999992,0.7310987999492903,0.6879980845079825,2.0813800865801677
15.15,0.5829843894532695,0.5865703060913516,1.6709581451681994
15.160000000000004,0.4365671795806619,0.4646968806791092,1.3242107194227817
15.169999999999996,0.3645606898379881,0.3272873219037854,1.0966433852724748
15.18,0.3618335725122886,0.2361684609473462,0.93468725539731
15.190000000000005,0.3315544932529918,0.1797442479342089,0.7563663487151537
15.199999999999996,0.278647555444226,0.12861963745815,0.5788237940243228
15.21,0.2195037238885171,0.0785676741673764,0.4222031887258243
15.219999999999992,0.1342853570192889,0.0345831071603121,0.3009969988673627
15.229999999999997,0.0390483347288178,-0.0249752482094717,0.1907116295761113
15.240000000000002,-0.0663834182155657,-0.0857989561409704,0.0775707454007611
15.249999999999991,-0.1741470671407221,-0.1420663488354778,-0.0160670472073794
15.259999999999998,-0.2780545236336277,-0.1777528962635455,-0.1132382656830544
15.270000000000003,-0.3550897624244295,-0.1802943853053948,-0.1895794453940888
15.279999999999994,-0.409265164193013,-0.1824957540110517,-0.236980580469265
15.29,-0.4351285680904486,-0.1849827713565291,-0.2518269086395042
15.300000000000004,-0.4415104744802859,-0.1881519887738377,-0.2627230954692401
15.309999999999995,-0.4415245695157614,-0.2018764371343225,-0.2895948016558191
15.32,-0.4466141735812678,-0.2274999067070394,-0.3411023935098236
15.330000000000004,-0.4432518149849622,-0.2490955688251367,-0.4526246865409931
15.339999999999996,-0.436436122413404,-0.2516304582340615,-0.6192125401517815
15.35,-0.4333976753145522,-0.2430261496571848,-0.8571406198198701
15.359999999999992,-0.4098443916452146,-0.2409706512751413,-1.1748868430166102
15.369999999999996,-0.3903993748296815,-0.2384070491613649,-1.570986420271108
15.380000000000004,-0.3563061043289072,-0.2447791408953009,-2.059053419613102
15.389999999999992,-0.2944938296956559,-0.2560120827008541,-2.649838759555743
15.4,-0.1643547882877571,-0.2230073137569619,-3.352883578298397
15.410000000000004,0.0443841082596867,-0.1466411241203973,-4.154633490061099
15.419999999999996,0.2689142505534631,-0.0483409449776315,-5.001020704480841
15.43,0.4638879464847004,0.0526084354654929,-5.866012775954301
15.440000000000005,0.6064577415789688,0.1988246391572822,-6.710249874636638
15.449999999999996,0.7042113830068976,0.3875429780725343,-7.521595412515613
15.46,0.7695237287961377,0.5501812158116717,-8.244422668790156
15.469999999999992,0.8218275595680175,0.6977387420682915,-8.839117991472314
15.479999999999997,0.8534231266497527,0.8537851522405904,-9.294669903550911
15.490000000000002,0.9850783025237082,0.9323452943910344,-9.562906084490471
15.499999999999991,1.1839499114929015,0.8954597780932965,-9.662549663672827
15.509999999999998,1.3380187411545026,0.7389029736132511,-9.556887937400315
15.520000000000003,1.426313467135852,0.5396275079922958,-9.306338857003626
15.529999999999994,1.4910231216115468,0.391799446485327,-8.968841071840826
15.54,1.5843663533730186,0.2616714823876973,-8.587958034425117
15.550000000000004,1.7858170056217535,0.1180982844305812,-8.212639194096353
15.559999999999995,2.0723554525570647,-0.0706800961310376,-7.800945384418305
15.57,2.2552103513953368,-0.2589545081424125,-7.365943274467471
15.580000000000004,2.209649255446799,-0.3890253354881595,-6.926285491044813
15.589999999999996,1.9596101178295589,-0.4414710506355384,-6.435187848398286
15.6,1.624798116994289,-0.452035090328574,-5.8943208153709366
15.609999999999992,1.336201522121877,-0.4676028854265852,-5.3495098430553245
15.619999999999996,1.166164757562793,-0.4898564341031689,-4.8139195578657565
15.630000000000004,1.0854863888149993,-0.5019731587241621,-4.335576350636424
15.639999999999992,1.0642665094197865,-0.4588415896509672,-3.967413029975251
15.65,1.0614006706483965,-0.3711448948962111,-3.6749113978051806
15.660000000000004,1.1017846671882063,-0.252023159665319,-3.439746441054204
15.669999999999996,1.211559606724977,-0.1342808252663268,-3.2061517676888247
15.68,1.3444555222125656,-0.0530861879111243,-2.965694759255251
15.690000000000005,1.4236189783006148,-0.0005674946193821,-2.7222024125232083
15.699999999999996,1.4415022269996336,0.0530448241743923,-2.420781200269422
15.71,1.410973615131017,0.1142685213036581,-2.074020956807854
15.719999999999992,1.3279172142824571,0.1490959486490599,-1.6877929928689106
15.729999999999997,1.1761887969387002,0.1757206407874787,-1.3288477426841374
15.740000000000002,0.9844247700701187,0.1837277217408357,-1.0015748806521718
15.749999999999991,0.7532564915603858,0.1634912055439585,-0.7316588713411656
15.759999999999998,0.5005639877180456,0.1322594815659964,-0.5017820758990097
15.770000000000003,0.2792385886053982,0.1197971454741743,-0.2734559254564783
15.779999999999994,0.0712515961411426,0.1036478859692034,-0.0539244309404302
15.79,-0.1453355081868837,0.0594620735388188,0.1634004164131091
15.800000000000004,-0.3480600109758814,0.0117000864578888,0.357261105678275
15.809999999999995,-0.525165966503354,-0.0433922744761807,0.5362518163959603
15.82,-0.6749262380671918,-0.0897400060437401,0.6968069826831416
15.830000000000004,-0.7651658225901837,-0.1422093670954155,0.8399511793239764
15.839999999999996,-0.8078222938780182,-0.1813396573858921,0.9558485514129732
15.85,-0.8353791570492303,-0.2097675598524527,1.0624310068054583
15.859999999999992,-0.8421826894344556,-0.242144392106245,1.1708080815285775
15.869999999999996,-0.8281637214091845,-0.2567808571898268,1.2850110607822625
15.880000000000004,-0.8148609384009634,-0.2540724816020609,1.4222799988869477
15.889999999999992,-0.7913296816164963,-0.2458381652159174,1.5791196470398945
15.9,-0.7535456169976531,-0.2230021264584611,1.754260972200285
15.910000000000004,-0.7076376758995345,-0.1851953256770055,1.9505501985933464
15.919999999999996,-0.6399835288505165,-0.1598327654045339,2.1910937052686736
15.93,-0.5684463288439936,-0.1315085350139851,2.4770999322423584
15.940000000000005,-0.4971196431862562,-0.1080318956794452,2.825555921029357
15.949999999999996,-0.3933943822004702,-0.0944763050077455,3.235879521898037
15.96,-0.241609227983112,-0.0681180523156921,3.693535942226899
15.969999999999992,-0.0475449046159553,0.0030167512278864,4.247705765213719
15.979999999999997,0.1193552024077626,0.1086965294624324,4.915044241438286
15.990000000000002,0.1825832942015859,0.235985321045989,5.618797454004578
15.999999999999991,0.0762561199294295,0.3843631053218815,6.314842756016569
16.009999999999998,-0.158333209897309,0.5371971354503611,6.951358087346823
16.020000000000003,-0.4349544692378386,0.664465002513113,7.534664036396982
16.029999999999994,-0.8152635713299919,0.756757818600699,8.054506886183969
16.04,-1.3349827254820452,0.8335319652533134,8.477920904158069
16.050000000000004,-1.9160558516102968,0.8863549045844106,8.78913515859475
16.059999999999995,-2.431647796226862,0.9034559578620124,8.960681281991617
16.07,-2.8403870645226985,0.7492799132098548,9.005150937233779
