time,Gyr_X,Gyr_Y,Gyr_Z
0.0,0.027727,-0.007618,0.01
0.0100000000000051,0.048095,0.006054,0.016848
0.019999999999996,0.033252,0.001502,-0.000739
0.0300000000000011,0.036278,0.015939,0.00862
0.0400000000000062,0.027919,0.01592,-0.008838
0.0499999999999971,0.029736,0.009598,0.002998
0.0600000000000022,0.033188,-0.000272,-0.002549
0.0699999999999931,0.029168,-0.012719,-0.013685
0.0799999999999983,-0.0146,-0.009513,-0.019707
0.0900000000000034,-0.011058,-0.016714,-0.016117
0.0999999999999943,-0.040407,-0.026855,-0.011169
0.1099999999999994,-0.049832,-0.034977,-0.027838
0.1200000000000045,-0.038787,-0.040361,-0.014981
0.1299999999999954,-0.048828,-0.026892,-0.038709
0.1400000000000005,-0.036737,-0.016891,-0.031099
0.1500000000000056,-0.013001,-0.023983,-0.017161
0.1599999999999966,-0.003543,-0.008612,-0.004966
0.1700000000000017,0.018216,-0.021894,-0.005731
0.1800000000000068,0.020027,-0.025532,0.000623
0.1899999999999977,0.029229,-0.021893,-0.001053
0.2000000000000028,0.032159,-0.008379,-0.005436
0.2099999999999937,0.018531,-0.003995,-0.002833
0.2199999999999988,0.027525,-0.011141,-0.006448
0.2300000000000039,0.018517,-0.002182,-0.00645
0.2399999999999948,0.007568,-0.002308,-0.004762
0.25,0.017424,-0.013019,-0.004765
0.2600000000000051,0.02004,-0.023806,-0.001215
0.269999999999996,0.003797,-0.02035,0.018703
0.2800000000000011,0.005285,-0.034706,0.001197
0.2900000000000062,0.005366,-0.032924,0.009436
0.2999999999999971,0.010928,-0.029294,0.013225
0.3100000000000023,0.009017,-0.029303,0.002241
0.3199999999999932,0.007181,-0.031127,0.004031
0.3299999999999983,-0.001951,-0.030303,0.003914
0.3400000000000034,0.005514,-0.027562,0.019578
0.3499999999999943,0.002097,-0.005911,0.006093
0.3599999999999994,0.002617,-0.031144,0.005792
0.3700000000000045,0.01015,-0.01849,0.008784
0.3799999999999954,-0.011653,-0.011434,0.014978
0.3900000000000005,-0.009085,-0.016799,0.002163
0.4000000000000057,-0.003586,-0.014958,0.001335
0.4099999999999966,-0.021978,-0.020477,-0.003542
0.4200000000000017,-0.018361,-0.029548,0.005531
0.4300000000000068,-0.009495,-0.032938,-0.018163
0.4399999999999977,-0.001913,-0.014941,-0.026962
0.4500000000000028,-0.008547,-0.025776,-0.027184
0.4599999999999937,0.02174,-0.026603,-0.013984
0.4699999999999988,0.026736,-0.047123,-0.030611
0.480000000000004,0.030924,-0.031077,-0.004785
0.4899999999999949,0.034437,-0.038163,-0.003032
0.5,0.037952,-0.038086,-0.028592
0.5100000000000051,0.039968,-0.029195,-0.02843
0.519999999999996,0.068857,-0.052414,-0.019193
0.5300000000000011,0.055974,-0.050644,-0.032109
0.5400000000000063,0.040519,-0.045274,-0.035873
0.5499999999999972,0.03516,-0.04537,-0.012172
0.5600000000000023,0.027526,-0.05607,-0.016096
0.5699999999999932,0.026728,-0.052465,-0.028816
0.5799999999999983,0.013845,-0.052545,-0.038115
0.5900000000000034,0.013851,-0.059787,-0.021804
0.5999999999999943,0.015375,-0.066075,-0.05109
0.6099999999999994,0.005417,-0.059893,-0.051157
0.6200000000000045,-0.00992,-0.052881,-0.042138
0.6299999999999955,-0.00436,-0.04743,-0.035612
0.6400000000000006,-0.01375,-0.063644,-0.035017
0.6500000000000057,-0.026792,-0.06894,-0.058994
0.6599999999999966,-0.010013,-0.055379,-0.047616
0.6700000000000017,0.000605,-0.065167,-0.067709
0.6800000000000068,0.006271,-0.067037,-0.042081
0.6899999999999977,0.006571,-0.050891,-0.038238
0.7000000000000028,0.001228,-0.045587,-0.032793
0.7099999999999937,0.010479,-0.036568,-0.038061
0.7199999999999989,0.014176,-0.034755,-0.032508
0.730000000000004,0.02133,-0.04915,-0.021596
0.7399999999999949,0.030649,-0.045501,-0.003145
0.75,0.052641,-0.045345,0.00263
0.7600000000000051,0.044337,-0.048081,-0.003921
0.769999999999996,0.050775,-0.057989,0.020696
0.7800000000000011,0.050788,-0.048975,0.002549
0.7900000000000063,0.045537,-0.038239,0.013566
0.7999999999999972,0.039792,-0.052628,0.009647
0.8100000000000023,0.009711,-0.041969,-0.003417
0.8199999999999932,0.00514,-0.038352,-0.01257
0.8299999999999983,0.006783,-0.045519,-0.022679
0.8400000000000034,-0.003237,-0.037423,-0.034583
0.8499999999999943,0.001593,-0.022071,-0.032512
0.8599999999999994,-0.003878,-0.020283,-0.034385
0.8700000000000045,0.010884,-0.007525,-0.043156
0.8799999999999955,0.02715,-0.016405,-0.048506
0.8900000000000006,0.058628,0.009021,-0.047771
0.9000000000000057,0.044079,0.008906,-0.035167
0.9099999999999966,0.034875,0.003443,-0.031696
0.9200000000000016,0.027745,0.013284,-0.027104
0.9300000000000068,0.000192,-0.000514,-0.013922
0.9399999999999976,-0.016214,-0.009738,0.015875
0.9500000000000028,-0.034333,-0.000923,0.022119
0.9599999999999936,-0.04915,-0.022694,0.043601
0.9699999999999988,-0.058562,-0.044393,0.052364
0.980000000000004,-0.06954,-0.052592,0.068573
0.9899999999999948,-0.058807,-0.069676,0.073992
1.0,-0.064339,-0.085998,0.102959
1.0100000000000051,-0.071699,-0.091468,0.109183
1.019999999999996,-0.085945,-0.12397,0.104026
1.0300000000000011,-0.088804,-0.135686,0.109297
1.0400000000000065,-0.085194,-0.144648,0.119275
1.0499999999999972,-0.057907,-0.141701,0.091344
1.0600000000000025,-0.0635,-0.141717,0.076642
1.0699999999999932,-0.047652,-0.17044,0.054571
1.0799999999999983,-0.047836,-0.171345,0.031695
1.0900000000000034,-0.044377,-0.181196,0.023406
1.0999999999999943,-0.055355,-0.171301,-0.000388
1.1099999999999994,-0.041011,-0.182855,-0.016784
1.1200000000000043,-0.039183,-0.181908,-0.019484
1.1299999999999957,-0.028338,-0.175463,-0.051232
1.1400000000000006,-0.00471,-0.178893,-0.065609
1.1500000000000057,0.028096,-0.165942,-0.110694
1.1599999999999966,0.046536,-0.151355,-0.123974
1.1700000000000017,0.075967,-0.129487,-0.147994
1.1800000000000068,0.118176,-0.107563,-0.172738
1.1899999999999975,0.125758,-0.078666,-0.196028
1.2000000000000028,0.14245,-0.062381,-0.197426
1.2099999999999935,0.120574,-0.051766,-0.20854
1.2199999999999989,0.113588,-0.03386,-0.199256
1.230000000000004,0.093686,-0.023208,-0.19114
1.2399999999999949,0.09368,-0.028557,-0.179291
1.25,0.112638,-0.003171,-0.13851
1.2600000000000051,0.101898,0.011235,-0.1348
1.269999999999996,0.094762,0.005696,-0.10025
1.2800000000000011,0.106236,0.028215,-0.081569
1.2900000000000065,0.08244,0.023512,-0.074642
1.2999999999999972,0.08917,0.040631,-0.063394
1.3100000000000025,0.070814,0.041377,-0.075513
1.3199999999999932,0.060131,0.052057,-0.059085
1.3299999999999983,0.055669,0.053746,-0.047254
1.3400000000000034,0.039,0.041921,-0.051268
1.3499999999999943,0.030075,0.048169,-0.033034
1.3599999999999994,0.035188,0.019374,-0.020514
1.3700000000000043,-0.00885,0.008317,-0.015731
1.3799999999999957,-0.027241,-0.013454,0.014837
1.3900000000000006,-0.029695,0.000983,0.023202
1.4000000000000057,-0.045336,-0.008127,0.027441
1.4099999999999966,-0.050989,-0.017184,0.02175
1.4200000000000017,-0.051884,-0.013566,0.016296
1.4300000000000068,-0.05101,-0.015364,0.01628
1.4399999999999975,-0.054437,-0.049637,-0.00246
1.4500000000000028,-0.053801,-0.069498,0.002785
1.4599999999999935,-0.072781,-0.109252,-0.008908
1.4699999999999989,-0.096425,-0.109414,0.005387
1.480000000000004,-0.117938,-0.082489,0.004499
1.4899999999999949,-0.120148,-0.098677,-0.013094
1.5,-0.10563,-0.103067,-0.020266
1.5100000000000051,-0.096438,-0.094899,-0.031018
1.519999999999996,-0.083741,-0.0966,-0.041824
1.5300000000000011,-0.071896,-0.092874,-0.055309
1.5400000000000065,-0.056265,-0.081913,-0.065922
1.5499999999999972,-0.05736,-0.091834,-0.068805
1.5600000000000025,-0.050823,-0.081917,-0.070452
1.5699999999999932,-0.06018,-0.091081,-0.079844
1.5799999999999983,-0.072049,-0.089392,-0.079971
1.5900000000000034,-0.079491,-0.094825,-0.085604
1.5999999999999943,-0.096668,-0.087697,-0.074779
1.6099999999999994,-0.087252,-0.07318,-0.070818
1.6200000000000043,-0.082482,-0.067758,-0.056063
1.6299999999999957,-0.068741,-0.065917,-0.052205
1.6400000000000006,-0.070424,-0.060605,-0.037537
1.6500000000000057,-0.097708,-0.062609,-0.010504
1.6599999999999966,-0.096075,-0.080595,0.003001
1.6700000000000017,-0.105336,-0.09691,0.020021
1.6800000000000068,-0.105254,-0.09516,0.023667
1.6899999999999975,-0.094137,-0.096949,0.042044
1.7000000000000028,-0.087966,-0.053613,0.03991
1.7099999999999935,-0.074913,-0.048161,0.061151
1.7199999999999989,-0.059887,-0.017429,0.050742
1.730000000000004,-0.056,-0.008436,0.063667
1.7399999999999949,-0.025635,0.006194,0.060589
1.75,-0.024724,0.000762,0.073323
1.7600000000000051,-0.018139,0.013423,0.069897
1.769999999999996,0.014294,0.040687,0.069741
1.7800000000000011,0.047427,0.04541,0.089427
1.7900000000000065,0.063845,0.037378,0.100507
1.7999999999999972,0.085126,0.051911,0.106447
1.8100000000000025,0.086156,0.06002,0.1093
1.8199999999999927,0.051274,0.048066,0.120577
1.8299999999999983,0.034707,0.04614,0.111198
1.8400000000000036,0.008932,0.02611,0.12888
1.8499999999999943,-0.000497,0.008044,0.124882
1.8599999999999997,-0.005926,0.01343,0.117544
1.8700000000000043,0.001201,0.006275,0.102923
1.8799999999999957,0.00304,0.016233,0.081133
1.8900000000000008,0.00841,0.016303,0.066586
1.9000000000000057,0.018277,0.020842,0.024672
1.9099999999999968,0.022861,0.037213,-0.007907
1.9200000000000017,0.035346,0.030254,-0.026023
1.9300000000000068,0.06039,0.00538,-0.038679
1.9399999999999975,0.05259,-0.021682,-0.046415
1.9500000000000028,0.045307,-0.026401,-0.04113
1.9599999999999935,0.028439,-0.050918,-0.050806
1.9699999999999989,0.011764,-0.062703,-0.056656
1.980000000000004,0.013503,-0.063509,-0.065769
1.9899999999999949,0.020826,-0.057998,-0.075638
2.0,0.020451,-0.07236,-0.09681
2.010000000000005,0.0277,-0.069592,-0.113115
2.019999999999996,0.037692,-0.065875,-0.129362
2.030000000000001,0.045061,-0.062205,-0.129219
2.0400000000000063,0.060319,-0.077427,-0.136517
2.049999999999997,0.066717,-0.073784,-0.14553
2.0600000000000023,0.071235,-0.079176,-0.144633
2.069999999999993,0.069441,-0.071979,-0.156453
2.0799999999999983,0.040087,-0.079424,-0.15327
2.0900000000000034,0.039012,-0.081212,-0.167888
2.0999999999999943,0.023684,-0.070501,-0.159723
2.1099999999999994,0.011092,-0.066106,-0.140662
2.1200000000000045,0.013018,-0.065193,-0.130578
2.1299999999999955,0.018753,-0.052541,-0.122115
2.140000000000001,0.024456,-0.047122,-0.101861
2.1500000000000057,0.019153,-0.034531,-0.101761
2.1599999999999966,0.011914,-0.036426,-0.087263
2.1700000000000017,0.005752,-0.02388,-0.082637
2.180000000000007,0.021535,-0.016627,-0.066841
2.1899999999999977,0.001806,0.002164,-0.055932
2.200000000000003,0.002326,0.028288,-0.039145
2.2099999999999937,0.015243,0.026511,-0.017053
2.219999999999999,0.015561,0.040874,-0.002254
2.230000000000004,0.030585,0.051739,0.030966
2.239999999999995,0.015932,0.049844,0.032568
2.25,0.018857,0.056169,0.043627
2.260000000000005,0.00868,0.048918,0.041572
2.269999999999996,-0.005477,0.070433,0.060818
2.280000000000001,0.001974,0.077679,0.065577
2.2900000000000063,-0.012853,0.065851,0.064329
2.299999999999997,-0.021531,0.08736,0.081816
2.3100000000000023,-0.067133,0.096033,0.075796
2.319999999999993,-0.061314,0.112321,0.087063
2.3299999999999983,-0.077602,0.129387,0.078837
2.3400000000000034,-0.070368,0.127657,0.074345
2.3499999999999943,-0.08946,0.133817,0.077821
2.3599999999999994,-0.146883,0.144212,0.080825
2.3700000000000045,-0.189062,0.142117,0.071116
2.3799999999999955,-0.235077,0.179646,0.081033
2.390000000000001,-0.329157,0.189881,0.079037
2.4000000000000057,-0.429458,0.207264,0.08617
2.4099999999999966,-0.603074,0.225988,0.070424
2.4200000000000017,-0.855792,0.254964,0.094863
2.430000000000007,-1.191876,0.276181,0.112614
2.4399999999999977,-1.659436,0.310973,0.119635
2.450000000000003,-2.224579,0.354098,0.147381
2.4599999999999937,-2.867191,0.426541,0.14344
2.469999999999999,-3.61396,0.510078,0.132787
2.480000000000004,-4.464538,0.610114,0.146556
2.489999999999995,-5.427837,0.690554,0.158598
2.5,-6.445446,0.803108,0.162906
2.510000000000005,-7.481765,0.948036,0.151728
2.519999999999996,-8.424891,1.093342,0.129012
2.530000000000001,-9.271181,1.231984,0.121289
2.5400000000000063,-9.980355,1.347208,0.164495
2.549999999999997,-10.491301,1.423909,0.246351
2.5600000000000023,-10.828613,1.482753,0.330128
2.569999999999993,-10.927461,1.559263,0.47012
2.5799999999999983,-10.814893,1.608651,0.577842
2.5900000000000034,-10.486857,1.61103,0.633159
2.5999999999999943,-9.96983,1.549741,0.662881
2.6099999999999994,-9.293105,1.454214,0.732691
2.6200000000000045,-8.482977,1.312819,0.759806
2.6299999999999955,-7.588449,1.142112,0.76933
2.640000000000001,-6.639602,1.002206,0.781786
2.6500000000000057,-5.734122,0.916992,0.763283
2.6599999999999966,-4.876065,0.955805,0.745648
2.6700000000000017,-4.045492,1.002621,0.699528
2.680000000000007,-3.262338,1.073537,0.618445
2.6899999999999977,-2.466449,1.09239,0.504961
2.700000000000003,-1.727772,1.090312,0.365804
2.7099999999999937,-1.04403,1.087807,0.221347
2.719999999999999,-0.443115,1.043251,0.092677
2.730000000000004,0.057172,0.985396,-0.018315
2.739999999999995,0.480644,0.930816,-0.137573
2.75,0.83523,0.848825,-0.233384
2.760000000000005,1.121516,0.778971,-0.31902
2.769999999999996,1.356766,0.723156,-0.416164
2.780000000000001,1.583571,0.623903,-0.457345
2.7900000000000063,1.839268,0.564426,-0.515985
2.799999999999997,2.150725,0.537547,-0.522389
2.8100000000000023,2.522232,0.544371,-0.510224
2.819999999999993,2.99271,0.560829,-0.496623
2.8299999999999983,3.58372,0.568247,-0.481481
2.8400000000000034,4.308854,0.570314,-0.486529
2.8499999999999943,5.142918,0.537031,-0.507847
2.8599999999999994,6.021957,0.472574,-0.563561
2.8700000000000045,6.975996,0.421287,-0.649966
2.8799999999999955,7.964869,0.381117,-0.746596
2.890000000000001,8.982767,0.321468,-0.826472
2.9000000000000057,9.957537,0.243922,-0.878051
2.9099999999999966,10.904958,0.161106,-0.896988
2.9200000000000017,11.712298,0.106944,-0.858986
2.930000000000007,12.421211,0.049523,-0.77486
2.9399999999999977,13.091852,-0.017379,-0.656608
2.950000000000003,13.545553,-0.092902,-0.534177
2.9599999999999937,13.823505,-0.140808,-0.418496
2.969999999999999,14.004842,-0.131213,-0.290726
2.980000000000004,14.090834,-0.073602,-0.171812
2.989999999999995,14.0961,-0.000527,0.011958
3.0,13.920379,0.067616,0.23155
3.010000000000005,13.581269,0.040233,0.468702
3.019999999999996,12.984114,-0.037521,0.657883
3.030000000000001,12.145984,-0.148656,0.826931
3.0400000000000063,11.10492,-0.295623,0.95274
3.049999999999997,9.930999,-0.374521,1.012977
3.0600000000000023,8.725237,-0.375028,1.042836
3.069999999999993,7.573557,-0.342534,1.024577
3.0799999999999983,6.467113,-0.311286,0.957554
3.0900000000000034,5.450989,-0.323637,0.834501
3.0999999999999943,4.523544,-0.386095,0.690111
3.1099999999999994,3.698193,-0.456832,0.506837
3.1200000000000045,2.951561,-0.513295,0.29918
3.1299999999999955,2.2808,-0.512565,0.086828
3.140000000000001,1.746617,-0.493923,-0.12452
3.1500000000000057,1.344742,-0.443125,-0.307233
3.1599999999999966,1.024933,-0.384795,-0.407503
3.1700000000000017,0.779687,-0.326837,-0.435548
3.180000000000007,0.561947,-0.28121,-0.421353
3.1899999999999977,0.390989,-0.237152,-0.377359
3.200000000000003,0.195001,-0.198835,-0.366746
3.2099999999999937,-0.019144,-0.166206,-0.323571
3.219999999999999,-0.294872,-0.168162,-0.246958
3.230000000000004,-0.585087,-0.144883,-0.213962
3.239999999999995,-0.874991,-0.123363,-0.147285
3.25,-1.130277,-0.115994,-0.062005
3.260000000000005,-1.340096,-0.124741,0.021825
3.269999999999996,-1.516529,-0.086353,0.07469
3.280000000000001,-1.704876,-0.089411,0.080294
3.2900000000000063,-1.845165,-0.049045,0.053175
3.299999999999997,-1.941502,-0.017514,0.052051
3.3100000000000023,-2.000478,0.023407,0.023264
3.319999999999993,-2.054175,0.04645,0.009024
3.3299999999999983,-2.078967,0.107544,-0.008925
3.3400000000000034,-2.12354,0.136048,-0.03666
3.3499999999999943,-2.200583,0.187802,-0.049891
3.3599999999999994,-2.307914,0.228495,-0.050856
3.3700000000000045,-2.514639,0.246899,-0.089937
3.3799999999999955,-2.852852,0.268949,-0.10878
3.390000000000001,-3.282597,0.294131,-0.148826
3.4000000000000057,-3.842096,0.31214,-0.167787
3.4099999999999966,-4.417577,0.351697,-0.17027
3.4200000000000017,-5.064507,0.378252,-0.163814
3.430000000000007,-5.756434,0.447708,-0.155675
3.4399999999999977,-6.452053,0.513433,-0.147696
3.450000000000003,-7.248212,0.574799,-0.121003
3.4599999999999937,-8.078402,0.62414,-0.096755
3.469999999999999,-8.980292,0.690886,-0.042234
3.480000000000004,-9.905294,0.727692,0.031675
3.489999999999995,-10.827036,0.759124,0.180414
3.5,-11.651013,0.719268,0.346067
3.510000000000005,-12.359027,0.65317,0.548615
3.519999999999996,-12.986361,0.538992,0.758978
3.530000000000001,-13.452679,0.425249,0.96869
3.5400000000000063,-13.737126,0.334455,1.111595
3.549999999999997,-13.818109,0.227914,1.233261
3.5600000000000023,-13.660907,0.153695,1.354839
3.569999999999993,-13.320585,0.096788,1.47721
3.5799999999999983,-12.727877,0.054106,1.559123
3.5900000000000034,-11.912236,0.061288,1.634412
3.5999999999999943,-10.924947,0.086077,1.641862
3.61,-9.665061,0.089088,1.607116
3.620000000000005,-8.268113,0.09136,1.576143
3.629999999999996,-6.832407,0.133435,1.517886
3.640000000000001,-5.408831,0.242171,1.41918
3.6500000000000057,-4.100055,0.376903,1.319164
3.6599999999999966,-2.861311,0.485875,1.192285
3.6700000000000017,-1.751006,0.568764,1.063479
3.680000000000007,-0.783194,0.608278,0.926909
3.6899999999999977,-0.005793,0.630225,0.798652
3.700000000000003,0.612886,0.627729,0.646131
3.7099999999999937,1.012169,0.633846,0.483507
3.719999999999999,1.232742,0.621824,0.300007
3.730000000000004,1.316025,0.591879,0.130874
3.739999999999995,1.304811,0.548734,-0.056121
3.75,1.232771,0.476346,-0.249758
3.760000000000005,1.070701,0.376342,-0.443065
3.769999999999996,0.896101,0.277164,-0.599063
3.780000000000001,0.677676,0.17778,-0.746511
3.7900000000000063,0.439741,0.089968,-0.834683
3.799999999999997,0.227826,0.016722,-0.896756
3.8100000000000014,0.029373,-0.029427,-0.925439
3.819999999999993,-0.120315,-0.120278,-0.946719
3.8299999999999983,-0.214421,-0.174801,-0.95043
3.8400000000000034,-0.192611,-0.207093,-0.908541
3.8499999999999934,-0.147223,-0.251717,-0.868277
3.86,0.032237,-0.265053,-0.80574
3.870000000000005,0.175586,-0.249811,-0.743332
3.879999999999996,0.405892,-0.234009,-0.668877
3.890000000000001,0.638162,-0.210962,-0.594335
3.9000000000000057,0.930684,-0.18935,-0.526355
3.9099999999999966,1.227592,-0.167666,-0.482072
3.9200000000000017,1.585401,-0.165423,-0.450022
3.930000000000007,1.983883,-0.135879,-0.421662
3.9399999999999977,2.438758,-0.107717,-0.430025
3.950000000000003,2.951185,-0.081013,-0.444064
3.9599999999999937,3.534558,-0.062762,-0.489228
3.969999999999999,4.194622,-0.043989,-0.55619
3.980000000000004,4.902182,-0.015924,-0.642415
3.989999999999995,5.674881,-0.023443,-0.732666
4.0,6.460338,-0.043411,-0.800924
4.010000000000005,7.257514,-0.019285,-0.869374
4.019999999999996,8.01707,0.051368,-0.924909
4.030000000000001,8.726049,0.099264,-0.951153
4.040000000000006,9.388541,0.146939,-0.954228
4.049999999999997,9.9439,0.163155,-0.92258
4.060000000000002,10.454885,0.189703,-0.862205
4.069999999999993,10.898395,0.227496,-0.791583
4.079999999999998,11.257835,0.248492,-0.676581
4.090000000000003,11.491124,0.263179,-0.545093
4.099999999999994,11.576361,0.277025,-0.385402
4.109999999999999,11.630581,0.259689,-0.180886
4.1200000000000045,11.50088,0.302438,0.030927
4.129999999999996,11.22673,0.347234,0.223533
4.140000000000001,10.871498,0.405714,0.414265
4.150000000000006,10.389023,0.521205,0.586565
4.159999999999997,9.82544,0.665099,0.740814
4.170000000000002,9.13393,0.827835,0.866144
4.180000000000007,8.317031,0.944627,0.957211
4.189999999999998,7.375759,0.977889,0.983481
4.200000000000003,6.363495,0.939831,0.954991
4.209999999999994,5.311649,0.847772,0.857789
4.219999999999999,4.276853,0.756865,0.708841
4.230000000000004,3.296535,0.640967,0.554776
4.239999999999995,2.395839,0.530881,0.400915
4.25,1.558759,0.386854,0.26758
4.260000000000005,0.816803,0.247189,0.135636
4.269999999999996,0.163894,0.06493,0.01351
4.280000000000001,-0.365938,-0.085886,-0.104829
4.290000000000006,-0.792489,-0.1983,-0.183937
4.299999999999997,-1.130404,-0.324685,-0.243829
4.310000000000002,-1.409038,-0.413002,-0.285203
4.319999999999993,-1.578892,-0.464587,-0.279045
4.329999999999998,-1.740734,-0.521471,-0.283806
4.340000000000003,-1.851004,-0.515943,-0.246943
4.349999999999994,-1.960158,-0.492347,-0.213472
4.359999999999999,-2.023178,-0.444003,-0.181805
4.3700000000000045,-2.064248,-0.398325,-0.14443
4.379999999999996,-2.069624,-0.350667,-0.109328
4.390000000000001,-2.029239,-0.298313,-0.079983
4.400000000000006,-2.007848,-0.235292,-0.039789
4.409999999999997,-1.971287,-0.178443,-0.035062
4.420000000000002,-1.970017,-0.10665,-0.010555
4.430000000000007,-1.997762,-0.059256,-0.026896
4.439999999999998,-2.023818,-0.017126,-0.048689
4.450000000000003,-2.080255,0.014045,-0.074649
4.459999999999994,-2.189199,0.013348,-0.087068
4.469999999999999,-2.318913,0.026913,-0.092307
4.480000000000004,-2.494768,0.022097,-0.116675
4.489999999999995,-2.744725,-0.004942,-0.099344
4.5,-3.022204,-0.033893,-0.091495
4.510000000000005,-3.366733,-0.080169,-0.081888
4.519999999999996,-3.725803,-0.119306,-0.078762
4.530000000000001,-4.139476,-0.139987,-0.085343
4.540000000000006,-4.57674,-0.155436,-0.080366
4.549999999999997,-5.050281,-0.154845,-0.066576
4.560000000000002,-5.529842,-0.183125,-0.071523
4.569999999999993,-6.02533,-0.197261,-0.039971
4.579999999999998,-6.516231,-0.205919,-0.015548
4.590000000000003,-7.03016,-0.222844,0.004797
4.599999999999994,-7.594296,-0.2583,0.070762
4.609999999999999,-8.20169,-0.325629,0.159501
4.6200000000000045,-8.785309,-0.393491,0.243083
4.629999999999996,-9.315212,-0.432939,0.366174
4.640000000000001,-9.809465,-0.464027,0.473404
4.650000000000006,-10.250962,-0.519216,0.591961
4.659999999999997,-10.594616,-0.577465,0.712619
4.670000000000002,-10.845148,-0.63871,0.812533
4.680000000000007,-10.990519,-0.641442,0.914554
4.689999999999998,-11.052764,-0.588444,1.018341
4.700000000000003,-10.969987,-0.505493,1.142712
4.709999999999994,-10.800591,-0.417499,1.227234
4.719999999999999,-10.485109,-0.343418,1.30892
4.730000000000004,-10.037671,-0.31901,1.38707
4.739999999999995,-9.414884,-0.33997,1.403043
4.75,-8.618497,-0.356187,1.39854
4.760000000000005,-7.734663,-0.366433,1.352363
4.769999999999996,-6.791683,-0.35056,1.342836
4.780000000000001,-5.847293,-0.305858,1.346436
4.790000000000006,-4.942396,-0.188256,1.302886
4.799999999999997,-4.057332,-0.025714,1.203072
4.810000000000002,-3.237913,0.165273,1.072781
4.819999999999993,-2.474561,0.358553,0.903511
4.829999999999998,-1.789667,0.563806,0.732368
4.840000000000003,-1.190118,0.746018,0.568892
4.849999999999994,-0.670784,0.891824,0.388355
4.859999999999999,-0.234419,0.997614,0.198951
4.8700000000000045,0.152984,1.032906,-0.029323
4.879999999999996,0.437427,1.034277,-0.259327
4.890000000000001,0.67352,1.028164,-0.458045
4.900000000000006,0.81045,0.973474,-0.614849
4.909999999999997,0.878658,0.96523,-0.765607
4.920000000000002,0.901064,0.922326,-0.850747
4.930000000000007,0.862609,0.84835,-0.944387
4.939999999999998,0.804392,0.767832,-0.980816
4.950000000000003,0.75131,0.662154,-1.013804
4.959999999999994,0.691,0.54647,-1.015933
4.969999999999999,0.617938,0.432456,-1.017302
4.980000000000004,0.567248,0.330261,-0.983526
4.989999999999995,0.496818,0.244122,-0.932477
5.0,0.430281,0.171517,-0.877553
5.010000000000005,0.391706,0.118854,-0.790965
5.019999999999996,0.362532,0.082462,-0.706846
5.030000000000001,0.372109,0.067981,-0.621984
5.040000000000006,0.430838,0.041313,-0.542985
5.049999999999997,0.515427,0.038203,-0.468847
5.060000000000002,0.656644,0.024543,-0.386775
5.069999999999993,0.827368,0.032738,-0.318697
5.079999999999998,1.069312,0.037758,-0.25707
5.090000000000003,1.31888,0.069807,-0.211535
5.099999999999994,1.630476,0.097784,-0.178968
5.109999999999999,1.973216,0.135911,-0.159559
5.1200000000000045,2.3819,0.178118,-0.129103
5.129999999999996,2.828444,0.20262,-0.130257
5.140000000000001,3.347562,0.253687,-0.142928
5.150000000000006,3.882653,0.275084,-0.164927
5.159999999999997,4.454331,0.293043,-0.184703
5.170000000000002,5.082481,0.311442,-0.234734
5.180000000000007,5.755671,0.353687,-0.286507
5.189999999999998,6.417374,0.361718,-0.33328
5.200000000000003,7.086387,0.377021,-0.396233
5.209999999999994,7.744784,0.39203,-0.408152
5.219999999999999,8.351625,0.381501,-0.405509
5.230000000000004,8.920021,0.370877,-0.403315
5.239999999999995,9.381972,0.342398,-0.413665
5.25,9.754745,0.344912,-0.4192
5.260000000000005,10.010387,0.32582,-0.397348
5.269999999999996,10.178707,0.32868,-0.370986
5.280000000000001,10.272653,0.347284,-0.300726
5.290000000000006,10.267911,0.354244,-0.182577
5.299999999999997,10.133901,0.378272,-0.02392
5.310000000000002,9.888915,0.377965,0.143841
5.319999999999993,9.539696,0.379034,0.276425
5.329999999999998,9.100759,0.385591,0.399608
5.340000000000003,8.564396,0.413512,0.521759
5.349999999999994,7.960656,0.414837,0.616167
5.359999999999999,7.303026,0.426676,0.688096
5.3700000000000045,6.605534,0.477939,0.723362
5.379999999999996,5.823647,0.469121,0.73473
5.390000000000001,5.00041,0.416684,0.68467
5.400000000000006,4.084257,0.336778,0.616702
5.409999999999997,3.129016,0.231773,0.507879
5.420000000000002,2.171921,0.128725,0.394621
5.430000000000007,1.264363,0.03683,0.278515
5.439999999999998,0.391834,-0.054191,0.194744
5.450000000000003,-0.359998,-0.158158,0.13239
5.459999999999994,-1.009318,-0.252511,0.055
5.469999999999999,-1.533548,-0.321688,0.028916
5.480000000000004,-1.907335,-0.389252,0.055999
5.489999999999995,-2.173808,-0.391034,0.121871
5.5,-2.30268,-0.357552,0.17351
5.510000000000005,-2.317379,-0.274924,0.223493
5.519999999999996,-2.238803,-0.188077,0.270152
5.530000000000001,-2.051203,-0.114953,0.36567
5.540000000000006,-1.685355,-0.094699,0.443693
5.549999999999997,-1.296448,-0.039878,0.495051
5.560000000000002,-0.911507,0.018592,0.509943
5.569999999999993,-0.566001,0.068551,0.516809
5.579999999999998,-0.31286,0.16908,0.539473
5.590000000000003,-0.140279,0.238076,0.491549
5.599999999999994,-0.00911,0.315821,0.395632
5.609999999999999,0.012511,0.386887,0.327186
5.6200000000000045,0.030692,0.405359,0.269242
5.629999999999996,0.25105,0.353572,0.229709
5.640000000000001,0.624644,0.310229,0.162788
5.650000000000006,0.56772,0.324177,0.178457
5.659999999999997,0.239243,0.334235,0.256297
5.670000000000002,-0.000839,0.309304,0.325994
5.680000000000007,-0.07205,0.254429,0.317259
5.689999999999998,-0.139086,0.240877,0.319954
5.700000000000003,-0.255206,0.240158,0.338507
5.709999999999994,-0.457802,0.253025,0.385254
5.719999999999999,-0.742834,0.250935,0.436217
5.730000000000004,-1.02629,0.225555,0.477789
5.739999999999995,-1.246921,0.210827,0.462005
5.75,-1.325999,0.202424,0.417189
5.760000000000005,-1.308087,0.202797,0.360014
5.769999999999996,-1.197593,0.223454,0.28961
5.780000000000001,-0.989422,0.221056,0.250294
5.790000000000006,-0.761074,0.21227,0.2349
5.799999999999997,-0.477235,0.238171,0.236232
5.810000000000002,-0.240715,0.286454,0.224421
5.819999999999993,-0.012652,0.31666,0.209502
5.829999999999998,0.204503,0.339485,0.21622
5.840000000000003,0.382695,0.3335,0.224074
5.849999999999994,0.508904,0.292257,0.203511
5.859999999999999,0.592031,0.25803,0.151398
5.8700000000000045,0.633024,0.229653,0.067612
5.879999999999996,0.624542,0.208176,-0.053369
5.890000000000001,0.624724,0.145224,-0.155552
5.900000000000006,0.597563,0.09666,-0.276182
5.909999999999997,0.605528,0.048432,-0.350605
5.920000000000002,0.665362,-0.023163,-0.401828
5.930000000000007,0.681709,-0.068022,-0.442324
5.939999999999998,0.696854,-0.136412,-0.471233
5.950000000000003,0.60315,-0.156858,-0.47459
5.959999999999994,0.482224,-0.17923,-0.452683
5.969999999999999,0.33276,-0.214358,-0.434941
5.980000000000004,0.232328,-0.270695,-0.431482
5.989999999999995,0.145947,-0.287292,-0.469391
6.0,0.123564,-0.307269,-0.492775
6.010000000000005,0.059199,-0.313364,-0.519368
6.019999999999996,-0.110971,-0.268142,-0.475575
6.030000000000001,-0.357392,-0.186903,-0.45877
6.040000000000006,-0.613039,-0.132826,-0.398581
6.049999999999997,-0.781251,-0.085135,-0.377453
6.060000000000002,-0.845278,-0.056672,-0.337801
6.069999999999993,-0.799961,-0.036403,-0.331534
6.079999999999998,-0.650045,-0.03185,-0.363409
6.090000000000003,-0.492458,0.003294,-0.389325
6.099999999999994,-0.332922,0.023926,-0.3678
6.109999999999999,-0.154734,0.069992,-0.347547
6.1200000000000045,-0.007652,0.098657,-0.295951
6.129999999999996,0.120347,0.136308,-0.244404
6.140000000000001,0.233425,0.169578,-0.2204
6.150000000000006,0.281722,0.216734,-0.211781
6.159999999999997,0.346415,0.271197,-0.232179
6.170000000000002,0.365007,0.305486,-0.263566
6.180000000000007,0.377878,0.298225,-0.238895
6.189999999999998,0.376344,0.29815,-0.197832
6.200000000000003,0.328328,0.304099,-0.143553
6.209999999999994,0.274758,0.311809,-0.097497
6.219999999999999,0.177246,0.311139,-0.045728
6.230000000000004,0.052086,0.301346,-0.010958
6.239999999999995,-0.059775,0.27078,0.007225
6.25,-0.222613,0.25426,0.032155
6.260000000000005,-0.403606,0.252114,0.044246
6.269999999999996,-0.574674,0.282537,0.091651
6.280000000000001,-0.696759,0.289989,0.126679
6.290000000000006,-0.70176,0.293672,0.174202
6.299999999999997,-0.666336,0.311126,0.220531
6.310000000000002,-0.58377,0.299142,0.268954
6.319999999999993,-0.457344,0.294678,0.306219
6.329999999999998,-0.296756,0.266148,0.312581
6.340000000000003,-0.095451,0.270362,0.324471
6.349999999999994,0.063316,0.266098,0.298244
6.359999999999999,0.173252,0.293893,0.28456
6.3700000000000045,0.222672,0.300484,0.289918
6.379999999999996,0.197347,0.324504,0.288996
6.390000000000001,0.127081,0.335629,0.284567
6.400000000000006,0.09295,0.309272,0.29666
6.409999999999997,0.0647,0.258706,0.290267
6.420000000000002,0.060345,0.220904,0.269712
6.430000000000007,0.055948,0.172254,0.262721
6.439999999999998,0.060355,0.111028,0.235549
6.450000000000003,0.06095,0.060627,0.173747
6.459999999999994,0.06014,0.030924,0.132321
6.469999999999999,0.004159,0.026087,0.118748
6.480000000000004,-0.07184,0.032868,0.092242
6.489999999999995,-0.141315,0.029652,0.10226
6.5,-0.232948,0.019136,0.09817
6.510000000000005,-0.292503,0.011487,0.098166
6.519999999999996,-0.357553,0.004748,0.088077
6.530000000000001,-0.381364,0.000102,0.084933
6.540000000000006,-0.337808,-0.016772,0.064284
6.549999999999997,-0.256463,-0.06581,0.033666
6.560000000000002,-0.185842,-0.1013,0.015937
6.569999999999993,-0.115848,-0.124145,0.012959
6.579999999999998,-0.050498,-0.147095,0.002612
6.590000000000003,-0.040767,-0.163249,0.000663
6.599999999999994,-0.084771,-0.150958,-0.032636
6.609999999999999,-0.178432,-0.165954,-0.043206
6.6200000000000045,-0.289403,-0.173876,-0.070356
6.629999999999996,-0.407402,-0.160018,-0.102844
6.640000000000001,-0.486935,-0.15157,-0.136674
6.650000000000006,-0.53194,-0.151614,-0.164675
6.659999999999997,-0.512664,-0.140609,-0.180706
6.670000000000002,-0.48053,-0.138678,-0.169311
6.680000000000007,-0.463978,-0.145883,-0.133582
6.689999999999998,-0.46389,-0.164122,-0.07995
6.700000000000003,-0.489441,-0.186081,-0.033109
6.709999999999994,-0.500302,-0.203363,0.012184
6.719999999999999,-0.493503,-0.207969,0.066964
6.730000000000004,-0.442854,-0.207829,0.113271
6.739999999999995,-0.440941,-0.229809,0.177798
6.75,-0.412444,-0.199077,0.256165
6.760000000000005,-0.37709,-0.193453,0.318802
6.769999999999996,-0.292711,-0.203672,0.374599
6.780000000000001,-0.232591,-0.212139,0.368019
6.790000000000006,-0.224629,-0.219036,0.353477
6.799999999999997,-0.224644,-0.190046,0.303613
6.810000000000002,-0.287718,-0.176117,0.28189
6.819999999999993,-0.387778,-0.135468,0.270017
6.829999999999998,-0.541178,-0.116708,0.262724
6.840000000000003,-0.693046,-0.099633,0.217151
6.849999999999994,-0.826345,-0.086035,0.213813
6.859999999999999,-0.885508,-0.10792,0.163492
6.8700000000000045,-0.904116,-0.100649,0.099399
6.879999999999996,-0.912582,-0.093402,0.053683
6.890000000000001,-0.876281,-0.091494,0.010272
6.900000000000006,-0.827991,-0.10053,0.004309
6.909999999999997,-0.744371,-0.149673,0.038589
6.920000000000002,-0.666025,-0.180692,0.066656
6.930000000000007,-0.609303,-0.183873,0.078287
6.939999999999998,-0.578009,-0.158399,0.057976
6.950000000000003,-0.542936,-0.130259,0.045094
6.959999999999994,-0.440087,-0.092566,0.020472
6.969999999999999,-0.277011,-0.058884,-0.012542
6.980000000000004,-0.07749,-0.034026,-0.049802
6.989999999999995,0.116181,-0.014393,-0.112733
7.0,0.264561,0.037448,-0.180408
7.010000000000005,0.387029,0.069023,-0.254253
7.019999999999996,0.475144,0.116393,-0.315643
7.030000000000001,0.553188,0.102464,-0.37785
7.040000000000006,0.623732,0.07045,-0.421152
7.049999999999997,0.6869,0.032979,-0.449992
7.060000000000002,0.697196,-0.000308,-0.457552
7.069999999999993,0.616116,-0.028728,-0.469004
7.079999999999998,0.513047,-0.061853,-0.480813
7.090000000000003,0.388731,-0.066505,-0.474213
7.099999999999994,0.338691,-0.106413,-0.48448
7.109999999999999,0.303486,-0.166342,-0.437235
7.1200000000000045,0.28441,-0.247725,-0.377369
7.129999999999996,0.247566,-0.30054,-0.304523
7.140000000000001,0.150912,-0.328448,-0.203882
7.150000000000006,0.022741,-0.380091,-0.113095
7.159999999999997,-0.15451,-0.412208,-0.026355
7.170000000000002,-0.302313,-0.431382,0.051823
7.180000000000007,-0.420341,-0.466315,0.107446
7.189999999999998,-0.483031,-0.509595,0.134466
7.200000000000003,-0.557162,-0.509876,0.131721
7.209999999999994,-0.664592,-0.488814,0.159767
7.219999999999999,-0.775627,-0.451671,0.15412
7.230000000000004,-0.853321,-0.389161,0.143763
7.239999999999995,-0.896803,-0.35157,0.1144
7.25,-0.896546,-0.324529,0.096459
7.260000000000005,-0.907345,-0.306627,0.085541
7.269999999999996,-0.945043,-0.308711,0.06671
7.280000000000001,-1.037768,-0.321982,0.056163
7.290000000000006,-1.178978,-0.342811,0.061349
7.299999999999997,-1.446633,-0.362519,0.037518
7.310000000000002,-1.877544,-0.416591,0.016615
7.319999999999993,-2.452904,-0.474202,0.002955
7.329999999999998,-3.160816,-0.589491,-0.015002
7.340000000000003,-3.998782,-0.71901,-0.03666
7.349999999999994,-4.922316,-0.836514,-0.046568
7.359999999999999,-5.869374,-0.944431,-0.069528
7.370000000000003,-6.83423,-1.021546,-0.074884
7.3799999999999955,-7.826736,-1.055642,-0.072724
7.390000000000001,-8.823762,-1.029462,-0.086411
7.400000000000006,-9.751617,-0.980484,-0.073419
7.409999999999997,-10.573084,-0.920997,-0.043394
7.420000000000002,-11.343339,-0.844846,-0.041722
7.430000000000007,-12.017906,-0.73567,-0.023747
7.439999999999998,-12.580761,-0.667352,-0.026767
7.450000000000003,-12.936584,-0.545605,0.006332
7.459999999999994,-12.992838,-0.389684,0.04004
7.469999999999999,-12.756113,-0.259892,0.063689
7.480000000000004,-12.206734,-0.214226,0.046661
7.489999999999995,-11.39614,-0.287642,-0.003927
7.5,-10.340455,-0.365289,-0.05877
7.510000000000005,-9.128851,-0.42048,-0.091257
7.519999999999996,-7.832841,-0.397558,-0.096167
7.530000000000001,-6.521716,-0.326132,-0.11116
7.540000000000006,-5.282832,-0.273627,-0.103589
7.549999999999997,-4.139123,-0.225284,-0.100976
7.560000000000002,-3.117642,-0.207965,-0.118465
7.569999999999993,-2.163829,-0.220245,-0.07489
7.579999999999998,-1.299726,-0.188159,-0.01913
7.590000000000003,-0.543776,-0.161733,0.018656
7.599999999999994,0.075276,-0.114737,0.049379
7.609999999999999,0.5249,-0.069798,0.048618
7.620000000000003,0.828455,-0.005864,0.042481
7.6299999999999955,0.943878,0.079617,0.019417
7.640000000000001,0.969132,0.132333,-0.008861
7.650000000000006,0.909405,0.188134,-0.033633
7.659999999999997,0.814364,0.211177,-0.072072
7.670000000000002,0.702823,0.22771,-0.101701
7.680000000000007,0.536202,0.236671,-0.144956
7.689999999999998,0.40772,0.241431,-0.21791
7.700000000000003,0.274087,0.254163,-0.263373
7.709999999999994,0.182976,0.234796,-0.303205
7.719999999999999,0.132441,0.227248,-0.324027
7.730000000000004,0.139751,0.22551,-0.322092
7.739999999999995,0.221973,0.20451,-0.293865
7.75,0.394443,0.21928,-0.256732
7.760000000000005,0.693249,0.2384,-0.204202
7.769999999999996,1.074498,0.266948,-0.148647
7.780000000000001,1.531724,0.286779,-0.068461
7.790000000000006,2.135548,0.31204,0.033806
7.799999999999997,2.841657,0.375956,0.162609
7.810000000000002,3.676099,0.46424,0.291607
7.819999999999993,4.617382,0.599992,0.428061
7.829999999999998,5.652476,0.779599,0.550757
7.840000000000003,6.775578,0.992176,0.640341
7.849999999999994,7.904013,1.204735,0.711806
7.859999999999999,9.054269,1.414556,0.779959
7.870000000000003,10.170822,1.602758,0.795394
7.8799999999999955,11.193976,1.780562,0.835144
7.890000000000001,12.103624,1.907435,0.84548
7.900000000000006,12.819524,2.039351,0.860606
7.909999999999997,13.367522,2.148692,0.856827
7.920000000000002,13.681127,2.24497,0.833387
7.930000000000007,13.849137,2.336655,0.776828
7.939999999999998,13.878851,2.414594,0.711794
7.950000000000003,13.738828,2.436731,0.671258
7.959999999999994,13.625682,2.344283,0.676126
7.969999999999999,13.25968,2.307299,0.731202
7.980000000000004,12.788001,2.187531,0.774873
7.989999999999995,12.184987,2.075852,0.853337
8.0,11.465922,1.908761,0.931367
8.010000000000005,10.667923,1.717407,0.99698
8.019999999999996,9.831097,1.475009,1.097858
8.030000000000001,9.002766,1.193219,1.196508
8.040000000000006,8.134438,0.942291,1.267784
8.049999999999997,7.260862,0.729458,1.292153
8.060000000000002,6.431161,0.538797,1.266289
8.069999999999993,5.643291,0.391841,1.247033
8.079999999999998,4.92868,0.275163,1.184339
8.090000000000003,4.284036,0.137124,1.102153
8.099999999999994,3.68505,0.007361,0.992305
8.11,3.118779,-0.136585,0.886374
8.120000000000005,2.565593,-0.265046,0.782624
8.129999999999995,2.045332,-0.386051,0.654702
8.14,1.60811,-0.466109,0.540194
8.150000000000006,1.187772,-0.520996,0.430725
8.159999999999997,0.828038,-0.562923,0.332242
8.170000000000002,0.53205,-0.62419,0.243554
8.180000000000007,0.280555,-0.65624,0.182378
8.189999999999998,0.103225,-0.694995,0.153189
8.200000000000003,-0.033649,-0.712769,0.109214
8.209999999999994,-0.145588,-0.728751,0.089288
8.219999999999999,-0.212082,-0.717527,0.095808
8.230000000000004,-0.273574,-0.672063,0.08817
8.239999999999995,-0.300947,-0.629257,0.124766
8.25,-0.327121,-0.559312,0.145274
8.260000000000005,-0.348257,-0.514527,0.161939
8.269999999999996,-0.350495,-0.431716,0.183901
8.280000000000001,-0.370922,-0.395817,0.195938
8.290000000000006,-0.380592,-0.366169,0.191583
8.299999999999997,-0.445206,-0.338736,0.179135
8.310000000000002,-0.526885,-0.294349,0.171215
8.319999999999993,-0.647363,-0.268194,0.147968
8.329999999999998,-0.759321,-0.227507,0.135085
8.340000000000003,-0.868365,-0.181383,0.135116
8.349999999999994,-0.981687,-0.161383,0.104632
8.36,-1.097942,-0.114502,0.115529
8.370000000000005,-1.232115,-0.093791,0.106703
8.379999999999995,-1.401632,-0.057133,0.107648
8.39,-1.597861,-0.027889,0.098109
8.400000000000006,-1.865315,-0.009079,0.127696
8.409999999999997,-2.189235,0.031092,0.142154
8.420000000000002,-2.617489,0.056046,0.182575
8.430000000000007,-3.180302,0.052162,0.257353
8.439999999999998,-3.846662,0.041536,0.315961
8.450000000000003,-4.620409,0.002216,0.372828
8.459999999999994,-5.501998,-0.026931,0.408331
8.469999999999999,-6.499738,0.000819,0.437507
8.480000000000004,-7.545031,0.026531,0.473341
8.489999999999995,-8.65236,0.059163,0.521266
8.5,-9.76845,0.053752,0.570416
8.510000000000005,-10.852901,0.064625,0.64746
8.519999999999996,-11.8511,0.034595,0.717762
8.530000000000001,-12.733898,0.005341,0.817069
8.540000000000006,-13.502087,-0.064413,0.937623
8.549999999999997,-14.175105,-0.137131,1.085027
8.560000000000002,-14.757436,-0.261715,1.226555
8.569999999999993,-15.2129,-0.362802,1.385383
8.579999999999998,-15.48764,-0.442522,1.459913
8.590000000000003,-15.62794,-0.549516,1.478375
8.599999999999994,-15.573973,-0.680211,1.416937
8.61,-15.237829,-0.769991,1.394398
8.620000000000005,-14.732213,-0.796512,1.292747
8.629999999999995,-14.016611,-0.756244,1.106892
8.64,-13.051786,-0.671711,0.88724
8.650000000000006,-11.862567,-0.563744,0.700183
8.659999999999997,-10.483672,-0.506976,0.568887
8.670000000000002,-8.899802,-0.46792,0.486688
8.680000000000007,-7.21984,-0.356146,0.401245
8.689999999999998,-5.562602,-0.181761,0.342799
8.700000000000003,-3.974254,0.046119,0.267646
8.709999999999994,-2.500465,0.302105,0.224281
8.719999999999999,-1.160281,0.55743,0.166452
8.730000000000004,0.048267,0.74902,0.121757
8.739999999999995,1.091205,0.898378,0.025184
8.75,1.970353,0.979031,-0.055132
8.760000000000005,2.610868,1.001712,-0.155839
8.769999999999996,3.029845,0.956216,-0.253069
8.780000000000001,3.238421,0.897511,-0.336861
8.790000000000006,3.240611,0.841775,-0.392284
8.799999999999997,3.046008,0.768361,-0.445029
8.810000000000002,2.69774,0.69753,-0.521712
8.819999999999993,2.322766,0.604932,-0.588047
8.829999999999998,1.896358,0.484933,-0.633483
8.840000000000003,1.479344,0.368688,-0.656848
8.849999999999994,1.082375,0.243643,-0.670913
8.86,0.741506,0.135144,-0.671242
8.870000000000005,0.443311,0.061081,-0.655975
8.879999999999995,0.223376,0.014542,-0.626567
8.89,0.106861,0.01912,-0.569628
8.900000000000006,0.126397,0.072413,-0.519432
8.909999999999997,0.297775,0.121268,-0.456325
8.920000000000002,0.652281,0.18933,-0.399699
8.930000000000007,1.160483,0.258384,-0.326424
8.939999999999998,1.827057,0.34022,-0.249131
8.950000000000003,2.595587,0.397367,-0.179944
8.959999999999994,3.44416,0.492808,-0.125672
8.969999999999999,4.349571,0.595869,-0.064996
8.980000000000004,5.275932,0.699111,-0.014938
8.989999999999995,6.231728,0.818718,0.024773
9.0,7.166149,0.923683,0.055825
9.010000000000003,8.035955,0.999423,0.067412
9.019999999999996,8.841407,1.049553,0.095241
9.03,9.51858,1.091634,0.106662
9.040000000000006,10.084439,1.096969,0.103374
9.049999999999995,10.508293,1.084405,0.100793
9.060000000000002,10.812187,1.056644,0.107507
9.069999999999991,11.012687,1.023692,0.118286
9.079999999999998,11.149055,0.970538,0.151702
9.090000000000003,11.209027,0.936793,0.199
9.099999999999994,11.20903,0.936941,0.233193
9.11,11.179847,0.92607,0.29884
9.120000000000005,11.1003,0.95478,0.360555
9.129999999999995,11.06666,0.945129,0.420537
9.14,10.958787,0.978545,0.484492
9.150000000000006,10.780114,1.00795,0.498104
9.159999999999997,10.552188,1.044241,0.515714
9.170000000000002,10.245015,1.050223,0.515439
9.180000000000009,9.851538,1.028502,0.530061
9.189999999999998,9.35716,0.974493,0.569422
9.200000000000005,8.755605,0.858506,0.586541
9.209999999999994,8.104311,0.720755,0.604665
9.22,7.372556,0.57713,0.628995
9.230000000000004,6.66632,0.419267,0.665369
9.239999999999997,5.984853,0.276182,0.678563
9.25,5.353189,0.162378,0.690972
9.260000000000003,4.810007,0.04558,0.675262
9.269999999999996,4.320595,-0.022225,0.657173
9.28,3.870973,-0.116803,0.64291
9.290000000000006,3.439781,-0.18066,0.583568
9.299999999999995,2.999008,-0.267976,0.512839
9.310000000000002,2.548876,-0.351749,0.394464
9.319999999999991,2.104831,-0.397707,0.272925
9.329999999999998,1.667876,-0.448956,0.137736
9.340000000000003,1.25324,-0.474737,0.006857
9.349999999999994,0.875304,-0.502101,-0.098867
9.36,0.513116,-0.534895,-0.160618
9.370000000000005,0.175211,-0.547816,-0.198093
9.379999999999995,-0.138017,-0.575105,-0.209869
9.39,-0.425384,-0.596823,-0.199333
9.400000000000006,-0.682657,-0.569723,-0.180549
9.409999999999997,-0.896129,-0.544087,-0.168463
9.420000000000002,-1.065314,-0.495663,-0.150962
9.430000000000009,-1.203249,-0.442579,-0.119306
9.439999999999998,-1.312116,-0.399243,-0.091968
9.450000000000005,-1.375073,-0.345713,-0.058444
9.459999999999994,-1.446406,-0.309444,-0.010656
9.47,-1.504235,-0.275802,0.012608
9.480000000000004,-1.544012,-0.259162,0.040493
9.489999999999997,-1.583362,-0.261378,0.041681
9.5,-1.606645,-0.234606,0.053508
9.510000000000003,-1.656526,-0.20613,0.051324
9.519999999999996,-1.705205,-0.214589,0.04325
9.53,-1.781817,-0.198983,0.042416
9.540000000000006,-1.889889,-0.200708,0.029086
9.549999999999995,-2.079882,-0.187743,0.036792
9.560000000000002,-2.362566,-0.199653,0.053067
9.569999999999991,-2.756976,-0.216694,0.060546
9.579999999999998,-3.320281,-0.241212,0.120519
9.590000000000003,-4.056266,-0.305521,0.154903
9.599999999999994,-4.958381,-0.367223,0.212652
9.61,-6.007696,-0.431651,0.271121
9.620000000000005,-7.160053,-0.500435,0.370186
9.629999999999995,-8.373498,-0.563385,0.470303
9.64,-9.573351,-0.629903,0.546739
9.650000000000006,-10.732409,-0.659249,0.625048
9.659999999999997,-11.840924,-0.729758,0.707178
9.670000000000002,-12.825431,-0.816326,0.778903
9.680000000000009,-13.721201,-0.901332,0.86099
9.689999999999998,-14.467466,-1.018675,0.955656
9.700000000000005,-15.044313,-1.128363,1.069132
9.709999999999994,-15.448929,-1.237256,1.202963
9.72,-15.66541,-1.343088,1.295394
9.730000000000004,-15.722942,-1.429663,1.323401
9.739999999999997,-15.524087,-1.458688,1.275023
9.75,-15.196562,-1.475163,1.156412
9.760000000000003,-14.579668,-1.475082,1.054337
9.769999999999996,-13.726384,-1.373307,0.940297
9.78,-12.676968,-1.211854,0.778557
9.790000000000006,-11.473158,-0.965554,0.667438
9.799999999999995,-10.109322,-0.683149,0.602628
9.810000000000002,-8.572911,-0.407279,0.530836
9.819999999999991,-6.886781,-0.148642,0.477289
9.829999999999998,-5.147612,0.112724,0.43917
9.840000000000003,-3.458344,0.398874,0.419048
9.849999999999994,-1.881641,0.69063,0.377506
9.86,-0.449218,0.931074,0.35555
9.870000000000005,0.768866,1.102798,0.276899
9.879999999999995,1.74761,1.188556,0.170427
9.89,2.508693,1.215363,0.054899
9.900000000000006,3.005418,1.170081,-0.0468
9.909999999999997,3.277316,1.070997,-0.144902
9.920000000000002,3.298286,0.937842,-0.22113
9.930000000000009,3.149862,0.787374,-0.292408
9.939999999999998,2.815833,0.632007,-0.358861
9.950000000000005,2.379683,0.485024,-0.413836
9.959999999999994,1.899116,0.350441,-0.452876
9.97,1.421567,0.228429,-0.490834
9.980000000000004,1.0208,0.097036,-0.515084
9.989999999999997,0.699236,-0.001425,-0.531545
10.0,0.502357,-0.094598,-0.507919
10.010000000000003,0.388345,-0.143101,-0.49816
10.019999999999996,0.376872,-0.192781,-0.466034
10.03,0.466839,-0.184993,-0.43642
10.040000000000006,0.661604,-0.151315,-0.388687
10.049999999999995,0.968247,-0.106087,-0.326581
10.060000000000002,1.393194,-0.025701,-0.288996
10.069999999999991,1.939387,0.085167,-0.237581
10.079999999999998,2.605608,0.213013,-0.182532
10.090000000000003,3.359482,0.340485,-0.139088
10.099999999999994,4.206463,0.46301,-0.103588
10.11,5.093688,0.591209,-0.071993
10.120000000000005,5.980214,0.686907,-0.066337
10.129999999999995,6.837884,0.814888,-0.076183
10.14,7.658492,0.908432,-0.079605
10.150000000000006,8.414825,0.98349,-0.079516
10.159999999999997,9.110608,1.047483,-0.085839
10.170000000000002,9.754494,1.073362,-0.098679
10.180000000000009,10.315304,1.11492,-0.119634
10.189999999999998,10.788769,1.121802,-0.114629
10.200000000000005,11.123977,1.126046,-0.129748
10.209999999999994,11.328855,1.145504,-0.142832
10.22,11.461086,1.137591,-0.146261
10.230000000000004,11.496281,1.135264,-0.172865
10.239999999999997,11.408585,1.087843,-0.156035
10.25,11.26978,1.029531,-0.141896
10.260000000000003,11.069104,0.920259,-0.062601
10.269999999999996,10.702453,0.82557,0.026461
10.28,10.19484,0.713679,0.130824
10.290000000000006,9.536947,0.581055,0.242994
10.299999999999995,8.699684,0.423614,0.377958
10.310000000000002,7.763344,0.249429,0.498522
10.319999999999991,6.712857,0.047789,0.578942
10.329999999999998,5.62364,-0.156685,0.61505
10.340000000000003,4.519125,-0.389939,0.614157
10.349999999999994,3.444557,-0.564115,0.577938
10.36,2.445578,-0.697934,0.537806
10.370000000000005,1.571174,-0.798503,0.461335
10.379999999999995,0.796889,-0.860766,0.368292
10.39,0.099665,-0.899352,0.258173
10.400000000000006,-0.512228,-0.924889,0.16209
10.409999999999997,-1.043186,-0.915663,0.059294
10.420000000000002,-1.487501,-0.862468,-0.045451
10.430000000000009,-1.792412,-0.792179,-0.136314
10.439999999999998,-1.943132,-0.696717,-0.206637
10.450000000000005,-1.970816,-0.585212,-0.238638
10.459999999999994,-1.899828,-0.486724,-0.253127
10.47,-1.786531,-0.378022,-0.244973
10.480000000000004,-1.651524,-0.303551,-0.193123
10.489999999999997,-1.526253,-0.274208,-0.121828
10.5,-1.422935,-0.232319,-0.076225
10.510000000000003,-1.378493,-0.215109,-0.030781
10.519999999999996,-1.390915,-0.219878,0.035589
10.53,-1.408797,-0.225544,0.104612
10.540000000000006,-1.456288,-0.252125,0.169345
10.549999999999995,-1.504138,-0.300335,0.230183
10.560000000000002,-1.558016,-0.315181,0.273097
10.569999999999991,-1.619293,-0.330043,0.303118
10.579999999999998,-1.6694,-0.324971,0.315238
10.590000000000003,-1.665587,-0.321333,0.327142
10.599999999999994,-1.673932,-0.328598,0.324164
10.61,-1.641029,-0.335616,0.334545
10.620000000000005,-1.604213,-0.320953,0.336095
10.629999999999995,-1.567256,-0.297375,0.337756
10.64,-1.496833,-0.246589,0.354779
10.650000000000006,-1.434143,-0.228224,0.386843
10.659999999999997,-1.373545,-0.220753,0.404137
10.670000000000002,-1.328885,-0.188314,0.439763
10.680000000000009,-1.339161,-0.161548,0.480091
10.689999999999998,-1.38551,-0.10888,0.533068
10.700000000000005,-1.424385,-0.04175,0.570785
10.709999999999994,-1.453933,0.029984,0.625122
10.72,-1.485688,0.134008,0.684359
10.730000000000004,-1.537558,0.245217,0.728808
10.739999999999997,-1.606646,0.367253,0.774996
10.75,-1.684694,0.504637,0.813953
10.760000000000003,-1.80181,0.658938,0.848036
10.769999999999996,-1.942797,0.805954,0.879878
10.78,-2.148178,0.982288,0.921243
10.790000000000006,-2.406501,1.168216,0.959312
10.799999999999995,-2.764048,1.339083,0.971247
10.810000000000002,-3.20209,1.502187,0.999364
10.819999999999991,-3.779106,1.673378,1.008355
10.829999999999998,-4.450066,1.798861,1.016428
10.840000000000003,-5.17241,1.866495,1.001206
10.849999999999994,-5.903039,1.874622,0.976952
10.86,-6.649834,1.8458,0.942901
10.870000000000005,-7.370012,1.766643,0.901316
10.879999999999995,-8.033565,1.675981,0.875933
10.89,-8.606001,1.499433,0.86629
10.900000000000006,-9.063638,1.281263,0.887751
10.909999999999997,-9.452496,0.971666,0.882509
10.920000000000002,-9.775214,0.65263,0.801142
10.930000000000009,-10.012641,0.316137,0.651144
10.939999999999998,-10.125948,0.070871,0.394275
10.950000000000005,-10.145063,-0.10157,0.099477
10.959999999999994,-10.038462,-0.16361,-0.212256
10.97,-9.775067,-0.228453,-0.487267
10.980000000000004,-9.413403,-0.234991,-0.676275
10.989999999999997,-8.968106,-0.210175,-0.876641
11.0,-8.46497,-0.100414,-1.112674
11.010000000000003,-7.889855,0.053144,-1.34254
11.019999999999996,-7.291675,0.269015,-1.540205
11.03,-6.640046,0.481583,-1.668708
11.040000000000006,-5.94687,0.631176,-1.729907
11.049999999999995,-5.197405,0.741562,-1.761653
11.060000000000002,-4.436611,0.836401,-1.726853
11.069999999999991,-3.639009,0.953109,-1.700429
11.079999999999998,-2.829017,1.021218,-1.615944
11.090000000000003,-2.021475,1.019142,-1.462862
11.099999999999994,-1.20551,1.029828,-1.303907
11.11,-0.412118,1.002458,-1.141956
11.120000000000005,0.303754,0.988817,-0.985471
11.129999999999995,0.902409,0.967093,-0.847177
11.14,1.40007,0.921234,-0.720612
11.150000000000006,1.751892,0.901467,-0.583809
11.159999999999997,2.011147,0.829079,-0.481712
11.170000000000002,2.164495,0.763292,-0.368115
11.180000000000009,2.227748,0.673456,-0.269695
11.189999999999998,2.193891,0.581141,-0.18996
11.200000000000005,2.0996,0.481209,-0.106545
11.209999999999994,1.935924,0.393463,-0.042189
11.22,1.743659,0.296553,0.003384
11.230000000000004,1.53295,0.197756,0.030405
11.239999999999997,1.34545,0.118948,0.061586
11.25,1.179728,0.039431,0.065614
11.260000000000003,1.090117,-0.036005,0.088973
11.269999999999996,1.10575,-0.055836,0.129955
11.28,1.272111,-0.076489,0.152829
11.290000000000006,1.571417,-0.022513,0.190196
11.299999999999995,2.038911,0.033455,0.215203
11.310000000000002,2.63577,0.115596,0.253225
11.319999999999991,3.394836,0.210584,0.322805
11.329999999999998,4.271569,0.271906,0.428342
11.340000000000003,5.288773,0.366586,0.532443
11.349999999999994,6.384421,0.451127,0.637506
11.36,7.522628,0.572003,0.740107
11.370000000000005,8.680708,0.673057,0.85567
11.379999999999995,9.824455,0.786784,0.99505
11.39,10.856597,0.907078,1.1441
11.400000000000006,11.728541,0.979618,1.286845
11.409999999999997,12.348307,1.000218,1.429191
11.420000000000002,12.663435,1.03136,1.516377
11.430000000000009,12.719287,1.090429,1.591355
11.439999999999998,12.521496,1.145876,1.586159
11.450000000000005,12.163594,1.204686,1.531226
11.459999999999994,11.67174,1.262632,1.42133
11.47,11.065627,1.260857,1.28905
11.480000000000004,10.266194,1.216001,1.118881
11.489999999999997,9.213323,1.103618,0.941779
11.5,7.95248,0.90711,0.768089
11.510000000000003,6.543798,0.616876,0.584884
11.519999999999996,5.069792,0.219724,0.423409
11.53,3.61231,-0.204183,0.316793
11.540000000000006,2.190336,-0.582528,0.214084
11.549999999999995,0.882961,-0.885188,0.117542
11.560000000000002,-0.258729,-1.112831,0.008536
11.569999999999991,-1.216247,-1.264642,-0.073413
11.579999999999998,-1.987089,-1.363244,-0.119341
11.590000000000003,-2.549969,-1.377612,-0.172491
11.599999999999994,-2.882413,-1.344554,-0.202009
11.61,-2.997611,-1.233593,-0.204126
11.620000000000005,-2.878706,-1.134719,-0.177801
11.629999999999995,-2.605801,-1.010517,-0.150944
11.64,-2.201102,-0.885524,-0.102237
11.650000000000006,-1.753375,-0.735801,-0.089157
11.659999999999997,-1.261856,-0.604082,-0.053856
11.670000000000002,-0.853401,-0.461184,-0.014977
11.680000000000009,-0.505061,-0.354631,0.011762
11.689999999999998,-0.234994,-0.277319,0.028044
11.700000000000005,-0.05779,-0.230322,0.035458
11.709999999999994,0.054229,-0.192647,0.024557
11.72,0.116668,-0.168785,0.014696
11.730000000000004,0.119995,-0.188661,0.012654
11.739999999999997,0.087241,-0.170905,0.000548
11.75,-0.004271,-0.164293,-0.017917
11.760000000000003,-0.109828,-0.171242,-0.054081
11.769999999999996,-0.200292,-0.166384,-0.055184
11.78,-0.270015,-0.167596,-0.087139
11.790000000000006,-0.322516,-0.139942,-0.078357
11.799999999999995,-0.333029,-0.113816,-0.073604
11.810000000000002,-0.328687,-0.085844,-0.041225
11.819999999999991,-0.311387,-0.048861,-0.005856
11.829999999999998,-0.284972,-0.009159,0.022346
11.840000000000003,-0.242257,0.027066,0.036106
11.849999999999994,-0.207201,0.038033,0.056771
11.86,-0.193049,0.065134,0.059103
11.870000000000005,-0.151442,0.090628,0.067269
11.879999999999995,-0.105365,0.116176,0.060877
11.89,-0.058495,0.13092,0.061676
11.900000000000006,-0.024517,0.145585,0.051337
11.909999999999997,0.006497,0.134902,0.06439
11.920000000000002,0.012662,0.125007,0.055206
11.930000000000009,0.013314,0.109677,0.053199
11.939999999999998,-0.010202,0.077137,0.034238
11.950000000000005,-0.029562,0.064403,0.040241
11.959999999999994,-0.049998,0.046345,0.03339
11.97,-0.040342,0.019453,0.035054
11.980000000000004,-0.033074,0.013264,0.040583
11.989999999999997,0.003715,0.027978,0.037593
12.0,0.022706,0.012798,0.040404
12.010000000000003,0.040626,-0.006931,0.032163
12.019999999999996,0.046318,0.012947,0.019685
12.03,0.037277,0.021893,0.014193
12.040000000000006,0.033565,0.018257,0.01227
12.049999999999995,0.050164,0.027381,0.01078
12.060000000000002,0.057518,0.034667,2e-05
12.069999999999991,0.076967,0.05643,-0.011329
12.079999999999998,0.09897,0.065608,-0.020959
12.090000000000003,0.107737,0.097202,-0.013146
12.099999999999994,0.127974,0.115347,-0.036421
12.11,0.136162,0.17757,-0.044686
12.120000000000005,0.117709,0.300026,-0.067162
12.129999999999995,0.035868,0.488784,-0.14173
12.14,-0.08911,0.763523,-0.178425
12.150000000000006,-0.281472,1.163712,-0.217384
12.159999999999997,-0.460004,1.650196,-0.193148
12.170000000000002,-0.661002,2.246498,-0.085711
12.180000000000009,-0.863164,2.925651,0.058436
12.189999999999998,-1.080511,3.701363,0.31148
12.200000000000005,-1.254285,4.515407,0.567415
12.209999999999994,-1.399114,5.364821,0.836954
12.22,-1.535773,6.17668,1.058682
12.230000000000004,-1.71267,6.948823,1.252916
12.239999999999997,-1.920917,7.623023,1.374457
12.25,-2.15168,8.210685,1.470043
12.260000000000003,-2.379275,8.671818,1.517585
12.269999999999996,-2.578535,9.025634,1.516526
12.28,-2.71071,9.240758,1.494565
12.290000000000006,-2.800939,9.251918,1.408352
12.299999999999995,-2.821996,8.992992,1.215494
12.310000000000002,-2.765041,8.500271,0.923205
12.319999999999991,-2.573333,7.868342,0.588466
12.329999999999998,-2.285796,7.145571,0.295458
12.340000000000003,-1.893293,6.423565,0.091684
12.349999999999994,-1.426535,5.814754,0.017962
12.36,-0.93492,5.293273,0.040299
12.370000000000005,-0.587454,4.78651,0.111758
12.379999999999995,-0.364377,4.299005,0.145169
12.39,-0.268223,3.774886,0.146352
12.400000000000006,-0.240893,3.29167,0.1399
12.409999999999997,-0.269635,2.835036,0.158684
12.420000000000002,-0.310228,2.452834,0.165514
12.430000000000009,-0.38831,2.126009,0.179792
12.439999999999998,-0.500285,1.806249,0.186501
12.450000000000005,-0.588518,1.499413,0.170887
12.459999999999994,-0.68999,1.195866,0.208047
12.47,-0.784193,0.886879,0.243366
12.480000000000004,-0.852439,0.585282,0.304658
12.489999999999997,-0.854755,0.296814,0.34961
12.5,-0.811749,0.042884,0.391003
12.510000000000003,-0.706294,-0.202578,0.450689
12.519999999999996,-0.571879,-0.393661,0.479452
12.53,-0.413048,-0.547626,0.51992
12.540000000000006,-0.206743,-0.692235,0.530053
12.549999999999995,-0.001848,-0.809845,0.540476
12.560000000000002,0.164734,-0.920521,0.55047
12.569999999999991,0.333534,-1.004152,0.556242
12.579999999999998,0.447705,-1.070112,0.554181
12.590000000000003,0.527284,-1.132696,0.567252
12.599999999999994,0.60546,-1.17367,0.593363
12.61,0.637873,-1.217628,0.618823
12.620000000000005,0.688404,-1.273139,0.648061
12.629999999999995,0.715558,-1.357635,0.669342
12.64,0.713946,-1.472846,0.702703
12.650000000000006,0.69225,-1.648597,0.744208
12.659999999999997,0.636127,-1.872436,0.812072
12.670000000000002,0.589958,-2.170041,0.901153
12.680000000000009,0.561231,-2.529696,1.000659
12.689999999999998,0.602444,-2.965312,1.072805
12.700000000000005,0.701343,-3.455536,1.146907
12.709999999999994,0.849468,-3.953709,1.213324
12.72,1.015298,-4.504303,1.308528
12.730000000000004,1.193118,-5.049592,1.404795
12.739999999999997,1.350653,-5.614733,1.524328
12.75,1.506694,-6.158093,1.644097
12.760000000000003,1.670362,-6.690959,1.769404
12.769999999999996,1.800373,-7.197201,1.867177
12.78,1.864646,-7.671138,1.911582
12.790000000000006,1.87828,-8.116465,1.97768
12.799999999999995,1.834147,-8.5143,2.039968
12.810000000000002,1.745027,-8.850378,2.064028
12.819999999999991,1.577599,-9.100721,2.064197
12.829999999999998,1.3806,-9.267326,1.956094
12.840000000000003,1.127832,-9.378952,1.732903
12.849999999999994,0.85937,-9.41298,1.473256
12.86,0.622308,-9.446761,1.272686
12.870000000000005,0.347854,-9.443198,1.128607
12.879999999999995,0.026395,-9.404023,0.978699
12.89,-0.366327,-9.341841,0.793369
12.900000000000006,-0.734307,-9.142139,0.526031
12.909999999999997,-0.944751,-8.728333,0.236167
12.920000000000002,-0.966528,-8.239595,-0.028447
12.930000000000009,-0.875367,-7.699031,-0.242033
12.939999999999998,-0.755994,-7.104336,-0.454759
12.950000000000005,-0.726227,-6.513584,-0.650368
12.959999999999994,-0.77634,-5.991453,-0.849602
12.97,-0.80831,-5.501603,-1.014228
12.980000000000004,-0.779421,-4.996963,-1.148487
12.989999999999997,-0.714046,-4.521017,-1.21959
13.0,-0.62323,-4.072201,-1.256987
13.010000000000003,-0.701204,-3.665188,-1.292651
13.019999999999996,-0.798972,-3.134712,-1.296675
13.03,-0.933054,-2.614221,-1.217313
13.040000000000006,-1.030205,-2.152471,-1.092659
13.049999999999995,-1.146765,-1.764458,-0.963633
13.060000000000002,-1.24093,-1.406734,-0.846509
13.069999999999991,-1.253253,-1.090814,-0.710536
13.079999999999998,-1.185424,-0.807758,-0.534622
13.090000000000003,-1.070393,-0.546909,-0.362902
13.099999999999994,-0.966626,-0.30852,-0.1733
13.11,-0.845156,-0.102466,-0.003985
13.120000000000005,-0.694665,0.091213,0.163754
13.129999999999995,-0.577814,0.260397,0.292428
13.14,-0.494857,0.380704,0.387213
13.150000000000006,-0.415686,0.498439,0.464572
13.159999999999997,-0.364285,0.603371,0.51492
13.170000000000002,-0.276561,0.686018,0.58651
13.180000000000009,-0.240784,0.75399,0.594223
13.189999999999998,-0.229511,0.773959,0.600109
13.200000000000005,-0.206337,0.786802,0.622509
13.209999999999994,-0.194627,0.782516,0.609857
13.22,-0.172606,0.80171,0.579345
13.230000000000004,-0.14877,0.830842,0.527047
13.239999999999997,-0.147288,0.890382,0.480285
13.25,-0.157387,0.987657,0.395453
13.260000000000003,-0.205802,1.152968,0.3073
13.269999999999996,-0.280807,1.373016,0.219435
13.28,-0.418362,1.684746,0.129132
13.290000000000006,-0.563687,2.125442,0.055773
13.299999999999995,-0.657611,2.683748,-0.008254
13.310000000000002,-0.722263,3.35317,-0.058777
13.319999999999991,-0.812705,4.1297,-0.094619
13.329999999999998,-0.925775,4.966381,-0.082404
13.340000000000003,-1.109398,5.788142,-0.038394
13.349999999999994,-1.387873,6.598292,0.053605
13.36,-1.71211,7.380494,0.20871
13.370000000000005,-2.032825,8.122984,0.416355
13.379999999999995,-2.350109,8.764645,0.69044
13.39,-2.59688,9.246578,0.961577
13.400000000000006,-2.877749,9.5974,1.217783
13.409999999999997,-3.120606,9.807636,1.45822
13.420000000000002,-3.356369,9.964771,1.652509
13.430000000000009,-3.586629,10.022043,1.808147
13.439999999999998,-3.783186,10.020873,1.922393
13.450000000000005,-3.904166,9.954413,1.997475
13.459999999999994,-3.989725,9.802883,1.991644
13.47,-4.017806,9.54552,1.959788
13.480000000000004,-4.022628,9.208168,1.891694
13.489999999999997,-3.937782,8.826543,1.804246
13.5,-3.738101,8.443295,1.669998
13.510000000000003,-3.452739,8.049924,1.532354
13.519999999999996,-3.041756,7.641603,1.351535
13.53,-2.562501,7.254895,1.198314
13.540000000000006,-2.055306,6.878148,1.071006
13.549999999999995,-1.533,6.533279,0.938667
13.560000000000002,-1.113568,6.139186,0.858989
13.569999999999991,-0.767747,5.726726,0.772556
13.579999999999998,-0.557682,5.206114,0.630216
13.590000000000003,-0.438875,4.589497,0.447232
13.599999999999994,-0.323495,3.942492,0.30949
13.61,-0.238619,3.302007,0.261101
13.620000000000005,-0.176915,2.70807,0.205621
13.629999999999995,-0.125896,2.127376,0.155518
13.64,-0.08753,1.556385,0.112765
13.650000000000006,-0.08511,1.013857,0.093679
13.659999999999997,-0.091781,0.566609,0.117554
13.670000000000002,-0.09887,0.156326,0.131755
13.680000000000009,-0.089927,-0.152874,0.129096
13.689999999999998,-0.035931,-0.442823,0.122683
13.700000000000005,0.004513,-0.664385,0.120554
13.709999999999994,0.057826,-0.819204,0.108398
13.72,0.12062,-0.964974,0.123888
13.730000000000004,0.168963,-1.045911,0.152732
13.739999999999997,0.215801,-1.107017,0.182683
13.75,0.263699,-1.105077,0.22343
13.760000000000003,0.29509,-1.092379,0.235772
13.769999999999996,0.341305,-1.06699,0.247553
13.78,0.373465,-1.015551,0.285073
13.790000000000006,0.402126,-0.946002,0.310028
13.799999999999995,0.413891,-0.908065,0.343541
13.810000000000002,0.460428,-0.864429,0.370286
13.819999999999991,0.483398,-0.867781,0.401624
13.829999999999998,0.531254,-0.908741,0.415477
13.840000000000003,0.571556,-1.023594,0.426533
13.849999999999994,0.622144,-1.181621,0.434492
13.86,0.684538,-1.399055,0.432777
13.870000000000005,0.768128,-1.672245,0.448952
13.879999999999995,0.86158,-2.003881,0.438991
13.89,0.992835,-2.389422,0.459024
13.900000000000006,1.1371,-2.819038,0.480562
13.909999999999997,1.295323,-3.290128,0.496305
13.920000000000002,1.437837,-3.79026,0.553491
13.930000000000009,1.55629,-4.30497,0.601918
13.939999999999998,1.660018,-4.832489,0.662763
13.950000000000005,1.721067,-5.345772,0.728682
13.959999999999994,1.79152,-5.844645,0.80213
13.97,1.829728,-6.353751,0.85669
13.980000000000004,1.862603,-6.841261,0.889544
13.989999999999997,1.862759,-7.317092,0.933229
14.0,1.821153,-7.766345,0.961973
14.010000000000003,1.770332,-8.2172,0.976966
14.019999999999996,1.671647,-8.61732,0.951633
14.03,1.51128,-8.969018,0.894009
14.040000000000006,1.286222,-9.271471,0.750113
14.049999999999995,1.048459,-9.5325,0.51888
14.060000000000002,0.799347,-9.723005,0.219159
14.069999999999991,0.558959,-9.836139,-0.042799
14.079999999999998,0.296492,-9.913664,-0.261696
14.090000000000003,-0.085477,-9.923573,-0.463128
14.099999999999994,-0.487982,-9.842479,-0.673899
14.11,-0.886198,-9.685287,-0.966015
14.120000000000005,-1.186517,-9.445122,-1.301337
14.129999999999995,-1.338031,-9.154537,-1.636794
14.14,-1.39527,-8.914321,-1.931591
14.150000000000006,-1.585674,-8.714392,-2.227798
14.159999999999997,-1.628555,-8.161929,-2.418859
14.170000000000002,-1.648073,-7.637518,-2.566302
14.180000000000009,-1.635205,-7.109659,-2.684206
14.189999999999998,-1.553629,-6.580382,-2.797575
14.200000000000005,-1.410744,-6.097599,-2.924413
14.209999999999994,-1.219828,-5.647816,-3.041825
14.22,-1.0033,-5.214264,-3.119775
14.230000000000004,-0.81463,-4.783068,-3.11588
14.239999999999997,-0.658673,-4.361347,-3.055889
14.25,-0.592189,-3.904261,-2.927218
14.260000000000003,-0.545817,-3.465163,-2.762508
14.269999999999996,-0.510269,-3.025942,-2.588883
14.28,-0.463959,-2.611794,-2.399024
14.290000000000006,-0.381572,-2.240651,-2.181738
14.299999999999995,-0.323988,-1.941809,-1.946383
14.310000000000002,-0.220565,-1.655416,-1.664853
14.319999999999991,-0.197825,-1.403792,-1.33271
14.329999999999998,-0.176398,-1.121376,-0.993818
14.340000000000003,-0.147695,-0.842381,-0.656728
14.349999999999994,-0.115757,-0.565859,-0.373531
14.36,-0.060474,-0.330688,-0.064966
14.370000000000005,-0.029692,-0.130798,0.221879
14.379999999999995,-0.005446,0.074447,0.483158
14.39,0.006899,0.236392,0.71547
14.400000000000006,-0.023474,0.371124,0.915828
14.409999999999997,-0.06757,0.459991,1.082561
14.420000000000002,-0.092288,0.585264,1.19154
14.430000000000009,-0.113779,0.69699,1.267509
14.439999999999998,-0.113436,0.816069,1.314612
14.450000000000005,-0.11564,0.899055,1.342969
14.459999999999994,-0.111046,0.962209,1.341946
14.47,-0.108124,1.047801,1.3101
14.480000000000004,-0.133749,1.176328,1.283833
14.489999999999997,-0.182625,1.352328,1.226754
14.5,-0.259879,1.602064,1.133629
14.510000000000003,-0.359949,1.974371,1.046286
14.519999999999996,-0.504791,2.418599,0.924471
14.53,-0.568501,2.941815,0.821971
14.540000000000006,-0.547794,3.586546,0.733915
14.549999999999995,-0.435147,4.3681,0.672524
14.560000000000002,-0.27389,5.265346,0.661651
14.569999999999991,-0.19247,6.209622,0.678679
14.579999999999998,-0.214394,7.171079,0.763933
14.590000000000003,-0.397627,8.089054,0.915216
14.599999999999994,-0.694064,8.932497,1.140843
14.61,-1.133496,9.624638,1.393852
14.620000000000005,-1.690043,10.166436,1.70472
14.629999999999995,-2.269169,10.543432,2.016902
14.64,-2.819441,10.774586,2.313901
14.650000000000006,-3.340354,10.90595,2.579054
14.659999999999997,-3.845071,11.019295,2.836909
14.670000000000002,-4.288815,11.098846,2.9947
14.680000000000009,-4.616902,11.164943,3.120943
14.689999999999998,-4.822169,11.122999,3.159755
14.700000000000005,-4.904937,10.944921,3.127276
14.709999999999994,-4.89799,10.589302,2.994309
14.72,-4.80148,10.134605,2.806464
14.730000000000004,-4.688316,9.623838,2.619097
14.739999999999997,-4.564807,9.072794,2.42229
14.75,-4.369946,8.469272,2.207591
14.760000000000003,-4.027159,7.851618,1.987503
14.769999999999996,-3.524083,7.154191,1.737667
14.78,-2.944044,6.44252,1.54525
14.790000000000006,-2.354784,5.728062,1.373885
14.799999999999995,-1.780466,4.979541,1.220056
14.810000000000002,-1.271361,4.259022,1.086668
14.819999999999991,-0.809574,3.549343,0.969302
14.829999999999998,-0.434226,2.858032,0.865531
14.840000000000003,-0.101605,2.186805,0.752185
14.849999999999994,0.134477,1.531959,0.657827
14.86,0.284125,0.950384,0.583315
14.870000000000005,0.402788,0.435504,0.506564
14.879999999999995,0.492205,-0.029127,0.453813
14.89,0.550343,-0.380396,0.393758
14.900000000000006,0.548844,-0.699512,0.36983
14.909999999999997,0.528406,-0.92865,0.31199
14.920000000000002,0.483006,-1.116476,0.256157
14.930000000000009,0.439783,-1.230481,0.215831
14.939999999999998,0.3733,-1.319398,0.188263
14.950000000000005,0.350721,-1.361169,0.181939
14.959999999999994,0.34684,-1.377465,0.180771
14.97,0.359864,-1.357457,0.17025
14.980000000000004,0.368231,-1.288899,0.16752
14.989999999999997,0.409842,-1.205767,0.179084
15.0,0.449422,-1.138849,0.200478
15.010000000000003,0.492574,-1.079079,0.227335
15.019999999999996,0.55727,-1.047919,0.263303
15.03,0.645311,-1.05622,0.325615
15.040000000000006,0.743211,-1.123817,0.365439
15.049999999999995,0.867927,-1.230854,0.406046
15.060000000000002,1.012617,-1.451344,0.418126
15.069999999999991,1.145288,-1.739345,0.432918
15.079999999999998,1.301365,-2.105605,0.441672
15.090000000000003,1.46926,-2.543019,0.470815
15.099999999999994,1.688503,-3.042292,0.525504
15.11,1.923675,-3.592181,0.608014
15.120000000000005,2.146007,-4.157634,0.714759
15.129999999999995,2.320151,-4.761276,0.811272
15.14,2.494803,-5.353332,0.953608
15.150000000000006,2.600125,-5.929782,1.0842
15.159999999999997,2.635368,-6.539142,1.206998
15.170000000000002,2.60415,-7.125584,1.307146
15.180000000000009,2.54513,-7.71835,1.370333
15.189999999999998,2.431818,-8.313374,1.386221
15.200000000000005,2.253715,-8.832076,1.383954
15.209999999999994,2.033957,-9.313287,1.338616
15.22,1.77353,-9.681786,1.239329
15.230000000000004,1.523612,-9.931912,1.068573
15.239999999999997,1.279046,-10.098796,0.841464
15.25,1.052335,-10.176509,0.626617
15.260000000000003,0.842392,-10.159501,0.363645
15.269999999999996,0.664009,-10.043398,0.093222
15.28,0.47633,-9.833827,-0.145954
15.290000000000006,0.209392,-9.618655,-0.338561
15.299999999999995,-0.109474,-9.366053,-0.479416
15.310000000000002,-0.338866,-8.971419,-0.571658
15.319999999999991,-0.529701,-8.589204,-0.596041
15.329999999999998,-0.69843,-8.198018,-0.642214
15.340000000000003,-0.801242,-7.782664,-0.726637
15.349999999999994,-0.843954,-7.407292,-0.876479
15.36,-0.774226,-7.011408,-1.074672
15.370000000000005,-0.691076,-6.598553,-1.219346
15.379999999999995,-0.584793,-6.178422,-1.31513
15.39,-0.531136,-5.778637,-1.344371
15.400000000000006,-0.474842,-5.346399,-1.333057
15.409999999999997,-0.435179,-4.924029,-1.318493
15.420000000000002,-0.377107,-4.494375,-1.299999
15.430000000000009,-0.388539,-4.074315,-1.255114
15.439999999999998,-0.442242,-3.674382,-1.193621
15.450000000000005,-0.510697,-3.298061,-1.101543
15.459999999999994,-0.61812,-2.946214,-1.034921
15.47,-0.740745,-2.576352,-0.957296
15.480000000000004,-0.835627,-2.186302,-0.873559
15.489999999999997,-0.931809,-1.818621,-0.799237
15.5,-0.963323,-1.465701,-0.734261
15.510000000000003,-0.928055,-1.135849,-0.6175
15.519999999999996,-0.859593,-0.85629,-0.481705
15.53,-0.727729,-0.587243,-0.277619
15.540000000000006,-0.600649,-0.332624,-0.063724
15.549999999999995,-0.495785,-0.097978,0.160571
15.560000000000002,-0.457897,0.125354,0.371045
15.569999999999991,-0.471897,0.319691,0.5586
15.579999999999998,-0.490306,0.521215,0.748898
15.590000000000003,-0.518622,0.690326,0.896652
15.599999999999994,-0.532989,0.885758,1.019307
15.61,-0.531886,1.041693,1.088745
15.620000000000005,-0.495135,1.206809,1.135028
15.629999999999995,-0.431076,1.384657,1.139804
15.64,-0.369487,1.588618,1.126582
15.650000000000006,-0.313506,1.80604,1.069601
15.659999999999997,-0.285531,2.104433,1.01502
15.670000000000002,-0.275277,2.463328,0.904305
15.680000000000009,-0.261938,2.890782,0.806331
15.689999999999998,-0.211121,3.396156,0.660489
15.700000000000005,-0.134997,3.995494,0.526146
15.709999999999994,-0.053791,4.701239,0.363895
15.72,0.015385,5.453636,0.218483
15.730000000000004,0.041384,6.248019,0.087635
15.739999999999997,-0.020107,7.040078,-0.005981
15.75,-0.13415,7.841842,-0.050773
15.760000000000003,-0.315621,8.55862,-0.097441
15.769999999999996,-0.620222,9.211272,-0.108993
15.78,-0.980322,9.791698,-0.043496
15.790000000000006,-1.342002,10.260508,0.047166
15.799999999999995,-1.706711,10.613927,0.223164
15.810000000000002,-2.100465,10.857082,0.404613
15.819999999999991,-2.479572,11.0407,0.577255
15.829999999999998,-2.883353,11.169015,0.734282
15.840000000000003,-3.254166,11.267938,0.823765
15.849999999999994,-3.565523,11.316033,0.902584
15.86,-3.749029,11.24168,0.979744
15.870000000000005,-3.831383,11.068256,0.982089
15.879999999999995,-3.828491,10.765595,0.929221
15.89,-3.797479,10.364044,0.807702
15.900000000000006,-3.817863,9.837571,0.665652
15.909999999999997,-3.817631,9.225104,0.512028
15.920000000000002,-3.719777,8.529839,0.353353
15.930000000000009,-3.485518,7.787024,0.202618
15.939999999999998,-3.130378,7.01821,0.102551
15.950000000000005,-2.676643,6.325691,0.076923
15.959999999999994,-2.247901,5.638399,0.157005
15.97,-1.876993,4.977499,0.271086
15.980000000000004,-1.5158,4.286654,0.374445
15.989999999999997,-1.211137,3.541338,0.486371
16.0,-0.95728,2.778494,0.552639
16.010000000000005,-0.743968,2.053144,0.612425
16.019999999999996,-0.553424,1.403436,0.643647
16.03,-0.360824,0.785409,0.643393
16.040000000000006,-0.174648,0.2792,0.658147
16.049999999999997,0.031406,-0.172022,0.650936
16.060000000000002,0.201449,-0.58572,0.646365
16.069999999999993,0.358495,-0.930939,0.59306
16.08,0.48637,-1.263774,0.524911
16.090000000000003,0.587915,-1.52651,0.461842
16.099999999999994,0.647556,-1.772296,0.38748
16.11,0.685029,-1.974883,0.319768
16.120000000000005,0.723145,-2.144102,0.26801
16.129999999999995,0.759373,-2.271823,0.244121
16.14,0.783381,-2.36713,0.229569
16.150000000000006,0.803805,-2.475167,0.253153
16.159999999999997,0.868172,-2.582979,0.281891
16.17,0.962983,-2.736352,0.330641
16.180000000000007,1.052036,-2.909591,0.383683
16.189999999999998,1.178849,-3.148461,0.498629
16.200000000000003,1.310369,-3.448438,0.647721
16.209999999999994,1.496103,-3.806534,0.831535
16.22,1.708661,-4.202316,1.006069
16.230000000000004,1.936917,-4.653078,1.187442
16.239999999999995,2.17188,-5.147152,1.378439
16.25,2.37916,-5.657791,1.568809
16.260000000000005,2.589104,-6.18307,1.762557
16.269999999999996,2.719059,-6.718001,1.914843
16.28,2.801734,-7.27869,2.033222
16.290000000000006,2.82085,-7.859548,2.130337
16.299999999999997,2.769835,-8.462701,2.164087
16.310000000000002,2.658889,-9.015341,2.152152
16.319999999999993,2.438444,-9.476346,2.099919
16.33,2.173705,-9.82378,1.988221
16.340000000000003,1.91031,-10.002454,1.832038
16.349999999999994,1.677159,-10.121986,1.681481
16.36,1.448277,-10.154404,1.552869
16.370000000000005,1.163461,-10.11505,1.385087
16.379999999999995,0.833487,-9.993204,1.259832
16.39,0.433387,-9.835791,1.103963
16.400000000000006,0.022924,-9.646097,0.964811
16.409999999999997,-0.382984,-9.44985,0.813965
16.42,-0.748053,-9.209773,0.650486
16.430000000000007,-1.053667,-8.916984,0.473603
16.439999999999998,-1.279552,-8.54074,0.251966
16.450000000000003,-1.441327,-8.107131,-0.073297
16.459999999999994,-1.531359,-7.636443,-0.400711
16.47,-1.592839,-7.169453,-0.682833
16.480000000000004,-1.607654,-6.679879,-0.86892
16.489999999999995,-1.583096,-6.218965,-1.002877
16.5,-1.544819,-5.72093,-1.091444
16.510000000000005,-1.496167,-5.210102,-1.151432
16.519999999999996,-1.530565,-4.754844,-1.212396
16.53,-1.513781,-4.250427,-1.272052
16.540000000000006,-1.437964,-3.73311,-1.264045
16.549999999999997,-1.335136,-3.250236,-1.219606
16.560000000000002,-1.264037,-2.812551,-1.163325
16.569999999999993,-1.201949,-2.383716,-1.065104
16.58,-1.145864,-1.987153,-0.973709
16.590000000000003,-1.076403,-1.630131,-0.857948
16.599999999999994,-0.981629,-1.306279,-0.71857
16.61,-0.882746,-1.041942,-0.515026
16.620000000000005,-0.803855,-0.77504,-0.302608
16.629999999999995,-0.715626,-0.517126,-0.034459
16.64,-0.673675,-0.279272,0.205404
16.650000000000006,-0.676061,-0.062374,0.430723
16.659999999999997,-0.699581,0.104058,0.618644
16.67,-0.72001,0.243575,0.778942
16.680000000000007,-0.696894,0.381691,0.894172
16.689999999999998,-0.633731,0.511928,1.007131
16.700000000000003,-0.559183,0.641313,1.054476
16.709999999999994,-0.471357,0.800381,1.103235
16.72,-0.396987,0.974544,1.155634
16.730000000000004,-0.351628,1.178167,1.169558
16.739999999999995,-0.321109,1.442185,1.153879
16.75,-0.306589,1.743903,1.121107
16.760000000000005,-0.30209,2.133091,1.031721
16.769999999999996,-0.304223,2.644977,0.894381
16.78,-0.321343,3.330069,0.698543
16.790000000000006,-0.332158,4.141731,0.463108
16.799999999999997,-0.27518,5.088309,0.197283
16.810000000000002,-0.165157,6.155866,-0.070801
16.819999999999993,-0.040731,7.323295,-0.28241
16.83,-0.12847,8.450047,-0.383149
16.840000000000003,-0.43101,9.47077,-0.361946
16.849999999999994,-0.938443,10.372368,-0.238961
16.86,-1.551624,11.120283,0.014231
16.870000000000005,-2.198611,11.727675,0.310118
16.879999999999995,-2.832047,12.22888,0.679806
16.89,-3.408299,12.528765,1.052349
16.900000000000006,-3.901728,12.643588,1.379873
16.909999999999997,-4.231801,12.582505,1.646127
16.92,-4.44574,12.386916,1.811769
16.930000000000007,-4.464883,12.060979,1.875126
16.939999999999998,-4.339846,11.631331,1.886072
16.950000000000003,-4.157867,11.144389,1.830387
16.959999999999994,-4.010921,10.569312,1.690164
16.97,-3.834933,9.879132,1.485909
16.980000000000004,-3.597718,9.122833,1.273449
16.989999999999995,-3.299264,8.330837,1.02322
17.0,-2.980785,7.497575,0.725522
17.010000000000005,-2.57918,6.679658,0.465588
17.019999999999996,-2.116938,5.903406,0.286426
17.03,-1.676105,5.207407,0.147134
17.040000000000006,-1.301733,4.565745,0.059561
17.049999999999997,-0.970632,3.986512,0.038737
17.060000000000002,-0.715891,3.415555,0.07177
17.069999999999993,-0.530658,2.833412,0.138424
17.08,-0.43161,2.242398,0.178155
17.090000000000003,-0.389161,1.660097,0.217338
17.099999999999994,-0.386916,1.083065,0.237809
17.11,-0.392619,0.580006,0.26098
17.120000000000005,-0.369573,0.161856,0.280085
17.129999999999995,-0.332227,-0.16427,0.307766
17.14,-0.248082,-0.410667,0.322426
17.150000000000006,-0.159788,-0.559751,0.332803
17.159999999999997,-0.076862,-0.696302,0.337742
17.17,-0.008998,-0.791489,0.319164
17.180000000000007,0.060385,-0.845199,0.293777
17.189999999999998,0.114891,-0.897119,0.22806
17.200000000000003,0.165131,-0.939139,0.184367
17.209999999999994,0.203982,-0.950585,0.146395
17.22,0.239706,-0.932334,0.117876
17.230000000000004,0.265614,-0.916001,0.127566
17.239999999999995,0.302324,-0.905881,0.128165
17.25,0.320861,-0.891354,0.135871
17.260000000000005,0.344294,-0.91735,0.150437
17.269999999999996,0.363302,-0.989263,0.158928
17.28,0.39373,-1.099765,0.189093
17.290000000000006,0.402705,-1.282324,0.193491
17.299999999999997,0.457434,-1.533972,0.22783
17.310000000000002,0.517785,-1.888278,0.253757
17.319999999999993,0.65026,-2.326727,0.322649
17.33,0.821751,-2.858648,0.422023
17.340000000000003,1.056512,-3.447808,0.53982
17.349999999999994,1.314546,-4.082011,0.681978
17.36,1.572061,-4.806553,0.815594
17.370000000000005,1.801991,-5.58944,0.914131
17.379999999999995,2.006354,-6.41422,0.971483
17.39,2.166999,-7.264409,0.975904
17.400000000000006,2.316983,-8.071301,0.925038
17.409999999999997,2.42975,-8.797194,0.863751
17.42,2.491413,-9.429601,0.738107
17.430000000000007,2.468179,-9.994129,0.61595
17.439999999999998,2.331983,-10.40394,0.459518
17.450000000000003,2.190962,-10.634026,0.261419
17.459999999999994,2.07908,-10.813816,0.075261
17.47,1.98324,-10.914466,-0.094264
17.480000000000004,1.840806,-10.954053,-0.249165
17.489999999999995,1.667499,-10.917428,-0.408185
17.5,1.405642,-10.813082,-0.565899
17.510000000000005,1.097838,-10.671293,-0.709914
17.519999999999996,0.713883,-10.485099,-0.8286
17.53,0.253662,-10.355365,-0.866685
17.540000000000006,-0.179198,-10.091986,-0.861692
17.549999999999997,-0.570624,-9.756084,-0.852743
17.560000000000002,-0.85478,-9.260412,-0.927525
17.569999999999993,-1.045227,-8.618013,-1.107134
17.58,-1.089305,-7.937014,-1.345528
17.590000000000003,-1.072943,-7.266867,-1.552069
17.599999999999994,-0.983417,-6.621755,-1.702098
17.61,-0.847522,-6.013469,-1.789835
17.620000000000005,-0.740143,-5.39651,-1.812142
17.629999999999995,-0.640198,-4.757102,-1.764863
17.64,-0.574642,-4.107149,-1.691498
17.650000000000006,-0.58014,-3.454088,-1.571589
17.659999999999997,-0.656101,-2.878041,-1.42529
17.67,-0.740419,-2.366632,-1.287167
17.680000000000007,-0.827589,-1.913464,-1.164296
17.689999999999998,-0.893002,-1.496957,-0.990327
17.700000000000003,-0.889847,-1.151984,-0.792498
17.709999999999994,-0.811809,-0.836296,-0.541972
17.72,-0.736362,-0.56758,-0.286655
17.730000000000004,-0.695797,-0.331523,0.01258
17.739999999999995,-0.643634,-0.108763,0.300876
17.75,-0.596072,0.124848,0.563639
17.760000000000005,-0.561514,0.320541,0.756351
17.769999999999996,-0.543133,0.489955,0.92115
17.78,-0.560466,0.622175,1.033893
17.790000000000006,-0.554648,0.716637,1.139214
17.799999999999997,-0.555977,0.778676,1.207559
17.810000000000002,-0.50283,0.828606,1.250038
17.819999999999993,-0.425516,0.848038,1.279653
17.83,-0.320704,0.881179,1.290579
17.840000000000003,-0.194054,0.92175,1.270795
17.849999999999994,-0.048728,0.932683,1.241796
17.86,0.099641,0.912095,1.196038
17.870000000000005,0.2435,0.894134,1.152057
17.879999999999995,0.377949,0.873457,1.073177
17.89,0.503001,0.851037,0.964908
17.900000000000006,0.585848,0.824788,0.845977
17.909999999999997,0.662811,0.767817,0.739396
17.92,0.677785,0.725732,0.627624
17.930000000000007,0.646723,0.661713,0.521415
17.939999999999998,0.595489,0.585864,0.431249
17.950000000000003,0.520756,0.515251,0.363673
17.959999999999994,0.435256,0.45361,0.303376
17.97,0.35704,0.379362,0.264927
17.980000000000004,0.282063,0.339328,0.224177
17.989999999999995,0.199706,0.291988,0.193305
18.0,0.095185,0.280491,0.183607
18.010000000000005,0.005227,0.267356,0.169534
18.02,-0.068409,0.240867,0.1628
18.03,-0.145386,0.23959,0.142601
18.040000000000006,-0.197146,0.212319,0.124244
18.05,-0.221013,0.203149,0.131115
18.06,-0.257025,0.181275,0.130377
18.069999999999997,-0.267291,0.166759,0.133724
18.08,-0.259939,0.161355,0.1502
18.090000000000003,-0.251081,0.143384,0.148271
18.099999999999994,-0.231087,0.138118,0.142984
18.11,-0.207363,0.147312,0.116892
18.120000000000005,-0.189356,0.133944,0.108727
18.129999999999995,-0.186009,0.1277,0.079452
18.14,-0.166301,0.11615,0.046679
18.15000000000001,-0.146562,0.097354,0.033918
18.16,-0.132396,0.079447,0.006477
18.17,-0.125206,0.074087,-0.000801
18.180000000000007,-0.107157,0.058887,-0.000743
18.19,-0.100212,0.047252,-0.024529
18.200000000000003,-0.076548,0.040174,-0.020629
18.209999999999997,-0.09679,0.040068,-0.035506
18.22,-0.124542,0.021892,-0.040672
18.230000000000004,-0.133968,0.002017,-0.038305
18.239999999999995,-0.128329,0.010176,-0.037223
18.25,-0.122803,0.00479,-0.022597
18.260000000000005,-0.109349,-0.015835,-0.014438
18.27,-0.097398,-0.011242,-0.01422
18.28,-0.07346,-0.012024,0.009842
18.290000000000006,-0.056977,-0.008288,0.004627
18.3,-0.03561,0.009875,0.012438
18.31,-0.036244,0.022466,0.023524
18.319999999999997,-0.015965,0.033412,0.022084
18.33,-0.004967,0.029842,0.031313
18.340000000000003,-0.004822,0.038831,0.031417
18.349999999999994,0.008233,0.049694,0.044499
18.36,-0.019324,0.049529,0.029514
18.370000000000005,-0.050395,0.05113,0.03004
18.379999999999995,-0.066723,0.049163,0.052627
18.39,-0.085107,0.052632,0.03232
18.40000000000001,-0.099724,0.052496,0.033958
18.41,-0.128808,0.055858,0.050059
18.42,-0.141626,0.057573,0.042598
18.430000000000007,-0.144184,0.069255,0.042692
18.44,-0.118341,0.086542,0.039585
18.450000000000003,-0.100235,0.068611,0.054228
18.459999999999997,-0.095426,0.079444,0.063566
18.47,-0.086002,0.088489,0.082068
18.480000000000004,-0.053003,0.093231,0.082558
18.489999999999995,-0.027437,0.087109,0.090121
18.5,-0.025561,0.090747,0.088351
18.510000000000005,-0.005117,0.117027,0.077969
18.52,0.005676,0.101762,0.087061
18.53,0.007398,0.090955,0.097913
18.540000000000006,0.014855,0.109089,0.07905
18.55,0.003992,0.116248,0.07808
18.56,0.018514,0.109147,0.078195
18.569999999999997,0.002167,0.126206,0.05718
18.58,0.015039,0.119937,0.081942
18.590000000000003,0.003961,0.121674,0.064453
18.599999999999994,-0.016056,0.128756,0.065188
18.61,-0.047416,0.114152,0.059118
18.620000000000005,-0.056395,0.123096,0.062754
18.629999999999995,-0.052668,0.125844,0.06649
18.64,-0.078544,0.110381,0.060474
18.65000000000001,-0.078336,0.12572,0.055177
18.66,-0.060084,0.121331,0.059026
18.67,-0.050776,0.13763,0.046555
18.680000000000007,-0.050445,0.152023,0.06134
18.69,-0.032264,0.150366,0.050596
18.700000000000003,-0.014701,0.159487,0.058238
18.709999999999997,-0.010283,0.152331,0.052727
18.72,-0.008253,0.164966,0.052906
18.730000000000004,-0.002819,0.16501,0.046587
18.739999999999995,0.007346,0.170468,0.05137
18.75,0.002403,0.156032,0.032879
18.760000000000005,-0.01388,0.163108,0.042797
18.77,-0.021363,0.147732,0.052567
18.78,-0.020206,0.159451,0.060021
18.790000000000006,-0.041284,0.152107,0.069701
18.8,-0.044801,0.161999,0.068855
18.81,-0.052132,0.162858,0.066026
18.819999999999997,-0.044471,0.186359,0.06367
18.83,-0.047958,0.189936,0.078278
18.840000000000003,-0.025791,0.199999,0.086913
18.849999999999994,-0.020835,0.227993,0.080015
18.86,-0.016199,0.237037,0.07014
18.870000000000005,-0.016009,0.240587,0.092114
18.879999999999995,-0.036345,0.232348,0.082614
18.89,-0.047075,0.240362,0.100828
18.90000000000001,-0.072985,0.226718,0.087525
18.91,-0.083987,0.227582,0.081913
18.92,-0.098837,0.216691,0.074283
18.930000000000007,-0.093693,0.202322,0.057741
18.94,-0.108127,0.202158,0.084951
18.950000000000003,-0.12157,0.170546,0.064297
18.959999999999997,-0.134305,0.17496,0.064178
18.97,-0.131705,0.167778,0.060473
18.980000000000004,-0.137981,0.177661,0.056851
18.989999999999995,-0.142053,0.156938,0.044669
19.0,-0.151401,0.144255,0.043473
19.010000000000005,-0.149537,0.146064,0.043508
19.02,-0.136919,0.13896,0.032626
19.03,-0.13559,0.112865,0.018622
19.040000000000006,-0.132009,0.108401,0.017698
19.05,-0.122968,0.102149,0.017739
19.06,-0.104963,0.083342,0.019584
19.069999999999997,-0.128722,0.090428,0.006562
19.08,-0.115996,0.079708,0.018473
19.090000000000003,-0.11442,0.068955,0.006485
19.099999999999994,-0.105357,0.065431,0.002908
19.11,-0.107256,0.053682,0.018273
19.120000000000005,-0.098124,0.05827,0.008407
19.129999999999995,-0.098001,0.069985,0.001249
19.14,-0.102096,0.047439,-0.010034
19.15000000000001,-0.101237,0.043851,-0.010065
19.16,-0.09647,0.04835,0.006486
19.17,-0.090089,0.045693,0.008367
19.180000000000007,-0.096279,0.052823,0.021148
19.19,-0.081471,0.061911,0.026018
19.200000000000003,-0.096075,0.063615,0.026755
19.209999999999997,-0.092475,0.0564,0.035855
19.22,-0.078438,0.074496,0.043576
19.230000000000004,-0.086902,0.060025,0.043292
19.239999999999995,-0.063752,0.081834,0.037469
19.25,-0.092213,0.078057,0.028824
19.260000000000005,-0.082459,0.061934,0.021459
19.27,-0.082455,0.056517,0.03418
19.28,-0.072394,0.062912,0.021604
19.290000000000006,-0.072442,0.057484,0.027014
19.3,-0.085324,0.058301,0.014059
19.31,-0.083547,0.053804,0.01585
19.319999999999997,-0.070912,0.044879,0.010417
19.33,-0.079265,0.032186,0.019275
19.340000000000003,-0.071016,0.038565,0.008494
19.349999999999994,-0.072169,0.022332,0.010105
19.36,-0.069012,0.045774,0.017736
19.370000000000005,-0.056283,0.044062,0.011487
19.379999999999995,-0.045304,0.038711,0.023443
19.39,-0.019588,0.047914,0.018407
19.40000000000001,-0.027181,0.034384,0.009008
19.41,-0.008543,0.060655,0.002259
19.42,0.002469,0.057087,0.01698
19.430000000000007,-0.001999,0.067863,0.009744
19.44,-0.016912,0.04433,0.022065
19.450000000000003,-0.023042,0.065952,0.013112
19.459999999999997,-0.034221,0.056003,0.004618
19.47,-0.042439,0.053247,0.010864
19.480000000000004,-0.02942,0.070465,0.003934
19.489999999999995,-0.026674,0.065935,0.01488
19.5,-0.037744,0.064051,0.00741
19.510000000000005,-0.04129,0.067601,0.016548
19.52,-0.028539,0.055025,0.036667
19.53,-0.042573,0.036946,0.029865
19.540000000000006,-0.057893,0.053109,0.026198
19.55,-0.027742,0.051525,0.025659
19.56,-0.009537,0.054377,0.007666
19.569999999999997,-0.020517,0.051592,0.012969
19.58,-0.00501,0.054402,0.002244
19.590000000000003,-0.001091,0.066118,0.013395
19.599999999999994,-0.002995,0.059792,0.016943
19.61,-0.008021,0.085877,0.024499
19.620000000000005,-0.00792,0.097618,0.013689
19.629999999999995,-0.011767,0.085887,0.013513
19.64,-0.026019,0.101986,0.03087
19.65000000000001,-0.022475,0.096597,0.026276
19.66,-0.033618,0.087507,0.022359
19.67,-0.039015,0.087424,0.035983
19.680000000000007,-0.055249,0.103533,0.035058
19.69,-0.091681,0.117722,0.024705
19.700000000000003,-0.088697,0.124042,0.044008
19.709999999999997,-0.102073,0.139187,0.055865
19.72,-0.092594,0.15641,0.06443
19.730000000000004,-0.092409,0.166316,0.068199
19.739999999999995,-0.076126,0.151996,0.075547
19.75,-0.0666,0.182712,0.063244
19.760000000000005,-0.075506,0.191653,0.077844
19.77,-0.045802,0.215274,0.087652
19.78,-0.023718,0.226242,0.082589
19.790000000000006,-0.030419,0.254998,0.104764
19.8,-0.009463,0.251522,0.103169
19.81,-0.006671,0.251522,0.112342
19.819999999999997,0.00268,0.26235,0.120824
19.83,-0.011949,0.265856,0.117034
19.840000000000003,-0.030208,0.260325,0.134097
19.849999999999994,-0.039077,0.271995,0.145077
19.86,-0.020751,0.269475,0.154414
19.870000000000005,-0.015357,0.264154,0.152584
19.879999999999995,0.006399,0.257121,0.142732
19.89,0.019887,0.242794,0.143653
19.90000000000001,0.023503,0.243726,0.138231
19.91,0.027613,0.22127,0.125226
19.92,0.032327,0.228534,0.130857
19.930000000000007,0.060064,0.198146,0.112597
19.94,0.063561,0.200049,0.086181
19.950000000000003,0.08517,0.178595,0.08622
19.959999999999997,0.106824,0.162538,0.079921
19.97,0.104616,0.147245,0.061448
19.980000000000004,0.111597,0.126579,0.061299
19.989999999999995,0.104257,0.125606,0.061186
20.0,0.092877,0.108451,0.043467
20.010000000000005,0.030211,0.076516,0.044978
20.02,0.001505,0.06285,0.024321
20.03,-0.045753,0.021099,0.026844
20.040000000000006,-0.06051,0.013789,0.022901
20.05,-0.101178,-0.012579,0.018398
20.06,-0.110444,-0.015305,0.007291
20.069999999999997,-0.113665,-0.04144,-0.002184
20.08,-0.108997,-0.034224,-0.004773
20.090000000000003,-0.125456,-0.035252,-0.002257
20.099999999999994,-0.104574,-0.042317,-0.007538
20.11,-0.099097,-0.045914,-0.002038
20.120000000000005,-0.089231,-0.053054,-0.014789
20.129999999999995,-0.061649,-0.052936,0.003836
20.14,-0.045444,-0.066343,-0.003419
20.15000000000001,-0.023154,-0.041887,-0.00832
20.16,-0.014064,-0.051759,0.006301
20.17,0.0063,-0.034504,0.003124
20.180000000000007,0.010983,-0.0345,0.018724
20.19,0.001031,-0.032799,0.028656
20.200000000000003,0.00091,-0.038206,0.023106
20.209999999999997,-0.020999,-0.032934,0.017387
20.22,-0.024682,-0.038383,0.026392
20.230000000000004,-0.050261,-0.031327,0.015172
20.239999999999995,-0.066823,-0.038647,0.016699
20.25,-0.059514,-0.047632,0.034967
20.260000000000005,-0.068663,-0.042257,0.022125
20.27,-0.068625,-0.046778,0.036695
20.28,-0.065093,-0.049433,0.024839
20.290000000000006,-0.066597,-0.029602,0.027795
20.3,-0.051858,-0.030433,0.044409
20.31,-0.065738,-0.036829,0.035916
20.319999999999997,-0.0576,-0.03858,0.027773
20.33,-0.063132,-0.037715,0.020399
20.340000000000003,-0.066622,-0.02784,0.022297
20.349999999999994,-0.066767,-0.036855,0.020362
20.36,-0.055748,-0.038613,0.029625
20.370000000000005,-0.041247,-0.042099,0.017901
20.379999999999995,-0.032018,-0.03301,0.009905
20.39,-0.028303,-0.027582,0.006359
20.40000000000001,-0.01721,-0.023936,0.015678
20.41,-0.02102,-0.026645,0.000983
20.42,-0.021886,-0.025765,0.006466
20.430000000000007,-0.028213,-0.020402,0.004624
20.44,-0.02449,-0.013152,-0.002547
20.450000000000003,-0.013496,-0.009458,-0.007835
20.459999999999997,0.007984,-0.032699,-0.022431
20.47,-0.013792,-0.030161,-0.005337
20.480000000000004,0.000902,-0.030991,0.005803
20.489999999999995,-0.017532,-0.038321,0.00273
20.5,-0.006554,-0.040056,0.008342
20.510000000000005,-0.014802,-0.040099,0.006412
20.52,-0.015717,-0.041903,0.010037
20.53,-0.013706,-0.034676,0.019286
20.540000000000006,-0.013707,-0.034669,0.018365
20.55,-0.019098,-0.031112,0.022896
20.56,-0.013709,-0.027428,0.001085
20.569999999999997,-0.010329,-0.041817,-0.006364
20.58,-0.014045,-0.041839,-0.013726
20.590000000000003,-0.003829,-0.027363,-0.022548
20.599999999999994,-0.00414,-0.041769,-0.033669
20.61,-0.012432,-0.04903,-0.026544
20.620000000000005,-0.014817,-0.027415,-0.024486
20.629999999999995,0.007153,-0.026358,-0.024181
20.64,0.006037,-0.030824,-0.042517
20.65000000000001,0.013281,-0.037998,-0.037033
20.66,0.019006,-0.022644,-0.036773
20.67,0.018764,-0.040691,-0.031511
20.680000000000007,0.025166,-0.039754,-0.033239
20.69,0.035139,-0.044209,-0.034987
20.700000000000003,0.021504,-0.038,-0.036914
20.709999999999997,0.022662,-0.029908,-0.020355
20.72,0.037536,-0.021707,-0.004525
20.730000000000004,0.018627,-0.000176,-0.010914
20.739999999999995,0.023071,-0.014578,0.001762
20.75,0.023263,0.001664,-0.006256
20.760000000000005,0.034289,0.005332,-0.00699
20.77,0.023233,0.004363,-0.016288
20.78,0.007073,0.017751,-0.003555
20.790000000000006,0.012693,0.025005,0.000271
20.8,0.007023,0.00965,0.007329
20.81,-0.002047,0.014107,0.007275
20.819999999999997,0.010926,0.01958,0.019391
20.83,-0.007268,0.023953,0.02377
20.840000000000003,0.001799,0.0204,0.022014
20.849999999999994,-0.01738,0.016638,0.034499
20.86,-0.021909,0.024738,0.023569
20.870000000000005,-0.040511,-0.001517,0.035804
20.879999999999995,-0.049476,0.005631,0.043997
20.89,-0.057606,0.010093,0.0476
20.90000000000001,-0.053193,-0.002494,0.052067
20.91,-0.044983,-0.00334,0.051247
20.92,-0.051555,-0.010603,0.043757
20.930000000000007,-0.036915,-0.007821,0.040324
20.94,-0.057287,-0.025985,0.044405
20.950000000000003,-0.08637,-0.013544,0.042335
20.959999999999997,-0.091925,-0.020787,0.047641
20.97,-0.101216,-0.028039,0.041937
20.980000000000004,-0.108573,-0.024448,0.027263
20.989999999999995,-0.094031,-0.027948,0.021929
21.0,-0.079533,-0.026018,0.000223
