time,Gyr_X,Gyr_Y,Gyr_Z
0.0,-0.0327854516358758,-0.0019958750973441,-0.0036995924025964
0.0100000000000051,-0.0290788187651787,-0.0020893353194653,0.0008827545604086
0.019999999999996,-0.0211253341101091,0.0035133240707098,0.0041952692920128
0.0300000000000011,-0.0175789317168529,0.0062026012860458,0.0017054367014503
0.0400000000000062,-0.0156653397260266,0.0083590873382889,0.0011492286927698
0.0499999999999971,-0.0119074005949345,0.010931864743875,0.00079742388109
0.0600000000000022,-0.0083503296784727,0.0130515495490456,0.0068225773819132
0.0700000000000073,-0.010157742082595,0.0142779751408511,0.0107163632062731
0.0799999999999983,-0.0123305133260267,0.016133146155283,0.0057251268018348
0.0900000000000034,-0.0106317821058995,0.0178214375370687,0.0060522873223309
0.0999999999999943,-0.010922477429119,0.0235496459562357,0.007873327899789
0.1099999999999994,-0.01612278705741,0.0292239478448105,0.0068342636231144
0.1200000000000045,-0.018283080642931,0.0298507628969109,0.0080733102442247
0.1299999999999954,-0.0112479166880289,0.0248445169636132,0.0076839224995277
0.1400000000000005,-0.0094159829799971,0.0258666672512012,0.0120099969787494
0.1500000000000056,-0.0100796856005583,0.0253507241054353,0.0151862183357419
0.1599999999999966,-0.0088390210216478,0.0215849372778309,0.0137801993945965
0.1700000000000017,-0.0154788802235035,0.0236552803522596,0.0137615944478614
0.1800000000000068,-0.0257933733897642,0.0229519886965309,0.0182961562072514
0.1899999999999977,-0.0373039244671423,0.0245887074763732,0.0214882388734211
0.2000000000000028,-0.0456369616435673,0.0224769910689178,0.0219978296184724
0.2100000000000079,-0.0501270479209076,0.0180861837971848,0.0190395593596785
0.2199999999999988,-0.0481520261644057,0.0150572272596907,0.017293150037943
0.2300000000000039,-0.039774115084382,0.0158761173876257,0.0152037926973781
0.2399999999999948,-0.0320129997869479,0.0163021385096694,0.010641454619503
0.25,-0.0253617900031265,0.0158186238589255,0.0095319450071167
0.2600000000000051,-0.0240583312499247,0.01330705361444,0.0054233612191075
0.269999999999996,-0.0255583495545569,0.0087110507346582,0.0007893096885871
0.2800000000000011,-0.0271211355951824,0.0038010372699032,0.000910451394593
0.2900000000000062,-0.0220483131852082,0.0044176479398692,0.0020783308116775
0.2999999999999971,-0.0113701382077116,0.0022174338346248,0.0014819209616194
0.3100000000000023,0.0005709419727636,0.0048318672045896,0.0009766008628613
0.3200000000000074,0.0215318977819437,0.0020626234065155,-0.0015235018169641
0.3299999999999983,0.0250001546082031,0.0044457882366821,-0.0001666404737823
0.3400000000000034,0.0236243980278858,0.0047489124154452,0.0013797491524038
0.3499999999999943,0.0066091763776229,0.0048230089337458,0.0026446278228079
0.3599999999999994,-0.0079840646545737,0.0019711244953916,0.0101235500645764
0.3700000000000045,-0.024494781958324,0.0039100653696313,0.0139693531977467
0.3799999999999954,-0.0346233327593722,0.0027369162821691,0.0154171417277799
0.3900000000000005,-0.0348124319466121,0.000504635896233,0.0148114694641535
0.4000000000000057,-0.0378213916721104,0.0023485544051215,0.0191872545169778
0.4099999999999966,-0.0301532254574924,-0.0001881770742232,0.014709662610646
0.4200000000000017,-0.0212765895836192,0.0017691214719084,0.0167961495201676
0.4300000000000068,-0.0146389654467089,0.0049279424350464,0.013508978927141
0.4399999999999977,-0.0090284024854476,0.0097764813004516,0.0172751691711558
0.4500000000000028,-0.0046085996475915,0.0107247826153547,0.0193186596965358
0.4600000000000079,-0.0052897627881182,0.0136762646963451,0.0168271463531142
0.4699999999999988,0.0011854759856173,0.0146641805177592,0.0146118137515943
0.480000000000004,0.0083520314293889,0.0130857546931192,0.0114151707023697
0.4899999999999949,0.0152748133530376,0.0150459727654924,0.0097483136144214
0.5,0.0237837470331798,0.0170089663290596,0.0082515118388653
0.5100000000000051,0.0281557469197221,0.0214788243722774,0.0108139886840176
0.519999999999996,0.0329757862101804,0.0230990963612398,0.0118225969320878
0.5300000000000011,0.0276654311624438,0.0238034824170957,0.0078698672318383
0.5400000000000063,0.023956582024276,0.0227708426036148,0.0127263705633162
0.5499999999999972,0.0124692524076286,0.0162202184792582,0.0074710288898596
0.5600000000000023,0.0005730914860523,0.0075319413166285,0.0082192974132889
0.5700000000000074,-0.0082090081529308,0.0061269009817848,0.0108320084098437
0.5799999999999983,-0.0206433110937194,0.0022360096314593,0.0101093267670294
0.5900000000000034,-0.0257627021444601,0.0024239222889621,0.01042408438172
0.5999999999999943,-0.0361689012503066,0.0099414267659284,0.0102218159249849
0.6099999999999994,-0.0409531551462207,0.0124750597938419,0.0053382408995093
0.6200000000000045,-0.0399814522021667,0.0118535174482819,0.0052710297112634
0.6299999999999955,-0.0313843899273787,0.016602830403494,-0.0012784585907015
0.6400000000000006,-0.0265976245890543,0.0200889969443633,-0.0024568377251601
0.6500000000000057,-0.0171629649844446,0.02670811410994,-0.0028245666398758
0.6599999999999966,0.0007584460552336,0.0338462686904721,-0.004755434468486
0.6700000000000017,0.0096672261883659,0.0451672753884396,-0.0055148896688012
0.6800000000000068,0.021828782321736,0.060537356121616,-0.0068227738110552
0.6899999999999977,0.0368853451561828,0.0789553945365312,-0.008643301911693
0.7000000000000028,0.0556666613245282,0.1042105021081711,-0.0087055652407511
0.710000000000008,0.067804479958472,0.1378734900099878,-0.0057042232259706
0.7199999999999989,0.0870823715441241,0.1841422566845111,0.0036145030214164
0.730000000000004,0.0994150845377678,0.24262407015877,0.0141876589745616
0.7399999999999949,0.1078565056159528,0.3272413990117594,0.0349302824954203
0.75,0.1046334736683065,0.4532611237432479,0.0592958557738401
0.7600000000000051,0.0883074236701532,0.624186388063807,0.0932946203870032
0.769999999999996,0.0895377298556821,0.8592584464791082,0.1479251238619501
0.7800000000000011,0.126459343510695,1.1789259638442495,0.214060730128026
0.7900000000000063,0.1787463311530178,1.6282743007441125,0.2824184432582858
0.7999999999999972,0.2500777039418866,2.180547019510771,0.3571265921653626
0.8100000000000023,0.3344734756083624,2.8020538910178625,0.4387679900109476
0.8200000000000074,0.3704464038861593,3.505624627439169,0.5338662563098049
0.8299999999999983,0.3422634612358244,4.261950035181119,0.6518913754580513
0.8400000000000034,0.1943723312556574,5.1161743883606405,0.8097519129497259
0.8499999999999943,-0.0745569901792618,5.97925217734205,1.0267522857133935
0.8599999999999994,-0.4668846063890429,6.824845524255419,1.3221080151828744
0.8700000000000045,-1.0059443534364492,7.552896157068624,1.6778951384000471
0.8799999999999955,-1.7078236498412314,8.110507261565424,2.068035732104572
0.8900000000000006,-2.5807846781738424,8.49193715024274,2.485365460659844
0.9000000000000057,-3.553866976203853,8.707397870122174,2.905449767899021
0.9099999999999966,-4.550325815323932,8.804171341604523,3.347285762653671
0.9200000000000016,-5.452407497431125,8.835813672252772,3.769105857663986
0.9300000000000068,-6.226776313884238,8.82217259052914,4.144255616386426
0.9399999999999976,-6.859569033171566,8.783970498306106,4.43304195396573
0.9500000000000028,-7.3573871584264285,8.722317407398725,4.630228090335177
0.960000000000008,-7.73538262766041,8.620619236977836,4.716360377540911
0.9699999999999988,-7.942809860496897,8.462358412034071,4.662856498643687
0.980000000000004,-7.99508377695425,8.203874336958924,4.314616905160067
0.9899999999999948,-7.915493733389086,7.832053242023395,4.055257551981288
1.0,-7.712762283889086,7.455173465916977,3.5745337116721085
1.0100000000000051,-7.399233131688399,7.079571913544828,3.0433166136424985
1.019999999999996,-6.951010491300445,6.704506079351508,2.488922259119636
1.0300000000000011,-6.517346189320063,6.327532466894998,1.906551437120406
1.0400000000000065,-6.031495471960674,5.885642412413165,1.3235436224068644
1.0499999999999972,-5.473348689052023,5.508512348807533,0.746495696669988
1.0600000000000025,-4.910056647375379,5.17305476815508,0.1957115084504611
1.0700000000000074,-4.239655646279134,4.884746175216159,-0.340515736546859
1.0799999999999983,-3.491371728085692,4.6229937174832125,-0.86254856972343
1.0900000000000034,-2.678302272962944,4.351599620159357,-1.3370185682583122
1.0999999999999943,-1.7769264041507515,4.066692362248016,-1.7426230402468894
1.1099999999999994,-0.8310778550338727,3.768577983633299,-2.060159523165533
1.1200000000000043,0.1611999529047091,3.4930378813377274,-2.320177251761399
1.1299999999999957,1.2193716117394535,3.2278530496776594,-2.540057069243609
1.1400000000000006,2.329300226012789,2.9718101185198527,-2.73555546169644
1.1500000000000057,3.522685123469891,2.70423074557458,-2.919540327777032
1.1599999999999966,4.7628795635253,2.440116768352486,-3.120294553012504
1.1700000000000017,6.079719747956252,2.1528731294517214,-3.357341396090048
1.1800000000000068,7.473000501277808,1.7908340867261852,-3.636171167240148
1.1899999999999975,8.831871580746451,1.333489912466737,-3.944467825466096
1.2000000000000028,10.078400298567823,0.7796300625585907,-4.236990996558315
1.210000000000008,11.095295463429323,0.1633063470602972,-4.464945791004113
1.2199999999999989,11.838535316016625,-0.5008348289466872,-4.622214598544455
1.230000000000004,12.27526151364086,-1.1680052446920122,-4.689703432294962
1.2399999999999949,12.393793830254362,-1.8481957014825123,-4.700803397367648
1.25,12.216739228040812,-2.4898822656969246,-4.661073059797868
1.2600000000000051,11.859649552022,-3.063382682943406,-4.569548723199638
1.269999999999996,11.409912293420367,-3.5563444697467443,-4.427043133827532
1.2800000000000011,10.898217102490122,-3.9526673677826074,-4.2479013009401205
1.2900000000000065,10.3142217796039,-4.286730852833732,-4.06529813443135
1.2999999999999972,9.72753468590354,-4.554388594998269,-3.899481301016477
1.3100000000000025,9.185429171349847,-4.743889143041849,-3.756235880528883
1.3200000000000074,8.685514624579836,-4.876221557883899,-3.6298858742206703
1.3299999999999983,8.240296007865506,-4.95074364541011,-3.528715349445252
1.3400000000000034,7.846693683123108,-4.976344103199984,-3.4440400184563944
1.3499999999999943,7.515310040170629,-4.937066145534196,-3.34942982752529
1.3599999999999994,7.262710260032674,-4.783630047457936,-3.237399041579088
1.3700000000000043,7.111660663406854,-4.523473841643975,-3.088615681106437
1.3799999999999957,7.035465775166895,-4.280490811066454,-2.853966947374585
1.3900000000000006,6.968049941942771,-4.128636830908333,-2.526704647762622
1.4000000000000057,6.876238504689006,-4.075852137583687,-2.1950621449388463
1.4099999999999966,6.7641854178549465,-4.10263858405351,-1.8930536727331997
1.4200000000000017,6.668851529285732,-4.138116020751442,-1.681156909712769
1.4300000000000068,6.493853121690017,-4.021038740692097,-1.5089657596716932
1.4399999999999975,6.264122397849904,-3.725025571797927,-1.34488854215845
1.4500000000000028,5.910161473112905,-3.313490829638152,-1.133968805725438
1.460000000000008,5.479091172842793,-2.9189987349478708,-0.850650077716702
1.4699999999999989,4.979806881794817,-2.614799031381112,-0.5077788197396237
1.480000000000004,4.4558931078055215,-2.284004048481676,-0.1982250304556435
1.4899999999999949,3.912298619770093,-1.9067372613185083,0.093510083912294
1.5,3.481894261611701,-1.4756917704109938,0.3642385536540765
1.5100000000000051,3.094780847108209,-0.991684684309533,0.7157341196524979
1.519999999999996,2.973234529846485,-0.3344102267501991,1.1001553653762297
1.5300000000000011,2.6732562626532808,0.3879449868588509,1.5749533643496991
1.5400000000000065,2.674036010980802,1.231122243119923,2.1758671797522213
1.5499999999999972,2.8209991142447084,2.125577033170576,2.7617185895785448
1.5600000000000025,2.6773222522964235,2.9132602820421822,3.3461169053836515
1.5700000000000074,2.5043422944558915,3.680643221036707,3.874923650778891
1.5799999999999983,2.199247128602132,4.416928327301106,4.342708405097135
1.5900000000000034,1.867371740724625,5.133210542173592,4.712522973264931
1.5999999999999943,1.4616565929475425,5.783430558707036,5.033725650573429
1.6099999999999994,1.036778283958505,6.36212238813104,5.287785235792277
1.6200000000000043,0.577231970986742,6.882954704252213,5.4408305307443605
1.6299999999999957,0.0902344342589315,7.368147339409488,5.515392466873482
1.6400000000000006,-0.4258404957779682,7.722486695714505,5.5285254818912986
1.6500000000000057,-0.9617965762175752,7.995425602324231,5.529680854883933
1.6599999999999966,-1.3802393368626376,8.036268977567353,5.461244746136469
1.6700000000000017,-2.000577964116085,8.059211643655418,5.352203054477565
1.6800000000000068,-2.600522381677062,8.051768850203306,5.263901078762185
1.6899999999999975,-3.1522799839654367,8.0031659455387,5.226091762272941
1.7000000000000028,-3.708834171303239,7.979923927703716,5.244536497897962
1.710000000000008,-4.179846404925906,7.958187072889018,5.296230303129005
1.7199999999999989,-4.549029108786017,7.932857484803196,5.344563521407954
1.730000000000004,-4.838296947415702,7.88613277982533,5.395622654081087
1.7399999999999949,-5.054591067735886,7.813048209239106,5.452277880020379
1.75,-5.220227908915673,7.7538155171521455,5.493899478223805
1.7600000000000051,-5.332947751555296,7.694559292838573,5.543528786237581
1.769999999999996,-5.405362359697624,7.606773119735442,5.597198914087607
1.7800000000000011,-5.437050013415751,7.505878158914767,5.719307451581052
1.7900000000000065,-5.345624221505416,7.393880927433915,5.872045458086277
1.7999999999999972,-5.303557375691485,7.314368877894403,6.060904501665957
1.8100000000000025,-5.405867592698723,7.187373113919299,6.114979099499461
1.8200000000000076,-5.582588806119459,7.019697423031097,6.116410199026861
1.8299999999999983,-5.677697816212308,6.74155181798359,5.866634822583667
1.8400000000000036,-5.794381328504969,6.529853136543184,5.524165780063412
1.8499999999999943,-5.733923162938135,6.312930505796365,5.454977594043955
1.8599999999999997,-5.702278298934962,6.027800406437735,5.044684611115054
1.8700000000000043,-5.605797546385635,5.769540387911336,4.669521395168127
1.8799999999999957,-5.367654804446826,5.496888969224034,4.215374898635615
1.8900000000000008,-5.09189496950648,5.258425277453648,3.7694707233511378
1.9000000000000057,-4.719813910792207,5.014869654343288,3.288015253337443
1.9099999999999968,-4.292826600309578,4.787146378877105,2.7515357467370025
1.9200000000000017,-3.8445325606771217,4.5935973127892495,2.1941513173364324
1.9300000000000068,-3.3854207654215545,4.421818399115391,1.6416375867577506
1.9399999999999975,-2.878413530527127,4.243730007613234,1.101570431103048
1.9500000000000028,-2.3120054158524144,4.043698664084022,0.5779655153832309
1.960000000000008,-1.653239604936623,3.8208866982984064,0.0853011588758922
1.9699999999999989,-0.908637802041606,3.602680503897601,-0.3536451084505235
1.980000000000004,-0.0753585184717255,3.377818245122635,-0.7168351488953125
1.9899999999999949,0.8401691246009189,3.146455817805605,-1.0127294018244897
2.0,1.842140420749179,2.897982645645367,-1.2598903169521023
2.010000000000005,2.895227818774107,2.6285374266798125,-1.4898893899693333
2.019999999999996,3.906001610198144,2.365958567684748,-1.6806059379889842
2.030000000000001,4.8826550614430095,2.11976227800884,-1.8705360496486911
2.0400000000000063,5.815397522721572,1.8922063489979308,-2.037378894317514
2.049999999999997,6.703938563527719,1.6517328522159371,-2.215967032768644
2.0600000000000023,7.528357831663372,1.3804809368827484,-2.423097066069088
2.0700000000000074,8.2350901290198,1.0499191703348612,-2.634850080502157
2.0799999999999983,8.808427388947294,0.6720265545052143,-2.860188181864391
2.0900000000000034,9.247923224868694,0.2727250320828448,-3.0675331271246824
2.0999999999999943,9.561323557877822,-0.1366920345727598,-3.20622007978825
2.1099999999999994,9.75624292160927,-0.5364934209043136,-3.2814589832251384
2.1200000000000045,9.847855682309556,-0.9390939517611628,-3.3360168344549703
2.1299999999999955,9.86255610621347,-1.338016109482156,-3.369858740765712
2.140000000000001,9.804873930823494,-1.7446598347407345,-3.3818174518404502
2.1500000000000057,9.697533778604432,-2.147035335330432,-3.3663661047788564
2.1599999999999966,9.57464611186028,-2.5141186206314434,-3.333541420337366
2.1700000000000017,9.472643782751344,-2.865140308667081,-3.252895794676113
2.180000000000007,9.368711951806054,-3.184146549190527,-3.119778537327991
2.1899999999999977,9.22355398796316,-3.4745929442293706,-2.9850420557127637
2.200000000000003,8.999566570032592,-3.728865300503213,-2.8769030274633565
2.210000000000008,8.75981066302398,-3.9800237229247633,-2.809458512307531
2.219999999999999,8.501370511940335,-4.23720149683006,-2.7408700744379018
2.230000000000004,8.294054875621711,-4.512303366913179,-2.653424565272109
2.239999999999995,8.07375830188759,-4.716547718676287,-2.546092984932986
2.25,7.957872527482154,-4.908479073009768,-2.412928595269188
2.260000000000005,7.8632015986063,-5.028278616470328,-2.236403434754884
2.269999999999996,7.660007515659472,-4.993675307636311,-1.997839955590298
2.280000000000001,7.458940445632344,-4.931823017170862,-1.7634256306289726
2.2900000000000063,7.1552791706225305,-4.848977882664296,-1.55045447825061
2.299999999999997,6.825766846994712,-4.781868345656887,-1.3806318850307675
2.3100000000000023,6.4434462804302415,-4.758618983349627,-1.1770398058484246
2.3200000000000074,5.964103032980471,-4.757165365673553,-0.9218915180906194
2.3299999999999983,5.44248028524776,-4.792131053850974,-0.5982965895100952
2.3400000000000034,4.832236670215448,-4.792697848438806,-0.3458315826253957
2.3499999999999943,4.165329776587778,-4.778992824248383,-0.1669923360844837
2.3599999999999994,3.495255714717971,-4.734281259629385,-0.053500073529747
2.3700000000000045,2.8079298092888942,-4.663298817007618,-0.0225972303959654
2.3799999999999955,2.134167133932775,-4.589938013050104,-0.0395913618291816
2.390000000000001,1.4954230060726232,-4.514939832417687,-0.1082769635309196
2.4000000000000057,0.916372939603338,-4.457024898616658,-0.2263004729718218
2.4099999999999966,0.4044648381875134,-4.406431987181088,-0.3781484617916226
2.4200000000000017,-0.0051058274080999,-4.340369840801116,-0.5133258484004325
2.430000000000007,-0.3046207559122522,-4.237258417571321,-0.6105719598612857
2.4399999999999977,-0.5094893749252647,-4.087887388864687,-0.6312090022561223
2.450000000000003,-0.6189613442628813,-3.9219528716844474,-0.5379327534336436
2.460000000000008,-0.6659444935379406,-3.7574230917865954,-0.3403239521603866
2.469999999999999,-0.6119662113073859,-3.5773141916148776,-0.1175412114594104
2.480000000000004,-0.4458762700603298,-3.3821291459742406,0.0944377878817566
2.489999999999995,-0.2109975975807483,-3.1969693671585397,0.2637481968711291
2.5,0.0149130540311745,-3.037665876984931,0.379782107881487
2.510000000000005,0.2158430530246074,-2.86941060512315,0.4937676786255802
2.519999999999996,0.3736214887097045,-2.6811090177255466,0.6162397211628602
2.530000000000001,0.5059046954684118,-2.4217285718332326,0.7553836660307754
2.5400000000000063,0.6544807055170052,-2.091984367285248,0.9090931654345856
2.549999999999997,0.8262308953035692,-1.679804216131794,1.1011502984750083
2.5600000000000023,0.9797149281081764,-1.2243745073234598,1.330037080418974
2.5700000000000074,1.0965335724414784,-0.6778393724004755,1.5763639956772546
2.5799999999999983,1.2144699935227874,-0.0512968442413091,1.8343677814791115
2.5900000000000034,1.406110933087325,0.626852984426293,2.158325748870202
2.5999999999999943,1.5747195708844328,1.3169027730896463,2.5797041789756063
2.6099999999999994,1.637650665865772,2.023686661409059,3.0274231852348725
2.6200000000000045,1.631750221460833,2.6667023996648065,3.56634777589896
2.6299999999999955,1.646697058554173,3.4459209245120435,4.163348015346353
2.640000000000001,1.4952466791065295,4.140506053365659,4.753953886502639
2.6500000000000057,1.1781124183725582,4.800356752919306,5.267666672227557
2.6599999999999966,0.6690753557540966,5.37512050660517,5.64357145779755
2.6700000000000017,-0.0023268054362395,5.875833264329884,5.9226772824766805
2.680000000000007,-0.7571825317517038,6.284204526914398,6.140479818661339
2.6899999999999977,-1.5153480872462874,6.611440368877282,6.331449833432365
2.700000000000003,-2.213037126000427,6.849119483565594,6.502322069154399
2.710000000000008,-3.0012194673991286,7.015506510621515,6.654355909855092
2.719999999999999,-3.652882033590944,7.154951406580108,6.78492427994892
2.730000000000004,-4.18696293277486,7.25669063542693,6.886302624784203
2.739999999999995,-4.725210596041372,7.320750054392199,7.000187313506147
2.75,-5.267160681459276,7.354751629212952,7.122249186576037
2.760000000000005,-5.886833715126999,7.388826424998534,7.226033305785163
2.769999999999996,-6.376455749254856,7.463715563455918,7.232004345352789
2.780000000000001,-6.836668293651955,7.472720017250959,7.177805834338176
2.7900000000000063,-7.163310128086864,7.514530576367389,7.034210121534067
2.799999999999997,-7.228213651565444,7.4303066129466275,6.968832746131253
2.8100000000000023,-7.386248266835253,7.27013860882208,6.901581262538102
2.8200000000000074,-7.288243744511879,7.073773170908782,6.821173169717432
2.8299999999999983,-7.239980324920153,6.912901965057594,6.690980174688621
2.8400000000000034,-7.047220697332478,6.6171619599124245,6.417241425088527
2.8499999999999943,-6.791197484118554,6.340481110698087,6.024486742358023
2.8599999999999994,-6.540729451960632,6.1492954756072296,5.514322482189282
2.8700000000000045,-6.150557030940594,5.965360241591346,4.929839224671516
2.8799999999999955,-5.748399480963793,5.862251178310373,4.3332329096338045
2.890000000000001,-5.240202973092238,5.753138774023343,3.758128177889236
2.9000000000000057,-4.738350932490394,5.621906092968779,3.155892849189482
2.9099999999999966,-4.118810942960884,5.421504354086163,2.485466548883503
2.9200000000000017,-3.419777153920561,5.202313543025338,1.7848738689235406
2.930000000000007,-2.705943264177753,4.8447731312335565,0.9712712354597548
2.9399999999999977,-2.084870655849448,4.458039410650167,0.2080576991136996
2.950000000000003,-1.4729817933895344,4.023304386286692,-0.3936883355057932
2.960000000000008,-1.0160956782106876,3.651808623493401,-0.8397089631948395
2.969999999999999,-0.5385827391972895,3.238256034597148,-1.205434617926738
2.980000000000004,-0.2569900715772193,2.989494982614308,-1.4211639776793257
2.989999999999995,0.4710483313443425,2.320251881904289,-1.709287210823973
3.0,0.964142594216644,1.87945092430791,-1.8705916434353396
3.010000000000005,0.9038774287338532,1.9359594663743829,-1.847949638759785
3.019999999999996,1.180932523568962,1.7195159887520255,-1.915905434187252
3.030000000000001,1.7055199480486885,1.3603569607823118,-1.983195997141702
3.0400000000000063,2.302396455774932,0.998408306318978,-2.0144938987902843
3.049999999999997,2.9284147990727254,0.69442466449187,-2.0283322251581315
3.0600000000000023,3.632810091005216,0.4248295805205072,-2.109667811296192
3.0700000000000074,4.385226654968301,0.1861057523400772,-2.305117532131065
3.0799999999999983,5.202166301746777,-0.0429636807655892,-2.541648151716271
3.0900000000000034,6.088470333121075,-0.2538190928090666,-2.7531026489631727
3.0999999999999943,7.018567664718834,-0.4907867836095294,-2.952351879360023
3.1099999999999994,7.962941113621119,-0.7543553443769349,-3.118334845971104
3.1200000000000045,8.90864632166831,-0.9786464239888848,-3.315552308940456
3.1299999999999955,9.847080000919778,-1.1553342148460253,-3.533665435488491
3.140000000000001,10.73208136038583,-1.3033923300836303,-3.7147499719173616
3.1500000000000057,11.52645269515592,-1.3817445494423577,-3.8448059540734736
3.1599999999999966,12.217989131205137,-1.4659284047029175,-3.860239340456817
3.1700000000000017,12.736648489169298,-1.6278752454133207,-3.762522302885171
3.180000000000007,13.08203915772306,-1.868231107668341,-3.58956140983098
3.1899999999999977,13.22296303356133,-2.1838203596948653,-3.476259371741766
3.200000000000003,13.161356975032156,-2.559496105287005,-3.4300754394794244
3.210000000000008,12.935710550038731,-2.9545618348436826,-3.3828678143336504
3.219999999999999,12.558936718881473,-3.4205911278903405,-3.292567502503744
3.230000000000004,12.05221734411824,-3.880666016635695,-3.109707865926577
3.239999999999995,11.53943642974994,-4.262179407857609,-2.781503754910148
3.25,10.97370642609896,-4.513396048242423,-2.357192448735421
3.260000000000005,10.481735592401636,-4.628568263046614,-1.8726776404766408
3.269999999999996,9.953951106377222,-4.615915076277334,-1.480249578483193
3.280000000000001,9.150618181330728,-4.585766511516803,-0.8667128952541863
3.2900000000000063,8.300915786939079,-4.47744229542524,-0.4150558620645717
3.299999999999997,7.503321154534943,-4.347486880388436,-0.1350420243945808
3.3100000000000023,6.8462809084856415,-4.157138361933585,0.1851374995751581
3.3200000000000074,6.242816505542252,-3.95107209104812,0.474398455546951
3.3299999999999983,5.681533659907367,-3.776997634114944,0.7481550235236482
3.3400000000000034,5.076959243475086,-3.640869906396339,0.9848905567524808
3.3499999999999943,4.4746435008525,-3.4704164878056187,1.1730701289154066
3.3599999999999994,3.929325656216755,-3.208851940104202,1.2660879684580917
3.3700000000000045,3.393235656288343,-2.955082028816584,1.3430852465587402
3.3799999999999955,2.876116847667395,-2.690405861478662,1.383274509546442
3.390000000000001,2.3804673333289363,-2.374971099466232,1.3386390449072143
3.4000000000000057,1.9227785849382493,-1.9941835270629436,1.2231372083527434
3.4099999999999966,1.5199252568299833,-1.4736920965352631,1.0857197375931764
3.4200000000000017,1.2042298539800769,-0.8723981620702753,0.9460074628681964
3.430000000000007,0.9397593267388958,-0.1129654092315866,0.8303636465231067
3.4399999999999977,0.6967991447372588,0.6825873092755362,0.7336280634669512
3.450000000000003,0.4372158918242295,1.4721773076977194,0.659864340644019
3.460000000000008,0.1347316613706716,2.351008903771049,0.622353336806469
3.469999999999999,-0.1580322729265906,3.2383896019646894,0.6170860609772727
3.480000000000004,-0.4115212531619942,4.177537235188079,0.6743227107571248
3.489999999999995,-0.5909048524697901,5.139650719584423,0.7677003870349812
3.5,-0.6848310536896385,6.065131050405324,0.8378379660156262
3.510000000000005,-0.7980820647454127,6.939735092060245,0.8657153417364601
3.519999999999996,-0.9792153251870552,7.709366408143616,0.8417932623606438
3.530000000000001,-1.1929809529952418,8.3978995315346,0.7719402715984541
3.5400000000000063,-1.4090601833103422,9.002488881631955,0.6621985621509586
3.549999999999997,-1.6759263178125845,9.537119852141096,0.5202490035580234
3.5600000000000023,-1.9752612851974067,10.037505926502858,0.3286361666324965
3.5700000000000074,-2.252194136580058,10.495142118421898,0.0711663321336835
3.5799999999999983,-2.4784962795072767,10.935226063981158,-0.2000914479218672
3.5900000000000034,-2.6146352665038792,11.325761091410904,-0.449198212574618
3.5999999999999943,-2.6724877690820037,11.644901994431136,-0.642604729409254
3.61,-2.6280584536778795,11.839641244251556,-0.7912067329563002
3.620000000000005,-2.6001056328671077,11.849428913125628,-0.9383032943646736
3.629999999999996,-2.5015926611274417,11.72692926963144,-1.088131201985272
3.640000000000001,-2.306535622158879,11.438595749410316,-1.2674502955663876
3.6500000000000057,-2.062252142262479,10.988462309878196,-1.4304576821960735
3.6599999999999966,-1.7438611245075477,10.463951416288364,-1.55180193935939
3.6700000000000017,-1.377920391904352,9.839567802890796,-1.6086604308218402
3.680000000000007,-1.0700656666471824,9.152073387818588,-1.5576619627036743
3.6899999999999977,-0.8438850568269389,8.497171970615861,-1.469596782771703
3.700000000000003,-0.7320594541171478,7.85413655870605,-1.3437338021561551
3.710000000000008,-0.7913188853208749,7.211176428967848,-1.2438230606342795
3.719999999999999,-0.971973526950148,6.55495224984477,-1.188614985129363
3.730000000000004,-1.2310329345457884,5.957914362537352,-1.1685227465393573
3.739999999999995,-1.5513440155050044,5.50464321717155,-1.1493016482174576
3.75,-1.9431044407826472,5.1351544695319085,-1.078616759076474
3.760000000000005,-2.446614323791107,4.738129428775543,-0.973026491808384
3.769999999999996,-3.0266142216074523,4.235230985737891,-0.8984075762853146
3.780000000000001,-3.6060690758512384,3.671813491608132,-0.8610224023948547
3.7900000000000063,-4.128690664100207,3.1088293545944747,-0.8295557841234158
3.799999999999997,-4.571303632919061,2.6117892360253347,-0.8350159351189068
3.8100000000000014,-4.963442728363817,2.185285799683536,-0.881620553940654
3.820000000000008,-5.292618739800679,1.8270362846889847,-1.0174304203831532
3.8299999999999983,-5.5159876398215,1.5495637042649972,-1.2244120482582208
3.8400000000000034,-5.590983414472644,1.368371032727154,-1.504583680461747
3.8499999999999934,-5.534000578410836,1.2666022660641758,-1.8199963363372007
3.86,-5.376149507042298,1.192588269838008,-2.162112205341866
3.870000000000005,-5.121490843628124,1.131202211222846,-2.536385527091514
3.879999999999996,-4.7882956266917525,1.059116521412266,-2.9561254826841035
3.890000000000001,-4.433844882749893,0.975523830954269,-3.4051799262510465
3.9000000000000057,-4.017069126628527,0.8240334026039688,-3.815105887831618
3.9099999999999966,-3.550268369077326,0.6204203244851354,-4.193628018331351
3.9200000000000017,-2.9689899231719754,0.3816274027792761,-4.481717980282318
3.930000000000007,-2.309502632098892,0.1273895417260526,-4.65646635642831
3.9399999999999977,-1.5790684239130466,-0.1493675328525045,-4.748330527733444
3.950000000000003,-0.6848907143642065,-0.4531693695564024,-4.82495116867869
3.960000000000008,0.3372767187192979,-0.8329302253823008,-4.895631960152865
3.969999999999999,1.4052075841047047,-1.2708677272397726,-4.998281452222364
3.980000000000004,2.55707431489626,-1.7860215406219877,-5.157226304973918
3.989999999999995,3.795970350493647,-2.2300068560229,-5.473835243071936
4.0,5.039115350523265,-2.716493707619409,-5.658851721279692
4.010000000000005,6.250499175786625,-3.145834374118746,-5.689629238816892
4.019999999999996,7.34036444602744,-3.5025954203932206,-5.6364868866870825
4.030000000000001,8.275365149794945,-3.883200324745215,-5.504486410217698
4.040000000000006,9.016787856991412,-4.197842518789039,-5.311332752797371
4.049999999999997,9.56524730579572,-4.495747160620216,-5.045179688073914
4.060000000000002,9.869887485412418,-4.778562574225275,-4.798603539350831
4.070000000000007,9.968308003970291,-5.12188653092569,-4.6269579815851465
4.079999999999998,9.929385830620529,-5.585501150880543,-4.477659548314825
4.090000000000003,9.820419265606578,-6.087711322100148,-4.255429618883369
4.099999999999994,9.576876913620282,-6.538556433463211,-3.964179589721384
4.109999999999999,9.207280159064313,-6.883478446223882,-3.676186318960027
4.1200000000000045,8.786574369046836,-7.157355381280766,-3.364277391158927
4.129999999999996,8.368427930941104,-7.317641482740496,-3.0574878698850068
4.140000000000001,7.961494019879282,-7.316223249503738,-2.759794069104537
4.150000000000006,7.550079705393652,-7.173148329599259,-2.3857730017924235
4.159999999999997,6.992560278423191,-7.055069985173196,-1.958972474389776
4.170000000000002,6.234874262155402,-6.982364890300318,-1.5798766109312148
4.180000000000007,5.43869962378124,-6.965755048067833,-1.160119395834235
4.189999999999998,4.658126753412379,-6.923259567838424,-0.7436453392032999
4.200000000000003,4.028670667458496,-6.762388429175549,-0.4038441474143966
4.210000000000008,3.5726898490928267,-6.507717387001142,-0.2002360827822082
4.219999999999999,3.2589977188720174,-6.172119668661344,-0.1473428868003188
4.230000000000004,3.117263776638401,-5.857692377115184,-0.1460808672363255
4.239999999999995,3.059688503769617,-5.532290270821782,-0.1192654595256118
4.25,3.088837398252886,-5.210179619311782,-0.0132655066695416
4.260000000000005,3.1844215785006145,-4.86598992095079,0.1378773092697227
4.269999999999996,3.254859321695862,-4.459369478517362,0.298086976930757
4.280000000000001,3.226728873823675,-4.02173070055406,0.4420075830513139
4.290000000000006,3.0479345191290057,-3.522448263611894,0.5976211611236197
4.299999999999997,2.7587112487019736,-2.9690928491866564,0.7820000593992408
4.310000000000002,2.445019179905016,-2.3148372266418096,0.9790326423579284
4.320000000000007,2.132517737286209,-1.580988618678291,1.186161663698713
4.329999999999998,1.804348679816684,-0.789415891190017,1.4021758487716556
4.340000000000003,1.4110364012026428,0.0510955036958589,1.7048493992756155
4.349999999999994,0.9962451411767548,0.882658124005012,2.0214844971017425
4.359999999999999,0.5707482040806171,1.6787636226881364,2.350257062430253
4.3700000000000045,0.1108373415958741,2.5874765984347645,2.740583481902625
4.379999999999996,-0.3093055914245235,3.496734682888403,3.093688698818329
4.390000000000001,-0.6638550852049494,4.336756625251434,3.461665034401729
4.400000000000006,-1.0105707059792366,5.032787984617944,3.814943035127546
4.409999999999997,-1.38559963282128,5.572632551349107,4.156033559400485
4.420000000000002,-1.7449563093228515,5.94294231610409,4.505035446708501
4.430000000000007,-2.0754809686505693,6.163465996139377,4.898454772674906
4.439999999999998,-2.343606338260384,6.289403345521087,5.340084028985649
4.450000000000003,-2.49216557748927,6.378058337951861,5.799433863391971
4.460000000000008,-2.5323673917400438,6.417820411555874,6.244459182630999
4.469999999999999,-2.5052512331833223,6.385558142376137,6.6440935875098805
4.480000000000004,-2.468241977955944,6.265739554150433,7.016028733523271
4.489999999999995,-2.500803586780934,6.092635407788065,7.329726474263452
4.5,-2.61907858298958,5.9001741320098215,7.579602068315222
4.510000000000005,-2.7429186868393685,5.631833426984668,7.791697148504799
4.519999999999996,-2.850134115581645,5.291309589811682,7.990935775286114
4.530000000000001,-2.9038953779234675,4.88080310060017,8.227392182964838
4.540000000000006,-2.8956041836379294,4.47642079510227,8.463038810541553
4.549999999999997,-2.84940795111365,4.082915082999155,8.629457947984376
4.560000000000002,-2.773462811845405,3.693159389187223,8.718786841110512
4.570000000000007,-2.5879591313532444,3.309764549549328,8.74263702963422
4.579999999999998,-2.300848282291503,2.9607519483278546,8.7158694099327
4.590000000000003,-2.007949246671708,2.664904047001281,8.680991208599236
4.599999999999994,-1.7483831371044354,2.3874861893747785,8.654725066660935
4.609999999999999,-1.527954053582852,2.1718697780433653,8.597174710472046
4.6200000000000045,-1.4170002708639504,2.011227865312612,8.51217613837819
4.629999999999996,-1.351848356406997,1.876455500545964,8.360518617034213
4.640000000000001,-1.3582463030510854,1.7618512113063884,8.140781774185228
4.650000000000006,-1.3573239036315214,1.6581007748725516,7.824565478654729
4.659999999999997,-1.4059386368803122,1.5937352119831818,7.415615646297639
4.670000000000002,-1.3827242892366105,1.5779066701293796,6.88630752452466
4.680000000000007,-1.506665385228266,1.565646808010529,6.276955230680924
4.689999999999998,-1.4368554068601198,1.6359266303624478,5.344465847343414
4.700000000000003,-1.2775450125356458,1.691604238776389,4.33944621729505
4.710000000000008,-1.1927138220514797,1.7889252677151188,3.378034577829466
4.719999999999999,-1.0352110727666342,1.9680986830639968,2.358967661383193
4.730000000000004,-0.891514120292677,2.198221465520117,1.3776549088233283
4.739999999999995,-0.7297306647524578,2.4739314400474424,0.4079120595361182
4.75,-0.5233719412920507,2.7387911190021503,-0.5490366578926641
4.760000000000005,-0.3248848471546585,2.9655088929793885,-1.4642758914673335
4.769999999999996,-0.0453692525662297,3.127045487679327,-2.376224484690589
4.780000000000001,0.2863390777686732,3.2495014517533347,-3.2434879437071005
4.790000000000006,0.6960342755929607,3.2817678263512557,-4.053331565218962
4.799999999999997,1.2713954998156014,3.253336400324606,-4.821571759362953
4.810000000000002,1.9880835483526424,3.171368389357633,-5.573321602734761
4.820000000000007,2.788251836599008,3.021518852640502,-6.26192135897045
4.829999999999998,3.61745562681733,2.7603797753221264,-6.857057844420318
4.840000000000003,4.470490197070947,2.39755952051285,-7.351204255505163
4.849999999999994,5.284758213098902,1.944815938073031,-7.719105349374874
4.859999999999999,6.07134581521637,1.470987124655875,-7.951237226009683
4.8700000000000045,6.787330769758706,1.0372892852742548,-7.9986064438110835
4.879999999999996,7.435258993950032,0.586924420076066,-7.918407263162479
4.890000000000001,7.970983827253184,0.1682224133733283,-7.712424483372968
4.900000000000006,8.402977865571284,-0.2239936073659711,-7.438799856855449
4.909999999999997,8.6953569421092,-0.6270261727097224,-7.154629677392077
4.920000000000002,8.891321205893165,-1.0534890281924674,-6.947692007452011
4.930000000000007,9.012460777964607,-1.516261544752644,-6.784901391938542
4.939999999999998,8.993456379143968,-1.9949767692314515,-6.62523403262274
4.950000000000003,8.832816524192687,-2.4382340263335154,-6.479118862027202
4.960000000000008,8.572113722586565,-2.8341100698362323,-6.380402346082694
4.969999999999999,8.265820373078055,-3.185444570245719,-6.300794388784383
4.980000000000004,7.937549526503048,-3.519142582423227,-6.218628472426813
4.989999999999995,7.601647783987033,-3.8351597684505463,-6.117682705199945
5.0,7.252748625780349,-4.126524087719961,-5.984889870692286
5.010000000000005,6.921690461268855,-4.3869607344021775,-5.806597709306036
5.019999999999996,6.621285938605292,-4.5995409976503465,-5.576592471312861
5.030000000000001,6.337037382056067,-4.78213899570608,-5.304099860449819
5.040000000000006,6.032457941071021,-4.923845680430396,-4.9922545853196665
5.049999999999997,5.725354718164256,-5.045542302076199,-4.660098870249893
5.060000000000002,5.437392608807556,-5.146143937515597,-4.347234667571029
5.070000000000007,5.18786014895594,-5.197400406730819,-4.083189225161449
5.079999999999998,4.928303299563495,-5.212701817610018,-3.833095749373105
5.090000000000003,4.712512745119538,-5.244108673766817,-3.6054592971896655
5.099999999999994,4.470127325429448,-5.247760840887733,-3.414852119949844
5.109999999999999,4.133569795862358,-5.165258147827943,-3.267629714013333
5.1200000000000045,3.777080739032809,-5.01228125456944,-3.1579186401737047
5.129999999999996,3.395372414396689,-4.817874377365552,-3.075211296579782
5.140000000000001,2.9358204299451347,-4.619808746301687,-3.015412352661816
5.150000000000006,2.4395418694652973,-4.436746508976377,-2.9453031898300472
5.159999999999997,1.905165938069936,-4.282102150017198,-2.827150909175524
5.170000000000002,1.334792521854547,-4.17633912674532,-2.648714919627839
5.180000000000007,0.723404491758348,-4.0369638037515445,-2.405385487326368
5.189999999999998,0.1946201245610971,-3.791654436616753,-2.1055572040344464
5.200000000000003,-0.2894691901190674,-3.408456387155873,-1.716663714463578
5.210000000000008,-0.714811043368476,-3.0014506033153747,-1.2288173310915242
5.219999999999999,-1.0220719210287454,-2.6105749730019845,-0.6927655137847755
5.230000000000004,-1.2383041465529132,-2.2147045844386954,-0.0765517331862936
5.239999999999995,-1.404512032125729,-1.830937238542989,0.6547109717402059
5.25,-1.5857942127773126,-1.430961014435968,1.4553039197145268
5.260000000000005,-1.828958238388876,-0.9952628196021408,2.2733900585207185
5.269999999999996,-2.120554140014883,-0.5262171734640918,3.1118487076779453
5.280000000000001,-2.3701910742165446,-0.0985378541379401,3.941953330852981
5.290000000000006,-2.5605382693794314,0.2732598227947825,4.787159919756834
5.299999999999997,-2.6759086135471466,0.5869493636900295,5.58757313904717
5.310000000000002,-2.725786665580419,0.8956870547494362,6.321073762102619
5.320000000000007,-2.722555546104845,1.2216294903075184,6.998306117849453
5.329999999999998,-2.654591288473356,1.5884815777109047,7.612824810155661
5.340000000000003,-2.5034150364274814,1.9969910835696845,8.148793702856022
5.349999999999994,-2.2755739707594715,2.406084862150162,8.600680173566861
5.359999999999999,-1.967288914618853,2.798429383937274,8.955175413345502
5.3700000000000045,-1.5600130051439989,3.2059530258835878,9.168879458729274
5.379999999999996,-1.0725364948760414,3.616539306812825,9.261174958345515
5.390000000000001,-0.5983300432272546,4.072684910283783,9.22192535462346
5.400000000000006,-0.1739387022758286,4.603319436272382,9.032983146601635
5.409999999999997,0.1807432475206126,5.182707729537169,8.753149904415912
5.420000000000002,0.4043356847573975,5.759257176212571,8.403991512068984
5.430000000000007,0.4339900807014906,6.29078405495525,8.048070658101745
5.439999999999998,0.2647150076301094,6.689875739130897,7.705701913288004
5.450000000000003,-0.0914829474745204,6.912043392431965,7.4235105308578735
5.460000000000008,-0.5688215269065234,7.008712022879538,7.1789774465121
5.469999999999999,-1.0703742170223378,7.058779770623965,6.995705012604435
5.480000000000004,-1.5897363464309655,7.056762332548236,6.790049116555529
5.489999999999995,-2.0800388231720524,6.989329245719938,6.5949408528218525
5.5,-2.5316228672497205,6.847435549338733,6.3125746491883925
5.510000000000005,-2.9202189352719032,6.608254867157019,6.079263101663267
5.519999999999996,-3.210203205771953,6.347572677049731,5.806653217388603
5.530000000000001,-3.462611053369662,6.061104021759018,5.647879322288329
5.540000000000006,-3.60883111313709,5.790363437221465,5.378727483954042
5.549999999999997,-3.6491262307567767,5.513225583269405,5.2472763185179065
5.560000000000002,-3.6459943744948102,5.122529194286653,4.81248485686179
5.570000000000007,-3.448432760342328,4.773242144563322,4.415253957219407
5.579999999999998,-3.150431878753844,4.393171459780169,4.307368336919533
5.590000000000003,-2.8147489049089414,4.011900495124762,3.931467086129747
5.599999999999994,-2.5069920694155803,3.632074902311084,3.6523925656059752
5.609999999999999,-2.165683805412494,3.169846398101541,3.2730408386896594
5.6200000000000045,-1.8557396043099803,2.6385819132326,2.844396366857049
5.629999999999996,-1.6455880930798723,2.034679948326413,2.382738035980044
5.640000000000001,-1.4567013484044538,1.4943133111592022,1.9459996066587049
5.650000000000006,-1.356746750687167,0.9951854386057702,1.536598865265067
5.659999999999997,-1.2479912756397529,0.5943777817896855,1.1636237598734722
5.670000000000002,-1.1387945098405028,0.3128396188365648,0.8209072810844071
5.680000000000007,-1.0258970619034775,0.153516915858143,0.4726654104592928
5.689999999999998,-0.9001073606129896,0.1038719297710409,0.0789693602635304
5.700000000000003,-0.7504678500444812,0.1610375984740687,-0.3863868105995598
5.710000000000008,-0.5546361365705743,0.3244519454980655,-0.9030535676883616
5.719999999999999,-0.3215581196998762,0.5625457383096752,-1.4722167760625895
5.730000000000004,-0.0680054439217697,0.835167370503442,-2.038070583244243
5.739999999999995,0.2334505059332227,1.1058567039215068,-2.61990179385996
5.75,0.5695238637138353,1.3754017836118138,-3.187093212548569
5.760000000000005,0.9221566435319264,1.6107148773025164,-3.7539724838859736
5.769999999999996,1.2729153464391958,1.7949716410145844,-4.302455620254313
5.780000000000001,1.6129501900746903,1.9207518909366028,-4.783135449398444
5.790000000000006,1.9506612146619156,1.967027704844286,-5.187680791541285
5.799999999999997,2.274542762145325,1.900519583515567,-5.460236520194346
5.810000000000002,2.608226839858954,1.7063283364697317,-5.628914116052136
5.820000000000007,2.9245760638849982,1.400140346811991,-5.724230542842596
5.829999999999998,3.22413006935167,1.0197586421021871,-5.775717906473249
5.840000000000003,3.5332189323535013,0.6332790031095731,-5.794398860304541
5.849999999999994,3.86473877347047,0.2805576116511164,-5.806303636706633
5.859999999999999,4.249110938331329,-0.040795480938021,-5.82630715455337
5.8700000000000045,4.688480283134056,-0.3320991096061383,-5.860472168357834
5.879999999999996,5.1836199839404165,-0.6114593847774535,-5.889280682857289
5.890000000000001,5.731927278957712,-0.8797350349333103,-5.88240143673198
5.900000000000006,6.320859791707166,-1.1571937257447085,-5.828782847744134
5.909999999999997,6.912663403397962,-1.464321368668496,-5.693402424340248
5.920000000000002,7.419947293804976,-1.7709906431775566,-5.524496778845756
5.930000000000007,7.814773921544598,-2.0237022245896923,-5.420055742542145
5.939999999999998,8.09327675050682,-2.2104714782541413,-5.428452396013039
5.950000000000003,8.26625753361307,-2.393940222153763,-5.4977852060386585
5.960000000000008,8.358391780419021,-2.63428853615117,-5.558252504351138
5.969999999999999,8.375889871954618,-2.907997911765163,-5.548240281712177
5.980000000000004,8.348160709005954,-3.203972981901114,-5.447735015904781
5.989999999999995,8.298135078938104,-3.472530537484792,-5.261156231102736
6.0,8.258854355596586,-3.675593952816226,-4.966648024918038
6.010000000000005,8.222549711300884,-3.795588811021408,-4.5567582342279245
6.019999999999996,8.11942279028242,-3.906384156556277,-4.035542880603115
6.030000000000001,7.907459138838875,-4.047225060471603,-3.4343560738466805
6.040000000000006,7.553462313150873,-4.192713159060131,-2.854977282747228
6.049999999999997,7.05326635919621,-4.355805650073767,-2.358426637107753
6.060000000000002,6.431786198599463,-4.483032575877906,-1.955926139167712
6.070000000000007,5.772025622124259,-4.538033476830264,-1.615433422232257
6.079999999999998,5.190635317812504,-4.449992965722595,-1.3027097564630925
6.090000000000003,4.664033809643068,-4.23932497033897,-1.033842779706351
6.099999999999994,4.118542589462107,-3.977595550379667,-0.7936289836126009
6.109999999999999,3.524675342381446,-3.7610469252019016,-0.5914105952224301
6.1200000000000045,2.9497015895228182,-3.6002426521641886,-0.3804673384474905
6.129999999999996,2.491923190814717,-3.474913119367677,-0.1795867273261608
6.140000000000001,2.1995386508257777,-3.2511563280292664,0.0669346172297951
6.150000000000006,2.11108349600429,-2.885281726651437,0.4145383396677553
6.159999999999997,2.173699044662115,-2.399724673985916,0.9002850069027749
6.170000000000002,2.332524913495279,-1.962145346962853,1.4374189956875894
6.180000000000007,2.4759727383608494,-1.46793013069252,1.958805817867313
6.189999999999998,2.5988739265096945,-0.92070892726087,2.493898417330632
6.200000000000003,2.741837261766567,-0.3653213632025299,3.000198518980247
6.210000000000008,2.8477339501391112,0.3128066851441103,3.514294632435606
6.219999999999999,2.829938802224729,1.0644582678995718,4.004935424134902
6.230000000000004,2.623232747786748,1.830278913704005,4.431510888201742
6.239999999999995,2.2378685141691737,2.566441068138849,4.788901167447132
6.25,1.759318718465026,3.2464175358943907,5.057981286252334
6.260000000000005,1.304258524484888,3.887523854332827,5.231588056776336
6.269999999999996,0.8754518666723404,4.530141268730039,5.326069512021761
6.280000000000001,0.440996061819694,5.131547160458057,5.344251095301154
6.290000000000006,-0.0393250387426721,5.671356455174345,5.313523225539591
6.299999999999997,-0.5349028566909604,6.136920627781997,5.247650908143974
6.310000000000002,-0.9878025835922698,6.521238344295213,5.134943530332821
6.320000000000007,-1.3331875588623665,6.80882297959902,4.979374452476525
6.329999999999998,-1.5357177821190358,7.036999655620835,4.773530645410237
6.340000000000003,-1.6140996736499444,7.25114665349913,4.56150386202471
6.349999999999994,-1.628333938325354,7.430228125544828,4.392640804474516
6.359999999999999,-1.6687121242170149,7.612415018680512,4.263721438902656
6.3700000000000045,-1.7390295803624674,7.756024047769626,4.168268634074419
6.379999999999996,-1.8088881981319729,7.905056098735033,4.096285159213283
6.390000000000001,-1.84885718367438,7.953479050124596,4.0734125069293485
6.400000000000006,-1.8793605465764576,7.957733031585757,4.036771759431416
6.409999999999997,-1.9088082956744652,7.771763227030935,4.009423589868372
6.420000000000002,-1.9534176045531864,7.629010723376058,3.934071290083659
6.430000000000007,-2.07289556568335,7.496674328298975,3.898119957325468
6.439999999999998,-2.2021929937594047,7.242680984723585,3.890645977536409
6.450000000000003,-2.360834648976592,6.996497687512215,3.820400354748503
6.460000000000008,-2.546168348079549,6.690413435721891,3.706989322233992
6.469999999999999,-2.712645497351095,6.4257584817670965,3.530794060268813
6.480000000000004,-2.819349140809225,6.192055620883638,3.3267627891938774
6.489999999999995,-2.869623786369049,6.043724167092309,3.1185441722172107
6.5,-2.9094605303754446,5.905848218201892,2.944471569014445
6.510000000000005,-2.969966556538428,5.79687832900026,2.7972920864733446
6.519999999999996,-3.0728943320997155,5.648831013718415,2.6505914587085777
6.530000000000001,-3.215585326949388,5.499454256884762,2.509090884039504
6.540000000000006,-3.377159215196182,5.313115401323401,2.3587851099863757
6.549999999999997,-3.593410642345849,5.111916736897294,2.1655237949249133
6.560000000000002,-3.884186998166321,4.8142802402631375,1.8877544501352723
6.570000000000007,-4.107630040299681,4.496820944266024,1.4930401123978982
6.579999999999998,-4.325865731627775,4.2489252385594165,1.0725293383983925
6.590000000000003,-4.497349238391561,3.984288492581263,0.6632821147204991
6.599999999999994,-4.585969400165202,3.772350020709674,0.2266460218443392
6.609999999999999,-4.553589063075905,3.650902373372952,-0.1510459916876659
6.6200000000000045,-4.351576708612553,3.633092868259661,-0.5124419720430419
6.629999999999996,-4.002314080719772,3.664997649663571,-0.8128900710167359
6.640000000000001,-3.4900523354992465,3.715400086171136,-1.160145671475778
6.650000000000006,-2.802304439844254,3.7919769903147778,-1.504539243545462
6.659999999999997,-1.967480951622952,3.903222730283048,-1.955923606979476
6.670000000000002,-0.9889722629453463,3.983617559569841,-2.3989594500850497
6.680000000000007,-0.0208124215670788,4.003668058856879,-2.934877367958364
6.689999999999998,0.9605576951271934,3.916426492294193,-3.384385420164244
6.700000000000003,1.923502739739378,3.751635736430471,-3.7006205586989975
6.710000000000008,2.7767834210541165,3.4997605822759885,-4.091925067206847
6.719999999999999,3.5941181200728027,3.1226643458534564,-4.331563335220959
6.730000000000004,4.332473085950769,2.6356845147696646,-4.476239465794788
6.739999999999995,5.017797410444797,2.067326089927669,-4.516112249292926
6.75,5.631888988498494,1.4625271917295837,-4.546128848125913
6.760000000000005,6.179299379458753,0.7961442765330623,-4.562151684699714
6.769999999999996,6.667602451949758,0.0867877730025648,-4.6194592671997246
6.780000000000001,7.106094081454724,-0.6274062119764258,-4.687276351123376
6.790000000000006,7.51454906412813,-1.30647663884797,-4.6869587866938085
6.799999999999997,7.91367332516227,-1.86534763408086,-4.587361079357615
6.810000000000002,8.355025137342073,-2.3432946761425755,-4.401891859759162
6.820000000000007,8.864192959580375,-2.778776110269218,-4.144867700780482
6.829999999999998,9.402426534761696,-3.201371685719769,-3.863135375592929
6.840000000000003,9.890348076236233,-3.6369402153869688,-3.6053762345009193
6.849999999999994,10.21647643196253,-4.071422844490515,-3.3421359678946763
6.859999999999999,10.3764015637271,-4.493418650209979,-3.044113467650084
6.8700000000000045,10.424880454099808,-4.907651341630542,-2.7053172130277345
6.879999999999996,10.400190341851726,-5.30351126945976,-2.373714268384627
6.890000000000001,10.329298634964893,-5.696991899535506,-2.0283730294352726
6.900000000000006,10.23826149738846,-6.004880777635959,-1.6596017535639354
6.909999999999997,10.112411504117738,-6.189245199126065,-1.1759601032193183
6.920000000000002,9.948602222800192,-6.140239103328002,-0.628729808421005
6.930000000000007,9.686023782822105,-5.875658403585584,0.0017689204162755
6.939999999999998,9.247662400857594,-5.526511941488462,0.5676111856160745
6.950000000000003,8.601125747298207,-5.32940458609977,1.177621990623227
6.960000000000008,7.676306566955387,-5.461227484782754,1.8841357585153204
6.969999999999999,6.769317010714319,-5.631076821767623,2.4300705749119187
6.980000000000004,5.954173294656669,-5.640077292977674,2.845046442654152
6.989999999999995,5.391460876694223,-5.1743329377653575,2.882269543006403
7.0,4.91471959959897,-4.643109400314168,2.7495494912741254
7.010000000000005,4.249098119868984,-4.266563773241373,2.586309030288034
7.019999999999996,3.527424265841397,-3.996549840678932,2.4592683173977026
7.030000000000001,2.8395612951005864,-3.706188694092427,2.33285923458288
7.040000000000006,2.31718619278182,-3.2611865988510784,2.1537109662876226
7.049999999999997,1.9325249726812623,-2.67171357299762,1.935500094797285
7.060000000000002,1.6882468300937363,-1.9174302477682896,1.6786854051841025
7.070000000000007,1.588246784830562,-1.073500069085505,1.466556511707587
7.079999999999998,1.601796186342048,-0.180081581647209,1.3276219948569197
7.090000000000003,1.6868646890051355,0.7900367221760864,1.3164706642549435
7.099999999999994,1.7743460039928411,1.7836518329815534,1.377623243545558
7.109999999999999,1.813665973394672,2.7775777372767974,1.4995164969425652
7.1200000000000045,1.7826544461389175,3.7773600537728016,1.6424005527688408
7.129999999999996,1.5802622401619344,4.652635147755798,1.7905257431919803
7.140000000000001,1.247489910473638,5.447383133792373,1.9113084853278448
7.150000000000006,0.8896530149160489,6.132077732533273,2.0555989354148383
7.159999999999997,0.5751548629742101,6.7549725697932015,2.227655679607353
7.170000000000002,0.2988417669232614,7.305648205844417,2.408947301976406
7.180000000000007,0.0449929793674916,7.798154312105951,2.561432141604757
7.189999999999998,-0.2043035084798481,8.167399388346212,2.649797755978543
7.200000000000003,-0.4761367934444948,8.466101946067871,2.6344270133104803
7.210000000000008,-0.8102667138259241,8.560508082096796,2.5249084574959504
7.219999999999999,-1.0655953373958948,8.609461260550368,2.412784912281493
7.230000000000004,-1.2021403240801043,8.513069260026255,2.3795324478002167
7.239999999999995,-1.243601012994504,8.565767780756229,2.4269635601972968
7.25,-1.177938091187441,8.485350609450457,2.4525739085035214
7.260000000000005,-1.1089041873871537,8.523322233187836,2.495528474467385
7.269999999999996,-1.153164595177642,8.286980765786447,2.5343480286380595
7.280000000000001,-1.4611868857215669,7.971418275811251,2.4729331263424936
7.290000000000006,-1.8875696835419584,7.593978054245524,2.4104513186725343
7.299999999999997,-2.352917546501211,7.1954234258784044,2.381461797742351
7.310000000000002,-2.7454294195043274,6.822141986903791,2.415809555519551
7.320000000000007,-3.0004035491933108,6.523896090596253,2.508543024390756
7.329999999999998,-3.151999572768805,6.268144168991717,2.6466913259617586
7.340000000000003,-3.306311713938006,6.08633132073911,2.81913301202567
7.349999999999994,-3.46830781286608,5.950869999601128,3.015823479570735
7.359999999999999,-3.5856370967113804,5.795033708981363,3.225464768891061
7.370000000000003,-3.652631784877521,5.60105897794932,3.445260924742338
7.3799999999999955,-3.665461849299904,5.395311465590385,3.66546616042092
7.390000000000001,-3.795256917892683,5.191990024848303,3.831388354090295
7.400000000000006,-4.011825775758974,4.888395116644336,3.890644198821244
7.409999999999997,-4.327528590929986,4.523688880740306,3.8382089473574896
7.420000000000002,-4.560668876397456,4.1168472212369664,3.688409747544413
7.430000000000007,-4.666014699912408,3.732865073387114,3.50478403182194
7.439999999999998,-4.589705639387121,3.406071633664019,3.334128318585404
7.450000000000003,-4.325414878668378,3.1334756640613266,3.111021204061956
7.460000000000008,-3.9216353509367576,2.9282968770710838,2.800047322732044
7.469999999999999,-3.373000845323095,2.7673915524017305,2.393437585062551
7.480000000000004,-2.655022597111457,2.633040577616839,1.8851966203398
7.489999999999995,-1.858038411012848,2.530520046384324,1.280161490318079
7.5,-1.073561379593879,2.421881788550949,0.5853004774692947
7.510000000000005,-0.331837876450095,2.2695522416761507,-0.1628310575902922
7.519999999999996,0.3955207598007124,2.0092843700128777,-0.9764676445528516
7.530000000000001,1.0747035485877965,1.6101051042734322,-1.7964236307862873
7.540000000000006,1.672657564898965,1.0708752960411403,-2.680197494964517
7.549999999999997,2.2546442881734508,0.4455357220432177,-3.5525442338545545
7.560000000000002,2.856393444714291,-0.206832657875694,-4.373332110441583
7.570000000000007,3.524903123699677,-0.8701298778179494,-5.180276910431423
7.579999999999998,4.241268179123602,-1.5407703976200036,-5.878530391040232
7.590000000000003,4.929055334836979,-2.204302267377402,-6.511928873878528
7.599999999999994,5.53240196713258,-2.886271579516701,-7.035709065971418
7.609999999999999,6.00854836514363,-3.532877325927052,-7.515317545281764
7.620000000000003,6.374137342819648,-4.129933890467925,-7.89404341089153
7.6299999999999955,6.620470592257666,-4.616744665517619,-8.169658949079297
7.640000000000001,6.788576923964546,-5.023673987009676,-8.345001732711422
7.650000000000006,6.900011310580515,-5.299522152670591,-8.415368786228662
7.659999999999997,7.020325195965353,-5.486659177751649,-8.388487455554277
7.670000000000002,7.158839832403179,-5.580356062207447,-8.263468706493425
7.680000000000007,7.298537427276124,-5.616818968844808,-8.046641021807897
7.689999999999998,7.429247016900704,-5.686386517690641,-7.736405107819445
7.700000000000003,7.519863798698452,-5.801375509217353,-7.351107413763406
7.710000000000008,7.562370279111621,-5.945230668065759,-6.962306655986102
7.719999999999999,7.499535094185994,-6.128467017204265,-6.599960405236543
7.730000000000004,7.2853379755888,-6.314694733126691,-6.281107501416937
7.739999999999995,6.932819040109218,-6.448106975115211,-6.035248464193654
7.75,6.448112677392601,-6.495726481136518,-5.835742771143079
7.760000000000005,5.909697642874201,-6.438768836509356,-5.645866589653048
7.769999999999996,5.461442265263647,-6.331455510059608,-5.418133458869791
7.780000000000001,5.116228333892667,-6.199073948404387,-5.134862009510755
7.790000000000006,4.8258206966843575,-6.0628030212709385,-4.8275648905426
7.799999999999997,4.574061545308743,-5.888786004183291,-4.54559816885793
7.810000000000002,4.309857326167561,-5.692581955085831,-4.295044117988684
7.820000000000007,3.960393279568218,-5.562678602445851,-4.081303909244771
7.829999999999998,3.497813860169175,-5.559597645479599,-3.843114045304524
7.840000000000003,2.886865703495705,-5.506266405509888,-3.630505592890061
7.849999999999994,2.4662536360320826,-5.390678443297073,-3.385306721254808
7.859999999999999,2.1003195471761744,-5.158806236801015,-3.163819820432284
7.870000000000003,1.7244173558300784,-4.834243284974581,-2.9689653698983296
7.8799999999999955,1.293054795012088,-4.539250802800291,-2.755297088393028
7.890000000000001,0.7768771911242905,-4.283657902765151,-2.4735500655949765
7.900000000000006,0.2876454441965678,-4.057700194931222,-2.120410541130045
7.909999999999997,-0.1128271499946708,-3.6519216863880337,-1.6418845242730709
7.920000000000002,-0.4872622555134336,-3.282431721494671,-1.1047547066069952
7.930000000000007,-0.8575390773727262,-2.809076861008061,-0.4771327034918171
7.939999999999998,-1.2441493094141085,-2.246804010494329,0.2339007345686761
7.950000000000003,-1.5839710858969125,-1.676222169702162,1.0281420164438673
7.960000000000008,-1.849743524470722,-1.138863764193771,1.8726411178610387
7.969999999999999,-2.1551061278739545,-0.6091286132739326,2.774552470745788
7.980000000000004,-2.523978558380811,-0.0736702161316773,3.7333414290379374
7.989999999999995,-2.8870383361138967,0.4846916781917856,4.698429986788383
8.0,-3.232828798453917,1.0759265293270914,5.641790322465197
8.010000000000005,-3.476910524812492,1.6851970424018796,6.521903627104649
8.019999999999996,-3.627830977959184,2.277647636915519,7.368861319430224
8.030000000000001,-3.6026372050946,2.964638917835032,8.130917209364746
8.040000000000006,-3.5083653184130283,3.675623098297357,8.771148026678315
8.049999999999997,-3.024050107865407,4.355495760760746,9.26537045311158
8.060000000000002,-2.5061300384555354,5.090348907106182,9.572244764735766
8.070000000000007,-2.058316816873361,5.798758069900658,9.749578178332948
8.079999999999998,-1.6967680633777862,6.43651138715552,9.760005456872468
8.090000000000003,-1.549040815571583,6.928334483018795,9.642090049451522
8.099999999999994,-1.4721898315816733,7.363843598292694,9.294859053229889
8.11,-1.4155866596397435,7.760396049119421,8.940074737719684
8.120000000000005,-1.664022539781035,8.081615008839751,8.477946824449866
8.129999999999995,-1.9151242007459264,8.370095585274886,8.063914097129357
8.14,-2.43310013728004,8.573409297831201,7.824383270745701
8.150000000000006,-2.985620027282795,8.570066679695985,7.605013375262556
8.159999999999997,-3.56016317239484,8.290298953754798,7.335398235392955
8.170000000000002,-3.970913562939197,7.866245745512606,6.961078066645086
8.180000000000007,-4.146445676969745,7.305013466475739,6.478880056053432
8.189999999999998,-4.099534649825011,6.642935199852207,5.920402688401475
8.200000000000003,-3.922648579085923,6.032401017659166,5.332510979060067
8.210000000000008,-3.68540865815986,5.348685170517743,4.703880755093734
8.219999999999999,-3.36429706572878,4.688038822307091,4.158142436276931
8.230000000000004,-3.0264915274272206,4.010219450339744,3.646276202016269
8.239999999999995,-2.698757334320537,3.082920003395176,2.9588143212496485
8.25,-2.4115344990515117,2.104077091233907,2.042255261476824
8.260000000000005,-2.1730819817034868,1.0910965621446973,1.0821963792611369
8.269999999999996,-1.86955457312406,0.2486355907130389,0.258039085667158
8.280000000000001,-1.3854164181178952,-0.4166047210151838,-0.4852125434696821
8.290000000000006,-0.7434177801085363,-0.9169481319282584,-1.1869974671651211
8.299999999999997,-0.0524552947690589,-1.2508836579501623,-1.920557437730522
8.310000000000002,0.6410411418113623,-1.3613041114730922,-2.701119866614671
8.320000000000007,1.3124327842244214,-1.3626681894624804,-3.450312958476025
8.329999999999998,1.9524399361535163,-1.1296981732098632,-4.1513170329261975
8.340000000000003,2.5359665843849712,-0.975125551275986,-4.749095548093843
8.349999999999994,3.122007396503457,-0.8609796574738576,-5.192848411138562
8.36,3.642877524328093,-0.6836888974664738,-5.466806545596112
8.370000000000005,4.106765769721572,-0.6226112827792281,-5.601019238746428
8.379999999999995,4.578169692073995,-0.5872014722300861,-5.620192061789329
8.39,4.996179149204462,-0.6812902421410715,-5.540266591099448
8.400000000000006,5.361013421258908,-0.8546939542831063,-5.400057744594455
8.409999999999997,5.714700518136865,-1.0830862658337486,-5.197435583650334
8.420000000000002,6.078681848886022,-1.356508247313921,-4.944624618330217
8.430000000000007,6.466857999203072,-1.677443406048153,-4.66485401742338
8.439999999999998,6.843983174180919,-2.031655789844594,-4.362380578497785
8.450000000000003,7.227912319199755,-2.4149647034521644,-4.02154295671579
8.460000000000008,7.594556091137809,-2.799526695795351,-3.652051110570519
8.469999999999999,7.94655417257614,-3.1875263477745963,-3.2851302853081696
8.480000000000004,8.240742219763996,-3.596117439208714,-2.9254305068608164
8.489999999999995,8.41383584519213,-3.969217987058418,-2.6339147459777075
8.5,8.4497511248154,-4.211734296908444,-2.406299410797529
8.510000000000005,8.405417700676537,-4.285346890691573,-2.2523101443757705
8.519999999999996,8.291754419351998,-4.174166050351054,-2.114978129753597
8.530000000000001,8.08461754728423,-3.926531112371227,-1.945737986125656
8.540000000000006,7.865688139467261,-3.6412942754720654,-1.718479313059368
8.549999999999997,7.675882640784021,-3.383752193805148,-1.4411803023193084
8.560000000000002,7.484550923431144,-3.2747465087543657,-1.1280129631826858
8.570000000000007,7.155320165022072,-3.3287417774774166,-0.6963393013498692
8.579999999999998,6.721177248123511,-3.433773355613667,-0.1798416995264804
8.590000000000003,6.158966132265574,-3.487589912855697,0.3678443529577375
8.599999999999994,5.555588416599122,-3.3843139560806765,0.9481870341735084
8.61,4.972477529033219,-3.0888748309335297,1.496080201702794
8.620000000000005,4.338051532736026,-2.570854498207012,2.0071846656904517
8.629999999999995,3.7130020663704113,-2.001369845050808,2.453933335406443
8.64,2.949758128267148,-1.463068279200405,2.9164371682618064
8.650000000000006,2.218126311030165,-0.9544540425173312,3.376646054967983
8.659999999999997,1.558991753926872,-0.4473538763864256,3.781119307513098
8.670000000000002,0.9537964667507188,0.0961896189505138,4.147028623195969
8.680000000000007,0.4534463822878088,0.709197960657046,4.443760501696166
8.689999999999998,-0.0553985145520686,1.4092967642097691,4.709476782166089
8.700000000000003,-0.6811183129783621,2.1201316748211947,4.944220378536794
8.710000000000008,-1.3912938616793868,2.818115741837014,5.092106210387094
8.719999999999999,-2.097388913573532,3.4386381195661806,5.114448661585514
8.730000000000004,-2.7320035323646272,3.906856482837961,5.036438878042319
8.739999999999995,-3.2769455754861254,4.283820624493014,4.891465795601163
8.75,-3.776823772938144,4.639452089700812,4.726314536708572
8.760000000000005,-4.304626927096501,5.009812608950607,4.574672624760306
8.769999999999996,-4.852187674370284,5.387471431596053,4.401968722502971
8.780000000000001,-5.5216317351078175,5.743626552659771,4.175761527743036
8.790000000000006,-6.194385974990311,6.012193160726885,3.930108242681132
8.799999999999997,-6.749857276286396,6.262249659461468,3.750230628645866
8.810000000000002,-7.20689750960856,6.521351264405161,3.6910551037204167
8.820000000000007,-7.560343404229852,6.742990336726829,3.726095965009604
8.829999999999998,-7.842899799322913,6.922741374643409,3.8450573601988234
8.840000000000003,-8.0737443285875,7.031091124180913,3.99187174963117
8.849999999999994,-8.234769884105564,7.065258964704459,4.129465760413426
8.86,-8.333673476167197,7.03544173586036,4.240415701635792
8.870000000000005,-8.259422811849134,6.975341243299928,4.3136196655054455
8.879999999999995,-7.989513367406007,6.7807711017248895,4.324383301364909
8.89,-7.558978991435356,6.676201491152612,4.275242424706897
8.900000000000006,-7.034155750393167,6.575720721320608,4.080885098005871
8.909999999999997,-6.409033219229863,6.418795925375043,3.8911946133031976
8.920000000000002,-5.606693996305521,6.268851823247704,3.6754228950444783
8.930000000000007,-4.669021649127612,6.053221522116292,3.2812173666589004
8.939999999999998,-3.680893613874974,5.844267580810175,2.789735145840622
8.950000000000003,-2.730120221695861,5.6253483488630005,2.186029172102812
8.960000000000008,-1.84143475245719,5.4165724885409485,1.5030383861886225
8.969999999999999,-0.9972260137517616,5.148717025628143,0.7112469459335832
8.980000000000004,-0.1740114931724019,4.8132958596762805,-0.1503586551130235
8.989999999999995,0.6449204174231823,4.449225508830193,-1.0275479849211004
9.0,1.5047633583364686,4.012743934886596,-1.9494320849408129
9.010000000000003,2.347924609764797,3.503978284494968,-2.918017397719015
9.019999999999996,3.2184960031225627,2.9523275681776338,-3.824050278167627
9.03,4.099768580642415,2.387042336182155,-4.596285654386523
9.040000000000006,4.96249401082763,1.7454440233145023,-5.185887665643128
9.049999999999995,5.785292020687479,1.040541355860182,-5.581000995379736
9.060000000000002,6.5121695719453845,0.4037633903440296,-5.694729831528258
9.070000000000007,7.137762287665852,-0.2475175370721455,-5.658812132830094
9.079999999999998,7.623544819415514,-0.8166580113969981,-5.468554566786284
9.090000000000003,7.976310589021979,-1.339182948656964,-5.202326300686114
9.099999999999994,8.231220459739001,-1.807964076707956,-4.903839821209237
9.11,8.43124989156314,-2.2091285587758427,-4.574090591220526
9.120000000000005,8.62527409662123,-2.538339115405559,-4.252668931334563
9.129999999999995,8.834520721987149,-2.8107903592987395,-3.9311451490430014
9.14,9.0823188369679,-3.0488241604057964,-3.662181411888994
9.150000000000006,9.349097615820444,-3.26115996224162,-3.4531773522914464
9.159999999999997,9.627088473310064,-3.477901788713816,-3.258978645554346
9.170000000000002,9.881636936580357,-3.687753451753697,-3.027425696768817
9.180000000000009,10.132176131283062,-3.848509552301896,-2.7244061038719014
9.189999999999998,10.358793639511942,-3.9135337053328674,-2.268523708820276
9.200000000000005,10.514907374076168,-3.888928591026607,-1.6416554543729145
9.210000000000008,10.537571782315448,-3.77688998821237,-0.9394001187866748
9.22,10.40408035965972,-3.5715573509889573,-0.2344554072353724
9.230000000000004,10.122295749692578,-3.2712806249200623,0.4175509054977981
9.239999999999997,9.710450677792242,-2.9353011876962456,1.0821429795610031
9.25,9.15838401503262,-2.621150326779997,1.7818702295159774
9.260000000000003,8.396302617539055,-2.3239647844359723,2.419503979952441
9.269999999999996,7.561577185231007,-2.0758026791188797,2.9140875507192927
9.28,6.632670447668289,-1.9076755799703464,3.282565670837544
9.290000000000006,5.657633058475957,-1.7656231360900678,3.53264240359442
9.299999999999995,4.660922626900601,-1.6526069833402512,3.6859971776376583
9.310000000000002,3.729248214081815,-1.5631367949923811,3.788727167932631
9.320000000000007,2.934491788018992,-1.461301549567025,3.83388926752314
9.329999999999998,2.3261673956121114,-1.3371193323745734,3.853035232092038
9.340000000000003,1.9162369515012112,-1.1616725265024257,3.839733347426445
9.349999999999994,1.654382568770382,-0.8952680421582488,3.740814503049549
9.36,1.5181278956161393,-0.5260687301322544,3.5541598912022274
9.370000000000005,1.4613600237425486,-0.1055971040335815,3.267661349540088
9.379999999999995,1.4716262684173154,0.387884174554477,2.895525184242244
9.39,1.5307675641848029,0.9560924250123912,2.5420954839665058
9.400000000000006,1.598131415431472,1.591526538111651,2.205394228895102
9.409999999999997,1.6420051793000712,2.280039999867019,1.9013690992765784
9.420000000000002,1.6010565513314798,3.002896756281382,1.6124185368455144
9.430000000000009,1.431170644070714,3.732695045150523,1.2975771977598054
9.439999999999998,1.1241380797985527,4.441423051992922,0.9745529744846636
9.450000000000005,0.6979184584222232,5.090280965445233,0.6676811823946689
9.460000000000008,0.2650859721437038,5.652070339044092,0.376412652979095
9.47,-0.1301483928206152,6.15688065794347,0.0534227135042313
9.480000000000004,-0.4072790582814189,6.624646033119979,-0.290563745597055
9.489999999999997,-0.57791315602498,7.067760551873462,-0.629343737816916
9.5,-0.6450966435985462,7.480856375798154,-0.9549345148133948
9.510000000000003,-0.6258154268321462,7.858648387977466,-1.267160216451641
9.519999999999996,-0.5645096501827427,8.207227903973445,-1.559610281962136
9.53,-0.4848276918044445,8.525804348116592,-1.827086578363716
9.540000000000006,-0.4524251489941956,8.785667404266801,-2.070081124878452
9.549999999999995,-0.4554199326168788,8.976984138289078,-2.2699146707495115
9.560000000000002,-0.4301516619149355,9.06419277948372,-2.4233836077145683
9.570000000000007,-0.3474400694269557,9.010608334342354,-2.555350157028218
9.579999999999998,-0.2389348073410742,8.841064682042484,-2.6949877642449622
9.590000000000003,-0.0732307043121078,8.608066414674967,-2.8481940936528445
9.599999999999994,0.1060330748655338,8.351733572489437,-2.979920606578095
9.61,0.2240645779578614,8.080018184237465,-3.0552414606138263
9.620000000000005,0.2931998211660606,7.866306170057029,-3.0604118329700336
9.629999999999995,0.304396368155933,7.669042352387612,-3.032536883759419
9.64,0.3394088221524454,7.456146279654029,-3.0343044425807326
9.650000000000006,0.2817335486075584,7.244658615844333,-3.048119469061357
9.659999999999997,0.041248457725323,6.897005246567311,-3.0662231712361345
9.670000000000002,-0.3906874261269716,6.472884305051979,-3.0859983284841457
9.680000000000009,-0.921344509295177,6.026104371859261,-3.119102074380508
9.689999999999998,-1.4483364692343337,5.59470565168277,-3.1510116041847995
9.700000000000005,-1.8698680206195029,5.247989899458891,-3.1356603555854985
9.710000000000008,-2.213389364072226,4.937284020597081,-3.100592893679391
9.72,-2.6220764172934787,4.516751818534345,-3.064446267136188
9.730000000000004,-3.193366232547727,3.9354657370789785,-3.058652236331148
9.739999999999997,-3.892831279503589,3.206099739247061,-3.014690462787492
9.75,-4.600554246894163,2.467403420139905,-2.9298151767762843
9.760000000000003,-5.224192671730425,1.8182685995810148,-2.901279366008931
9.769999999999996,-5.713986103636516,1.1965404415406835,-2.908022361398633
9.78,-6.012859866102991,0.6658837671752874,-2.9940345797197496
9.790000000000006,-6.121916626854955,0.2273567581403489,-3.131354295454201
9.799999999999995,-6.080613326960024,-0.1300274376083562,-3.292500020875725
9.810000000000002,-5.867451867688087,-0.4119030444699088,-3.4772396516864577
9.820000000000007,-5.467324282185008,-0.6399098672182605,-3.6783626628940898
9.829999999999998,-4.911623997632345,-0.8575773703235581,-3.9107947000760537
9.840000000000003,-4.2098421652762585,-1.0911952185197276,-4.150050500047878
9.849999999999994,-3.392939821524517,-1.368128053882152,-4.377352225895969
9.86,-2.5519298181533103,-1.6842954588276255,-4.647695500855496
9.870000000000005,-1.651035923036821,-2.029298157757112,-4.95144416539392
9.879999999999995,-0.6479130113448222,-2.3928903411460665,-5.197455259064832
9.89,0.400438822135735,-2.791901153345626,-5.365996410890362
9.900000000000006,1.4959714052619637,-3.2731060308768183,-5.547001619490183
9.909999999999997,2.627489751723734,-3.767104945733168,-5.754162821664522
9.920000000000002,3.782999262440242,-4.27787557825804,-5.884024240157959
9.930000000000009,4.968790785719947,-4.722373854251393,-5.95723242649884
9.939999999999998,6.0665831981082645,-5.091357313269964,-5.935432056874065
9.950000000000005,7.1121984441486665,-5.442957242569428,-5.828787337447653
9.960000000000008,8.06222623141425,-5.760775111738727,-5.611667225344807
9.97,8.759926792420533,-6.115469360658732,-5.25890642563987
9.980000000000004,9.346136053796233,-6.46230228676006,-4.836806043384574
9.989999999999997,9.816208159095702,-6.7825800186831575,-4.349214329264166
10.0,10.049121161480723,-7.053476101312923,-3.7780667377343633
10.010000000000003,10.04116388255647,-7.337998372420974,-3.163570145951798
10.019999999999996,9.782038433547848,-7.634556135630638,-2.567192763938416
10.03,9.397276482195869,-7.874060783555767,-1.986910617103165
10.040000000000006,9.02497440861425,-7.978498990973551,-1.412763195650078
10.049999999999995,8.684969122411792,-7.892170749156129,-0.805199541154459
10.060000000000002,8.227248391641803,-7.757113824414239,-0.1452390057641357
10.070000000000007,7.563860620779479,-7.741093454962421,0.5390495403296285
10.079999999999998,6.774584499524898,-7.78209788394615,1.168733630127097
10.090000000000003,6.007037480058682,-7.78570504624948,1.7417369716920954
10.099999999999994,5.348868544578854,-7.62047693151471,2.1897491924299866
10.11,4.821852943634534,-7.206976335553336,2.506199471335365
10.120000000000005,4.321403448516951,-6.681754828252626,2.709489216447625
10.129999999999995,3.7097922017442446,-6.223243146509729,2.86689557750974
10.14,2.91302505981846,-5.834775303980106,2.968215678153848
10.150000000000006,1.9830587664354065,-5.507261605230199,2.953418493366128
10.159999999999997,1.1374352541958814,-5.233532539660107,2.814020318132441
10.170000000000002,0.431503690917406,-4.990077730433675,2.57242425057016
10.180000000000009,-0.1134988275861847,-4.724978458175182,2.29045502224885
10.189999999999998,-0.4932859466167661,-4.384292544375358,2.017913450671637
10.200000000000005,-0.6536102113360611,-3.949467797761197,1.7759150233173933
10.210000000000008,-0.5932385754093804,-3.404395264355117,1.5427293015818562
10.22,-0.4063464458765166,-2.812016935427798,1.3472697929220216
10.230000000000004,-0.2018025310149308,-2.2208821476921665,1.1992818346737415
10.239999999999997,0.0229573309936317,-1.6059079481783205,1.0869345060290032
10.25,0.319258482552782,-0.9497872700306336,0.983504713470972
10.260000000000003,0.6769630368869696,-0.2517877133431372,0.9062026091028952
10.269999999999996,1.0322730060315362,0.4702139944966387,0.8678783680052465
10.28,1.3614813146219258,1.2292400840912672,0.851087198528812
10.290000000000006,1.6545043755655713,1.996693150685434,0.8542997914386534
10.299999999999995,1.8995918097471332,2.747971294917689,0.8680634134999285
10.310000000000002,2.0596840940928374,3.500908582532627,0.8468051332315742
10.320000000000007,2.1077934617149534,4.255524417714354,0.7894179401372391
10.329999999999998,2.0854141285922285,5.025638488236751,0.6960713857936088
10.340000000000003,2.027453773685336,5.769083873670788,0.5910987846005804
10.349999999999994,1.9890512879008384,6.507097032956595,0.4695745987404229
10.36,2.034981908688931,7.234370338426267,0.3229674727080903
10.370000000000005,2.209998628082145,7.936094395981431,0.1484756952800628
10.379999999999995,2.4682855521739486,8.621299298084752,-0.0815509399245313
10.39,2.7513257826513806,9.266343571715568,-0.4145305360206398
10.400000000000006,3.008414367791357,9.866944849114477,-0.84744212982191
10.409999999999997,3.2443354423783446,10.369757026310785,-1.3474580870032975
10.420000000000002,3.4879013178588165,10.766419080205184,-1.9187958840189967
10.430000000000009,3.7842633252309343,11.053205958671391,-2.5780508129497863
10.439999999999998,4.131535253606149,11.183314679433622,-3.2721332730853945
10.450000000000005,4.471991168724906,11.15607567884878,-3.968686739862664
10.460000000000008,4.787875391924804,10.992275212898836,-4.645338618500415
10.47,5.085517316577927,10.722145026943249,-5.299529022385515
10.480000000000004,5.408630089835948,10.320127053321675,-5.879536948288295
10.489999999999997,5.67898845306194,9.760775332489375,-6.325860541580745
10.5,5.710797956370815,9.12876723595378,-6.790724950428086
10.510000000000003,5.521756145179416,8.425398268079293,-7.064693260331673
10.519999999999996,5.065684609386517,7.61459671782787,-7.209219380947236
10.53,4.295299713340425,6.739627172496999,-7.263273714259297
10.540000000000006,3.1570547974270227,5.876407820356646,-7.179511244421735
10.549999999999995,1.662285366987945,5.064000282758871,-6.910634303792894
10.560000000000002,-0.0401550548281177,4.3542007819147726,-6.4505484761455065
10.570000000000007,-1.8373019531701125,3.798280814231529,-5.858003836526837
10.579999999999998,-3.5276609565070127,3.3326524690800428,-5.205485005613297
10.590000000000003,-5.055192284203824,2.9145331144514657,-4.540451790141638
10.599999999999994,-6.290967720938514,2.530626889137753,-3.9326001102853057
10.61,-7.135341278532764,2.16748594861245,-3.406409780537537
10.620000000000005,-7.614084970460363,1.8669746410230867,-2.9424841720542725
10.629999999999995,-7.750007992212254,1.606981701832782,-2.5351520646006485
10.64,-7.620925356578086,1.3216423007457598,-2.144660336526409
10.650000000000006,-7.344016227694077,0.9905532747869266,-1.808833267308409
10.659999999999997,-6.912699373126017,0.6014202963825228,-1.5253931660746742
10.670000000000002,-6.35971424685418,0.2203658057726382,-1.3008725772823948
10.680000000000009,-5.787678976075544,-0.1834072190935721,-1.1183370494871128
10.689999999999998,-5.22132396301155,-0.6252594792606079,-1.025843494839818
10.700000000000005,-4.64511887021545,-1.0788838268664944,-1.0674936225187153
10.710000000000008,-3.9762053438649696,-1.5138414171018166,-1.2311697583010617
10.72,-3.1579000086890003,-1.8737911858345455,-1.502639190607075
10.730000000000004,-2.217389380785572,-2.165309043346997,-1.8510130701418788
10.739999999999997,-1.2533445141873265,-2.434698551757489,-2.266145020141354
10.75,-0.2632758369100174,-2.7216335193518426,-2.71861513991508
10.760000000000003,0.7014246631401001,-3.070100812752047,-3.183766162671449
10.769999999999996,1.551770904257891,-3.486043260511682,-3.5732627973272697
10.78,2.2975760014591264,-3.933983452377385,-3.8918807508855866
10.790000000000006,2.8911494439884384,-4.382525762223262,-4.126647379395522
10.799999999999995,3.336818717402396,-4.832012690279536,-4.340511519260422
10.810000000000002,3.654983720417513,-5.285846246252819,-4.562971964199677
10.820000000000007,3.891284853067007,-5.695690367190968,-4.769330382807347
10.829999999999998,4.139503630362894,-6.026647411517002,-4.907115113346203
10.840000000000003,4.400326254755243,-6.312453629857316,-4.933377782694838
10.849999999999994,4.706872503080801,-6.512438600926352,-4.856112031655041
10.86,4.980562292796245,-6.678114861987934,-4.719759100626698
10.870000000000005,5.204031838268388,-6.844618501768205,-4.566976624610389
10.879999999999995,5.359783176112599,-7.020140375669918,-4.4160202300645865
10.89,5.477189214206388,-7.198710173035322,-4.252273617114829
10.900000000000006,5.5236079445549295,-7.388542066040431,-4.049309463977313
10.909999999999997,5.550498825057757,-7.487317243111681,-3.8101800540864654
10.920000000000002,5.59420795817277,-7.472119204255228,-3.4916794733806515
10.930000000000009,5.634104371724115,-7.356018133529075,-3.112808375762166
10.939999999999998,5.622348899947324,-7.155651519783717,-2.7083089657259487
10.950000000000005,5.435358359208155,-7.094330479516683,-2.2684638341992853
10.960000000000008,5.07725771631511,-7.208048339106816,-1.8081268415640344
10.97,4.620520062048976,-7.426554355188212,-1.335496308644086
10.980000000000004,4.198551752883199,-7.629645310251193,-0.9001168212754705
10.989999999999997,3.911383570661766,-7.617487445194228,-0.5419739264318201
11.0,3.785590277895723,-7.364491370990145,-0.2638860963696817
11.010000000000003,3.732474155421281,-7.030720117515185,-0.0626147813155535
11.019999999999996,3.658132119087426,-6.703314972613059,0.1075206786595485
11.03,3.542603188169538,-6.39946234326076,0.2596971953976814
11.040000000000006,3.393837558526049,-6.11802760044523,0.3873985010222389
11.049999999999995,3.2435462811756355,-5.819859674141534,0.523206689390803
11.060000000000002,3.0907055314951517,-5.455642968915827,0.6500615644178508
11.070000000000007,2.8449441919705567,-5.059812459842048,0.7776307434792207
11.079999999999998,2.482628119532831,-4.665328393670096,0.913285047501628
11.090000000000003,2.0254174188179874,-4.218771315836663,1.0155658916933594
11.099999999999994,1.582199739850071,-3.700239369051262,1.061910250629749
11.11,1.2836472158077294,-3.1095072561953323,1.0708469500303672
11.120000000000005,1.151996557561756,-2.474493834134594,1.1010121191037086
11.129999999999995,1.1570154255546836,-1.8184193165277105,1.151376469623936
11.14,1.2386967784366911,-1.0570556811802252,1.1960719010257206
11.150000000000006,1.3613574474509091,-0.2035044246884076,1.2448138669826228
11.159999999999997,1.5486836215350317,0.7210473068857189,1.329076340322567
11.170000000000002,1.7863063250283513,1.6874639005320482,1.4604237539176983
11.180000000000009,2.035528381143439,2.653343015276294,1.6171789391706348
11.189999999999998,2.345073528817412,3.631205678383664,1.7746054633103745
11.200000000000005,2.534681039433962,4.53157623074416,1.9084372003202903
11.210000000000008,2.5476419294763653,5.383864162152907,2.0223614944776327
11.22,2.43337476968666,6.1770200281909045,2.101359083680181
11.230000000000004,2.242261584756513,6.90516605848654,2.16261790921564
11.239999999999997,2.0175485992173936,7.575351804363879,2.1849069795154623
11.25,1.821250451717848,8.163879172781204,2.151776764062231
11.260000000000003,1.6859315773643462,8.686239675865636,2.051799334246118
11.269999999999996,1.612608009257421,9.09437445733074,1.892169612913112
11.28,1.5543229267451426,9.449041335531543,1.6440767322320182
11.290000000000006,1.5109159283180853,9.76260262588157,1.3165410174638348
11.299999999999995,1.534764570005141,10.02072268348372,0.913975833045506
11.310000000000002,1.5826550423346444,10.240191977371882,0.4480046323745726
11.320000000000007,1.6324689195540536,10.413032315387737,-0.0360032568704841
11.329999999999998,1.6779307022778331,10.524102595766328,-0.5462490776213762
11.340000000000003,1.7226140456704868,10.578085450672836,-1.0454933000910247
11.349999999999994,1.740735697563978,10.593452685920992,-1.5302439373220729
11.36,1.713130701863337,10.575982739979263,-1.9814774670787292
11.370000000000005,1.6038294971426763,10.464434253466637,-2.3656044840110644
11.379999999999995,1.3598284687655164,10.238399302194784,-2.6910061748233463
11.39,0.9963992014721164,9.90910532890324,-2.9565786489317696
11.400000000000006,0.5222453356168929,9.528093184365844,-3.145317736909337
11.409999999999997,-0.0567690419479898,9.107112521094564,-3.2724773134579834
11.420000000000002,-0.6664271977457631,8.624015845706044,-3.343307199149538
11.430000000000009,-1.290591783305178,8.07060758503785,-3.353866395623472
11.439999999999998,-1.940092457988423,7.443506837377455,-3.335049767682326
11.450000000000005,-2.610836274856384,6.758860650051326,-3.2615275972306925
11.460000000000008,-3.269847214164437,6.07930280663696,-3.107486810904861
11.47,-3.885415413582806,5.362037308878555,-2.889024124850926
11.480000000000004,-4.456638178289856,4.643589599997136,-2.6423643045258305
11.489999999999997,-4.941919127435382,3.9543407727071904,-2.376020402813756
11.5,-5.287715964644396,3.318208879001525,-2.1374541951447403
11.510000000000003,-5.487575102510375,2.7641152416699835,-1.9675069546974704
11.519999999999996,-5.57166142724897,2.2747227002065893,-1.857440428828162
11.53,-5.5495624355641615,1.7881484669816998,-1.796573316775942
11.540000000000006,-5.433547232754501,1.213004083766369,-1.7787086892943578
11.549999999999995,-5.283393303558162,0.601453555109574,-1.8246198711880672
11.560000000000002,-5.051933065202873,-3.472200725554604e-05,-1.9475587043585465
11.570000000000007,-4.706469434139504,-0.5493501871151837,-2.1089479388820944
11.579999999999998,-4.221303454680782,-1.0254280656875605,-2.2966953079411807
11.590000000000003,-3.6445568464692784,-1.4571253293427882,-2.515029508593537
11.599999999999994,-3.0148834154349435,-1.832831894853816,-2.769858103649107
11.61,-2.337056517341302,-2.159563105428484,-3.0616380200427376
11.620000000000005,-1.6428057698889087,-2.463668747360693,-3.3552611278383844
11.629999999999995,-0.929940331344465,-2.7381890959536554,-3.632642540175481
11.64,-0.1869852766559585,-2.98356176367544,-3.905876143759171
11.650000000000006,0.5539805349058884,-3.2132740435319405,-4.1585443871121095
11.659999999999997,1.3050976628127915,-3.461537047115464,-4.461492084551973
11.670000000000002,2.02042174374541,-3.715336572800393,-4.792359408920009
11.680000000000009,2.67518670725094,-3.966526932754518,-5.060408513756768
11.689999999999998,3.285190644583011,-4.200165254631913,-5.236864534944821
11.700000000000005,3.825830334535012,-4.428697741557956,-5.334620238967901
11.710000000000008,4.281118386100304,-4.698280578278025,-5.373094279731814
11.72,4.66097922841021,-4.908077659517163,-5.363853431526803
11.730000000000004,4.988812852476357,-5.069177726608263,-5.303676731884044
11.739999999999997,5.20863879156652,-5.205676614381478,-5.215268449529336
11.75,5.3611171352668014,-5.31685762419979,-5.127602958757114
11.760000000000003,5.426001345669965,-5.450567925233488,-5.041789638083281
11.769999999999996,5.391267976076007,-5.569960555940122,-4.9353130528488665
11.78,5.261353927129755,-5.65590223515767,-4.768948776777185
11.790000000000006,5.144175415801095,-5.663494779940757,-4.561717560921542
11.799999999999995,5.093023845449724,-5.593508776258637,-4.347467824484219
11.810000000000002,5.128331045218562,-5.488467693788063,-4.097363478785023
11.820000000000007,5.127087277052612,-5.381623678107119,-3.8319978608959055
11.829999999999998,4.973467063962109,-5.34291405521679,-3.5573266593117823
11.840000000000003,4.771873040358488,-5.337644929423215,-3.27520813033147
11.849999999999994,4.596165770708733,-5.346827917810033,-2.963791671837629
11.86,4.483778151040195,-5.328184335023864,-2.62309971767396
11.870000000000005,4.444654353660385,-5.246455464051171,-2.300612357825296
11.879999999999995,4.47181594464099,-5.105356201475078,-2.0411426530016468
11.89,4.537157302401581,-4.93066676959407,-1.856079487755014
11.900000000000006,4.615905167938279,-4.713150149759903,-1.7104829663197634
11.909999999999997,4.679487788785103,-4.479836633141457,-1.5665650023905031
11.920000000000002,4.720869485760626,-4.212861268717192,-1.3960260901444648
11.930000000000009,4.743890877506399,-3.905916855908816,-1.1999846594873094
11.939999999999998,4.729677076747398,-3.5704696467465795,-0.9785952229228286
11.950000000000005,4.63330699899163,-3.195674376653753,-0.7566413110880683
11.960000000000008,4.451105253982605,-2.789576020549995,-0.5715356975506113
11.97,4.211836161086104,-2.34969076452038,-0.4236301780801838
11.980000000000004,3.9383403937085286,-1.870419419457915,-0.2849180962008022
11.989999999999997,3.654365565066217,-1.347682723569299,-0.1365788435795216
12.0,3.353115936570423,-0.741782091993695,0.0232108244807146
12.010000000000003,3.022147827843738,-0.0802673796762843,0.2077581531607161
12.019999999999996,2.619959223227805,0.611074927387621,0.4168827387345161
12.03,2.155615662426239,1.302700730933666,0.632317606136792
12.040000000000006,1.6923561931992115,2.046783367761527,0.8545814607098446
12.049999999999995,1.2837302827764665,2.846191637602912,1.1122724835822542
12.060000000000002,0.9792279677056756,3.650082811946649,1.415015709147412
12.070000000000007,0.7168597576914781,4.470830184901455,1.7145778578771282
12.079999999999998,0.4277823828516768,5.2110897931680205,1.9260905473389027
12.090000000000003,0.1076238691566622,5.867913417829746,2.0435690102198527
12.099999999999994,-0.194853295134034,6.4513602271047565,2.0952124164952863
12.11,-0.4278760822254269,6.963148119760888,2.1069175533178965
12.120000000000005,-0.5822470311798577,7.424266022252666,2.0866721443446665
12.129999999999995,-0.6478139814917271,7.845323043676282,2.016098087773289
12.14,-0.6508115512730116,8.229914811891216,1.884983961143444
12.150000000000006,-0.6162464912779556,8.543871648478513,1.7190878918412464
12.159999999999997,-0.5871339334048268,8.802680682264114,1.510808028333826
12.170000000000002,-0.6006571560398706,8.995197804226011,1.2925115004805334
12.180000000000009,-0.6613108275068943,9.122892240714414,1.05016805289526
12.189999999999998,-0.778634514446218,9.166481560892567,0.777470179631264
12.200000000000005,-0.933974097849913,9.139898267235212,0.4984395399878318
12.210000000000008,-1.1081547527160625,9.085965253199772,0.2284597521498107
12.22,-1.2891232943480304,9.016180908651725,-0.0009106041404367
12.230000000000004,-1.4921474393438712,8.920647796469312,-0.1721889644644938
12.239999999999997,-1.713384436564967,8.796883690103183,-0.2965075285355591
12.25,-1.952236709709411,8.640740663187087,-0.3944508223080903
12.260000000000003,-2.217995503864994,8.435845979252782,-0.4722868045714364
12.269999999999996,-2.494146996619848,8.200266822769844,-0.5590713040229458
12.28,-2.7899171565743743,7.932499657458457,-0.6786479677205056
12.290000000000006,-3.126864605220711,7.63651024555033,-0.8301893031030947
12.299999999999995,-3.494156156395469,7.331113837045565,-0.9964698989964792
12.310000000000002,-3.868056438854048,6.987286912437621,-1.1644135980698855
12.320000000000007,-4.213379600832981,6.591418066003994,-1.321751838386252
12.329999999999998,-4.512512381853751,6.160897198956597,-1.4507562038685788
12.340000000000003,-4.750621474885809,5.704512535640264,-1.5388639712041254
12.349999999999994,-4.92812147683276,5.202785774023827,-1.6126452169520546
12.36,-5.03798500222824,4.711808279270234,-1.7057516235426973
12.370000000000005,-5.078914786221561,4.231195870320044,-1.8110985170574097
12.379999999999995,-5.038679617734327,3.7777917054781063,-1.9197233040983048
12.39,-4.907627254128706,3.3324929375128605,-2.012709207634783
12.400000000000006,-4.665180418907116,2.834527753630593,-2.1111222361360387
12.409999999999997,-4.342868964886532,2.2971063949406685,-2.2127497747354767
12.420000000000002,-3.9547361491438022,1.6948439249911456,-2.3327718379966758
12.430000000000009,-3.5075500755096343,1.0774436087509436,-2.479017883231749
12.439999999999998,-3.007596718317716,0.4545868308132013,-2.653096359521997
12.450000000000005,-2.468180866342127,-0.1848082305743449,-2.8163401961782424
12.460000000000008,-1.8967935436081944,-0.8059674873503434,-2.9480642475384315
12.47,-1.2816313737434837,-1.4070677036783128,-3.040508602777428
12.480000000000004,-0.6409851307011727,-1.9614776258117663,-3.084441118935529
12.489999999999997,0.0473831140816963,-2.4762453807799214,-3.1295361132794244
12.5,0.7563235507151734,-2.9709258714824527,-3.1907006841299546
12.510000000000003,1.4577067471062142,-3.4383803622954563,-3.276130407647762
12.519999999999996,2.175767441461043,-3.890662617302013,-3.381746052000597
12.53,2.8720916568488875,-4.326419923615306,-3.496159524323037
12.540000000000006,3.5456432134694262,-4.732409056932386,-3.634201097749157
12.549999999999995,4.182043080405994,-5.102636659775904,-3.7864907491973097
12.560000000000002,4.771432201202303,-5.437437661599937,-3.9065856407689
12.570000000000007,5.376632644134316,-5.690559323953017,-3.962705404356196
12.579999999999998,5.990912251469197,-5.837981108226421,-3.9457236459482696
12.590000000000003,6.528025462398269,-6.000236337622897,-3.860030600860697
12.599999999999994,7.000150464571186,-6.109800121838976,-3.718032042664363
12.61,7.41187515147904,-6.168992346691525,-3.519369366982507
12.620000000000005,7.73351663987955,-6.215062197061519,-3.264147717413068
12.629999999999995,7.991838962816304,-6.211702751669191,-2.967871776776594
12.64,8.20607283900835,-6.150984315429431,-2.618168841445095
12.650000000000006,8.382722265840856,-6.07939180734822,-2.213097650701581
12.659999999999997,8.50162600352234,-6.002955430426073,-1.751951880602782
12.670000000000002,8.550912381806727,-5.852446544327685,-1.285371034779019
12.680000000000009,8.522825539142257,-5.669036325631864,-0.8097297009903133
12.689999999999998,8.397972081445795,-5.483466454789099,-0.3400059509949756
12.700000000000005,8.135903721833934,-5.298725374106218,0.1338010293846156
12.710000000000008,7.686308283170859,-5.094040448640651,0.6242949938971566
12.72,7.0079571894953,-4.850768014784209,1.0812060623293862
12.730000000000004,6.045100961020742,-4.586704684214397,1.4751117891502998
12.739999999999997,4.91923529010373,-4.326238467215504,1.7564732248463788
12.75,3.729437111390027,-4.082111320494755,1.926183231859367
12.760000000000003,2.554361195190382,-3.8403142823129297,1.9910508527526856
12.769999999999996,1.527288657645671,-3.587315382514508,1.9840219206983647
12.78,0.7102269827651494,-3.309331998219213,1.9397904803813144
12.790000000000006,0.1031334505095711,-2.991576616750802,1.8631828337572705
12.799999999999995,-0.3740429611894345,-2.623423716471737,1.7691427475398485
12.810000000000002,-0.7604108496141873,-2.190426043083922,1.6751465612356355
12.820000000000007,-1.097704786108144,-1.707039952276438,1.5834220873180145
12.829999999999998,-1.395698441314052,-1.1734524501347454,1.4916512664000097
12.840000000000003,-1.5922044923058711,-0.6193914385903373,1.3868905657912434
12.849999999999994,-1.6656027182492847,-0.0541463216002475,1.2830347403720723
12.86,-1.6235819439738417,0.4879556721418901,1.192546151817021
12.870000000000005,-1.5394360956879976,0.9784803512963648,1.1151259741468798
12.879999999999995,-1.4932488768674903,1.4367454796956252,1.024632548425759
12.89,-1.4978256994425114,1.864590733209162,0.9246107691044352
12.900000000000006,-1.5322686446500096,2.2223496912825067,0.8404287123315815
12.909999999999997,-1.5648801243723398,2.4856665394384487,0.7777339828792498
12.920000000000002,-1.5890499921226438,2.6631475590819926,0.7362921933127978
12.930000000000009,-1.6308966644803065,2.752765825778654,0.7051832112564108
12.939999999999998,-1.6934085110717707,2.780586059103338,0.67102466610656
12.950000000000005,-1.7886442274482397,2.774440354073384,0.6227547240673703
12.960000000000008,-1.9150315074485984,2.7435751888845767,0.5467679307276473
12.97,-2.047652545315352,2.686941181508616,0.4740187968108476
12.980000000000004,-2.145803433518777,2.616260847509127,0.4013908085820313
12.989999999999997,-2.194056671443048,2.5365894729160656,0.3428763794179843
13.0,-2.200901736920198,2.472360735944533,0.3008272092196644
13.010000000000003,-2.1737670225766723,2.4390949518705924,0.2605961684036153
13.019999999999996,-2.118832334941785,2.4391911101098964,0.2234470659845801
13.03,-2.037612898791989,2.456863790816558,0.1896343654833923
13.040000000000006,-1.9380391797490284,2.4774393842570985,0.164855717469579
13.049999999999995,-1.8290357057100373,2.49866606503461,0.1357725560389448
13.060000000000002,-1.6946008142085711,2.5072588803936684,0.1080052602312991
13.070000000000007,-1.5643978770158395,2.511712562589365,0.0843141896661317
13.079999999999998,-1.447317792406844,2.52203896994877,0.0764761720293015
13.090000000000003,-1.3310029845007103,2.5300057799454376,0.0719327999911903
13.099999999999994,-1.2234871640304286,2.534633082144625,0.0828848017904203
13.11,-1.1360383514255996,2.52316004145637,0.1056534581723277
13.120000000000005,-1.0828529163182736,2.483274546230346,0.1357305910151077
13.129999999999995,-1.0557042616878642,2.411904976053538,0.1834177503762877
13.14,-1.033753546545218,2.3118334568811783,0.2421354213330348
13.150000000000006,-0.9996094611428524,2.1893871333711457,0.3085005103039068
13.159999999999997,-0.9287552788584575,2.055881889459079,0.3735097815004941
13.170000000000002,-0.8240637633073721,1.9265482199384467,0.4342836415767227
13.180000000000009,-0.6956587630513943,1.7952805905883875,0.4917722412166656
13.189999999999998,-0.5293180237607006,1.6403315874224074,0.5375163484084858
13.200000000000005,-0.342196794710676,1.470091559617256,0.5707896008263654
13.210000000000008,-0.1405586324937083,1.2899498391216386,0.5918580665342343
13.22,0.0627234521972989,1.1010386423523584,0.5903030094813428
13.230000000000004,0.2478776751518621,0.9033718394748068,0.5764586787587668
13.239999999999997,0.4083939200540512,0.7165023184075175,0.5576227007735669
13.25,0.546708323906004,0.551788374332816,0.5275516179371975
13.260000000000003,0.6569855401089763,0.3989094090639508,0.4878308719638175
13.269999999999996,0.7459462958362417,0.2705918406151494,0.4421085883856677
13.28,0.8152673765574617,0.1445816957014547,0.3931230969514712
13.290000000000006,0.8751427869439928,0.0326338391967495,0.3423775793755972
13.299999999999995,0.9230973649551284,-0.0720354391049576,0.3044340797936229
13.310000000000002,0.9586869524543582,-0.1640828946004193,0.2665904577152881
13.320000000000007,0.975402965550722,-0.2476680709449374,0.2390417629588079
13.329999999999998,0.9675549602776028,-0.3172912586753175,0.2119955273038553
13.340000000000003,0.9388629785629934,-0.3709703728399748,0.1881744019866048
13.349999999999994,0.8840256265986972,-0.4182362860282221,0.1687448455092077
13.36,0.8184819228137439,-0.4623372147765791,0.1642471336065663
13.370000000000005,0.7353037659066024,-0.4954584837755545,0.1580675398712439
13.379999999999995,0.6415199495306756,-0.5274426169327198,0.1411541019989817
13.39,0.5398561075472912,-0.5601849083064174,0.1259918950473555
13.400000000000006,0.4303010357905723,-0.5798952078248497,0.115233802464398
13.409999999999997,0.3135589939103516,-0.5973022339508924,0.1124558287711976
13.420000000000002,0.2010558411370662,-0.6018908928476489,0.1088933942270118
13.430000000000009,0.0898639896548911,-0.5951746047725174,0.1025982374733221
13.439999999999998,-0.026280516644858,-0.5866318593716868,0.0926871853303176
13.450000000000005,-0.1401053247544882,-0.576804746408186,0.0829656595160959
13.460000000000008,-0.2535048458912432,-0.5589185910576372,0.0705476411257629
13.47,-0.3685090230471673,-0.5322291258983178,0.0622360072999935
13.480000000000004,-0.4737542129199135,-0.4975619764677765,0.0562061930306794
13.489999999999997,-0.5626653108185301,-0.4602289331257672,0.0619255655407213
13.5,-0.6310133220263983,-0.4226762935026371,0.0606553098190479
13.510000000000003,-0.6792463481189961,-0.3875274324564646,0.064324744882038
13.519999999999996,-0.7091665351987917,-0.3496950057453745,0.0724489156622538
13.53,-0.7229550864949625,-0.3140886107858261,0.0813493874510789
13.540000000000006,-0.7284499465922399,-0.2792991370268125,0.0939248439358403
13.549999999999995,-0.723089659674655,-0.2428859569368356,0.1049851322530162
13.560000000000002,-0.7106404005984472,-0.2063685573158058,0.1225980197114224
13.570000000000007,-0.6875794489166211,-0.1703390146893228,0.1311217379017311
13.579999999999998,-0.6544147598393535,-0.1363274635170389,0.1427944571640371
13.590000000000003,-0.6277102386393514,-0.1063418907833858,0.1504551290117118
13.599999999999994,-0.5944328514020877,-0.0746296977314912,0.1542171960505898
13.61,-0.5571632973042823,-0.0504243021110403,0.1533799069431132
13.620000000000005,-0.5210490713160378,-0.0335945969227277,0.1492567343408961
13.629999999999995,-0.4800705628564929,-0.0225098899817668,0.1462755914638363
13.64,-0.4355142087903861,-0.0201845430843152,0.1442937173792996
13.650000000000006,-0.3919581466331943,-0.016563540533085,0.1422621085467486
13.659999999999997,-0.3500745529951843,-0.0136480412411266,0.1327622754322153
13.670000000000002,-0.3124054383907961,-0.0134181673738474,0.1207866582706583
13.680000000000009,-0.2812614357115041,-0.0158398804702934,0.1028145281275976
13.689999999999998,-0.2476339982786318,-0.0234240808345497,0.0797727432061535
13.700000000000005,-0.2077344001950156,-0.0301513359390764,0.0615992996533851
13.710000000000008,-0.1702644782930264,-0.0348745834791034,0.0457670907351824
13.72,-0.133333775880758,-0.0434933956093405,0.0319266198836958
13.730000000000004,-0.101216932750559,-0.0496920927484973,0.0162169833385903
13.739999999999997,-0.0729791075941331,-0.0556782162680943,0.0035130714342176
13.75,-0.0540846565230653,-0.0593714568481015,-0.0105118697351732
13.760000000000003,-0.0417453828402972,-0.0647689650241463,-0.0220324831852973
13.769999999999996,-0.0301156269100153,-0.0698813308896162,-0.0310867210050068
13.78,-0.0247962982890665,-0.0716254243553353,-0.0408561826866213
13.790000000000006,-0.010837719349708,-0.0724975218706791,-0.0515397913166454
13.799999999999995,0.0004132540777477,-0.0743993480562383,-0.0625888477168187
13.810000000000002,0.0080596127421989,-0.0750164081672458,-0.0644367429218146
13.820000000000007,0.0169126035590632,-0.0732799448981723,-0.0637041403994465
13.829999999999998,0.0180109597890611,-0.0643941275768306,-0.0623406229011409
13.840000000000003,0.0211500024586041,-0.058564508774236,-0.0537682315175134
13.849999999999994,0.0229506727701479,-0.0485860601316946,-0.0499703018586996
13.86,0.0225375640540372,-0.0425279454751515,-0.0517535720276829
13.870000000000005,0.0233658988187802,-0.0335505628974428,-0.0439592528229661
13.879999999999995,0.0203966436096525,-0.0225759227954637,-0.0391418180061782
13.89,0.0082863883713887,-0.0166650766177513,-0.0333667080300991
13.900000000000006,-0.0083734259167163,-0.0047503006122487,-0.0250908533095985
13.909999999999997,-0.0275361536884552,0.0027891303975506,-0.0169812296473141
13.920000000000002,-0.0507083885337353,0.0084993356292937,-0.0047156449482446
13.930000000000009,-0.0793861085769088,0.0186074409570653,0.0068473922786317
13.939999999999998,-0.1007151632143131,0.0288754728822741,0.0173102645133601
13.950000000000005,-0.125447873229521,0.0351873007447154,0.0254745671512881
13.960000000000008,-0.1516978293700163,0.0425396670305672,0.0315988534790404
13.97,-0.1696013408342261,0.0500773467134408,0.0315443835977561
13.980000000000004,-0.1817737966429323,0.0575269757107699,0.0322953309862028
13.989999999999997,-0.1848864666697381,0.0614217743848965,0.0319515690701173
14.0,-0.1840707625756141,0.0682534549175705,0.0377708558651987
14.010000000000003,-0.1753458168249561,0.075472933097589,0.0423817870665987
14.019999999999996,-0.1673367388668029,0.0869404296150475,0.052470890477136
14.03,-0.1570728910569505,0.0896640699647427,0.0552504818128902
14.040000000000006,-0.1531676530809472,0.0962637868344837,0.0516208794683651
14.049999999999995,-0.1478382298527838,0.0979179668515772,0.043718151856346
14.060000000000002,-0.143060078270207,0.0925876685638265,0.0370003759914549
14.070000000000007,-0.1299719930465077,0.0904339920181498,0.0300416190673431
14.079999999999998,-0.1167088198827372,0.0945226537400115,0.0226985418265108
14.090000000000003,-0.1032008198327983,0.0939633067663072,0.0169814654098517
14.099999999999994,-0.0879086191827537,0.0953420323652626,0.0123876672593182
14.11,-0.0779365496161749,0.0947179784542514,0.0040584360357243
14.120000000000005,-0.0737941565672029,0.0926007993356503,-0.0065061702333642
14.129999999999995,-0.0713113154116886,0.0826439669952355,-0.0081660228288996
14.14,-0.0629384125418213,0.0746080420463399,-0.0085640267025354
14.150000000000006,-0.0496047047490966,0.0674223811987978,-0.0114392819257409
14.159999999999997,-0.0331980555810709,0.0615314004624652,-0.0082829283008293
14.170000000000002,-0.0139184871601019,0.0571128417506696,-0.0113263126227546
14.180000000000009,0.0016768503556513,0.0577345150674629,-0.0129748836369217
14.189999999999998,0.017716064333419,0.0561457348426745,-0.0071525824965533
14.200000000000005,0.0230846879584678,0.0527218223532099,-0.0037144742209004
14.210000000000008,0.0197593246050777,0.0505400387691352,-0.0035443615035111
14.22,0.0159078706870602,0.045079541835202,-0.0006258458256361
14.230000000000004,-0.0048594633817794,0.0420080235393244,-0.0079659668043916
14.239999999999997,-0.0110286795758992,0.0375218167850386,-0.0072337193470314
14.25,-0.0191691578345056,0.0358068301297523,-0.0088616099761365
14.260000000000003,-0.0246876133380754,0.0321181638249473,-0.0064071979688335
14.269999999999996,-0.0222296910894413,0.0325190272464109,-0.0038722129795439
14.28,-0.0236306330211036,0.0314108191902802,-0.0055862088161985
14.290000000000006,-0.0270766097156155,0.0321648837245092,-0.0056117189761549
14.299999999999995,-0.0324417326581408,0.0320501250057894,-0.0074484413773569
14.310000000000002,-0.0361879465560985,0.0303796250027817,-0.0096977120472486
14.320000000000007,-0.0388737943885658,0.0302065788521138,-0.0182673667513845
14.329999999999998,-0.0477779757885266,0.0283539606450385,-0.0198977133418659
14.340000000000003,-0.0529765164368379,0.0325193202783452,-0.0266847876266395
14.349999999999994,-0.0625268622386775,0.0306831978295809,-0.0369947049642076
14.36,-0.0710677641384919,0.0310854075142579,-0.0379597963079164
14.370000000000005,-0.0786019473985516,0.0271850373466298,-0.0408655373770002
14.379999999999995,-0.0870314046604517,0.021786487249571,-0.0460748385622734
14.39,-0.090576176359392,0.0150579493200584,-0.0450395711461073
14.400000000000006,-0.0917923506843904,0.0120192435057619,-0.0465875686085334
14.409999999999997,-0.097397681757095,0.0149763564952639,-0.0490385546979042
14.420000000000002,-0.0929892769387807,0.0150281746029665,-0.0489115002755991
14.430000000000009,-0.0873823462621339,0.0137337292098707,-0.0499558735522858
14.439999999999998,-0.086316509109451,0.0121090737786303,-0.05424084464963
14.450000000000005,-0.0824052983740498,0.0136101279081469,-0.0516598611717097
14.460000000000008,-0.0770740832984402,0.0110413026192661,-0.0470189284465296
14.47,-0.0666912103874395,0.0084110975975396,-0.0375139064796417
14.480000000000004,-0.0566897076812952,0.0089974550471613,-0.0292153884422723
14.489999999999997,-0.0518177219397087,0.0113579755279421,-0.020051879198307
14.5,-0.0450911998164569,0.011726273085796,-0.0123623746207013
14.510000000000003,-0.0365485892526888,0.009818261208485,-0.0049845076502717
14.519999999999996,-0.0267682463712039,0.0090385122676593,0.000865926835943
14.53,-0.023589204028869,0.0080487654901537,0.0046592969281491
14.540000000000006,-0.0218351156330711,0.0044283221435998,0.0093260039369969
14.549999999999995,-0.0167985230453079,0.0043086914855261,0.007341265762132
14.560000000000002,-0.0181717203891031,-0.0018567224053052,0.0124426981442485
14.570000000000007,-0.0274156588261257,-0.0006404402861003,0.0159913969958537
14.579999999999998,-0.0305109300814034,0.0027552852132461,0.0171377118722133
14.590000000000003,-0.0339868200014381,-0.0005406310114064,0.0224713238287129
14.599999999999994,-0.0367005563893494,-0.0068463526585414,0.0231243883049576
14.61,-0.0374131347221415,-0.009968173309611,0.0208266830360689
14.620000000000005,-0.0344793239178056,-0.0144587161248179,0.0186051489540403
14.629999999999995,-0.0317081681559394,-0.017391443332352,0.0152513920298675
14.64,-0.0272409106302772,-0.0171265848934885,0.0133102869432739
14.650000000000006,-0.0249855698004439,-0.0176441777772282,0.0123523991941379
14.659999999999997,-0.0236599461719093,-0.0186110194757599,0.0174834493249072
14.670000000000002,-0.0211697456637926,-0.0215761980076044,0.0193710882037152
14.680000000000009,-0.0208602451283446,-0.0224223538884877,0.0227888135110674
14.689999999999998,-0.0203008313602926,-0.0227968321266484,0.0263060110102786
14.700000000000005,-0.0212716149163153,-0.0220310785857979,0.0251699553535952
14.710000000000008,-0.0273013178090637,-0.0240343091491993,0.0300779357229277
14.72,-0.0346402580512102,-0.0267471431074531,0.0262144822758298
14.730000000000004,-0.0369529588018554,-0.0227725664750049,0.0221314021831515
14.739999999999997,-0.0349003060092551,-0.0180516232891895,0.0201386267164651
14.75,-0.0278158422641234,-0.0166465338255609,0.017097405825989
14.760000000000003,-0.0198878167654898,-0.014461375592492,0.0145797695219356
14.769999999999996,-0.0134945915091982,-0.0089378439358192,0.0126882774707253
14.78,-0.0073012479696117,-0.0042242307010344,0.0159710903292634
14.790000000000006,-0.0052494689589964,-0.0029449794578417,0.0171386650083483
14.799999999999995,-0.0025426619916279,0.0004636889830271,0.0146859167109339
14.810000000000002,0.0021324591742992,0.0008415914283932,0.0140681581776702
14.820000000000007,-0.0004508953460362,0.0029387348282855,0.0146747749559394
14.829999999999998,0.0030732108945097,0.0011353141356713,0.0131379350936992
14.840000000000003,0.0022917361559277,-0.0017740334950729,0.0084695089502338
14.849999999999994,0.0010339757343095,-0.0023773391916958,0.0043551408089728
14.86,0.0010701844370989,-0.0047297604514611,-0.0003208819273625
14.870000000000005,0.0027856955861712,-0.0132849396045486,-0.0037554137996977
14.879999999999995,0.0014807457071693,-0.014955637419861,-0.0079146144061116
14.89,0.005120112649242,-0.0226203083083477,-0.0109565860075837
14.900000000000006,0.0144755228895774,-0.0224358055177249,-0.0098153737958736
14.909999999999997,0.0250591116159576,-0.0222766546183888,-0.0112230046832627
14.920000000000002,0.0344866534490864,-0.0266769150218836,-0.0153082410801113
14.930000000000009,0.0423289355039288,-0.029716690707401,-0.0217758479430319
14.939999999999998,0.0503177058163182,-0.0302977533062103,-0.0225758571852045
14.950000000000005,0.0562531837471341,-0.0292315771250086,-0.0211023699621375
14.960000000000008,0.0570353898286756,-0.0350249945676235,-0.0258623227785516
14.97,0.058529385167882,-0.034706189993412,-0.0291220824506164
14.980000000000004,0.055782826215994,-0.0363856820784293,-0.0298802452462328
14.989999999999997,0.0555440400212862,-0.0368401265939541,-0.0267165597178078
15.0,0.0495608007510128,-0.0347181512112436,-0.0266615114409462
15.010000000000003,0.0537191615637943,-0.0328156174956064,-0.0296177150580778
15.019999999999996,0.0503085319632125,-0.0299086422159065,-0.0258765419588662
15.03,0.0492744215068362,-0.0290133026056878,-0.0263524716233343
15.040000000000006,0.0489843447421855,-0.0262802625874055,-0.0255834748126866
15.049999999999995,0.038729368397785,-0.0291064509438716,-0.0239997710592025
15.060000000000002,0.0305637890089475,-0.0276366667254507,-0.0235487131392444
15.070000000000007,0.022608902032313,-0.0232556106563193,-0.0227961621925082
15.079999999999998,0.0122052196779772,-0.0186948758912519,-0.0271995453012998
15.090000000000003,0.0075507036122631,-0.0186116227925123,-0.0318441444771069
