time,Gyr_X,Gyr_Y,Gyr_Z
0.0,0.003114,0.002316,0.003786
0.0024999999999977,-5.2e-05,0.001039,0.000384
0.0049999999999954,0.003334,0.003671,0.002005
0.0074999999999931,0.005425,0.000664,0.005326
0.0099999999999909,-0.002521,0.000743,-0.00138
0.0124999999999886,0.001367,-0.000949,-0.000645
0.0149999999999863,0.000311,0.001936,0.001756
0.017499999999984,0.000813,-0.000462,0.002465
0.0199999999999818,0.000634,0.003435,0.001632
0.0224999999999795,0.001723,0.000408,0.003768
0.0249999999999772,0.001635,4.1e-05,0.003809
0.0274999999999749,0.002842,0.000622,-0.00038
0.0299999999999727,-9.5e-05,0.001699,0.001276
0.0324999999999704,0.001089,0.001494,0.001428
0.0349999999999681,0.002655,-0.001208,0.002635
0.0375000000000227,0.003476,0.003677,0.000798
0.0400000000000204,-0.001122,0.001054,0.002754
0.0425000000000181,0.000641,0.004099,0.00351
0.0450000000000159,0.003942,-0.001039,0.001244
0.0475000000000136,-0.000283,-0.001128,0.000306
0.0500000000000113,0.001847,-0.001889,4.5e-05
0.052500000000009,-0.001322,-0.001167,0.003483
0.0550000000000068,-0.000444,0.002681,0.002361
0.0575000000000045,0.000406,0.006116,0.003288
0.0600000000000022,0.000399,0.002908,0.00181
0.0625,0.002006,-0.000261,0.005084
0.0649999999999977,0.004067,0.000542,0.000169
0.0674999999999954,0.000108,0.000124,0.00316
0.0699999999999931,0.002324,-0.000732,0.000986
0.0724999999999909,0.001375,-0.000794,0.000639
0.0749999999999886,0.002178,-0.00131,0.000846
0.0774999999999863,0.000791,-0.000457,0.003793
0.079999999999984,-0.003506,0.001384,0.003087
0.0824999999999818,0.001957,0.000576,0.002282
0.0849999999999795,0.001151,-0.000638,0.004222
0.0874999999999772,0.002027,-0.000775,-2.1e-05
0.0899999999999749,0.001837,0.00025,-3e-06
0.0924999999999727,0.001227,9e-05,0.001917
0.0949999999999704,4.8e-05,0.003184,0.003318
0.0974999999999681,0.000317,0.000668,0.001835
0.1000000000000227,0.000326,-0.000313,0.002084
0.1025000000000204,0.00168,0.002059,0.000317
0.1050000000000181,0.004835,-0.002645,-0.000693
0.1075000000000159,0.001401,-0.00084,0.002041
0.1100000000000136,0.000823,0.001416,0.004043
0.1125000000000113,-0.000279,0.001667,0.002263
0.1150000000000091,-0.000447,0.003239,0.001805
0.1175000000000068,0.001111,-0.002691,0.00192
0.1200000000000045,0.001592,0.002732,0.002534
0.1225000000000022,-0.001676,0.001629,0.002996
0.125,6.8e-05,0.001659,0.00067
0.1274999999999977,0.00348,-0.001311,0.003728
0.1299999999999954,-0.001551,0.00112,0.003517
0.1324999999999931,-0.0053,0.0016,0.003513
0.1349999999999909,-0.003418,0.001998,0.00454
0.1374999999999886,-0.00428,-0.000344,0.00312
0.1399999999999863,-0.004454,0.001033,0.003687
0.142499999999984,-0.006627,-0.000612,0.002299
0.1449999999999818,-0.003217,-0.001311,0.00593
0.1474999999999795,-0.004843,-0.002646,0.004528
0.1499999999999772,-0.003091,0.00227,0.005209
0.152499999999975,-0.003822,0.000941,0.004456
0.1549999999999727,-0.004135,-0.000352,0.003215
0.1574999999999704,-0.005426,-0.000371,0.004942
0.1599999999999681,-0.004444,0.00423,0.005362
0.1625000000000227,-0.00291,-0.000823,0.006879
0.1650000000000204,-0.005309,0.006037,0.003742
0.1675000000000182,-0.003417,0.002175,0.003768
0.1700000000000159,-0.000484,0.00155,0.00212
0.1725000000000136,-0.002474,0.000628,0.005146
0.1750000000000113,-0.001405,0.001908,0.005829
0.1775000000000091,-0.000727,0.002015,0.000774
0.1800000000000068,0.001069,0.001388,0.003753
0.1825000000000045,-1.6e-05,0.003564,0.002945
0.1850000000000022,0.000871,0.003483,0.002982
0.1875,0.000387,0.006919,0.000911
0.1899999999999977,0.000299,0.002334,0.001191
0.1924999999999954,0.000723,0.000993,0.00075
0.1949999999999931,-0.001128,0.000984,0.001419
0.1974999999999909,0.000555,0.005636,0.000563
0.1999999999999886,0.001001,0.006983,0.001114
0.2024999999999863,0.004547,0.004511,0.003571
0.204999999999984,0.004437,-0.000679,0.004124
0.2074999999999818,7e-06,-0.004974,0.001647
0.2099999999999795,0.000774,0.002711,0.003711
0.2124999999999772,0.0042,0.00392,0.004197
0.214999999999975,0.005918,0.003356,0.004073
0.2174999999999727,0.005112,0.003581,0.002705
0.2199999999999704,0.000506,0.002428,0.002117
0.2224999999999681,0.004561,0.006635,0.001971
0.2250000000000227,0.007266,-0.002638,0.001769
0.2275000000000204,0.004929,-0.000425,-0.00069
0.2300000000000182,0.002403,-0.000933,-1.9e-05
0.2325000000000159,0.003313,0.001121,-0.000717
0.2350000000000136,0.006362,-0.001989,0.001834
0.2375000000000113,0.003649,-0.002854,0.003711
0.2400000000000091,0.004133,-0.001277,-0.000475
0.2425000000000068,0.003823,0.00167,0.003117
0.2450000000000045,0.00386,0.000644,-0.001904
0.2475000000000022,0.004486,0.002984,-0.003283
0.25,0.002778,0.006754,0.001717
0.2524999999999977,0.005781,0.001397,0.002965
0.2549999999999954,0.001702,0.000187,-0.000787
0.2574999999999932,0.004,0.00082,9.9e-05
0.2599999999999909,0.004561,0.000338,-0.004302
0.2624999999999886,0.005167,0.000227,-0.000474
0.2649999999999863,0.002108,0.003,0.00223
0.2674999999999841,0.005835,-0.000326,-0.002086
0.2699999999999818,0.003909,0.001404,-0.001316
0.2724999999999795,0.001969,-0.000414,0.001875
0.2749999999999772,0.002604,-0.001462,0.002699
0.277499999999975,0.003206,0.001051,0.002985
0.2799999999999727,0.002498,0.000565,0.000139
0.2824999999999704,0.002908,0.001619,0.003301
0.2849999999999681,0.005723,0.004829,0.0022
0.2875000000000227,-0.000499,0.00307,0.002933
0.2900000000000204,-0.002521,0.002276,-0.000721
0.2925000000000182,-0.000273,0.000849,0.002674
0.2950000000000159,0.000613,0.002445,0.001898
0.2975000000000136,0.001138,0.000802,0.001132
0.3000000000000113,0.001911,0.002658,0.00323
0.3025000000000091,0.001741,0.001573,0.002322
0.3050000000000068,0.001315,0.001485,0.000862
0.3075000000000045,0.000113,0.001245,0.001737
0.3100000000000023,0.004538,0.001118,0.001135
0.3125,0.002449,7.8e-05,0.001287
0.3149999999999977,0.003382,0.001606,0.003234
0.3174999999999954,-0.000441,0.001509,0.001248
0.3199999999999932,0.002039,-0.000739,0.002984
0.3224999999999909,0.003906,0.003303,0.002006
0.3249999999999886,0.00112,0.000796,0.000859
0.3274999999999863,0.001005,0.001905,0.002823
0.3299999999999841,0.001394,0.002057,0.001631
0.3324999999999818,0.000856,0.002141,0.003821
0.3349999999999795,-0.002266,0.002141,0.00471
0.3374999999999772,-0.000855,0.002634,0.001902
0.339999999999975,0.004681,0.002331,0.00236
0.3424999999999727,-0.001016,0.00141,0.005557
0.3449999999999704,0.000215,-0.002445,0.0075
0.3474999999999681,0.002486,0.000981,5e-06
0.3500000000000227,0.003286,0.000621,1.1e-05
0.3525000000000204,0.001716,0.000603,0.001144
0.3550000000000182,0.002428,0.002445,0.002877
0.3575000000000159,0.000802,0.002407,0.001433
0.3600000000000136,0.002906,0.00376,0.005288
0.3625000000000113,0.003905,0.001756,0.000731
0.3650000000000091,-0.001667,-0.002892,0.001679
0.3675000000000068,0.000588,0.000838,0.004733
0.3700000000000045,0.004156,0.001438,0.003092
0.3725000000000023,0.002299,0.001948,0.003123
0.375,0.000725,0.001704,0.004565
0.3774999999999977,-5.2e-05,0.000144,0.003102
0.3799999999999954,0.000811,-0.000575,0.000387
0.3824999999999932,0.000385,0.000887,0.004294
0.3849999999999909,0.001306,-0.001878,-0.000401
0.3874999999999886,0.003628,-0.000897,-0.000334
0.3899999999999863,-0.000121,0.00452,0.002202
0.3924999999999841,0.001341,0.002216,0.004813
0.3949999999999818,-0.000247,0.000166,0.003623
0.3974999999999795,0.000892,0.001017,0.000273
0.3999999999999772,0.0011,6.3e-05,0.001586
0.402499999999975,0.001145,0.002337,0.003839
0.4049999999999727,0.001202,0.004817,0.004033
0.4074999999999704,0.004401,0.002676,0.001944
0.4099999999999681,0.004693,0.004009,-0.000426
0.4125000000000227,0.004833,0.003009,0.002848
0.4150000000000204,0.002486,-0.000428,0.003652
0.4175000000000182,0.00191,0.003237,0.000148
0.4200000000000159,0.000896,0.001872,0.00285
0.4225000000000136,0.001461,0.001322,0.001467
0.4250000000000113,0.002018,-0.001176,0.002076
0.4275000000000091,0.002148,0.001848,0.004094
0.4300000000000068,-0.001079,0.004589,0.003596
0.4325000000000045,0.000355,0.001016,0.000434
0.4350000000000023,-0.00141,0.004189,-0.001691
0.4375,0.000563,0.001677,-0.000246
0.4399999999999977,-0.001352,0.001041,0.004298
0.4424999999999954,-0.000292,0.001027,0.002911
0.4449999999999932,-0.001423,0.003725,0.006085
0.4474999999999909,-0.00257,0.000956,0.002354
0.4499999999999886,-0.003657,0.001501,0.003221
0.4524999999999863,-0.000302,-0.001791,0.001734
0.4549999999999841,-0.002345,-0.002547,0.003187
0.4574999999999818,0.001647,-0.001498,0.003982
0.4599999999999795,0.000343,0.002941,0.002732
0.4624999999999772,0.002267,0.003456,0.003547
0.464999999999975,0.004377,0.000154,0.003514
0.4674999999999727,-0.001119,-0.000438,0.002635
0.4699999999999704,-0.000563,-0.001098,0.00167
0.4724999999999681,0.001053,-0.000459,0.001404
0.4750000000000227,0.00075,0.00561,0.002118
0.4775000000000204,0.004985,0.001373,0.001498
0.4800000000000182,0.003745,3.4e-05,0.000676
0.4825000000000159,-0.00181,0.000205,0.000861
0.4850000000000136,-0.000976,0.00168,0.000416
0.4875000000000113,0.001265,-0.000839,0.001974
0.4900000000000091,-0.001389,-0.001578,0.002008
0.4925000000000068,0.000871,-0.004123,0.002348
0.4950000000000045,0.002345,-0.002071,0.002728
0.4975000000000023,0.00011,-0.003617,-8e-05
0.5,0.00375,-0.002936,0.003011
0.5024999999999977,0.000756,-0.001089,0.000974
0.5049999999999955,0.003136,-0.005519,-1.5e-05
0.5074999999999932,0.001694,-0.005907,0.001755
0.5099999999999909,-0.001849,-0.006248,0.002871
0.5124999999999886,-0.003496,-0.001433,0.003728
0.5149999999999864,0.00406,-0.007854,0.0
0.5174999999999841,0.001975,-0.002868,-0.001554
0.5199999999999818,0.003243,-0.00758,-0.001681
0.5224999999999795,0.003836,-0.005615,-0.002277
0.5249999999999773,0.001235,-0.005636,0.00146
0.527499999999975,0.006219,-0.006643,0.00025
0.5299999999999727,0.004417,-0.005087,5.9e-05
0.5324999999999704,0.004915,-0.007366,-0.000319
0.5349999999999682,0.003948,-0.00864,-0.006008
0.5375000000000227,0.002765,-0.003812,-0.00232
0.5400000000000205,0.002686,-0.006267,-0.00518
0.5425000000000182,0.001923,-0.006245,0.00094
0.5450000000000159,0.002614,-0.007872,-0.003201
0.5475000000000136,0.00165,-0.009295,-0.003536
0.5500000000000114,0.004502,-0.009492,0.001303
0.5525000000000091,-0.000934,-0.009817,-0.002234
0.5550000000000068,0.003783,-0.013219,-0.003424
0.5575000000000045,0.000305,-0.013299,-0.004536
0.5600000000000023,-0.0007,-0.014509,-0.000843
0.5625,-0.001603,-0.015263,0.000773
0.5649999999999977,-0.000124,-0.013314,0.000416
0.5674999999999955,0.000993,-0.015828,0.00309
0.5699999999999932,-0.002393,-0.013334,0.006589
0.5724999999999909,0.002388,-0.016724,0.002072
0.5749999999999886,0.0024,-0.016434,0.004495
0.5774999999999864,-9.8e-05,-0.013153,0.006779
0.5799999999999841,0.001966,-0.012416,0.006018
0.5824999999999818,0.004689,-0.012676,0.007404
0.5849999999999795,0.006025,-0.010507,0.00781
0.5874999999999773,0.006974,-0.015436,0.004414
0.589999999999975,0.010242,-0.017165,0.005306
0.5924999999999727,0.007335,-0.017191,0.007012
0.5949999999999704,0.010773,-0.019549,0.007684
0.5974999999999682,0.010858,-0.019869,0.006708
0.6000000000000227,0.009934,-0.021817,0.004274
0.6025000000000205,0.012746,-0.023037,0.003465
0.6050000000000182,0.01542,-0.024368,0.003126
0.6075000000000159,0.012951,-0.02719,0.003243
0.6100000000000136,0.015967,-0.028069,0.003275
0.6125000000000114,0.014974,-0.031261,0.003125
0.6150000000000091,0.016961,-0.027573,0.001404
0.6175000000000068,0.012725,-0.034738,0.003394
0.6200000000000045,0.017944,-0.029235,0.001383
0.6225000000000023,0.010832,-0.027852,0.000592
0.625,0.012504,-0.029521,0.00275
0.6274999999999977,0.011226,-0.027417,0.002249
0.6299999999999955,0.01381,-0.031249,0.001011
0.6324999999999932,0.009236,-0.027452,0.00639
0.6349999999999909,0.01085,-0.028315,0.004105
0.6374999999999886,0.010938,-0.030103,0.005103
0.6399999999999864,0.009137,-0.030324,0.007121
0.6424999999999841,0.009242,-0.032534,0.009902
0.6449999999999818,0.005642,-0.033829,0.011145
0.6474999999999795,0.005113,-0.033349,0.010877
0.6499999999999773,0.002385,-0.034069,0.015468
0.652499999999975,-0.002387,-0.040649,0.01751
0.6549999999999727,-0.006618,-0.041965,0.017197
0.6574999999999704,-0.009416,-0.04437,0.018463
0.6599999999999682,-0.011139,-0.045143,0.019691
0.6625000000000227,-0.011927,-0.051248,0.024483
0.6650000000000205,-0.015889,-0.056662,0.028696
0.6675000000000182,-0.018182,-0.05919,0.033975
0.6700000000000159,-0.023542,-0.065991,0.037161
0.6725000000000136,-0.025421,-0.073442,0.040335
0.6750000000000114,-0.026882,-0.080533,0.053076
0.6775000000000091,-0.02583,-0.08509,0.053921
0.6800000000000068,-0.030099,-0.094219,0.063039
0.6825000000000045,-0.03027,-0.106268,0.066344
0.6850000000000023,-0.031392,-0.113842,0.07408
0.6875,-0.030464,-0.121403,0.083328
0.6899999999999977,-0.032835,-0.129047,0.093286
0.6924999999999955,-0.037421,-0.136606,0.101682
0.6949999999999932,-0.042962,-0.143246,0.10991
0.6974999999999909,-0.046663,-0.151367,0.120058
0.6999999999999886,-0.050583,-0.161389,0.131042
0.7024999999999864,-0.058006,-0.166497,0.139179
0.7049999999999841,-0.064546,-0.16863,0.148271
0.7074999999999818,-0.069603,-0.1764,0.159954
0.7099999999999795,-0.080094,-0.183612,0.17074
0.7124999999999773,-0.08736,-0.18739,0.179639
0.714999999999975,-0.093281,-0.188456,0.19171
0.7174999999999727,-0.103216,-0.18412,0.19905
0.7199999999999704,-0.113365,-0.181566,0.208155
0.7224999999999682,-0.121075,-0.185491,0.217051
0.7250000000000227,-0.133804,-0.186361,0.227333
0.7275000000000205,-0.142729,-0.181939,0.238919
0.7300000000000182,-0.156303,-0.183088,0.246106
0.7325000000000159,-0.169247,-0.181243,0.256385
0.7350000000000136,-0.184958,-0.177009,0.269619
0.7375000000000114,-0.20079,-0.172238,0.273308
0.7400000000000091,-0.218898,-0.171237,0.285611
0.7425000000000068,-0.231335,-0.172332,0.294105
0.7450000000000045,-0.249906,-0.168534,0.302538
0.7475000000000023,-0.265065,-0.170818,0.31436
0.75,-0.277786,-0.172494,0.320192
0.7524999999999977,-0.295286,-0.169681,0.328439
0.7549999999999955,-0.312032,-0.168373,0.336441
0.7574999999999932,-0.323644,-0.17464,0.346012
0.7599999999999909,-0.335828,-0.182761,0.353374
0.7624999999999886,-0.352627,-0.183183,0.360202
0.7649999999999864,-0.363374,-0.185189,0.368478
0.7674999999999841,-0.374505,-0.188053,0.377724
0.7699999999999818,-0.384466,-0.192663,0.380123
0.7724999999999795,-0.394918,-0.197859,0.39181
0.7749999999999773,-0.403558,-0.202833,0.400651
0.777499999999975,-0.410762,-0.206664,0.40272
0.7799999999999727,-0.417471,-0.209603,0.412885
0.7824999999999704,-0.431767,-0.217451,0.418684
0.7849999999999682,-0.43619,-0.216866,0.424891
0.7875000000000227,-0.439255,-0.221261,0.432851
0.7900000000000205,-0.445138,-0.224863,0.440473
0.7925000000000182,-0.446716,-0.225385,0.448828
0.7950000000000159,-0.450708,-0.221869,0.451034
0.7975000000000136,-0.452092,-0.223483,0.456136
0.8000000000000114,-0.454079,-0.222629,0.460505
0.8025000000000091,-0.453594,-0.215265,0.463376
0.8050000000000068,-0.450303,-0.21375,0.467259
0.8075000000000045,-0.450556,-0.206515,0.470636
0.8100000000000023,-0.447996,-0.202091,0.470413
0.8125,-0.446296,-0.195889,0.475746
0.8149999999999977,-0.444159,-0.186093,0.47745
0.8174999999999955,-0.440075,-0.176072,0.480763
0.8199999999999932,-0.437638,-0.165436,0.478112
0.8224999999999909,-0.431046,-0.155292,0.477058
0.8249999999999886,-0.422311,-0.148708,0.475121
0.8274999999999864,-0.419308,-0.139363,0.476012
0.8299999999999841,-0.411382,-0.127617,0.47243
0.8324999999999818,-0.402097,-0.11912,0.476686
0.8349999999999795,-0.390938,-0.113933,0.473391
0.8374999999999773,-0.380269,-0.104284,0.470386
0.839999999999975,-0.370632,-0.095859,0.46621
0.8424999999999727,-0.361434,-0.094856,0.465445
0.8449999999999704,-0.350997,-0.092612,0.456692
0.8474999999999682,-0.336497,-0.091343,0.454479
0.8500000000000227,-0.329821,-0.090159,0.452931
0.8525000000000205,-0.316618,-0.085644,0.4489
0.8550000000000182,-0.303535,-0.088437,0.443555
0.8575000000000159,-0.28792,-0.090286,0.442127
0.8600000000000136,-0.27284,-0.093053,0.438436
0.8625000000000114,-0.258547,-0.08954,0.43275
0.8650000000000091,-0.248128,-0.086521,0.429508
0.8675000000000068,-0.228059,-0.084959,0.423577
0.8700000000000045,-0.212528,-0.084135,0.421495
0.8725000000000023,-0.195093,-0.079876,0.415092
0.875,-0.182775,-0.077941,0.410708
0.8774999999999977,-0.16655,-0.074907,0.400504
0.8799999999999955,-0.149784,-0.0679,0.393812
0.8824999999999932,-0.1306,-0.063998,0.389523
0.8849999999999909,-0.112137,-0.058578,0.382365
0.8874999999999886,-0.097919,-0.057232,0.37853
0.8899999999999864,-0.083701,-0.046271,0.370418
0.8924999999999841,-0.066327,-0.039586,0.363549
0.8949999999999818,-0.054762,-0.030822,0.358268
0.8974999999999795,-0.033131,-0.016542,0.351468
0.8999999999999773,-0.016625,-0.012013,0.343966
0.902499999999975,-0.005355,-0.008756,0.339621
0.9049999999999728,0.01044,0.003224,0.331702
0.9074999999999704,0.021649,0.008123,0.328086
0.9099999999999682,0.03326,0.01265,0.317561
0.9125000000000228,0.044458,0.020552,0.315484
0.9150000000000204,0.056379,0.028212,0.306163
0.9175000000000182,0.066907,0.032129,0.300135
0.920000000000016,0.0779,0.038225,0.294188
0.9225000000000136,0.090032,0.04281,0.287183
0.9250000000000114,0.093602,0.048386,0.283209
0.9275000000000092,0.099764,0.051752,0.277615
0.9300000000000068,0.109873,0.061404,0.274899
0.9325000000000044,0.11378,0.063657,0.267643
0.9350000000000024,0.123509,0.070182,0.263219
0.9375,0.12657,0.07498,0.257529
0.9399999999999976,0.128575,0.080135,0.253227
0.9424999999999956,0.129058,0.08243,0.250169
0.9449999999999932,0.1337,0.087746,0.24197
0.9474999999999908,0.133533,0.093391,0.242434
0.9499999999999886,0.131794,0.097167,0.236586
0.9524999999999864,0.13194,0.101409,0.235646
0.954999999999984,0.129863,0.103291,0.231151
0.9574999999999818,0.129292,0.104672,0.229409
0.9599999999999796,0.128222,0.11212,0.224058
0.9624999999999772,0.12714,0.112598,0.218676
0.964999999999975,0.122904,0.115628,0.216074
0.9674999999999728,0.122445,0.118084,0.217124
0.9699999999999704,0.122018,0.121902,0.212421
0.9724999999999682,0.113665,0.128043,0.213921
0.9750000000000228,0.110853,0.127731,0.209997
0.9775000000000204,0.10869,0.125927,0.205495
0.9800000000000182,0.106476,0.130042,0.200561
0.982500000000016,0.103696,0.131183,0.196332
0.9850000000000136,0.095854,0.128951,0.195514
0.9875000000000114,0.096488,0.130041,0.196512
0.9900000000000092,0.094368,0.133412,0.191549
0.9925000000000068,0.091477,0.130857,0.189329
0.9950000000000044,0.090044,0.13284,0.187107
0.9975000000000024,0.086146,0.135163,0.185517
1.0,0.083485,0.138151,0.185884
1.0024999999999975,0.076643,0.135572,0.185572
1.0049999999999957,0.077071,0.138282,0.188736
1.0074999999999932,0.072327,0.140504,0.187703
1.009999999999991,0.068264,0.140519,0.186082
1.0124999999999886,0.063773,0.140465,0.1867
1.0149999999999864,0.06751,0.145286,0.186677
1.017499999999984,0.062224,0.145637,0.18608
1.0199999999999818,0.063547,0.145213,0.18483
1.0224999999999795,0.056269,0.149711,0.186201
1.0249999999999773,0.055968,0.142064,0.1897
1.027499999999975,0.051256,0.14265,0.187384
1.0299999999999727,0.04709,0.143055,0.190895
1.0324999999999704,0.050356,0.147284,0.191318
1.0349999999999682,0.044543,0.146136,0.195245
1.0375000000000227,0.04439,0.143439,0.194911
1.0400000000000205,0.045403,0.145728,0.198185
1.0425000000000182,0.042061,0.145087,0.199618
1.045000000000016,0.041837,0.143419,0.204252
1.0475000000000136,0.039119,0.14266,0.20752
1.0500000000000114,0.03892,0.143962,0.211921
1.052500000000009,0.035977,0.140535,0.215616
1.0550000000000068,0.03696,0.139164,0.215974
1.0575000000000043,0.039741,0.135627,0.220069
1.0600000000000025,0.042013,0.133462,0.227583
1.0625,0.04181,0.133613,0.230206
1.0649999999999975,0.03955,0.129438,0.235028
1.0674999999999957,0.044003,0.128151,0.241004
1.0699999999999932,0.041106,0.123838,0.242398
1.072499999999991,0.046095,0.117885,0.2483
1.0749999999999886,0.044958,0.116188,0.252172
1.0774999999999864,0.050852,0.114848,0.253055
1.079999999999984,0.051253,0.108442,0.258026
1.0824999999999818,0.056802,0.106142,0.260035
1.0849999999999795,0.059044,0.104808,0.263152
1.0874999999999773,0.062493,0.102349,0.264391
1.089999999999975,0.070245,0.09987,0.267091
1.0924999999999727,0.072252,0.096706,0.266852
1.0949999999999704,0.074757,0.091732,0.27217
1.0974999999999682,0.082815,0.090351,0.273842
1.1000000000000227,0.087682,0.089798,0.276404
1.1025000000000205,0.093845,0.086781,0.277583
1.1050000000000182,0.09594,0.085627,0.279882
1.107500000000016,0.100967,0.082076,0.282051
1.1100000000000136,0.104899,0.079865,0.280673
1.1125000000000114,0.109584,0.081096,0.286374
1.115000000000009,0.117133,0.072139,0.284643
1.1175000000000068,0.122973,0.074574,0.286163
1.1200000000000043,0.126732,0.070155,0.286856
1.1225000000000025,0.133655,0.073487,0.28853
1.125,0.139391,0.074015,0.291031
1.1274999999999975,0.14045,0.071514,0.288901
1.1299999999999957,0.146348,0.069615,0.290582
1.1324999999999932,0.151148,0.069701,0.291913
1.134999999999991,0.158014,0.068047,0.294065
1.1374999999999886,0.16348,0.065792,0.295822
1.1399999999999864,0.168212,0.063178,0.29732
1.142499999999984,0.170877,0.06547,0.299221
1.1449999999999818,0.176343,0.065697,0.300487
1.1474999999999795,0.184003,0.062012,0.302609
1.1499999999999773,0.190645,0.061449,0.304069
1.152499999999975,0.194842,0.058492,0.304254
1.1549999999999727,0.200983,0.055357,0.30527
1.1574999999999704,0.206549,0.054538,0.307638
1.1599999999999682,0.209556,0.051687,0.309645
1.1625000000000227,0.217559,0.055588,0.308438
1.1650000000000205,0.21887,0.051815,0.309258
1.1675000000000182,0.227962,0.050779,0.310548
1.170000000000016,0.230607,0.05291,0.310896
1.1725000000000136,0.234624,0.049037,0.308876
1.1750000000000114,0.239409,0.049081,0.305983
1.177500000000009,0.242514,0.049459,0.306012
1.1800000000000068,0.248926,0.045549,0.302773
1.1825000000000043,0.251415,0.052686,0.305489
1.1850000000000025,0.253814,0.046348,0.301448
1.1875,0.257731,0.045825,0.300553
1.1899999999999975,0.262082,0.052939,0.299457
1.1924999999999957,0.262199,0.054509,0.300022
1.1949999999999932,0.263187,0.050277,0.298329
1.197499999999991,0.270715,0.055125,0.293838
1.1999999999999886,0.268807,0.054947,0.291688
1.2024999999999864,0.272129,0.056408,0.287309
1.204999999999984,0.270166,0.059619,0.289262
1.2074999999999818,0.270327,0.058303,0.289055
1.2099999999999795,0.274974,0.058953,0.286818
1.2124999999999773,0.270496,0.062359,0.286315
1.214999999999975,0.269357,0.06412,0.280965
1.2174999999999727,0.270557,0.062508,0.277852
1.2199999999999704,0.267687,0.067437,0.275422
1.2224999999999682,0.268192,0.062975,0.269131
1.2250000000000227,0.267645,0.061958,0.26603
1.2275000000000205,0.262279,0.06902,0.260889
1.2300000000000182,0.257101,0.068387,0.254677
1.232500000000016,0.263932,0.062954,0.255366
1.2350000000000136,0.261862,0.064749,0.249437
1.2375000000000114,0.260905,0.062133,0.247296
1.240000000000009,0.264856,0.064399,0.24612
1.2425000000000068,0.263926,0.061189,0.243003
1.2450000000000043,0.259561,0.063447,0.242469
1.2475000000000025,0.265753,0.05577,0.23681
1.25,0.267813,0.058211,0.237793
1.2524999999999975,0.263583,0.055023,0.235314
1.2549999999999957,0.265624,0.058996,0.23267
1.2574999999999932,0.26687,0.05512,0.234134
1.259999999999991,0.266904,0.05623,0.229812
1.2624999999999886,0.269203,0.054495,0.226773
1.2649999999999864,0.271668,0.054657,0.225931
1.267499999999984,0.27073,0.053041,0.227363
1.2699999999999818,0.273858,0.047433,0.223148
1.2724999999999795,0.275087,0.048914,0.220611
1.2749999999999773,0.275955,0.049134,0.217589
1.277499999999975,0.282352,0.04145,0.213497
1.2799999999999727,0.285634,0.038157,0.209957
1.2824999999999704,0.290274,0.036753,0.209066
1.2849999999999682,0.293423,0.034175,0.211818
1.2875000000000227,0.300577,0.026626,0.202813
1.2900000000000205,0.305389,0.024679,0.205317
1.2925000000000182,0.310095,0.02225,0.19898
1.295000000000016,0.317528,0.01769,0.200094
1.2975000000000136,0.324459,0.017563,0.202686
1.3000000000000114,0.329455,0.012902,0.200953
1.302500000000009,0.338807,0.014938,0.200858
1.3050000000000068,0.347576,0.010554,0.198407
1.3075000000000043,0.357386,0.006471,0.199794
1.3100000000000025,0.361804,0.008757,0.201084
1.3125,0.371302,0.004623,0.196785
1.3149999999999975,0.376108,0.001255,0.20156
1.3174999999999957,0.385258,0.005917,0.197297
1.3199999999999932,0.392168,0.001103,0.199393
1.322499999999991,0.396223,0.004516,0.20133
1.3249999999999886,0.40222,0.001555,0.199022
1.3274999999999864,0.406402,-0.003548,0.195932
1.329999999999984,0.411407,-0.001355,0.196388
1.3324999999999818,0.420959,-0.006838,0.193975
1.3349999999999795,0.42788,-0.004889,0.189104
1.3374999999999773,0.435244,-0.006954,0.188332
1.339999999999975,0.439613,-0.009365,0.187282
1.3424999999999727,0.44669,-0.010791,0.184771
1.3449999999999704,0.451178,-0.005782,0.179999
1.3474999999999682,0.456291,-0.010751,0.176419
1.3500000000000227,0.464565,-0.012021,0.16902
1.3525000000000205,0.469668,-0.007369,0.16856
1.3550000000000182,0.474521,-0.007436,0.161188
1.357500000000016,0.476181,-0.009166,0.15562
1.3600000000000136,0.485451,-0.011837,0.148279
1.3625000000000114,0.490531,-0.010997,0.143988
1.365000000000009,0.494678,-0.012414,0.136235
1.3675000000000068,0.496291,-0.014757,0.131939
1.3700000000000043,0.500248,-0.025512,0.126419
1.3725000000000025,0.504693,-0.020404,0.116424
1.375,0.506065,-0.023574,0.112423
1.3774999999999975,0.509464,-0.02424,0.103567
1.3799999999999957,0.510471,-0.023635,0.099052
1.3824999999999932,0.515036,-0.020367,0.09001
1.384999999999991,0.51472,-0.021127,0.087284
1.3874999999999886,0.516885,-0.020124,0.083119
1.3899999999999864,0.518728,-0.01954,0.076079
1.392499999999984,0.518351,-0.017524,0.071523
1.3949999999999818,0.518199,-0.016756,0.066761
1.3974999999999795,0.522637,-0.01117,0.06456
1.3999999999999773,0.524179,-0.021681,0.060781
1.402499999999975,0.523498,-0.013557,0.057354
1.4049999999999727,0.526565,-0.011316,0.056595
1.4074999999999704,0.524265,-0.009505,0.053147
1.4099999999999682,0.524069,-0.009784,0.047193
1.4125000000000227,0.524592,-0.005884,0.048465
1.4150000000000205,0.523958,-0.002626,0.048176
1.4175000000000182,0.522747,-0.002314,0.04689
1.420000000000016,0.518554,0.007211,0.045037
1.4225000000000136,0.513517,0.004325,0.042901
1.4250000000000114,0.504962,0.009841,0.042005
1.427500000000009,0.501191,0.013944,0.039131
1.4300000000000068,0.49377,0.017553,0.037395
1.4325000000000043,0.487465,0.020232,0.037824
1.4350000000000025,0.478234,0.024857,0.036398
1.4375,0.473177,0.028351,0.03365
1.4399999999999975,0.464768,0.036191,0.034546
1.4424999999999957,0.455106,0.038926,0.035682
1.4449999999999932,0.447675,0.043189,0.03651
1.447499999999991,0.439752,0.051617,0.038426
1.4499999999999886,0.430169,0.056113,0.040039
1.4524999999999864,0.419738,0.063526,0.041498
1.454999999999984,0.413554,0.068451,0.045202
1.4574999999999818,0.403274,0.073794,0.04263
1.4599999999999795,0.393461,0.076816,0.046343
1.4624999999999773,0.38173,0.081021,0.043983
1.464999999999975,0.371753,0.085718,0.041059
1.4674999999999727,0.363329,0.089662,0.042045
1.4699999999999704,0.352079,0.093364,0.038216
1.4724999999999682,0.343239,0.091865,0.037874
1.4750000000000227,0.32659,0.095583,0.034877
1.4775000000000205,0.313377,0.099154,0.029176
1.4800000000000182,0.304425,0.099044,0.029935
1.482500000000016,0.293898,0.100308,0.025427
1.4850000000000136,0.282126,0.092583,0.023849
1.4875000000000114,0.274642,0.09547,0.02116
1.490000000000009,0.263584,0.093799,0.021262
1.4925000000000068,0.252122,0.096596,0.018037
1.4950000000000043,0.24092,0.087152,0.014886
1.4975000000000025,0.229163,0.085328,0.020169
1.5,0.221042,0.085399,0.014964
1.5024999999999975,0.210393,0.081914,0.012141
1.5049999999999957,0.197942,0.082105,0.012993
1.5074999999999932,0.190298,0.080728,0.008883
1.509999999999991,0.178612,0.079133,0.005461
1.5124999999999886,0.167895,0.077333,0.007144
1.5149999999999864,0.155938,0.077453,0.005182
1.517499999999984,0.1455,0.075261,-0.001387
1.5199999999999818,0.139529,0.076144,0.00012
1.5224999999999795,0.124981,0.075949,-0.004931
1.5249999999999773,0.118767,0.077646,-0.009111
1.527499999999975,0.108702,0.076612,-0.015044
1.5299999999999727,0.09441,0.075813,-0.018892
1.5324999999999704,0.090957,0.077301,-0.024475
1.5349999999999682,0.074845,0.082029,-0.029048
1.5375000000000227,0.063432,0.075949,-0.027753
1.5400000000000205,0.055521,0.08349,-0.029846
1.5425000000000182,0.044356,0.082687,-0.0352
1.545000000000016,0.038136,0.081223,-0.041118
1.5475000000000136,0.022496,0.083465,-0.041467
1.5500000000000114,0.017821,0.083087,-0.041871
1.552500000000009,0.008947,0.07984,-0.043039
1.5550000000000068,0.003531,0.081594,-0.045207
1.5575000000000043,-0.005904,0.073495,-0.043724
1.5600000000000025,-0.011553,0.074007,-0.041986
1.5625,-0.019585,0.070464,-0.044604
1.5649999999999975,-0.026248,0.07051,-0.042857
1.5674999999999957,-0.03143,0.065645,-0.044183
1.5699999999999932,-0.035432,0.060325,-0.042029
1.572499999999991,-0.043251,0.058311,-0.048017
1.5749999999999886,-0.044885,0.057804,-0.04622
1.5774999999999864,-0.053629,0.056293,-0.04923
1.579999999999984,-0.05928,0.051662,-0.045392
1.5824999999999818,-0.063115,0.051644,-0.045265
1.5849999999999795,-0.067371,0.046909,-0.048412
1.5874999999999773,-0.072086,0.042198,-0.046186
1.589999999999975,-0.079863,0.04013,-0.046882
1.5924999999999727,-0.084288,0.036832,-0.046952
1.5949999999999704,-0.085913,0.034709,-0.045088
1.5974999999999682,-0.09122,0.03475,-0.044934
1.6000000000000227,-0.094815,0.029706,-0.044774
1.6025000000000205,-0.100439,0.030138,-0.040665
1.6050000000000182,-0.104909,0.027437,-0.039969
1.607500000000016,-0.107947,0.024746,-0.039402
1.6100000000000136,-0.110586,0.025467,-0.039177
1.6125000000000114,-0.114711,0.022554,-0.032184
1.615000000000009,-0.122201,0.02191,-0.033529
1.6175000000000068,-0.118297,0.015966,-0.032783
1.6200000000000043,-0.124756,0.011288,-0.030531
1.6225000000000025,-0.123219,0.009149,-0.032929
1.625,-0.127213,0.009526,-0.028422
1.6274999999999975,-0.129539,0.004617,-0.028272
1.6299999999999957,-0.131388,0.002543,-0.030155
1.6324999999999932,-0.132628,-0.005883,-0.031199
1.634999999999991,-0.133535,-0.004578,-0.030646
1.6374999999999886,-0.136358,-0.00861,-0.032076
1.6399999999999864,-0.136578,-0.012033,-0.030573
1.642499999999984,-0.136256,-0.013432,-0.030105
1.6449999999999818,-0.137226,-0.015876,-0.027668
1.6474999999999795,-0.135045,-0.019261,-0.029738
1.6499999999999773,-0.133397,-0.021052,-0.031403
1.652499999999975,-0.129065,-0.025322,-0.033264
1.6549999999999727,-0.130545,-0.025094,-0.030716
1.6574999999999704,-0.122808,-0.027764,-0.034137
1.6599999999999682,-0.121602,-0.030267,-0.035062
1.6625000000000227,-0.1122,-0.032023,-0.029968
1.6650000000000205,-0.10809,-0.034551,-0.033325
1.6675000000000182,-0.108056,-0.037032,-0.031117
1.670000000000016,-0.101817,-0.036916,-0.030671
1.6725000000000136,-0.097442,-0.03688,-0.03054
1.6750000000000114,-0.090453,-0.042452,-0.029042
1.677500000000009,-0.084992,-0.044127,-0.029241
1.6800000000000068,-0.082141,-0.040472,-0.0293
1.6825000000000043,-0.076213,-0.043224,-0.026524
1.6850000000000025,-0.069025,-0.048733,-0.026995
1.6875,-0.061806,-0.04589,-0.026233
1.6899999999999975,-0.054666,-0.045775,-0.022525
1.6924999999999957,-0.049159,-0.053662,-0.025366
1.6949999999999932,-0.044544,-0.053379,-0.021315
1.697499999999991,-0.036809,-0.057372,-0.023052
1.6999999999999886,-0.032252,-0.058104,-0.019644
1.7024999999999864,-0.028655,-0.05984,-0.019145
1.704999999999984,-0.021484,-0.059597,-0.013925
1.7074999999999818,-0.014596,-0.061589,-0.012916
1.7099999999999795,-0.010276,-0.064713,-0.016057
1.7124999999999773,-0.001538,-0.062403,-0.013323
1.714999999999975,0.003741,-0.063016,-0.011414
1.7174999999999727,0.006693,-0.064842,-0.008295
1.7199999999999704,0.009537,-0.066371,-0.001723
1.7224999999999682,0.01317,-0.068769,-0.006434
1.7250000000000227,0.017963,-0.069831,-0.002879
1.7275000000000205,0.023282,-0.067262,-1e-05
1.7300000000000182,0.030626,-0.068657,0.002269
1.732500000000016,0.035246,-0.069715,0.001781
1.7350000000000136,0.039857,-0.074695,0.005917
1.7375000000000114,0.040323,-0.072378,0.008578
1.740000000000009,0.043411,-0.069873,0.007112
1.7425000000000068,0.042538,-0.066194,0.006854
1.7450000000000043,0.048289,-0.070913,0.010837
1.7475000000000025,0.047035,-0.06813,0.014422
1.75,0.048948,-0.068222,0.0167
1.7524999999999975,0.047801,-0.064969,0.017305
1.7549999999999957,0.048909,-0.062884,0.021622
1.7574999999999932,0.046999,-0.062971,0.02018
1.759999999999991,0.050399,-0.061437,0.023622
1.7624999999999886,0.048641,-0.060342,0.025851
1.7649999999999864,0.045682,-0.056881,0.031646
1.767499999999984,0.048937,-0.059503,0.033316
1.7699999999999818,0.043624,-0.056714,0.036228
1.7724999999999795,0.042459,-0.055884,0.040286
1.7749999999999773,0.043782,-0.054862,0.04038
1.777499999999975,0.042253,-0.05783,0.046662
1.7799999999999727,0.043691,-0.051163,0.049349
1.7824999999999704,0.040521,-0.053744,0.052603
1.7849999999999682,0.042998,-0.051299,0.055479
1.7875000000000227,0.03918,-0.052144,0.058962
1.7900000000000205,0.037534,-0.05112,0.06386
1.7925000000000182,0.041238,-0.051533,0.066871
1.795000000000016,0.038408,-0.0533,0.071902
1.7975000000000136,0.033166,-0.051656,0.074009
1.8000000000000114,0.028408,-0.049877,0.078983
1.802500000000009,0.02773,-0.05457,0.08193
1.8050000000000068,0.028015,-0.049704,0.081781
1.8075000000000043,0.026544,-0.05001,0.085349
1.8100000000000025,0.023793,-0.049351,0.08892
1.8125,0.018259,-0.050692,0.09064
1.8149999999999975,0.015789,-0.050724,0.094695
1.8174999999999957,0.014851,-0.051257,0.097517
1.8199999999999927,0.011788,-0.05094,0.102433
1.822499999999991,0.007985,-0.049898,0.104303
1.8249999999999889,0.006656,-0.054324,0.111727
1.8274999999999864,-0.001037,-0.05205,0.112607
1.829999999999984,-0.003199,-0.049427,0.118271
1.8324999999999816,-0.00982,-0.054096,0.118377
1.8349999999999795,-0.013351,-0.050309,0.123682
1.8374999999999773,-0.017084,-0.050445,0.128762
1.839999999999975,-0.024699,-0.052966,0.13131
1.8424999999999727,-0.029448,-0.052717,0.136686
1.8449999999999704,-0.032729,-0.057268,0.139632
1.847499999999968,-0.03735,-0.053611,0.143782
1.8500000000000227,-0.04382,-0.055993,0.144944
1.8525000000000205,-0.049728,-0.057295,0.149482
1.8550000000000184,-0.05618,-0.05388,0.149762
1.857500000000016,-0.06153,-0.057925,0.156758
1.8600000000000136,-0.066002,-0.062323,0.158959
1.8625000000000116,-0.070708,-0.061367,0.15895
1.865000000000009,-0.077221,-0.057779,0.164042
1.8675000000000068,-0.089593,-0.060797,0.163383
1.8700000000000043,-0.090648,-0.064419,0.166522
1.8725000000000025,-0.09879,-0.064167,0.169431
1.875,-0.106032,-0.069009,0.168078
1.8774999999999975,-0.112104,-0.073594,0.169551
1.8799999999999957,-0.114031,-0.076126,0.17199
1.8824999999999927,-0.124283,-0.07769,0.171312
1.884999999999991,-0.129293,-0.084855,0.172006
1.8874999999999889,-0.134687,-0.085019,0.171468
1.8899999999999864,-0.140134,-0.090134,0.170214
1.892499999999984,-0.144991,-0.0929,0.170701
1.8949999999999816,-0.15157,-0.094034,0.168877
1.8974999999999795,-0.159588,-0.098643,0.166415
1.8999999999999773,-0.167987,-0.09796,0.163635
1.902499999999975,-0.170913,-0.105253,0.160605
1.9049999999999727,-0.180186,-0.10725,0.153896
1.9074999999999704,-0.187995,-0.112039,0.147083
1.909999999999968,-0.19563,-0.114277,0.140793
1.9125000000000227,-0.206183,-0.113618,0.133568
1.9150000000000205,-0.211234,-0.116478,0.126947
1.9175000000000184,-0.218828,-0.118607,0.111739
1.920000000000016,-0.227374,-0.119399,0.10264
1.9225000000000136,-0.235049,-0.121112,0.085851
1.9250000000000116,-0.242566,-0.120194,0.07611
1.927500000000009,-0.251323,-0.120674,0.060033
1.9300000000000068,-0.263996,-0.117604,0.043795
1.9325000000000043,-0.265074,-0.117883,0.027014
1.9350000000000025,-0.275205,-0.120398,0.013833
1.9375,-0.281984,-0.115927,-0.005251
1.9399999999999975,-0.285165,-0.110687,-0.02389
1.9424999999999957,-0.295094,-0.108884,-0.043963
1.9449999999999927,-0.298493,-0.10666,-0.063428
1.947499999999991,-0.308296,-0.101227,-0.085089
1.9499999999999889,-0.313088,-0.093721,-0.112864
1.9524999999999864,-0.319175,-0.085901,-0.132504
1.954999999999984,-0.324553,-0.088225,-0.155106
1.9574999999999816,-0.328928,-0.080867,-0.179869
1.9599999999999795,-0.336224,-0.072309,-0.20339
1.9624999999999773,-0.338236,-0.061186,-0.230785
1.964999999999975,-0.340055,-0.058393,-0.256978
1.9674999999999727,-0.343707,-0.049685,-0.282888
1.9699999999999704,-0.346874,-0.041322,-0.310294
1.972499999999968,-0.350633,-0.029884,-0.336655
1.9750000000000227,-0.352053,-0.02293,-0.36187
1.9775000000000205,-0.352144,-0.010899,-0.391214
1.9800000000000184,-0.353004,-0.001293,-0.415862
1.982500000000016,-0.351074,0.004127,-0.440918
1.9850000000000136,-0.351152,0.014888,-0.465608
1.9875000000000116,-0.353922,0.026523,-0.493091
1.990000000000009,-0.349751,0.036611,-0.517686
1.9925000000000068,-0.351389,0.050803,-0.542639
1.9950000000000043,-0.348574,0.061574,-0.567587
1.9975000000000025,-0.347564,0.074051,-0.591455
2.0,-0.348108,0.086295,-0.611386
2.0024999999999977,-0.341676,0.0963,-0.638653
2.0049999999999955,-0.339812,0.104792,-0.6626
2.007499999999993,-0.337556,0.114369,-0.685316
2.009999999999991,-0.333831,0.124285,-0.710967
2.0124999999999886,-0.331061,0.136472,-0.733723
2.0149999999999864,-0.329365,0.151346,-0.753489
2.017499999999984,-0.322361,0.15968,-0.77761
2.019999999999982,-0.319864,0.166508,-0.802426
2.0224999999999795,-0.315757,0.178956,-0.818446
2.0249999999999773,-0.310719,0.189877,-0.839827
2.027499999999975,-0.308491,0.203512,-0.862366
2.0299999999999727,-0.300911,0.211932,-0.88132
2.0324999999999704,-0.291678,0.219503,-0.903851
2.034999999999968,-0.283727,0.227411,-0.918386
2.0375000000000227,-0.277861,0.235213,-0.940684
2.0400000000000205,-0.272857,0.246134,-0.959036
2.042500000000018,-0.266476,0.252724,-0.97639
2.045000000000016,-0.259335,0.255234,-0.996563
2.0475000000000136,-0.249948,0.259893,-1.013211
2.050000000000012,-0.239799,0.264805,-1.033202
2.052500000000009,-0.233787,0.268167,-1.045768
2.055000000000007,-0.219885,0.273877,-1.064374
2.0575000000000045,-0.214018,0.270198,-1.082607
2.0600000000000023,-0.205985,0.277091,-1.099256
2.0625,-0.192501,0.276224,-1.114953
2.0649999999999977,-0.183316,0.276352,-1.127941
2.0674999999999955,-0.17453,0.271521,-1.13941
2.069999999999993,-0.166175,0.272703,-1.155928
2.072499999999991,-0.153102,0.270017,-1.172898
2.0749999999999886,-0.14226,0.266608,-1.182101
2.0774999999999864,-0.131181,0.265575,-1.195904
2.079999999999984,-0.121141,0.26544,-1.209583
2.082499999999982,-0.106436,0.260919,-1.216925
2.0849999999999795,-0.097996,0.25814,-1.228476
2.0874999999999773,-0.087126,0.252524,-1.240865
2.089999999999975,-0.074133,0.247774,-1.252877
2.0924999999999727,-0.063261,0.243215,-1.259706
2.0949999999999704,-0.05362,0.241021,-1.267039
2.097499999999968,-0.038226,0.235345,-1.273719
2.1000000000000227,-0.022042,0.228755,-1.283756
2.1025000000000205,-0.0177,0.220928,-1.290323
2.105000000000018,-0.004153,0.213594,-1.301005
2.107500000000016,0.004629,0.214235,-1.305247
2.1100000000000136,0.021014,0.204548,-1.314037
2.112500000000012,0.03252,0.197514,-1.321467
2.115000000000009,0.049739,0.185626,-1.328652
2.117500000000007,0.05468,0.177574,-1.340785
2.1200000000000045,0.072201,0.17316,-1.345756
2.1225000000000023,0.086773,0.161689,-1.351967
2.125,0.102558,0.155427,-1.360009
2.1274999999999977,0.113353,0.146839,-1.365558
2.1299999999999955,0.12821,0.138405,-1.371982
2.132499999999993,0.139389,0.130626,-1.377731
2.134999999999991,0.151921,0.126467,-1.383657
2.1374999999999886,0.165505,0.115641,-1.391502
2.1399999999999864,0.179095,0.108939,-1.399218
2.142499999999984,0.190211,0.099488,-1.402052
2.144999999999982,0.203189,0.088067,-1.405912
2.1474999999999795,0.216776,0.080659,-1.412347
2.1499999999999773,0.222684,0.070079,-1.41587
2.152499999999975,0.23695,0.059681,-1.420232
2.1549999999999727,0.247001,0.052654,-1.42562
2.1574999999999704,0.255276,0.040682,-1.426107
2.159999999999968,0.265423,0.033128,-1.428721
2.1625000000000227,0.271408,0.021886,-1.429629
2.1650000000000205,0.281777,0.009126,-1.425383
2.167500000000018,0.288015,-0.002725,-1.428094
2.170000000000016,0.299263,-0.010689,-1.428112
2.1725000000000136,0.297726,-0.018731,-1.422978
2.175000000000012,0.305658,-0.034577,-1.418211
2.177500000000009,0.310115,-0.044039,-1.417451
2.180000000000007,0.315038,-0.052808,-1.416417
2.1825000000000045,0.311063,-0.063588,-1.411454
2.1850000000000023,0.316317,-0.069709,-1.407849
2.1875,0.314384,-0.076819,-1.404621
2.1899999999999977,0.316153,-0.087982,-1.399931
2.1924999999999955,0.31002,-0.092009,-1.394781
2.194999999999993,0.308926,-0.096706,-1.394296
2.197499999999991,0.308167,-0.108688,-1.391814
2.1999999999999886,0.305864,-0.112554,-1.38715
2.2024999999999864,0.301285,-0.118028,-1.384271
2.204999999999984,0.294021,-0.124185,-1.378439
2.207499999999982,0.288055,-0.129245,-1.374168
2.2099999999999795,0.281743,-0.138711,-1.370456
2.2124999999999773,0.27633,-0.14393,-1.364642
2.214999999999975,0.27232,-0.149198,-1.362065
2.2174999999999727,0.261048,-0.154413,-1.359992
2.2199999999999704,0.253625,-0.159095,-1.35033
2.222499999999968,0.243906,-0.159392,-1.343091
2.2250000000000227,0.232589,-0.165109,-1.33663
2.2275000000000205,0.221858,-0.16502,-1.33067
2.230000000000018,0.211654,-0.166407,-1.31784
2.232500000000016,0.19974,-0.166231,-1.309114
2.2350000000000136,0.190174,-0.164692,-1.296643
2.237500000000012,0.178538,-0.160393,-1.287155
2.240000000000009,0.165466,-0.157353,-1.273996
2.242500000000007,0.153672,-0.159806,-1.263422
2.2450000000000045,0.141919,-0.157708,-1.247372
2.2475000000000023,0.125175,-0.156738,-1.239759
2.25,0.115515,-0.154702,-1.222769
2.2524999999999977,0.100115,-0.149471,-1.209418
2.2549999999999955,0.088881,-0.145197,-1.193279
2.257499999999993,0.070972,-0.148892,-1.177268
2.259999999999991,0.062533,-0.14766,-1.161127
2.2624999999999886,0.044184,-0.141595,-1.14756
2.2649999999999864,0.031533,-0.137584,-1.129589
2.267499999999984,0.018714,-0.140674,-1.116144
2.269999999999982,0.006064,-0.139897,-1.097796
2.2724999999999795,-0.008291,-0.136669,-1.079388
2.2749999999999773,-0.022621,-0.135841,-1.061936
2.277499999999975,-0.038402,-0.134765,-1.042939
2.2799999999999727,-0.053041,-0.130138,-1.025534
2.2824999999999704,-0.066696,-0.131516,-1.005608
2.284999999999968,-0.080939,-0.131227,-0.983596
2.2875000000000227,-0.091954,-0.125824,-0.965326
2.2900000000000205,-0.107133,-0.12425,-0.944616
2.292500000000018,-0.118542,-0.118615,-0.924431
2.295000000000016,-0.133473,-0.116988,-0.906326
2.2975000000000136,-0.14092,-0.115949,-0.887895
2.300000000000012,-0.154017,-0.115216,-0.865664
2.302500000000009,-0.167911,-0.115015,-0.846282
2.305000000000007,-0.179745,-0.11586,-0.823441
2.3075000000000045,-0.185348,-0.113578,-0.803182
2.3100000000000023,-0.196354,-0.113229,-0.782868
2.3125,-0.207685,-0.110164,-0.76263
2.3149999999999977,-0.213215,-0.109209,-0.739838
2.3174999999999955,-0.220487,-0.104733,-0.717077
2.319999999999993,-0.228077,-0.106482,-0.694612
2.322499999999991,-0.234275,-0.110781,-0.674479
2.3249999999999886,-0.241478,-0.110061,-0.652565
2.3274999999999864,-0.245848,-0.109926,-0.627261
2.329999999999984,-0.245933,-0.108871,-0.605656
2.332499999999982,-0.252526,-0.110681,-0.580792
2.3349999999999795,-0.251812,-0.112766,-0.55663
2.3374999999999773,-0.25499,-0.114229,-0.532073
2.339999999999975,-0.253004,-0.115557,-0.505984
2.3424999999999727,-0.255068,-0.114638,-0.479469
2.3449999999999704,-0.255109,-0.109512,-0.457798
2.347499999999968,-0.254095,-0.113912,-0.432512
2.3500000000000227,-0.259168,-0.111316,-0.402467
2.3525000000000205,-0.252321,-0.111477,-0.379583
2.355000000000018,-0.249916,-0.115716,-0.353358
2.357500000000016,-0.249423,-0.112975,-0.332677
2.3600000000000136,-0.242142,-0.114974,-0.304249
2.362500000000012,-0.238295,-0.11441,-0.27989
2.365000000000009,-0.237034,-0.114778,-0.254093
2.367500000000007,-0.231653,-0.113839,-0.230409
2.3700000000000045,-0.225282,-0.110587,-0.204964
2.3725000000000023,-0.219829,-0.107332,-0.178479
2.375,-0.215894,-0.106817,-0.156108
2.3774999999999977,-0.208034,-0.102,-0.130767
2.3799999999999955,-0.200205,-0.101759,-0.103606
2.382499999999993,-0.195708,-0.097778,-0.080492
2.384999999999991,-0.182708,-0.098205,-0.052337
2.3874999999999886,-0.179996,-0.089216,-0.027421
2.3899999999999864,-0.170913,-0.087407,-0.00163
2.392499999999984,-0.162642,-0.086509,0.026502
2.394999999999982,-0.152761,-0.086164,0.0491
2.3974999999999795,-0.140157,-0.082475,0.080195
2.3999999999999773,-0.13258,-0.078237,0.105626
2.402499999999975,-0.125755,-0.076949,0.130437
2.4049999999999727,-0.112781,-0.072268,0.157417
2.4074999999999704,-0.103091,-0.069955,0.179917
2.409999999999968,-0.089654,-0.065537,0.205728
2.4125000000000227,-0.080666,-0.067133,0.229802
2.4150000000000205,-0.068972,-0.062604,0.255916
2.417500000000018,-0.060543,-0.060608,0.281463
2.420000000000016,-0.046942,-0.057484,0.304953
2.4225000000000136,-0.037482,-0.055632,0.330175
2.425000000000012,-0.027482,-0.047733,0.354386
2.427500000000009,-0.017351,-0.048901,0.380754
2.430000000000007,-0.007026,-0.041947,0.404053
2.4325000000000045,0.003704,-0.038655,0.430644
2.4350000000000023,0.014804,-0.037865,0.453242
2.4375,0.023297,-0.035489,0.478286
2.4399999999999977,0.032081,-0.03057,0.499014
2.4424999999999955,0.040297,-0.026532,0.52039
2.444999999999993,0.046619,-0.023977,0.544786
2.447499999999991,0.054935,-0.025369,0.569681
2.4499999999999886,0.062712,-0.024813,0.594381
2.4524999999999864,0.068889,-0.026181,0.615845
2.454999999999984,0.07494,-0.025137,0.637519
2.457499999999982,0.084618,-0.026163,0.658882
2.4599999999999795,0.092824,-0.029871,0.681014
2.4624999999999773,0.095204,-0.033587,0.702749
2.464999999999975,0.103114,-0.033182,0.721844
2.4674999999999727,0.10853,-0.036015,0.741825
2.4699999999999704,0.115015,-0.04074,0.766199
2.472499999999968,0.12395,-0.040862,0.785881
2.4750000000000227,0.126286,-0.046594,0.810833
2.4775000000000205,0.12796,-0.048253,0.828944
2.480000000000018,0.136378,-0.045399,0.847537
2.482500000000016,0.136914,-0.050795,0.872236
2.4850000000000136,0.141478,-0.053096,0.892093
2.487500000000012,0.14519,-0.048707,0.910873
2.490000000000009,0.14576,-0.051378,0.931929
2.492500000000007,0.149054,-0.046898,0.952871
2.4950000000000045,0.15148,-0.049387,0.971883
2.4975000000000023,0.153465,-0.041237,0.989283
2.5,0.150029,-0.04008,1.009213
2.5024999999999977,0.151671,-0.033863,1.033613
2.5049999999999955,0.149251,-0.03425,1.050691
2.507499999999993,0.148911,-0.026874,1.068627
2.509999999999991,0.150394,-0.020315,1.089318
2.5124999999999886,0.149088,-0.017613,1.106038
2.5149999999999864,0.146955,-0.009062,1.123865
2.517499999999984,0.143824,-0.003001,1.143805
2.519999999999982,0.147145,0.003729,1.163266
2.5224999999999795,0.142533,0.008432,1.181304
2.5249999999999773,0.140288,0.014665,1.197906
2.527499999999975,0.138236,0.017146,1.217521
2.5299999999999727,0.131705,0.021365,1.236915
2.5324999999999704,0.13208,0.023455,1.253748
2.534999999999968,0.125622,0.029626,1.27334
2.5375000000000227,0.122458,0.029446,1.285956
2.5400000000000205,0.12214,0.029599,1.306029
2.542500000000018,0.117975,0.03088,1.322774
2.545000000000016,0.112762,0.032304,1.335697
2.5475000000000136,0.106835,0.031675,1.355132
2.550000000000012,0.102987,0.026477,1.369078
2.552500000000009,0.100041,0.030226,1.38495
2.555000000000007,0.095979,0.02648,1.398484
2.5575000000000045,0.090077,0.022421,1.412885
2.5600000000000023,0.087277,0.018514,1.427114
2.5625,0.082598,0.017338,1.440875
2.5649999999999977,0.07633,0.010905,1.448569
2.5674999999999955,0.069132,0.006337,1.462989
2.569999999999993,0.061714,0.001783,1.475132
2.572499999999991,0.054436,-0.000975,1.486381
2.5749999999999886,0.050228,-0.001208,1.497905
2.5774999999999864,0.044436,-0.003928,1.505773
2.579999999999984,0.037936,-0.008352,1.516473
2.582499999999982,0.029805,-0.007242,1.527721
2.5849999999999795,0.022603,-0.015174,1.534133
2.5874999999999773,0.016964,-0.014444,1.54526
2.589999999999975,0.006884,-0.015806,1.551624
2.5924999999999727,0.003868,-0.022094,1.562791
2.5949999999999704,-0.004208,-0.022754,1.569179
2.597499999999968,-0.010546,-0.019659,1.580599
2.6000000000000227,-0.017288,-0.020525,1.586736
2.6025000000000205,-0.021568,-0.026922,1.595887
2.605000000000018,-0.029903,-0.026477,1.601941
2.607500000000016,-0.035048,-0.029723,1.611349
2.6100000000000136,-0.037199,-0.035955,1.616732
2.612500000000012,-0.046967,-0.039336,1.622238
2.615000000000009,-0.05296,-0.041464,1.627003
2.617500000000007,-0.059782,-0.046074,1.633443
2.6200000000000045,-0.061682,-0.05302,1.642234
2.6225000000000023,-0.069723,-0.052381,1.643199
2.625,-0.073585,-0.060463,1.651981
2.6274999999999977,-0.080428,-0.063855,1.656774
2.6299999999999955,-0.086224,-0.066671,1.65976
2.632499999999993,-0.092746,-0.070792,1.663034
2.634999999999991,-0.099894,-0.071995,1.665758
2.6374999999999886,-0.106525,-0.077228,1.667946
2.6399999999999864,-0.113931,-0.081389,1.668913
2.642499999999984,-0.117929,-0.086711,1.668868
2.644999999999982,-0.127556,-0.086884,1.669641
2.6474999999999795,-0.133622,-0.091969,1.665909
2.6499999999999773,-0.139669,-0.092344,1.667642
2.652499999999975,-0.14948,-0.097156,1.666697
2.6549999999999727,-0.150995,-0.098112,1.669588
2.6574999999999704,-0.161156,-0.097536,1.669447
2.659999999999968,-0.168686,-0.099808,1.670261
2.6625000000000227,-0.175505,-0.098421,1.670066
2.6650000000000205,-0.180166,-0.096956,1.666132
2.667500000000018,-0.191696,-0.092217,1.670503
2.670000000000016,-0.197299,-0.087056,1.670069
2.6725000000000136,-0.201671,-0.087518,1.672972
2.675000000000012,-0.208225,-0.086992,1.672215
2.677500000000009,-0.215966,-0.087257,1.672122
2.680000000000007,-0.218412,-0.084902,1.671494
2.6825000000000045,-0.227684,-0.08474,1.675652
2.6850000000000023,-0.235942,-0.083353,1.67372
2.6875,-0.241512,-0.08567,1.669342
2.6899999999999977,-0.242824,-0.087318,1.668714
2.6924999999999955,-0.250502,-0.085837,1.663283
2.694999999999993,-0.261529,-0.090772,1.660502
2.697499999999991,-0.265242,-0.093693,1.656467
2.6999999999999886,-0.269918,-0.099403,1.651484
2.7024999999999864,-0.27193,-0.100668,1.645634
2.704999999999984,-0.277525,-0.102529,1.647164
2.707499999999982,-0.281169,-0.107168,1.643813
2.7099999999999795,-0.285016,-0.107583,1.637771
2.7124999999999773,-0.285754,-0.111932,1.634522
2.714999999999975,-0.289753,-0.112183,1.628082
2.7174999999999727,-0.291477,-0.11877,1.625338
2.7199999999999704,-0.293516,-0.117709,1.618249
2.722499999999968,-0.294748,-0.120345,1.615928
2.7250000000000227,-0.294668,-0.122972,1.61157
2.7275000000000205,-0.296499,-0.124453,1.606682
2.730000000000018,-0.298886,-0.127417,1.601789
2.732500000000016,-0.297445,-0.128174,1.594502
2.7350000000000136,-0.299046,-0.132793,1.587145
2.737500000000012,-0.301206,-0.132226,1.582438
2.740000000000009,-0.301093,-0.13406,1.573783
2.742500000000007,-0.302017,-0.137781,1.568891
2.7450000000000045,-0.301938,-0.134243,1.55977
2.7475000000000023,-0.302534,-0.136766,1.550958
2.75,-0.303281,-0.137504,1.538205
2.7524999999999977,-0.302458,-0.138217,1.529944
2.7549999999999955,-0.301196,-0.135191,1.52065
2.757499999999993,-0.300387,-0.136912,1.510865
2.759999999999991,-0.303482,-0.133726,1.499662
2.7624999999999886,-0.300396,-0.132546,1.48681
2.7649999999999864,-0.30206,-0.1298,1.477349
2.767499999999984,-0.298099,-0.128141,1.46516
2.769999999999982,-0.296313,-0.129163,1.452763
2.7724999999999795,-0.294157,-0.11958,1.443301
2.7749999999999773,-0.291138,-0.120893,1.428905
2.777499999999975,-0.293039,-0.123547,1.415442
2.7799999999999727,-0.290898,-0.119819,1.40326
2.7824999999999704,-0.291288,-0.116672,1.39204
2.784999999999968,-0.280297,-0.122659,1.381642
2.7875000000000227,-0.281264,-0.117046,1.367703
2.7900000000000205,-0.279972,-0.118032,1.356922
2.792500000000018,-0.274672,-0.116904,1.340918
2.795000000000016,-0.268512,-0.117338,1.329158
2.7975000000000136,-0.265089,-0.11638,1.315203
2.800000000000012,-0.262337,-0.115575,1.29756
2.802500000000009,-0.257629,-0.115238,1.284261
2.805000000000007,-0.25243,-0.114985,1.26839
2.8075000000000045,-0.245103,-0.117312,1.251513
2.8100000000000023,-0.241166,-0.116937,1.233355
2.8125,-0.236189,-0.119706,1.217329
2.8149999999999977,-0.228179,-0.119865,1.197241
2.8174999999999955,-0.22032,-0.120644,1.17902
2.819999999999993,-0.21427,-0.115514,1.159188
2.822499999999991,-0.209898,-0.11653,1.14105
2.8249999999999886,-0.198943,-0.116313,1.120527
2.8274999999999864,-0.195459,-0.119966,1.098582
2.829999999999984,-0.186504,-0.114755,1.0765
2.832499999999982,-0.179687,-0.112015,1.056984
2.8349999999999795,-0.170898,-0.112763,1.032325
2.8374999999999773,-0.166209,-0.114279,1.013253
2.839999999999975,-0.158352,-0.112575,0.990524
2.8424999999999727,-0.149189,-0.11541,0.964131
2.8449999999999704,-0.141642,-0.113967,0.942867
2.847499999999968,-0.134538,-0.116949,0.91619
2.8500000000000227,-0.126788,-0.11294,0.890374
2.8525000000000205,-0.113414,-0.115432,0.869683
2.855000000000018,-0.106451,-0.11441,0.843344
2.857500000000016,-0.100517,-0.12092,0.821952
2.8600000000000136,-0.08882,-0.120796,0.796936
2.862500000000012,-0.079615,-0.120661,0.775395
2.865000000000009,-0.071649,-0.119069,0.752133
2.867500000000007,-0.05867,-0.118245,0.726109
2.8700000000000045,-0.050682,-0.119285,0.701029
2.8725000000000023,-0.04497,-0.117089,0.675478
2.875,-0.032957,-0.120479,0.648654
2.8774999999999977,-0.022928,-0.115221,0.62422
2.8799999999999955,-0.015345,-0.113581,0.595968
2.882499999999993,-0.005919,-0.115326,0.574074
2.884999999999991,0.002848,-0.111976,0.547648
2.8874999999999886,0.012223,-0.112639,0.518245
2.8899999999999864,0.022597,-0.108892,0.493034
2.892499999999984,0.032177,-0.106029,0.465765
2.894999999999982,0.039751,-0.103666,0.438423
2.8974999999999795,0.05054,-0.102207,0.410675
2.8999999999999773,0.057665,-0.095439,0.384427
2.902499999999975,0.068232,-0.092565,0.359219
2.9049999999999727,0.080494,-0.085452,0.331939
2.9074999999999704,0.089028,-0.083232,0.302326
2.909999999999968,0.099383,-0.079346,0.27461
2.9125000000000227,0.108822,-0.072283,0.245359
2.9150000000000205,0.118525,-0.069138,0.219914
2.917500000000018,0.129087,-0.065403,0.194593
2.920000000000016,0.13789,-0.055882,0.168676
2.9225000000000136,0.149886,-0.0581,0.14093
2.925000000000012,0.155537,-0.046456,0.11346
2.927500000000009,0.163554,-0.04148,0.089733
2.930000000000007,0.173362,-0.037186,0.062352
2.9325000000000045,0.181132,-0.030249,0.034849
2.9350000000000023,0.190175,-0.025058,0.010722
2.9375,0.202582,-0.018069,-0.019407
2.9399999999999977,0.205322,-0.018199,-0.044961
2.9424999999999955,0.213452,-0.011843,-0.068654
2.944999999999993,0.222117,-0.004977,-0.092129
2.947499999999991,0.227191,-0.001925,-0.121161
2.9499999999999886,0.230385,0.008128,-0.147399
2.9524999999999864,0.236639,0.009907,-0.171214
2.954999999999984,0.244748,0.01645,-0.194524
2.957499999999982,0.249185,0.021999,-0.224766
2.9599999999999795,0.255055,0.031864,-0.251907
2.9624999999999773,0.254267,0.040335,-0.277305
2.964999999999975,0.254359,0.047291,-0.302081
2.9674999999999727,0.258959,0.055891,-0.330339
2.9699999999999704,0.265113,0.06118,-0.351422
2.972499999999968,0.2685,0.076186,-0.377382
2.9750000000000227,0.270262,0.08237,-0.405952
2.9775000000000205,0.269399,0.08708,-0.43065
2.980000000000018,0.271358,0.098041,-0.455438
2.982500000000016,0.271942,0.108761,-0.478102
2.9850000000000136,0.274035,0.117808,-0.502551
2.987500000000012,0.27135,0.125466,-0.526081
2.990000000000009,0.271266,0.140096,-0.549176
2.992500000000007,0.27319,0.142705,-0.572369
2.9950000000000045,0.269344,0.151367,-0.597292
2.9975000000000023,0.272464,0.162425,-0.619288
3.0,0.269324,0.16618,-0.641298
3.0024999999999977,0.270695,0.176173,-0.66447
3.0049999999999955,0.26579,0.18475,-0.68589
3.007499999999993,0.267027,0.191634,-0.707978
3.009999999999991,0.260845,0.200534,-0.730859
3.0124999999999886,0.261619,0.206123,-0.749481
3.0149999999999864,0.25382,0.216038,-0.775419
3.017499999999984,0.251617,0.219489,-0.793415
3.019999999999982,0.248604,0.226057,-0.815448
3.0224999999999795,0.24204,0.236497,-0.834666
3.0249999999999773,0.237536,0.246868,-0.854866
3.027499999999975,0.233784,0.250436,-0.877354
3.0299999999999727,0.234311,0.253657,-0.898031
3.0324999999999704,0.224432,0.260618,-0.916864
3.034999999999968,0.219918,0.266881,-0.93534
3.0375000000000227,0.216759,0.279985,-0.952941
3.0400000000000205,0.213894,0.284015,-0.973234
3.042500000000018,0.205391,0.291329,-0.99444
3.045000000000016,0.203129,0.301083,-1.01302
3.0475000000000136,0.199375,0.303561,-1.033226
3.050000000000012,0.193877,0.311694,-1.050414
3.052500000000009,0.190333,0.314563,-1.070407
3.055000000000007,0.1896,0.317367,-1.086067
3.0575000000000045,0.187016,0.317937,-1.110962
3.0600000000000023,0.181658,0.32397,-1.1258
3.0625,0.17555,0.326448,-1.144146
3.0649999999999977,0.171284,0.328355,-1.159986
3.0674999999999955,0.17314,0.332829,-1.179539
3.069999999999993,0.167012,0.330576,-1.193451
3.072499999999991,0.162923,0.333465,-1.207594
3.0749999999999886,0.158567,0.336335,-1.223054
3.0774999999999864,0.155852,0.33408,-1.241783
3.079999999999984,0.151096,0.332654,-1.2588
3.082499999999982,0.150975,0.332394,-1.269246
3.0849999999999795,0.147873,0.331429,-1.287477
3.0874999999999773,0.144631,0.333827,-1.30013
3.089999999999975,0.138117,0.334173,-1.313535
3.0924999999999727,0.139055,0.334173,-1.323713
3.0949999999999704,0.132188,0.334896,-1.336137
3.097499999999968,0.132733,0.337043,-1.349678
3.1000000000000227,0.133649,0.335374,-1.362275
3.1025000000000205,0.133348,0.333702,-1.373387
3.105000000000018,0.12786,0.335839,-1.385129
3.107500000000016,0.125969,0.336638,-1.397216
3.1100000000000136,0.124771,0.335895,-1.406258
3.112500000000012,0.126886,0.335456,-1.416186
3.115000000000009,0.122414,0.337122,-1.426537
3.117500000000007,0.125674,0.332109,-1.438461
3.1200000000000045,0.123991,0.329064,-1.450803
3.1225000000000023,0.123336,0.332012,-1.455199
3.125,0.120194,0.326058,-1.469287
3.1274999999999977,0.123016,0.325432,-1.474827
3.1299999999999955,0.123303,0.325985,-1.484712
3.132499999999993,0.124658,0.326797,-1.491779
3.134999999999991,0.126343,0.321312,-1.494209
3.1374999999999886,0.126175,0.319723,-1.501001
3.1399999999999864,0.13107,0.319372,-1.507173
3.142499999999984,0.124673,0.315752,-1.514279
3.144999999999982,0.130225,0.313623,-1.516129
3.1474999999999795,0.127884,0.309027,-1.521947
3.1499999999999773,0.130502,0.310289,-1.525008
3.152499999999975,0.13295,0.304424,-1.527661
3.1549999999999727,0.133626,0.303136,-1.536726
3.1574999999999704,0.13267,0.296859,-1.539659
3.159999999999968,0.131763,0.299879,-1.544433
3.1625000000000227,0.134827,0.293216,-1.549843
3.1650000000000205,0.133761,0.290496,-1.555511
3.167500000000018,0.130721,0.285999,-1.560191
3.170000000000016,0.13395,0.28465,-1.566378
3.1725000000000136,0.134013,0.282801,-1.570646
3.175000000000012,0.130838,0.281461,-1.574213
3.177500000000009,0.129982,0.2764,-1.585589
3.180000000000007,0.130076,0.273591,-1.588887
3.1825000000000045,0.129303,0.268083,-1.594182
3.1850000000000023,0.126702,0.271757,-1.601745
3.1875,0.127528,0.267565,-1.60588
3.1899999999999977,0.125926,0.267066,-1.61059
3.1924999999999955,0.126026,0.26569,-1.612639
3.194999999999993,0.125101,0.262828,-1.615502
3.197499999999991,0.126651,0.261486,-1.619045
3.1999999999999886,0.124339,0.258536,-1.622705
3.2024999999999864,0.121889,0.258039,-1.623521
3.204999999999984,0.116555,0.259491,-1.627536
3.207499999999982,0.123138,0.254839,-1.628534
3.2099999999999795,0.123487,0.249986,-1.62864
3.2124999999999773,0.117468,0.247186,-1.627803
3.214999999999975,0.118416,0.240623,-1.634442
3.2174999999999727,0.119373,0.236533,-1.635499
3.2199999999999704,0.116945,0.230708,-1.640385
3.222499999999968,0.117033,0.227992,-1.641023
3.2250000000000227,0.117565,0.221255,-1.64219
3.2275000000000205,0.117467,0.214785,-1.646794
3.230000000000018,0.113606,0.208309,-1.649263
3.232500000000016,0.114241,0.205564,-1.651782
3.2350000000000136,0.112877,0.196245,-1.650014
3.237500000000012,0.111267,0.193693,-1.653543
3.240000000000009,0.113582,0.18566,-1.652117
3.242500000000007,0.10997,0.176502,-1.652105
3.2450000000000045,0.109578,0.172966,-1.652376
3.2475000000000023,0.106549,0.167125,-1.653571
3.25,0.10538,0.15998,-1.653523
3.2524999999999977,0.101579,0.155618,-1.65364
3.2549999999999955,0.100158,0.150444,-1.653778
3.257499999999993,0.093124,0.14857,-1.65253
3.259999999999991,0.092091,0.141183,-1.647238
3.2624999999999886,0.08949,0.139219,-1.64788
3.2649999999999864,0.082456,0.135318,-1.644768
3.267499999999984,0.079308,0.131408,-1.644796
3.269999999999982,0.075056,0.125378,-1.641768
3.2724999999999795,0.070054,0.126875,-1.641811
3.2749999999999773,0.066084,0.117429,-1.639737
3.277499999999975,0.060914,0.115997,-1.63573
3.2799999999999727,0.058667,0.116301,-1.635155
3.2824999999999704,0.052785,0.113938,-1.635925
3.284999999999968,0.053962,0.111393,-1.63337
3.2875000000000227,0.044393,0.111751,-1.625868
3.2900000000000205,0.040951,0.113129,-1.623195
3.292500000000018,0.034567,0.111296,-1.618088
3.295000000000016,0.031262,0.111125,-1.614615
3.2975000000000136,0.028553,0.111171,-1.610019
3.300000000000012,0.025506,0.107016,-1.598554
3.302500000000009,0.024497,0.110222,-1.590654
3.305000000000007,0.020982,0.109639,-1.582416
3.3075000000000045,0.019456,0.105082,-1.572327
3.3100000000000023,0.022075,0.102449,-1.562197
3.3125,0.016484,0.105215,-1.552726
3.3149999999999977,0.015398,0.094662,-1.543319
3.3174999999999955,0.016245,0.093113,-1.530858
3.319999999999993,0.017464,0.092098,-1.520334
3.322499999999991,0.01427,0.085727,-1.507218
3.3249999999999886,0.013451,0.082441,-1.497961
3.3274999999999864,0.011832,0.081918,-1.483067
3.329999999999984,0.007284,0.086417,-1.472261
3.332499999999982,0.007584,0.083969,-1.455069
3.3349999999999795,0.008824,0.07751,-1.440664
3.3374999999999773,0.005002,0.080998,-1.423516
3.339999999999975,0.002317,0.079931,-1.408268
3.3424999999999727,-0.003374,0.083794,-1.394973
3.3449999999999704,-0.004324,0.083546,-1.377606
3.347499999999968,-0.002652,0.081266,-1.355069
3.3500000000000227,-0.007129,0.081771,-1.345376
3.3525000000000205,-0.009263,0.086074,-1.323118
3.355000000000018,-0.010708,0.087998,-1.304119
3.357500000000016,-0.013426,0.085177,-1.283564
3.3600000000000136,-0.01563,0.088254,-1.266555
3.362500000000012,-0.016199,0.086907,-1.245036
3.365000000000009,-0.016823,0.089221,-1.224132
3.367500000000007,-0.020064,0.088546,-1.19901
3.3700000000000045,-0.019385,0.089944,-1.179585
3.3725000000000023,-0.017545,0.089417,-1.150048
3.375,-0.023898,0.089004,-1.127547
3.3774999999999977,-0.0219,0.083969,-1.100313
3.3799999999999955,-0.018997,0.085966,-1.072225
3.382499999999993,-0.0255,0.088131,-1.041566
3.384999999999991,-0.026116,0.085311,-1.014273
3.3874999999999886,-0.027771,0.086079,-0.98514
3.3899999999999864,-0.02633,0.079293,-0.952411
3.392499999999984,-0.027511,0.081067,-0.921902
3.394999999999982,-0.026561,0.080679,-0.893766
3.3974999999999795,-0.026473,0.078391,-0.864741
3.3999999999999773,-0.02816,0.074514,-0.831206
3.402499999999975,-0.028996,0.076989,-0.79972
3.4049999999999727,-0.025889,0.071793,-0.767818
3.4074999999999704,-0.027043,0.072768,-0.734326
3.409999999999968,-0.029486,0.074289,-0.703177
3.4125000000000227,-0.029698,0.070859,-0.668232
3.4150000000000205,-0.030024,0.068983,-0.638907
3.417500000000018,-0.029859,0.06647,-0.60548
3.420000000000016,-0.032677,0.063183,-0.575912
3.4225000000000136,-0.030126,0.06659,-0.53872
3.425000000000012,-0.029498,0.060635,-0.507751
3.427500000000009,-0.029837,0.062575,-0.471266
3.430000000000007,-0.032315,0.058413,-0.437841
3.4325000000000045,-0.031294,0.060674,-0.403018
3.4350000000000023,-0.02691,0.049037,-0.368908
3.4375,-0.028566,0.045979,-0.335394
3.4399999999999977,-0.029887,0.046312,-0.298005
3.4424999999999955,-0.030538,0.037945,-0.266555
3.444999999999993,-0.025496,0.034631,-0.23035
3.447499999999991,-0.022413,0.030931,-0.191769
3.4499999999999886,-0.02389,0.028906,-0.160488
3.4524999999999864,-0.020745,0.021665,-0.123914
3.454999999999984,-0.018638,0.022354,-0.087176
3.457499999999982,-0.015922,0.017872,-0.051193
3.4599999999999795,-0.021057,0.011007,-0.016409
3.4624999999999773,-0.014083,0.011437,0.014902
3.464999999999975,-0.012022,0.007869,0.050741
3.4674999999999727,-0.012231,0.002167,0.086943
3.4699999999999704,-0.010401,-0.002632,0.112569
3.472499999999968,-0.00897,-0.003505,0.148817
3.4750000000000227,-0.007993,-0.007181,0.182644
3.4775000000000205,-0.003959,-0.010101,0.212906
3.480000000000018,-0.000319,-0.012681,0.241319
3.482500000000016,-0.001919,-0.019518,0.271662
3.4850000000000136,-0.001687,-0.023915,0.304351
3.487500000000012,0.004487,-0.026449,0.330116
3.490000000000009,0.005025,-0.032081,0.361336
3.492500000000007,0.005623,-0.036678,0.390314
3.4950000000000045,0.009044,-0.041178,0.417937
3.4975000000000023,0.012342,-0.045885,0.445753
3.5,0.01519,-0.057174,0.472477
3.5024999999999977,0.013569,-0.058833,0.500928
3.5049999999999955,0.016446,-0.066777,0.5294
3.507499999999993,0.017586,-0.075862,0.552157
3.509999999999991,0.01941,-0.082685,0.580291
3.5124999999999886,0.023193,-0.091131,0.605486
3.5149999999999864,0.020324,-0.10258,0.632481
3.517499999999984,0.021639,-0.105706,0.656486
3.519999999999982,0.023881,-0.114633,0.677108
3.5224999999999795,0.023804,-0.120994,0.703757
3.5249999999999773,0.025479,-0.129478,0.730414
3.527499999999975,0.028991,-0.136334,0.754769
3.5299999999999727,0.027507,-0.145812,0.774647
3.5324999999999704,0.027166,-0.149836,0.799918
3.534999999999968,0.032101,-0.156868,0.821888
3.5375000000000227,0.030717,-0.163041,0.845304
3.5400000000000205,0.03131,-0.172673,0.8659
3.542500000000018,0.035266,-0.17896,0.888477
3.545000000000016,0.036002,-0.191228,0.911727
3.5475000000000136,0.038456,-0.194475,0.929632
3.550000000000012,0.040642,-0.202119,0.949367
3.552500000000009,0.041959,-0.211501,0.968186
3.555000000000007,0.038113,-0.221676,0.987757
3.5575000000000045,0.04364,-0.226502,1.006776
3.5600000000000023,0.044928,-0.232273,1.024036
3.5625,0.046086,-0.240276,1.045087
3.5649999999999977,0.048026,-0.25152,1.066142
3.5674999999999955,0.049267,-0.253119,1.08089
3.569999999999993,0.052947,-0.257784,1.101008
3.572499999999991,0.052279,-0.268045,1.114042
3.5749999999999886,0.053877,-0.267686,1.132433
3.5774999999999864,0.051486,-0.27452,1.147198
3.579999999999984,0.054199,-0.277461,1.165045
3.582499999999982,0.0538,-0.280286,1.182702
3.5849999999999795,0.052883,-0.282662,1.198131
3.5874999999999773,0.056299,-0.279333,1.213717
3.589999999999975,0.053614,-0.278618,1.227747
3.5924999999999727,0.054828,-0.281294,1.242362
3.5949999999999704,0.052839,-0.27595,1.257364
3.597499999999968,0.057973,-0.269845,1.273773
3.6000000000000227,0.061395,-0.270249,1.282976
3.6025000000000205,0.057561,-0.268625,1.299542
3.605000000000018,0.059884,-0.259705,1.30917
3.607500000000016,0.057555,-0.258699,1.323971
3.6100000000000136,0.059431,-0.259774,1.339453
3.6125000000000114,0.059176,-0.257218,1.350377
3.615000000000009,0.059123,-0.258409,1.364814
3.617500000000007,0.060921,-0.257142,1.37419
3.620000000000005,0.062206,-0.255799,1.387855
3.6225000000000014,0.066001,-0.254613,1.399174
3.625,0.062848,-0.254482,1.411904
3.6274999999999977,0.064985,-0.251061,1.420508
3.629999999999996,0.064575,-0.247313,1.435642
3.632499999999993,0.068157,-0.245238,1.440197
3.634999999999991,0.068147,-0.245625,1.450701
3.6374999999999886,0.069382,-0.242429,1.459347
3.6399999999999855,0.067466,-0.244174,1.466377
3.642499999999984,0.067798,-0.240736,1.475766
3.644999999999982,0.063825,-0.236002,1.482637
3.64749999999998,0.063888,-0.236571,1.48847
3.649999999999977,0.062411,-0.235352,1.494782
3.652499999999975,0.060121,-0.235126,1.498358
3.6549999999999727,0.057378,-0.234223,1.503681
3.6574999999999696,0.060131,-0.229478,1.507689
3.659999999999968,0.054712,-0.228624,1.512374
3.662500000000023,0.052203,-0.225558,1.522653
3.665000000000021,0.049239,-0.221643,1.525571
3.667500000000018,0.047281,-0.219481,1.530411
3.670000000000016,0.041997,-0.218027,1.53786
3.6725000000000136,0.042518,-0.221162,1.543395
3.6750000000000114,0.038943,-0.211664,1.548942
3.677500000000009,0.032265,-0.21061,1.55886
3.680000000000007,0.030991,-0.209147,1.564585
3.682500000000005,0.024437,-0.207734,1.568857
3.6850000000000014,0.020222,-0.207922,1.575938
3.6875,0.010312,-0.200915,1.582806
3.6899999999999977,0.002199,-0.199843,1.586408
3.692499999999996,0.000959,-0.201206,1.592681
3.694999999999993,-0.004607,-0.190163,1.595808
3.697499999999991,-0.01124,-0.191262,1.599448
3.6999999999999886,-0.014704,-0.186882,1.598472
3.7024999999999855,-0.022627,-0.180389,1.600106
3.704999999999984,-0.027896,-0.177043,1.604427
3.707499999999982,-0.035048,-0.175524,1.603456
3.70999999999998,-0.039753,-0.16828,1.604911
3.712499999999977,-0.045666,-0.167503,1.607058
3.714999999999975,-0.050359,-0.166293,1.607104
3.7174999999999727,-0.052899,-0.156945,1.602887
3.7199999999999696,-0.061793,-0.154262,1.608891
3.722499999999968,-0.06617,-0.148659,1.607439
3.725000000000023,-0.069229,-0.144474,1.61126
3.727500000000021,-0.074124,-0.142379,1.614625
3.730000000000018,-0.075378,-0.139409,1.613346
3.732500000000016,-0.080706,-0.13337,1.614827
3.7350000000000136,-0.085568,-0.130348,1.617696
3.7375000000000114,-0.086826,-0.125179,1.619123
3.740000000000009,-0.091896,-0.121483,1.613683
3.742500000000007,-0.096108,-0.11781,1.618566
3.745000000000005,-0.098682,-0.114842,1.616116
3.7475000000000014,-0.103474,-0.111525,1.615058
3.75,-0.109975,-0.112811,1.614085
3.7524999999999977,-0.113165,-0.102915,1.611881
3.754999999999996,-0.119689,-0.103669,1.60726
3.757499999999993,-0.122346,-0.098622,1.604461
3.759999999999991,-0.130595,-0.094327,1.602708
3.7624999999999886,-0.139113,-0.095178,1.594645
3.7649999999999855,-0.143376,-0.08779,1.590713
3.767499999999984,-0.150871,-0.088017,1.58536
3.769999999999982,-0.156322,-0.086568,1.578382
3.77249999999998,-0.16662,-0.08101,1.574704
3.774999999999977,-0.168932,-0.080758,1.568242
3.777499999999975,-0.175645,-0.080186,1.5609
3.7799999999999727,-0.179601,-0.077485,1.554391
3.7824999999999696,-0.183447,-0.080639,1.544921
3.784999999999968,-0.188984,-0.082348,1.53876
3.787500000000023,-0.192356,-0.08319,1.535237
3.790000000000021,-0.191413,-0.077631,1.531255
3.792500000000018,-0.199822,-0.076762,1.52079
3.795000000000016,-0.199109,-0.077441,1.51999
3.7975000000000136,-0.203507,-0.074065,1.515135
3.8000000000000114,-0.206991,-0.074211,1.509398
3.802500000000009,-0.208241,-0.073765,1.503903
3.805000000000007,-0.210804,-0.068907,1.50007
3.807500000000005,-0.211495,-0.064945,1.48996
3.8100000000000014,-0.214115,-0.062279,1.483692
3.8125,-0.213374,-0.058512,1.474713
3.8149999999999977,-0.217766,-0.054736,1.465565
3.817499999999996,-0.214477,-0.058617,1.458606
3.819999999999993,-0.220932,-0.056854,1.451413
3.822499999999991,-0.224333,-0.051178,1.441175
3.8249999999999886,-0.223701,-0.054531,1.428959
3.8274999999999855,-0.228794,-0.05424,1.424128
3.829999999999984,-0.232723,-0.048649,1.407406
3.832499999999982,-0.230824,-0.045833,1.399781
3.83499999999998,-0.235869,-0.044258,1.390274
3.837499999999977,-0.23887,-0.047281,1.379707
3.839999999999975,-0.239711,-0.04352,1.364754
3.8424999999999727,-0.242596,-0.037548,1.354019
3.8449999999999696,-0.247159,-0.037212,1.341561
3.847499999999968,-0.246942,-0.035621,1.331177
3.850000000000023,-0.253457,-0.039403,1.31759
3.852500000000021,-0.254917,-0.037928,1.301889
3.855000000000018,-0.257163,-0.037323,1.288165
3.857500000000016,-0.260326,-0.035782,1.269734
3.8600000000000136,-0.263013,-0.037339,1.257656
3.8625000000000114,-0.260592,-0.039206,1.238781
3.865000000000009,-0.262588,-0.044523,1.226669
3.867500000000007,-0.257746,-0.048171,1.209075
3.870000000000005,-0.258601,-0.04532,1.195019
3.8725000000000014,-0.260396,-0.047477,1.181429
3.875,-0.258793,-0.046693,1.161317
3.8774999999999977,-0.2602,-0.057346,1.144845
3.879999999999996,-0.253555,-0.051346,1.12853
3.882499999999993,-0.256385,-0.054161,1.110859
3.884999999999991,-0.252926,-0.058103,1.093755
3.8874999999999886,-0.253764,-0.059097,1.073496
3.8899999999999855,-0.250849,-0.063743,1.053103
3.892499999999984,-0.249542,-0.068231,1.029767
3.894999999999982,-0.245759,-0.073002,1.005871
3.89749999999998,-0.241305,-0.070941,0.982055
3.899999999999977,-0.242198,-0.073151,0.957518
3.902499999999975,-0.240637,-0.077543,0.9314
3.9049999999999727,-0.241762,-0.081183,0.907894
3.9074999999999696,-0.231968,-0.085013,0.883556
3.909999999999968,-0.231966,-0.087351,0.858643
3.912500000000023,-0.231594,-0.093664,0.833457
3.915000000000021,-0.223987,-0.094928,0.806972
3.917500000000018,-0.223278,-0.099504,0.781118
3.920000000000016,-0.220105,-0.104082,0.754716
3.9225000000000136,-0.213712,-0.10256,0.728265
3.9250000000000114,-0.208356,-0.107886,0.703938
3.927500000000009,-0.201596,-0.111805,0.679689
3.930000000000007,-0.197515,-0.11349,0.655482
3.932500000000005,-0.192425,-0.113827,0.629663
3.9350000000000014,-0.188024,-0.114267,0.602614
3.9375,-0.180808,-0.118175,0.578993
3.9399999999999977,-0.171898,-0.121263,0.552695
3.942499999999996,-0.166002,-0.120002,0.524954
3.944999999999993,-0.1596,-0.122212,0.499172
3.947499999999991,-0.148022,-0.127119,0.475291
3.9499999999999886,-0.141612,-0.127311,0.445682
3.9524999999999855,-0.129724,-0.126505,0.415114
3.954999999999984,-0.12065,-0.127518,0.385373
3.957499999999982,-0.112395,-0.129515,0.358676
3.95999999999998,-0.102237,-0.127937,0.327375
3.962499999999977,-0.091331,-0.127761,0.298504
3.964999999999975,-0.080346,-0.12943,0.269287
3.9674999999999727,-0.067125,-0.131133,0.242309
3.9699999999999696,-0.055678,-0.126556,0.21132
3.972499999999968,-0.044954,-0.128359,0.18265
3.975000000000023,-0.031297,-0.125632,0.154685
3.977500000000021,-0.018269,-0.125512,0.123756
3.980000000000018,-0.006621,-0.122254,0.093084
3.982500000000016,0.003279,-0.124645,0.065278
3.9850000000000136,0.020168,-0.117692,0.034399
3.9875000000000114,0.031488,-0.114374,0.006817
3.990000000000009,0.046911,-0.115784,-0.021987
3.992500000000007,0.059132,-0.111569,-0.05381
3.995000000000005,0.074147,-0.110599,-0.082421
3.9975000000000014,0.091059,-0.112119,-0.111037
4.0,0.104298,-0.11027,-0.140543
4.002499999999998,0.115543,-0.109331,-0.167818
4.004999999999996,0.129025,-0.103758,-0.196482
4.007499999999993,0.140242,-0.107369,-0.224432
4.009999999999991,0.15384,-0.103392,-0.255664
4.012499999999989,0.170145,-0.102934,-0.285476
4.014999999999986,0.175809,-0.101793,-0.314072
4.017499999999984,0.189904,-0.097096,-0.340876
4.019999999999982,0.203357,-0.096862,-0.369374
4.02249999999998,0.213241,-0.093645,-0.397351
4.024999999999977,0.222641,-0.094771,-0.424781
4.027499999999975,0.230976,-0.087403,-0.451608
4.029999999999973,0.23846,-0.083068,-0.482546
4.03249999999997,0.251897,-0.079452,-0.504984
4.034999999999968,0.258321,-0.075488,-0.532822
4.037500000000023,0.26825,-0.068158,-0.557654
4.0400000000000205,0.276279,-0.0653,-0.584163
4.042500000000018,0.282907,-0.055063,-0.608753
4.045000000000016,0.290316,-0.04845,-0.637029
4.047500000000014,0.297111,-0.046805,-0.659359
4.050000000000011,0.300407,-0.035194,-0.686248
4.052500000000009,0.309715,-0.025906,-0.709397
4.055000000000007,0.312399,-0.016716,-0.737104
4.0575000000000045,0.319787,-0.010309,-0.760675
4.060000000000002,0.323669,0.000793,-0.782693
4.0625,0.330707,0.011244,-0.80964
4.064999999999998,0.332999,0.018249,-0.835914
4.067499999999996,0.337487,0.030737,-0.858592
4.069999999999993,0.341351,0.042067,-0.880479
4.072499999999991,0.349072,0.0513,-0.902273
4.074999999999989,0.350327,0.060188,-0.927328
4.077499999999986,0.353625,0.065244,-0.954068
4.079999999999984,0.358734,0.078281,-0.978214
4.082499999999982,0.357201,0.087749,-0.996891
4.08499999999998,0.356861,0.095078,-1.021824
4.087499999999977,0.360289,0.109533,-1.040468
4.089999999999975,0.366423,0.117765,-1.065858
4.092499999999973,0.361777,0.12463,-1.086757
4.09499999999997,0.36794,0.135186,-1.108164
4.097499999999968,0.368301,0.146038,-1.127258
4.100000000000023,0.366343,0.15548,-1.148957
4.1025000000000205,0.363066,0.166566,-1.168932
4.105000000000018,0.363665,0.173389,-1.193834
4.107500000000016,0.362356,0.184892,-1.21061
4.110000000000014,0.360846,0.191552,-1.227402
4.112500000000011,0.356882,0.200584,-1.249625
4.115000000000009,0.353142,0.206549,-1.270165
4.117500000000007,0.348764,0.217385,-1.288769
4.1200000000000045,0.344528,0.23028,-1.306751
4.122500000000002,0.343039,0.238707,-1.324616
4.125,0.33686,0.251904,-1.342138
4.127499999999998,0.331789,0.26036,-1.3583
4.129999999999996,0.325582,0.270372,-1.376235
4.132499999999993,0.32619,0.278942,-1.397317
4.134999999999991,0.319181,0.285227,-1.411416
4.137499999999989,0.31314,0.293697,-1.429116
4.139999999999986,0.299292,0.304745,-1.442713
4.142499999999984,0.297616,0.308352,-1.458743
4.144999999999982,0.289902,0.315266,-1.474994
4.14749999999998,0.286216,0.320641,-1.493027
4.149999999999977,0.278396,0.330726,-1.504093
4.152499999999975,0.268495,0.337412,-1.518429
4.154999999999973,0.259377,0.33794,-1.533518
4.15749999999997,0.253102,0.34229,-1.548999
4.159999999999968,0.240807,0.348746,-1.563699
4.162500000000023,0.231233,0.357274,-1.573576
4.1650000000000205,0.225315,0.360529,-1.593262
4.167500000000018,0.216905,0.366593,-1.604683
4.170000000000016,0.208641,0.371371,-1.619285
4.172500000000014,0.199945,0.373443,-1.631382
4.175000000000011,0.189505,0.382962,-1.645735
4.177500000000009,0.180055,0.387102,-1.653737
4.180000000000007,0.172021,0.38762,-1.66159
4.1825000000000045,0.1638,0.395615,-1.676103
4.185000000000002,0.15324,0.400768,-1.685682
4.1875,0.143504,0.398871,-1.690592
4.189999999999998,0.137913,0.405769,-1.696205
4.192499999999996,0.130326,0.404994,-1.706058
4.194999999999993,0.122229,0.411583,-1.714495
4.197499999999991,0.115337,0.412577,-1.719414
4.199999999999989,0.104676,0.415641,-1.723912
4.202499999999986,0.101417,0.416158,-1.729742
4.204999999999984,0.094739,0.416186,-1.735605
4.207499999999982,0.086915,0.421495,-1.738593
4.20999999999998,0.077108,0.42317,-1.745693
4.212499999999977,0.06749,0.421369,-1.744726
4.214999999999975,0.064649,0.42736,-1.755646
4.217499999999973,0.056358,0.425334,-1.753402
4.21999999999997,0.048431,0.425079,-1.760162
4.222499999999968,0.039362,0.424482,-1.763214
4.225000000000023,0.033497,0.426784,-1.766418
4.2275000000000205,0.027884,0.424535,-1.770479
4.230000000000018,0.01963,0.423258,-1.772389
4.232500000000016,0.014917,0.422443,-1.77785
4.235000000000014,0.007365,0.421536,-1.780643
4.237500000000011,0.001261,0.416492,-1.782829
4.240000000000009,-0.005493,0.413243,-1.785649
4.242500000000007,-0.011669,0.409141,-1.790179
4.2450000000000045,-0.014831,0.408753,-1.787086
4.247500000000002,-0.02141,0.402657,-1.787227
4.25,-0.022228,0.39657,-1.789473
4.252499999999998,-0.029428,0.38872,-1.787318
4.254999999999996,-0.034168,0.382775,-1.79138
4.257499999999993,-0.039823,0.379701,-1.788031
4.259999999999991,-0.041284,0.371496,-1.787396
4.262499999999989,-0.04648,0.364534,-1.780368
4.264999999999986,-0.050707,0.360313,-1.778755
4.267499999999984,-0.05465,0.354194,-1.77419
4.269999999999982,-0.058524,0.344251,-1.769805
4.27249999999998,-0.065522,0.337463,-1.764038
4.274999999999977,-0.065668,0.334167,-1.760225
4.277499999999975,-0.070439,0.328196,-1.755683
4.279999999999973,-0.075822,0.319559,-1.747349
4.28249999999997,-0.075273,0.311292,-1.744929
4.284999999999968,-0.079889,0.310646,-1.737448
4.287500000000023,-0.07886,0.300554,-1.731454
4.2900000000000205,-0.079164,0.296062,-1.723117
4.292500000000018,-0.082809,0.285394,-1.713653
4.295000000000016,-0.078732,0.279469,-1.707578
4.297500000000014,-0.084186,0.267159,-1.698655
4.300000000000011,-0.084311,0.259648,-1.689279
4.302500000000009,-0.087015,0.250533,-1.681332
4.305000000000007,-0.086151,0.242729,-1.673221
4.3075000000000045,-0.083198,0.231699,-1.658603
4.310000000000002,-0.082578,0.22048,-1.647125
4.3125,-0.086005,0.212956,-1.635994
4.314999999999998,-0.084604,0.199343,-1.625532
4.317499999999996,-0.083217,0.189728,-1.61329
4.319999999999993,-0.082068,0.17548,-1.600407
4.322499999999991,-0.086233,0.166702,-1.589873
4.324999999999989,-0.083186,0.151237,-1.573789
4.327499999999986,-0.079592,0.135795,-1.558572
4.329999999999984,-0.07661,0.123476,-1.542627
4.332499999999982,-0.07488,0.112296,-1.5308
4.33499999999998,-0.077061,0.098775,-1.514565
4.337499999999977,-0.077181,0.085617,-1.499171
4.339999999999975,-0.071378,0.075631,-1.486658
4.342499999999973,-0.068504,0.065488,-1.467504
4.34499999999997,-0.065933,0.053214,-1.450735
4.347499999999968,-0.064625,0.042271,-1.429557
4.350000000000023,-0.066184,0.030055,-1.408967
4.3525000000000205,-0.063014,0.019179,-1.390196
4.355000000000018,-0.063941,0.006529,-1.370224
4.357500000000016,-0.059506,-0.000763,-1.348062
4.360000000000014,-0.058538,-0.011306,-1.326694
4.362500000000011,-0.059003,-0.021108,-1.306907
4.365000000000009,-0.057974,-0.030571,-1.281156
4.367500000000007,-0.059891,-0.041845,-1.258082
4.3700000000000045,-0.060815,-0.051072,-1.232149
4.372500000000002,-0.059547,-0.053774,-1.208447
4.375,-0.058647,-0.061624,-1.186364
4.377499999999998,-0.058244,-0.065261,-1.161306
4.379999999999996,-0.060016,-0.0774,-1.138384
4.382499999999993,-0.058218,-0.084334,-1.111309
4.384999999999991,-0.062907,-0.087906,-1.082115
4.387499999999989,-0.060125,-0.095095,-1.057294
4.389999999999986,-0.062495,-0.102372,-1.034683
4.392499999999984,-0.061141,-0.108235,-1.006897
4.394999999999982,-0.06288,-0.118236,-0.981146
4.39749999999998,-0.065236,-0.123282,-0.956688
4.399999999999977,-0.061439,-0.129318,-0.927839
4.402499999999975,-0.06178,-0.132251,-0.900029
4.404999999999973,-0.059642,-0.142092,-0.870414
4.40749999999997,-0.060692,-0.144696,-0.836954
4.409999999999968,-0.058488,-0.146537,-0.813245
4.412500000000023,-0.059277,-0.155479,-0.783256
4.4150000000000205,-0.060754,-0.161073,-0.753324
4.417500000000018,-0.057002,-0.167742,-0.722505
4.420000000000016,-0.059682,-0.169615,-0.690217
4.422500000000014,-0.060144,-0.174011,-0.6602
4.425000000000011,-0.058569,-0.175494,-0.626679
4.427500000000009,-0.059062,-0.176883,-0.59716
4.430000000000007,-0.0571,-0.182091,-0.565191
4.4325000000000045,-0.056912,-0.190681,-0.533781
4.435000000000002,-0.054234,-0.193056,-0.502583
4.4375,-0.057544,-0.201045,-0.468931
4.439999999999998,-0.053537,-0.20171,-0.436327
4.442499999999996,-0.055045,-0.207599,-0.402555
4.444999999999993,-0.051077,-0.211129,-0.373803
4.447499999999991,-0.050583,-0.216609,-0.340168
4.449999999999989,-0.050084,-0.220509,-0.30919
4.452499999999986,-0.047661,-0.2223,-0.276244
4.454999999999984,-0.044164,-0.226913,-0.23817
4.457499999999982,-0.043932,-0.228161,-0.206429
4.45999999999998,-0.045468,-0.229068,-0.173852
4.462499999999977,-0.040269,-0.230321,-0.14167
4.464999999999975,-0.039187,-0.23267,-0.109042
4.467499999999973,-0.040032,-0.240594,-0.077115
4.46999999999997,-0.034282,-0.240394,-0.042914
4.472499999999968,-0.039655,-0.239247,-0.010933
4.475000000000023,-0.036739,-0.240245,0.025129
4.4775000000000205,-0.035556,-0.242169,0.053347
4.480000000000018,-0.03379,-0.243792,0.084611
4.482500000000016,-0.035064,-0.245628,0.117562
4.485000000000014,-0.032397,-0.244363,0.151045
4.487500000000011,-0.032835,-0.248329,0.183318
4.490000000000009,-0.035615,-0.246975,0.210965
4.492500000000007,-0.035901,-0.242087,0.241859
4.4950000000000045,-0.035445,-0.243562,0.274264
4.497500000000002,-0.032349,-0.24429,0.305644
4.5,-0.03259,-0.239384,0.333992
4.502499999999998,-0.031973,-0.238836,0.365231
4.504999999999996,-0.029948,-0.240529,0.394135
4.507499999999993,-0.032675,-0.238146,0.421346
4.509999999999991,-0.030683,-0.239953,0.45106
4.512499999999989,-0.029454,-0.236304,0.476588
4.514999999999986,-0.024527,-0.23717,0.503642
4.517499999999984,-0.023006,-0.232056,0.529854
4.519999999999982,-0.023478,-0.231259,0.556768
4.52249999999998,-0.018558,-0.227529,0.584946
4.524999999999977,-0.021717,-0.228284,0.612909
4.527499999999975,-0.018282,-0.227794,0.639565
4.529999999999973,-0.018729,-0.228433,0.665867
4.53249999999997,-0.016688,-0.226884,0.68754
4.534999999999968,-0.01398,-0.22926,0.713682
4.537500000000023,-0.009954,-0.226195,0.734022
4.5400000000000205,-0.008942,-0.229813,0.760109
4.542500000000018,-0.006348,-0.233427,0.782586
4.545000000000016,-0.004494,-0.235048,0.803525
4.547500000000014,-0.003979,-0.236696,0.825766
4.550000000000011,-0.0002,-0.23737,0.847463
4.552500000000009,0.005981,-0.240283,0.868098
4.555000000000007,0.00783,-0.240374,0.889135
4.5575000000000045,0.005709,-0.238635,0.904266
4.560000000000002,0.010967,-0.244866,0.926843
4.5625,0.012114,-0.248368,0.94577
4.564999999999998,0.013635,-0.250433,0.961737
4.567499999999996,0.016134,-0.251591,0.983071
4.569999999999993,0.012893,-0.24726,0.997553
4.572499999999991,0.018566,-0.245877,1.019179
4.574999999999989,0.017713,-0.247774,1.034835
4.577499999999986,0.019963,-0.247932,1.047612
4.579999999999984,0.021927,-0.248559,1.062587
4.582499999999982,0.021993,-0.247905,1.079981
4.58499999999998,0.026948,-0.250347,1.091826
4.587499999999977,0.023792,-0.247474,1.111623
4.589999999999975,0.027182,-0.249662,1.125718
4.592499999999973,0.025623,-0.245297,1.139775
4.59499999999997,0.028109,-0.250271,1.155568
4.597499999999968,0.031649,-0.245932,1.171644
4.600000000000023,0.030457,-0.246076,1.185378
4.6025000000000205,0.032208,-0.244634,1.199467
4.605000000000018,0.032953,-0.248179,1.212732
4.607500000000016,0.032482,-0.24804,1.226872
4.610000000000014,0.033589,-0.248478,1.241679
4.612500000000011,0.034938,-0.248911,1.253712
4.615000000000009,0.033041,-0.249818,1.26775
4.617500000000007,0.032989,-0.250718,1.280972
4.6200000000000045,0.032827,-0.249779,1.293295
4.622500000000002,0.029341,-0.250413,1.30367
4.625,0.033634,-0.249438,1.31965
4.627499999999998,0.028945,-0.251539,1.330608
4.629999999999996,0.025583,-0.248981,1.344766
4.632499999999993,0.027136,-0.247781,1.35881
4.634999999999991,0.024379,-0.248446,1.372175
4.637499999999989,0.022141,-0.241657,1.384214
4.639999999999986,0.019326,-0.241371,1.393864
4.642499999999984,0.017742,-0.240928,1.409574
4.644999999999982,0.014035,-0.238329,1.422385
4.64749999999998,0.011916,-0.237969,1.432264
4.649999999999977,0.00673,-0.233461,1.443714
4.652499999999975,0.00637,-0.23382,1.45607
4.654999999999973,0.006288,-0.236626,1.468739
4.65749999999997,-0.002646,-0.230107,1.481682
4.659999999999968,-0.004441,-0.228827,1.489899
4.662500000000023,-0.006892,-0.226243,1.501756
4.6650000000000205,-0.0089,-0.22694,1.508413
4.667500000000018,-0.013368,-0.228916,1.520889
4.670000000000016,-0.013827,-0.226259,1.530282
4.672500000000014,-0.019859,-0.228338,1.538006
4.675000000000011,-0.025816,-0.231143,1.544063
4.677500000000009,-0.026612,-0.228973,1.552609
4.680000000000007,-0.02881,-0.233758,1.563801
4.6825000000000045,-0.032897,-0.230822,1.57086
4.685000000000002,-0.034764,-0.23377,1.581659
4.6875,-0.038365,-0.23295,1.58882
4.689999999999998,-0.041394,-0.234899,1.596949
4.692499999999996,-0.044188,-0.237487,1.60892
4.694999999999993,-0.048447,-0.235892,1.618106
4.697499999999991,-0.051312,-0.234418,1.629776
4.699999999999989,-0.055413,-0.232601,1.640457
4.702499999999986,-0.059788,-0.235646,1.648646
4.704999999999984,-0.06223,-0.23718,1.662394
4.707499999999982,-0.062953,-0.235447,1.667978
4.70999999999998,-0.069193,-0.239816,1.677996
4.712499999999977,-0.074109,-0.235076,1.688186
4.714999999999975,-0.076841,-0.236361,1.696738
4.717499999999973,-0.077789,-0.241995,1.706552
4.71999999999997,-0.086352,-0.240003,1.71318
4.722499999999968,-0.08962,-0.239632,1.71688
4.725000000000023,-0.09215,-0.242003,1.722985
4.7275000000000205,-0.098176,-0.247376,1.725396
4.730000000000018,-0.103146,-0.245057,1.728739
4.732500000000016,-0.103325,-0.251137,1.733098
4.735000000000014,-0.109391,-0.253418,1.735585
4.737500000000011,-0.116,-0.255496,1.734403
4.740000000000009,-0.118154,-0.257716,1.737992
4.742500000000007,-0.121719,-0.258185,1.739868
4.7450000000000045,-0.126507,-0.266297,1.742242
4.747500000000002,-0.131002,-0.267792,1.742252
4.75,-0.133057,-0.26362,1.73884
4.752499999999998,-0.13741,-0.266233,1.739497
4.754999999999996,-0.1386,-0.265068,1.73995
4.757499999999993,-0.14289,-0.267235,1.737667
4.759999999999991,-0.147736,-0.265381,1.738892
4.762499999999989,-0.149498,-0.262575,1.736872
4.764999999999986,-0.150417,-0.263667,1.733211
4.767499999999984,-0.158801,-0.262789,1.731641
4.769999999999982,-0.161502,-0.262049,1.729398
4.77249999999998,-0.161001,-0.257945,1.726613
4.774999999999977,-0.168736,-0.255102,1.724032
4.777499999999975,-0.172173,-0.252041,1.725475
4.779999999999973,-0.171258,-0.250718,1.719477
4.78249999999997,-0.173238,-0.250344,1.716889
4.784999999999968,-0.174031,-0.249674,1.712376
4.787500000000023,-0.176446,-0.247811,1.711278
4.7900000000000205,-0.178586,-0.249635,1.705219
4.792500000000018,-0.178036,-0.245123,1.703726
4.795000000000016,-0.181286,-0.244878,1.699401
4.797500000000014,-0.183217,-0.244594,1.688959
4.800000000000011,-0.182246,-0.240605,1.687933
4.802500000000009,-0.186502,-0.242506,1.679288
4.805000000000007,-0.186362,-0.241405,1.671336
4.8075000000000045,-0.186503,-0.239259,1.658674
4.810000000000002,-0.186643,-0.233217,1.650362
4.8125,-0.189136,-0.232357,1.641142
4.814999999999998,-0.187734,-0.230628,1.628279
4.817499999999996,-0.188695,-0.227317,1.617778
4.819999999999993,-0.188707,-0.226504,1.601018
4.822499999999991,-0.18933,-0.220129,1.58659
4.824999999999989,-0.190731,-0.216393,1.570909
4.827499999999986,-0.189947,-0.216231,1.556495
4.829999999999984,-0.188652,-0.213239,1.53973
4.832499999999982,-0.190775,-0.206056,1.521659
4.83499999999998,-0.188677,-0.197904,1.505199
4.837499999999977,-0.18606,-0.19611,1.491071
4.839999999999975,-0.186478,-0.19391,1.471432
4.842499999999973,-0.183004,-0.190982,1.449043
4.84499999999997,-0.180747,-0.18898,1.42706
4.847499999999968,-0.181696,-0.188545,1.406321
4.850000000000023,-0.178166,-0.183274,1.385853
4.8525000000000205,-0.173257,-0.181346,1.362946
4.855000000000018,-0.171009,-0.182788,1.343189
4.857500000000016,-0.16603,-0.179286,1.320211
4.860000000000014,-0.162971,-0.179553,1.299181
4.862500000000011,-0.156052,-0.17703,1.276998
4.865000000000009,-0.153285,-0.177571,1.250222
4.867500000000007,-0.144997,-0.173874,1.224214
4.8700000000000045,-0.145447,-0.170474,1.201333
4.872500000000002,-0.137484,-0.166276,1.178609
4.875,-0.132266,-0.16551,1.151985
4.877499999999998,-0.125118,-0.159031,1.126453
4.879999999999996,-0.120243,-0.156207,1.101294
4.882499999999993,-0.113109,-0.151648,1.074531
4.884999999999991,-0.107743,-0.145958,1.043444
4.887499999999989,-0.100516,-0.135863,1.015371
4.889999999999986,-0.089406,-0.136577,0.984102
4.892499999999984,-0.086519,-0.124823,0.956648
4.894999999999982,-0.079903,-0.120203,0.923605
4.89749999999998,-0.072598,-0.114359,0.894118
4.899999999999977,-0.066419,-0.109118,0.860865
4.902499999999975,-0.060138,-0.098826,0.82467
4.904999999999973,-0.050581,-0.094584,0.791066
4.90749999999997,-0.043166,-0.087306,0.756086
4.909999999999968,-0.039069,-0.079052,0.718603
4.912500000000023,-0.032367,-0.070839,0.683729
4.9150000000000205,-0.025952,-0.071338,0.643613
4.917500000000018,-0.019696,-0.064565,0.608399
4.920000000000016,-0.009377,-0.055699,0.570115
4.922500000000014,-0.00176,-0.050987,0.533948
4.925000000000011,0.005267,-0.042808,0.493959
4.927500000000009,0.012017,-0.038444,0.456288
4.930000000000007,0.019952,-0.032653,0.417671
4.9325000000000045,0.027815,-0.022529,0.383353
4.935000000000002,0.036757,-0.015964,0.345489
4.9375,0.046685,-0.011539,0.30781
4.939999999999998,0.050264,-0.004044,0.270139
4.942499999999996,0.064067,-0.001346,0.236068
4.944999999999993,0.069735,0.006629,0.194705
4.947499999999991,0.082508,0.013108,0.162029
4.949999999999989,0.093471,0.020341,0.125306
4.952499999999986,0.098277,0.02779,0.088411
4.954999999999984,0.106253,0.036595,0.051283
4.957499999999982,0.117507,0.045054,0.016623
4.95999999999998,0.127619,0.050271,-0.021383
4.962499999999977,0.135257,0.057077,-0.054306
4.964999999999975,0.142568,0.061529,-0.090821
4.967499999999973,0.152392,0.071635,-0.126112
4.96999999999997,0.160069,0.077903,-0.161386
4.972499999999968,0.170433,0.086918,-0.199477
4.975000000000023,0.181835,0.089697,-0.231858
4.9775000000000205,0.190914,0.099445,-0.269286
4.980000000000018,0.199059,0.101899,-0.3052
4.982500000000016,0.21125,0.109089,-0.338782
4.985000000000014,0.219157,0.110007,-0.373393
4.987500000000011,0.230218,0.112977,-0.407314
4.990000000000009,0.239725,0.119476,-0.443934
4.992500000000007,0.247677,0.128008,-0.471763
4.9950000000000045,0.25524,0.128638,-0.504783
4.997500000000002,0.264249,0.133733,-0.542171
5.0,0.273081,0.13637,-0.568695
5.002499999999998,0.281477,0.143856,-0.597848
5.004999999999996,0.291067,0.149948,-0.624502
5.007499999999993,0.296841,0.154667,-0.655867
5.009999999999991,0.305382,0.163185,-0.686064
5.012499999999989,0.310034,0.168475,-0.713325
5.014999999999986,0.318388,0.171358,-0.740415
5.017499999999984,0.327823,0.178739,-0.765893
5.019999999999982,0.336022,0.183249,-0.791885
5.02249999999998,0.338715,0.187568,-0.818555
5.024999999999977,0.343644,0.193251,-0.842567
5.027499999999975,0.350891,0.19885,-0.867955
5.029999999999973,0.356724,0.207434,-0.891574
5.03249999999997,0.360339,0.213239,-0.9187
5.034999999999968,0.364905,0.216419,-0.939945
5.037500000000023,0.368934,0.225581,-0.96108
5.0400000000000205,0.371862,0.234842,-0.983827
5.042500000000018,0.378128,0.243259,-1.00503
5.045000000000016,0.381511,0.246275,-1.027224
5.047500000000014,0.382478,0.258408,-1.048752
5.050000000000011,0.385337,0.265408,-1.069625
5.052500000000009,0.388051,0.275039,-1.087979
5.055000000000007,0.39376,0.283363,-1.109074
5.0575000000000045,0.393424,0.291585,-1.128325
5.060000000000002,0.397161,0.292651,-1.149689
5.0625,0.394915,0.304815,-1.16725
5.064999999999998,0.395846,0.311964,-1.187677
5.067499999999996,0.395809,0.319979,-1.203543
5.069999999999993,0.396929,0.329324,-1.220067
5.072499999999991,0.396553,0.33792,-1.237047
5.074999999999989,0.397612,0.34354,-1.255605
5.077499999999986,0.401006,0.350663,-1.273052
5.079999999999984,0.394892,0.362867,-1.28544
5.082499999999982,0.395986,0.366179,-1.299671
5.08499999999998,0.39529,0.370255,-1.313908
5.087499999999977,0.392954,0.378528,-1.3266
5.089999999999975,0.394099,0.381311,-1.343139
5.092499999999973,0.392101,0.389268,-1.352387
5.09499999999997,0.393903,0.397928,-1.364326
5.097499999999968,0.392103,0.404416,-1.375657
5.100000000000023,0.387625,0.412349,-1.385062
5.1025000000000205,0.389909,0.412632,-1.394069
5.105000000000018,0.386112,0.415146,-1.40839
5.107500000000016,0.384373,0.423084,-1.419065
5.110000000000014,0.383844,0.427235,-1.424389
5.112500000000011,0.380447,0.426809,-1.43433
5.115000000000009,0.376416,0.436388,-1.445731
5.117500000000007,0.374726,0.435711,-1.45523
5.1200000000000045,0.372198,0.435926,-1.46201
5.122500000000002,0.366944,0.436219,-1.472422
5.125,0.364263,0.438882,-1.481571
5.127499999999998,0.358897,0.440077,-1.490333
5.129999999999996,0.354728,0.444147,-1.497949
5.132499999999993,0.350131,0.444223,-1.505416
5.134999999999991,0.349143,0.443275,-1.511664
5.137499999999989,0.344321,0.44598,-1.519747
5.139999999999986,0.338099,0.447207,-1.527288
5.142499999999984,0.329054,0.446178,-1.533534
5.144999999999982,0.323666,0.446257,-1.547443
5.14749999999998,0.319088,0.448659,-1.549835
5.149999999999977,0.312006,0.451688,-1.559254
5.152499999999975,0.30705,0.450536,-1.568235
5.154999999999973,0.297114,0.451161,-1.57279
5.15749999999997,0.288423,0.451163,-1.579417
5.159999999999968,0.282414,0.452598,-1.583254
5.162500000000023,0.273269,0.453527,-1.59052
5.1650000000000205,0.268356,0.451874,-1.599048
5.167500000000018,0.261184,0.453198,-1.604116
5.170000000000016,0.252693,0.449396,-1.609969
5.172500000000014,0.240763,0.44964,-1.617469
5.175000000000011,0.233378,0.451959,-1.620431
5.177500000000009,0.223825,0.453119,-1.626146
5.180000000000007,0.214932,0.450273,-1.631897
5.1825000000000045,0.20785,0.449499,-1.633593
5.185000000000002,0.200821,0.448957,-1.635548
5.1875,0.193877,0.450646,-1.641786
5.189999999999998,0.179441,0.452383,-1.643623
5.192499999999996,0.171594,0.450959,-1.647942
5.194999999999993,0.16202,0.449238,-1.649128
5.197499999999991,0.153267,0.446413,-1.648453
5.199999999999989,0.147653,0.446046,-1.651141
5.202499999999986,0.142412,0.448534,-1.654518
5.204999999999984,0.129951,0.448031,-1.657563
5.207499999999982,0.122837,0.441832,-1.659417
5.20999999999998,0.117617,0.438788,-1.658809
5.212499999999977,0.109581,0.439541,-1.658913
5.214999999999975,0.102993,0.435045,-1.66185
5.217499999999973,0.096848,0.433413,-1.659763
5.21999999999997,0.091005,0.43406,-1.663025
5.222499999999968,0.081676,0.424377,-1.661236
5.225000000000023,0.077976,0.42309,-1.659322
5.2275000000000205,0.073081,0.421094,-1.654224
5.230000000000018,0.06781,0.417223,-1.653988
5.232500000000016,0.064368,0.410634,-1.655084
5.235000000000014,0.059295,0.407512,-1.651117
5.237500000000011,0.055566,0.40057,-1.644967
5.240000000000009,0.052955,0.394156,-1.640019
5.242500000000007,0.044932,0.390794,-1.639756
5.2450000000000045,0.044254,0.3797,-1.631669
5.247500000000002,0.042994,0.37629,-1.62892
5.25,0.039142,0.36605,-1.621931
5.252499999999998,0.031041,0.356987,-1.619406
5.254999999999996,0.031561,0.345172,-1.613779
5.257499999999993,0.025354,0.333072,-1.609371
5.259999999999991,0.020839,0.327843,-1.604853
5.262499999999989,0.016627,0.320468,-1.602493
5.264999999999986,0.016111,0.30828,-1.595458
5.267499999999984,0.009418,0.298269,-1.593756
5.269999999999982,0.009846,0.289872,-1.591013
5.27249999999998,0.006477,0.277346,-1.585081
5.274999999999977,0.004929,0.274857,-1.581047
5.277499999999975,0.003239,0.267147,-1.572747
5.279999999999973,-0.000386,0.258108,-1.570925
5.28249999999997,-0.001828,0.251397,-1.567707
5.284999999999968,-0.000806,0.24759,-1.562683
5.287500000000023,-0.004314,0.238642,-1.557005
5.2900000000000205,-0.006354,0.23272,-1.553608
5.292500000000018,-0.004902,0.229413,-1.54303
5.295000000000016,-0.004537,0.220446,-1.533256
5.297500000000014,-0.003779,0.214452,-1.52072
5.300000000000011,-0.00131,0.209879,-1.511888
5.302500000000009,0.001066,0.200477,-1.500777
5.305000000000007,0.002352,0.194336,-1.485277
5.3075000000000045,0.003697,0.185007,-1.466887
5.310000000000002,0.010294,0.180224,-1.447976
5.3125,0.01281,0.171829,-1.433694
5.314999999999998,0.012521,0.160494,-1.414985
5.317499999999996,0.020444,0.152699,-1.396082
5.319999999999993,0.023513,0.143629,-1.376464
5.322499999999991,0.023831,0.13505,-1.360021
5.324999999999989,0.033369,0.12118,-1.339745
5.327499999999986,0.033866,0.112864,-1.323052
5.329999999999984,0.03641,0.100281,-1.30407
5.332499999999982,0.043564,0.091551,-1.286068
5.33499999999998,0.049002,0.079861,-1.270576
5.337499999999977,0.049663,0.070775,-1.2539
5.339999999999975,0.058227,0.061931,-1.236508
5.342499999999973,0.058346,0.049759,-1.216753
5.34499999999997,0.064061,0.039447,-1.197885
5.347499999999968,0.06536,0.029161,-1.182621
5.350000000000023,0.074337,0.021901,-1.167052
5.3525000000000205,0.07455,0.01081,-1.148414
5.355000000000018,0.083227,0.001457,-1.129732
5.357500000000016,0.083176,-0.00684,-1.110214
5.360000000000014,0.088624,-0.011936,-1.089473
5.362500000000011,0.095221,-0.02764,-1.069649
5.365000000000009,0.098814,-0.031912,-1.046008
5.367500000000007,0.103505,-0.046781,-1.022353
5.3700000000000045,0.105927,-0.053932,-1.001352
5.372500000000002,0.1124,-0.06299,-0.977339
5.375,0.112236,-0.072345,-0.9509
5.377499999999998,0.121983,-0.080837,-0.928694
5.379999999999996,0.126538,-0.090994,-0.906493
5.382499999999993,0.129925,-0.099516,-0.878582
5.384999999999991,0.134116,-0.105563,-0.848483
5.387499999999989,0.140622,-0.110984,-0.821522
5.389999999999986,0.140125,-0.119284,-0.790081
5.392499999999984,0.143357,-0.120916,-0.76256
5.394999999999982,0.148723,-0.125431,-0.738125
5.39749999999998,0.14934,-0.128408,-0.707907
5.399999999999977,0.153328,-0.130875,-0.680614
5.402499999999975,0.156187,-0.138365,-0.649557
5.404999999999973,0.161222,-0.139719,-0.617126
5.40749999999997,0.160325,-0.145371,-0.58766
5.409999999999968,0.162721,-0.145534,-0.556856
5.412500000000023,0.164107,-0.149208,-0.525826
5.4150000000000205,0.164393,-0.151129,-0.496142
5.417500000000018,0.165994,-0.15077,-0.461906
5.420000000000016,0.167806,-0.153312,-0.433011
5.422500000000014,0.167816,-0.155744,-0.402875
5.425000000000011,0.169145,-0.154071,-0.368258
5.427500000000009,0.163487,-0.156699,-0.336413
5.430000000000007,0.165031,-0.152305,-0.305451
5.4325000000000045,0.161278,-0.153127,-0.271419
5.435000000000002,0.158731,-0.147647,-0.237685
5.4375,0.158841,-0.147119,-0.202972
5.439999999999998,0.1568,-0.141799,-0.169748
5.442499999999996,0.150562,-0.139074,-0.137676
5.444999999999993,0.148334,-0.138833,-0.106208
5.447499999999991,0.145922,-0.136629,-0.074691
5.449999999999989,0.139936,-0.133933,-0.038353
5.452499999999986,0.13421,-0.130928,-0.007081
5.454999999999984,0.132712,-0.129379,0.02709
5.457499999999982,0.126962,-0.12271,0.061598
5.45999999999998,0.120937,-0.123227,0.092397
5.462499999999977,0.11589,-0.116493,0.123752
5.464999999999975,0.115524,-0.113815,0.157884
5.467499999999973,0.106294,-0.108801,0.191551
5.46999999999997,0.10635,-0.10446,0.22013
5.472499999999968,0.100709,-0.101823,0.254063
5.475000000000023,0.094145,-0.096601,0.289331
5.4775000000000205,0.08551,-0.091532,0.319547
5.480000000000018,0.081768,-0.091784,0.35153
5.482500000000016,0.076232,-0.089742,0.385232
5.485000000000014,0.075566,-0.090785,0.412933
5.487500000000011,0.070148,-0.086088,0.44569
5.490000000000009,0.069927,-0.083689,0.476801
5.492500000000007,0.064967,-0.079589,0.505749
5.4950000000000045,0.062075,-0.077719,0.542211
5.497500000000002,0.0564,-0.079808,0.568067
5.5,0.050864,-0.076583,0.595506
5.502499999999998,0.052332,-0.078817,0.627538
5.504999999999996,0.048441,-0.079663,0.656059
5.507499999999993,0.046667,-0.083863,0.685972
5.509999999999991,0.043685,-0.086401,0.711226
5.512499999999989,0.045355,-0.09564,0.742545
5.514999999999986,0.044952,-0.097409,0.768038
5.517499999999984,0.04245,-0.101416,0.793863
5.519999999999982,0.042453,-0.106338,0.820243
5.52249999999998,0.039596,-0.115746,0.846961
5.524999999999977,0.038249,-0.12351,0.874677
5.527499999999975,0.038298,-0.132175,0.899039
5.529999999999973,0.037804,-0.137757,0.920995
5.53249999999997,0.040896,-0.146662,0.948911
5.534999999999968,0.043728,-0.152929,0.967624
5.537500000000023,0.042523,-0.159656,0.995489
5.5400000000000205,0.042274,-0.168161,1.011519
5.542500000000018,0.04326,-0.177132,1.037092
5.545000000000016,0.047094,-0.181375,1.05755
5.547500000000014,0.046725,-0.187931,1.07858
5.550000000000011,0.044791,-0.200416,1.097957
5.552500000000009,0.04799,-0.201918,1.117433
5.555000000000007,0.048983,-0.208373,1.136095
5.5575000000000045,0.046354,-0.210679,1.153391
5.560000000000002,0.047071,-0.217313,1.171636
5.5625,0.050203,-0.219899,1.18401
5.564999999999998,0.054349,-0.223523,1.207562
5.567499999999996,0.047254,-0.225189,1.220226
5.569999999999993,0.047831,-0.227763,1.234643
5.572499999999991,0.04634,-0.226127,1.251152
5.574999999999989,0.04398,-0.226562,1.265245
5.577499999999986,0.042062,-0.228493,1.278674
5.579999999999984,0.039131,-0.228287,1.290738
5.582499999999982,0.03717,-0.231233,1.306726
5.58499999999998,0.029754,-0.22641,1.316579
5.587499999999977,0.027739,-0.222913,1.325674
5.589999999999975,0.027628,-0.228077,1.339596
5.592499999999973,0.022937,-0.224052,1.34948
5.59499999999997,0.019776,-0.219926,1.360787
5.597499999999968,0.013617,-0.223662,1.366362
5.600000000000023,0.01031,-0.224428,1.37626
5.6025000000000205,0.009669,-0.224958,1.38177
5.605000000000018,0.007419,-0.223069,1.390603
5.607500000000016,-0.000367,-0.22157,1.394656
5.610000000000014,-0.003344,-0.222765,1.401293
5.612500000000011,-0.005792,-0.225294,1.404107
5.615000000000009,-0.008805,-0.225009,1.409445
5.617500000000007,-0.013211,-0.22517,1.414019
5.6200000000000045,-0.014912,-0.226401,1.417981
5.622500000000002,-0.019403,-0.227107,1.414783
5.625,-0.023168,-0.22639,1.417995
5.627499999999998,-0.025958,-0.229176,1.419336
5.629999999999996,-0.02688,-0.227794,1.417458
5.632499999999993,-0.028087,-0.230663,1.417545
5.634999999999991,-0.030983,-0.228368,1.418456
5.637499999999989,-0.035696,-0.22848,1.41608
5.639999999999986,-0.040494,-0.229828,1.415862
5.642499999999984,-0.042699,-0.231888,1.412342
5.644999999999982,-0.0432,-0.231302,1.410519
5.64749999999998,-0.046039,-0.231314,1.405787
5.649999999999977,-0.046831,-0.230202,1.403566
5.652499999999975,-0.05137,-0.236005,1.39941
5.654999999999973,-0.055724,-0.234582,1.394451
5.65749999999997,-0.05499,-0.239286,1.389554
5.659999999999968,-0.057958,-0.245349,1.382276
5.662500000000023,-0.062427,-0.243199,1.380093
5.6650000000000205,-0.062516,-0.249952,1.370562
5.667500000000018,-0.068425,-0.254105,1.363736
5.670000000000016,-0.071955,-0.258696,1.353866
5.672500000000014,-0.071377,-0.260317,1.34563
5.675000000000011,-0.076959,-0.259334,1.337986
5.677500000000009,-0.074823,-0.260262,1.323125
5.680000000000007,-0.079055,-0.266571,1.315968
5.6825000000000045,-0.081396,-0.26492,1.305389
5.685000000000002,-0.081565,-0.261362,1.291257
5.6875,-0.08163,-0.26636,1.278753
5.689999999999998,-0.086317,-0.265861,1.264109
5.692499999999996,-0.088599,-0.266682,1.251353
5.694999999999993,-0.089112,-0.262857,1.235886
5.697499999999991,-0.088674,-0.267309,1.217998
5.699999999999989,-0.091058,-0.264442,1.201816
5.702499999999986,-0.091025,-0.263783,1.183362
5.704999999999984,-0.089523,-0.261711,1.165189
5.707499999999982,-0.087565,-0.258003,1.146544
5.70999999999998,-0.091611,-0.256971,1.125748
5.712499999999977,-0.088306,-0.256816,1.108017
5.714999999999975,-0.087543,-0.253418,1.087418
5.717499999999973,-0.088093,-0.25166,1.065389
5.71999999999997,-0.086819,-0.250721,1.04205
5.722499999999968,-0.086783,-0.250812,1.024629
5.725000000000023,-0.086093,-0.248115,1.000942
5.7275000000000205,-0.082935,-0.240357,0.98074
5.730000000000018,-0.079958,-0.237659,0.957575
5.732500000000016,-0.075415,-0.236309,0.935272
5.735000000000014,-0.074743,-0.229019,0.914582
5.737500000000011,-0.074121,-0.22545,0.888235
5.740000000000009,-0.074643,-0.222017,0.862604
5.742500000000007,-0.068465,-0.215954,0.838382
5.7450000000000045,-0.066197,-0.21349,0.813789
5.747500000000002,-0.062928,-0.205623,0.789472
5.75,-0.058325,-0.1986,0.76313
5.752499999999998,-0.055572,-0.192924,0.738714
5.754999999999996,-0.047684,-0.189485,0.712886
5.757499999999993,-0.046122,-0.183399,0.688801
5.759999999999991,-0.041015,-0.175092,0.665877
5.762499999999989,-0.03708,-0.173709,0.636401
5.764999999999986,-0.027816,-0.166836,0.609409
5.767499999999984,-0.022702,-0.158881,0.585525
5.769999999999982,-0.013699,-0.154614,0.560168
5.77249999999998,-0.006685,-0.150211,0.536528
5.774999999999977,-0.005484,-0.143133,0.509267
5.777499999999975,0.004154,-0.133975,0.487892
5.779999999999973,0.017092,-0.131312,0.464159
5.78249999999997,0.023809,-0.11906,0.440256
5.784999999999968,0.026398,-0.11515,0.4164
5.787500000000023,0.036614,-0.107366,0.392462
5.7900000000000205,0.042669,-0.103384,0.370552
5.792500000000018,0.05348,-0.098269,0.34645
5.795000000000016,0.059771,-0.092714,0.324661
5.797500000000014,0.071395,-0.089216,0.301886
5.800000000000011,0.079086,-0.082369,0.276998
5.802500000000009,0.08607,-0.076891,0.256547
5.805000000000007,0.096298,-0.072534,0.23356
5.8075000000000045,0.103828,-0.071482,0.212473
5.810000000000002,0.114901,-0.064971,0.188991
5.8125,0.124455,-0.06128,0.171597
5.814999999999998,0.135557,-0.055243,0.147348
5.817499999999996,0.145493,-0.0508,0.12886
5.819999999999993,0.149227,-0.048259,0.108338
5.822499999999991,0.164682,-0.044446,0.090972
5.824999999999989,0.174451,-0.039922,0.069547
5.827499999999986,0.181683,-0.034532,0.054368
5.829999999999984,0.19638,-0.028622,0.038146
5.832499999999982,0.206239,-0.021952,0.020524
5.83499999999998,0.213151,-0.02003,0.007453
5.837499999999977,0.225198,-0.013685,-0.008354
5.839999999999975,0.233883,-0.013031,-0.026356
5.842499999999973,0.241213,-0.008075,-0.036685
5.84499999999997,0.253529,-0.005668,-0.052188
5.847499999999968,0.26141,-0.001161,-0.064231
5.850000000000023,0.269844,0.004145,-0.075413
5.8525000000000205,0.280327,0.005264,-0.083758
5.855000000000018,0.290389,0.013023,-0.098944
5.857500000000016,0.295614,0.016635,-0.111544
5.860000000000014,0.302611,0.018951,-0.121407
5.862500000000011,0.314324,0.021297,-0.130288
5.865000000000009,0.317947,0.028013,-0.142956
5.867500000000007,0.32442,0.035467,-0.149797
5.8700000000000045,0.33403,0.038714,-0.160383
5.872500000000002,0.335473,0.04466,-0.17233
5.875,0.344039,0.051402,-0.184444
5.877499999999998,0.350673,0.053688,-0.189658
5.879999999999996,0.355836,0.062742,-0.193736
5.882499999999993,0.361424,0.066984,-0.203016
5.884999999999991,0.365772,0.070468,-0.213313
5.887499999999989,0.370394,0.075764,-0.222175
5.889999999999986,0.37658,0.081096,-0.23022
5.892499999999984,0.381518,0.091548,-0.234851
5.894999999999982,0.384031,0.096049,-0.243056
5.89749999999998,0.383569,0.100536,-0.249092
5.899999999999977,0.389253,0.104953,-0.255968
5.902499999999975,0.386057,0.112542,-0.260575
5.904999999999973,0.388073,0.120061,-0.26312
5.90749999999997,0.38869,0.124998,-0.272767
5.909999999999968,0.388367,0.131027,-0.278431
5.912500000000023,0.386138,0.133821,-0.282882
5.9150000000000205,0.389034,0.138723,-0.28355
5.917500000000018,0.38536,0.14502,-0.288908
5.920000000000016,0.378775,0.153644,-0.292236
5.922500000000014,0.375123,0.157113,-0.293057
5.925000000000011,0.371518,0.15643,-0.300707
5.927500000000009,0.363597,0.166032,-0.303745
5.930000000000007,0.362178,0.169205,-0.305876
5.9325000000000045,0.353874,0.176767,-0.309101
5.935000000000002,0.349275,0.178992,-0.311205
5.9375,0.338996,0.183525,-0.314567
5.939999999999998,0.330549,0.188067,-0.315158
5.942499999999996,0.32097,0.194592,-0.3161
5.944999999999993,0.311805,0.198904,-0.317734
5.947499999999991,0.301541,0.203902,-0.319812
5.949999999999989,0.291879,0.207297,-0.321592
5.952499999999986,0.274503,0.212464,-0.31981
5.954999999999984,0.26888,0.218376,-0.321245
5.957499999999982,0.250477,0.219613,-0.322488
5.95999999999998,0.235968,0.225111,-0.320447
5.962499999999977,0.22378,0.228057,-0.321831
5.964999999999975,0.211518,0.234767,-0.321306
5.967499999999973,0.195903,0.237864,-0.320242
5.96999999999997,0.179528,0.24113,-0.321083
5.972499999999968,0.160963,0.244396,-0.317846
5.975000000000023,0.143939,0.248477,-0.315089
5.9775000000000205,0.125485,0.253221,-0.31924
5.980000000000018,0.107745,0.259737,-0.315034
5.982500000000016,0.088815,0.260862,-0.313872
5.985000000000014,0.067741,0.265046,-0.312813
5.987500000000011,0.04481,0.266067,-0.316343
5.990000000000009,0.024032,0.272461,-0.310482
5.992500000000007,0.005563,0.272065,-0.307329
5.9950000000000045,-0.019978,0.274713,-0.307174
5.997500000000002,-0.039451,0.276399,-0.304581
6.0,-0.062634,0.279235,-0.303191
6.002499999999998,-0.083309,0.276443,-0.298876
6.004999999999996,-0.104364,0.278498,-0.292771
6.007499999999993,-0.129631,0.27673,-0.290327
6.009999999999991,-0.15199,0.275611,-0.289905
6.012499999999989,-0.17404,0.275763,-0.28425
6.014999999999986,-0.195795,0.277234,-0.275834
6.017499999999984,-0.219205,0.273722,-0.271262
6.019999999999982,-0.242108,0.273413,-0.267436
6.02249999999998,-0.262381,0.271813,-0.261347
6.024999999999977,-0.287823,0.266901,-0.257447
6.027499999999975,-0.309509,0.265256,-0.25042
6.029999999999973,-0.33215,0.26402,-0.242326
6.03249999999997,-0.355333,0.259774,-0.242195
6.034999999999968,-0.376445,0.260308,-0.236724
6.037500000000023,-0.398687,0.258499,-0.232528
6.0400000000000205,-0.418401,0.253321,-0.224295
6.042500000000018,-0.442085,0.246295,-0.219022
6.045000000000016,-0.462839,0.247566,-0.217079
6.047500000000014,-0.483543,0.240169,-0.213286
6.050000000000011,-0.504111,0.23853,-0.208022
6.052500000000009,-0.525537,0.23331,-0.202434
6.055000000000007,-0.547965,0.229479,-0.198013
6.0575000000000045,-0.570275,0.221783,-0.193208
6.060000000000002,-0.588454,0.217108,-0.189275
6.0625,-0.608377,0.209081,-0.18407
6.064999999999998,-0.624347,0.204154,-0.182118
6.067499999999996,-0.645699,0.195388,-0.177537
6.069999999999993,-0.660037,0.189916,-0.170451
6.072499999999991,-0.680107,0.182276,-0.164525
6.074999999999989,-0.699535,0.174835,-0.157706
6.077499999999986,-0.714742,0.165131,-0.148535
6.079999999999984,-0.729013,0.157034,-0.143406
6.082499999999982,-0.744996,0.152437,-0.134498
6.08499999999998,-0.765738,0.142077,-0.130062
6.087499999999977,-0.777832,0.135522,-0.126934
6.089999999999975,-0.791773,0.12547,-0.117631
6.092499999999973,-0.809174,0.115531,-0.111252
6.09499999999997,-0.824981,0.107103,-0.10246
6.097499999999968,-0.838782,0.098185,-0.099541
6.100000000000023,-0.85074,0.090896,-0.09214
6.1025000000000205,-0.872891,0.079664,-0.08713
6.105000000000018,-0.879529,0.073396,-0.082675
6.107500000000016,-0.898773,0.062282,-0.075802
6.110000000000014,-0.912391,0.05284,-0.070214
6.112500000000011,-0.923777,0.042013,-0.066228
6.115000000000009,-0.935818,0.031354,-0.063941
6.117500000000007,-0.950198,0.025354,-0.054282
6.1200000000000045,-0.958932,0.014616,-0.052476
6.122500000000002,-0.970823,0.012145,-0.04639
6.125,-0.987992,0.00441,-0.03847
6.127499999999998,-0.998128,-0.003037,-0.030321
6.129999999999996,-1.016745,-0.009608,-0.028282
6.132499999999993,-1.024741,-0.019903,-0.025439
6.134999999999991,-1.03707,-0.028002,-0.022516
6.137499999999989,-1.053007,-0.03349,-0.014177
6.139999999999986,-1.066743,-0.037503,-0.011419
6.142499999999984,-1.076447,-0.042409,-0.006618
6.144999999999982,-1.089032,-0.053963,-0.006449
6.14749999999998,-1.101122,-0.058934,-0.004017
6.149999999999977,-1.115989,-0.068575,-0.003779
6.152499999999975,-1.126685,-0.074321,0.002337
6.154999999999973,-1.1384,-0.081114,0.00258
6.15749999999997,-1.146488,-0.089125,0.007313
6.159999999999968,-1.160329,-0.095984,0.008149
6.162500000000023,-1.171396,-0.105068,0.010327
6.1650000000000205,-1.180579,-0.113066,0.015295
6.167500000000018,-1.194066,-0.11899,0.014954
6.170000000000016,-1.201517,-0.128743,0.018991
6.172500000000014,-1.208412,-0.138286,0.021464
6.175000000000011,-1.216355,-0.145903,0.026157
6.177500000000009,-1.226783,-0.155841,0.028759
6.180000000000007,-1.231074,-0.161757,0.030598
6.1825000000000045,-1.234732,-0.170457,0.03494
6.185000000000002,-1.242374,-0.17892,0.039647
6.1875,-1.249141,-0.188014,0.040299
6.189999999999998,-1.249892,-0.193915,0.04192
6.192499999999996,-1.258264,-0.200777,0.046805
6.194999999999993,-1.258238,-0.209637,0.047804
6.197499999999991,-1.264646,-0.215331,0.049946
6.199999999999989,-1.267666,-0.217244,0.049601
6.202499999999986,-1.271919,-0.226013,0.050146
6.204999999999984,-1.273399,-0.228363,0.049435
6.207499999999982,-1.278103,-0.236091,0.049158
6.20999999999998,-1.284488,-0.237711,0.04515
6.212499999999977,-1.284327,-0.244704,0.045093
6.214999999999975,-1.285692,-0.25166,0.045084
6.217499999999973,-1.287598,-0.253277,0.042111
6.21999999999997,-1.290693,-0.265697,0.043722
6.222499999999968,-1.29269,-0.265855,0.041664
6.225000000000023,-1.292073,-0.272882,0.042441
6.2275000000000205,-1.294082,-0.280859,0.041788
6.230000000000018,-1.296431,-0.283858,0.046796
6.232500000000016,-1.294573,-0.293343,0.048441
6.235000000000014,-1.296154,-0.297316,0.053179
6.237500000000011,-1.292222,-0.295827,0.056195
6.240000000000009,-1.290522,-0.301427,0.053371
6.242500000000007,-1.287276,-0.302839,0.058527
6.2450000000000045,-1.287114,-0.30368,0.060654
6.247500000000002,-1.279264,-0.310464,0.066035
6.25,-1.275203,-0.314543,0.06418
6.252499999999998,-1.271071,-0.313418,0.067396
6.254999999999996,-1.269091,-0.313671,0.074778
6.257499999999993,-1.257329,-0.315789,0.074329
6.259999999999991,-1.252682,-0.315605,0.073303
6.262499999999989,-1.241105,-0.316441,0.076074
6.264999999999986,-1.234908,-0.318055,0.076426
6.267499999999984,-1.220909,-0.316551,0.076325
6.269999999999982,-1.214542,-0.316714,0.074228
6.27249999999998,-1.202211,-0.316554,0.073435
6.274999999999977,-1.189889,-0.31427,0.073535
6.277499999999975,-1.181061,-0.314038,0.074681
6.279999999999973,-1.168687,-0.312512,0.073578
6.28249999999997,-1.153134,-0.311056,0.07012
6.284999999999968,-1.138904,-0.308344,0.070903
6.287500000000023,-1.123563,-0.308894,0.069685
6.2900000000000205,-1.109344,-0.305221,0.065684
6.292500000000018,-1.094738,-0.30078,0.064556
6.295000000000016,-1.079925,-0.300329,0.067764
6.297500000000014,-1.062543,-0.297575,0.064579
6.300000000000011,-1.047157,-0.290664,0.064439
6.302500000000009,-1.031094,-0.286375,0.060292
6.305000000000007,-1.013406,-0.286183,0.065362
6.3075000000000045,-0.996982,-0.279231,0.064603
6.310000000000002,-0.980413,-0.276262,0.060261
6.3125,-0.960546,-0.271316,0.060766
6.314999999999998,-0.942298,-0.264891,0.058921
6.317499999999996,-0.922357,-0.259508,0.058536
6.319999999999993,-0.903595,-0.254716,0.056589
6.322499999999991,-0.887178,-0.246428,0.06044
6.324999999999989,-0.866407,-0.242806,0.056691
6.327499999999986,-0.84974,-0.235678,0.05335
6.329999999999984,-0.828754,-0.230944,0.049863
6.332499999999982,-0.80563,-0.227076,0.052603
6.33499999999998,-0.788355,-0.219306,0.051875
6.337499999999977,-0.765968,-0.21373,0.049867
6.339999999999975,-0.747146,-0.208607,0.051004
6.342499999999973,-0.721707,-0.19677,0.051215
6.34499999999997,-0.705634,-0.189954,0.050201
6.347499999999968,-0.68119,-0.183439,0.051589
6.350000000000023,-0.659646,-0.172913,0.049561
6.3525000000000205,-0.636545,-0.172286,0.048711
6.355000000000018,-0.615838,-0.162303,0.051317
6.357500000000016,-0.595827,-0.152333,0.050933
6.360000000000014,-0.569676,-0.149442,0.052435
6.362500000000011,-0.555486,-0.141546,0.04888
6.365000000000009,-0.527526,-0.136861,0.049943
6.367500000000007,-0.507531,-0.1332,0.049774
6.3700000000000045,-0.48797,-0.121607,0.048081
6.372500000000002,-0.463523,-0.115465,0.047951
6.375,-0.442791,-0.116727,0.04509
6.377499999999998,-0.416926,-0.103441,0.045476
6.379999999999996,-0.397602,-0.102495,0.046108
6.382499999999993,-0.375624,-0.098261,0.045245
6.384999999999991,-0.351232,-0.088552,0.039412
6.387499999999989,-0.329474,-0.081111,0.042021
6.389999999999986,-0.30542,-0.077298,0.040067
6.392499999999984,-0.285108,-0.072733,0.038292
6.394999999999982,-0.262463,-0.070332,0.036415
6.39749999999998,-0.240757,-0.063656,0.034698
6.399999999999977,-0.215945,-0.060822,0.034034
6.402499999999975,-0.192492,-0.050342,0.030709
6.404999999999973,-0.169101,-0.051183,0.032765
6.40749999999997,-0.144145,-0.044194,0.026917
6.409999999999968,-0.121853,-0.045954,0.026906
6.412500000000023,-0.101882,-0.037488,0.024811
6.4150000000000205,-0.080569,-0.035377,0.025152
6.417500000000018,-0.061138,-0.032631,0.022469
6.420000000000016,-0.036845,-0.032152,0.020882
6.422500000000014,-0.013401,-0.023441,0.012761
6.425000000000011,0.007632,-0.022404,0.014437
6.427500000000009,0.022572,-0.01629,0.013047
6.430000000000007,0.047201,-0.008605,0.013162
6.4325000000000045,0.065821,-0.011662,0.010712
6.435000000000002,0.089077,-0.011779,0.008612
6.4375,0.106291,-0.004745,0.001771
6.439999999999998,0.130444,-0.001949,0.001339
6.442499999999996,0.145715,-0.002065,-0.002159
6.444999999999993,0.169346,-0.003992,-0.002947
6.447499999999991,0.185823,0.001796,-0.005367
6.449999999999989,0.20554,0.004844,-0.004485
6.452499999999986,0.225522,0.003032,-0.010028
6.454999999999984,0.240981,0.00126,-0.011651
6.457499999999982,0.258925,0.0057,-0.013506
6.45999999999998,0.278512,0.005621,-0.015737
6.462499999999977,0.296138,0.007268,-0.019231
6.464999999999975,0.315619,0.005382,-0.016226
6.467499999999973,0.331513,0.005756,-0.019988
6.46999999999997,0.35001,0.006752,-0.023668
6.472499999999968,0.367198,0.009028,-0.026751
6.475000000000023,0.380792,0.005458,-0.026937
6.4775000000000205,0.399274,0.010768,-0.030068
6.480000000000018,0.411401,0.006705,-0.030845
6.482500000000016,0.42885,0.009709,-0.032319
6.485000000000014,0.445198,0.007346,-0.035259
6.487500000000011,0.460694,0.010184,-0.036313
6.490000000000009,0.471478,0.013878,-0.038274
6.492500000000007,0.486996,0.014753,-0.04462
6.4950000000000045,0.503043,0.014503,-0.044782
6.497500000000002,0.516731,0.015064,-0.046581
6.5,0.532935,0.014592,-0.049643
6.502499999999998,0.549235,0.014684,-0.053547
6.504999999999996,0.563604,0.016212,-0.052302
6.507499999999993,0.576323,0.016021,-0.056131
6.509999999999991,0.591434,0.018879,-0.059079
6.512499999999989,0.605323,0.018808,-0.060268
6.514999999999986,0.616554,0.019342,-0.063665
6.517499999999984,0.631429,0.016629,-0.064008
