time,Gyr_X,Gyr_Y,Gyr_Z
0.0,-0.0413318212852466,-0.0181291974522982,0.0037725865080494
0.0099999999999909,-0.0464566013331722,-0.020686015348876,0.0075678056053035
0.019999999999996,-0.0401673155715471,-0.0282726142179511,0.0086770289492091
0.0300000000000011,-0.0313479382636322,-0.0182613173997647,0.0128755265238204
0.039999999999992,-0.0422261744821104,-0.0173300199009084,0.0187992064593242
0.0499999999999971,-0.0428387203450451,-0.022992293830704,0.0234209890188646
0.0600000000000022,-0.0493692858472828,-0.0211864068189499,0.0210479534422603
0.0699999999999931,-0.0606142793673328,-0.028291487221065,0.0179341075585876
0.0799999999999983,-0.0567133381146008,-0.0262869019672279,0.0152394948465891
0.0899999999999892,-0.0459188262493932,-0.017687605992574,0.0079455642237445
0.0999999999999943,-0.041561184827514,-0.0208023429521998,0.0108933508916703
0.1099999999999994,-0.0423199598964107,-0.0142743187027309,0.0088560923275766
0.1199999999999903,-0.0344628578531363,-0.0042683697983036,0.002773714775233
0.1299999999999954,-0.0269362545427664,-0.0065620197875926,0.0073984646838402
0.1400000000000005,-0.0237447299160758,6.351150659359274e-07,0.0087697493559712
0.1499999999999914,-0.0189331412740778,0.0042228025679601,0.0067545412403935
0.1599999999999966,-0.015126880006876,-0.0037797720552444,0.0079393530149205
0.1700000000000017,-0.016730872849929,0.0030836320048166,0.0093659822106498
0.1799999999999926,-0.0161876371117888,0.0084786000633004,0.0045474998352088
0.1899999999999977,-0.0174199227381777,0.005279697732186,0.0049204677797558
0.1999999999999886,-0.0165782390121166,-0.0028828487681679,-0.0039152259449452
0.2099999999999937,-0.0201245128084477,-0.0065422358126081,-0.0137478029656943
0.2199999999999988,-0.0159793303653929,-0.0095517154217214,-0.0131909766048424
0.2299999999999897,-0.0168879899918383,-0.0160265386475133,-0.0192353471176607
0.2399999999999948,-0.008225985527853,-0.015459173802267,-0.0192553839740183
0.25,-0.004097811743812,-0.018969045839929,-0.0226299448572655
0.2599999999999909,0.0128281269115158,-0.0223400849021663,-0.0167254368024448
0.269999999999996,0.0271203853827047,-0.0283848194040847,-0.0272334148317538
0.2800000000000011,0.0250301965040692,-0.0213325221596387,-0.0317786632756237
0.289999999999992,0.0351499373241547,-0.0235799681355521,-0.0284316138628306
0.2999999999999971,0.0342739838327653,-0.0322212664596485,-0.0353305720834403
0.3100000000000023,0.0368335913282193,-0.0379577882090511,-0.0354686403922206
0.3199999999999932,0.0379656127881283,-0.0328050044936966,-0.0375686012769557
0.3299999999999983,0.0301842684103746,-0.0297153709048508,-0.0419035708616555
0.3399999999999892,0.029081449977154,-0.0299018984493364,-0.0397683320503615
0.3499999999999943,0.0341401971457045,-0.0286830636847656,-0.0359249401990023
0.3599999999999994,0.0351760053100535,-0.0259690931716141,-0.0354180991188935
0.3699999999999903,0.0317758801433557,-0.0204491471080819,-0.0442142018784374
0.3799999999999954,0.0336769709924657,-0.0189900045496161,-0.0347972570714483
0.3900000000000005,0.0264142555426964,-0.0241743864840362,-0.0331239527511781
0.3999999999999915,0.0140101047703312,-0.0294621019573993,-0.0369973409400363
0.4099999999999966,0.0097427625629259,-0.0280690533780226,-0.0339838831478076
0.4200000000000017,-0.0059722745416411,-0.0187915936407338,-0.035567472426952
0.4299999999999926,-0.0050225905179193,-0.0175249446854631,-0.0358687287687115
0.4399999999999977,-0.0099940192902213,-0.0259988226202,-0.0339038660267909
0.4499999999999886,-0.0182564186058957,-0.020281907701369,-0.0362250688822366
0.4599999999999937,-0.0160678825142645,-0.0182617772214519,-0.0430440894626905
0.4699999999999988,-0.0149594908494098,-0.0168913761325017,-0.0389109679176107
0.4799999999999897,-0.016184538115701,-0.0143364827034086,-0.0368809021067155
0.4899999999999949,-0.0170659127017504,-0.0070004508024153,-0.0339502847643275
0.5,-0.0162379198903944,0.0005762488638542,-0.0286445443828328
0.5099999999999909,-0.0171100777303925,-0.0011440587903333,-0.0273257889098134
0.519999999999996,-0.0162467551847505,-0.0017594058678651,-0.0201537635507652
0.5300000000000011,-0.0211143984151787,-0.0023092573634097,-0.0213640836925844
0.539999999999992,-0.0211708461929565,-0.0059947265065029,-0.0138125842906024
0.5499999999999972,-0.0384016129179126,-0.0075765231430895,-0.013149799690537
0.5600000000000023,-0.0434770305117517,-0.0096396417585055,-0.0150029835851129
0.5699999999999932,-0.0460100197564155,-0.0104201872062204,-0.0080792541804248
0.5799999999999983,-0.0624913225195061,-0.0167247391562907,-0.0081146722350485
0.5899999999999892,-0.0582421954694277,-0.0189582255781877,-0.0092921381766532
0.5999999999999943,-0.062359109916188,-0.0190605677595549,-0.0103534956271271
0.6099999999999994,-0.0684316538447711,-0.0172180471794004,-0.014020981656134
0.6199999999999903,-0.0665306133708047,-0.0141126674312535,-0.0121085220932618
0.6299999999999955,-0.069397894047582,-0.025297643335275,-0.0099317960669532
0.6400000000000006,-0.0597041869309518,-0.0263584651585855,-0.0113018494298166
0.6499999999999915,-0.0577273654444595,-0.0237194033561537,-0.0158891711424824
0.6599999999999966,-0.0527100536488716,-0.027191821556342,-0.0125310747454609
0.6700000000000017,-0.0424025279705943,-0.0163739433604591,-0.0192961773908798
0.6799999999999926,-0.0360468836441279,-0.0195650035681303,-0.0181205602233335
0.6899999999999977,-0.0259639025366205,-0.0158551711555337,-0.0160575664403636
0.6999999999999886,-0.0242104252377408,-0.0137399314614611,-0.0187003421189177
0.7099999999999937,-0.032423564664598,-0.0216947082310691,-0.0194574382588834
0.7199999999999989,-0.0423509209159495,-0.0202041606203078,-0.0203494720989621
0.7299999999999898,-0.0469081615894741,-0.0268425205908177,-0.0271566940780494
0.7399999999999949,-0.053100270201733,-0.0261954377427595,-0.0240570335845824
0.75,-0.0562991675226754,-0.0169022524297974,-0.0296723403239991
0.7599999999999909,-0.0624829839934024,-0.0248992686721435,-0.0326885967665547
0.769999999999996,-0.0609713791108072,-0.0215342925323394,-0.0265425509059425
0.7800000000000011,-0.0555650648546671,-0.0201022212419576,-0.0241752557986289
0.789999999999992,-0.0650828972780535,-0.0172892559406572,-0.0219046924215177
0.7999999999999972,-0.0680150784224316,-0.0189391906116052,-0.0220339538185503
0.8100000000000023,-0.067750463202653,-0.0219699188874563,-0.0137181988707387
0.8199999999999932,-0.0675658038555161,-0.0204874103301292,-0.0063879960059868
0.8299999999999983,-0.0759057684449058,-0.0208457043372663,-0.0116983496170303
0.8399999999999892,-0.0713823481661665,-0.0174014550645355,-0.0101512236429171
0.8499999999999943,-0.0743403047419942,-0.0193211822724934,-0.0097467352732442
0.8599999999999994,-0.0780047044037008,-0.0159327736835138,-0.0054968466650101
0.8699999999999903,-0.0808235091946137,-0.0195767568340345,-0.0085878190515883
0.8799999999999955,-0.0873706007729613,-0.0206856112239637,-0.0031983800505789
0.8900000000000006,-0.0922503776789285,-0.0120948438703233,-0.0025283416996957
0.8999999999999915,-0.0919135780484917,-0.014277914231768,-0.0050684544290784
0.9099999999999966,-0.0826160316985698,-0.0086337457222559,0.0032490156577992
0.9200000000000016,-0.0796292512961928,-0.0076550488291336,0.0003268264988233
0.9299999999999926,-0.074689108432135,-0.0062317409654562,-0.0033804773631718
0.9399999999999976,-0.0727640149339089,-0.0005416392091924,-0.0059101381602585
0.9499999999999886,-0.0709416956836095,-0.0010010259436686,0.001219153274894
0.9599999999999936,-0.0685610559837239,-0.0044592894861609,0.0076141988825199
0.9699999999999988,-0.0675820966338671,-4.8659831051989645e-05,0.0049423676678296
0.9799999999999898,-0.0670602325784904,-0.0018591267442966,0.0062732624599359
0.9899999999999948,-0.0670841245626941,-0.0028443602657572,0.0087222701490926
1.0,-0.0650999329176661,-0.0039394159248649,0.0087919725420811
1.009999999999991,-0.0572006452627845,0.0026905640832631,0.0154419081571567
1.019999999999996,-0.0598180271189134,0.0069743506367311,0.0134437883415934
1.0300000000000011,-0.0533740416322849,0.0069228491358361,0.0146509889850652
1.039999999999992,-0.0513194794921587,0.0061384318522267,0.0221714702944435
1.0499999999999972,-0.0515773460833165,0.0023493025518293,0.0226588309085019
1.0600000000000025,-0.0481761069251056,0.0014802073159075,0.0186556475731907
1.0699999999999932,-0.0409870500007277,-0.0002625332990837,0.0155810236608022
1.0799999999999983,-0.0391500985730651,-0.0050468032849871,0.0183080391381089
1.0899999999999892,-0.026536058351107,-0.0096066536660456,0.0238412995673056
1.0999999999999943,-0.0215744312492328,-0.0078961655742523,0.0222016588652622
1.1099999999999994,-0.0290659934911843,-0.004990416608147,0.0186097815799852
1.1199999999999903,-0.0255976041928926,-0.0089395113533807,0.0274575677406086
1.1299999999999957,-0.0410786905367618,-0.0050966954268632,0.020963487427626
1.1400000000000006,-0.0423679333152199,-0.0138436308540878,0.0216213354533011
1.1499999999999917,-0.0470638118740263,-0.0149372904211072,0.0238050783792111
1.1599999999999966,-0.0551467634514893,-0.007890852589303,0.0227728937266809
1.1700000000000017,-0.0468398915254867,-0.0238809691417778,0.0260834760028792
1.1799999999999926,-0.0394105098361008,-0.0254841848927389,0.0248752183289333
1.1899999999999975,-0.0340592531143766,-0.0225469289829342,0.0204129468420019
1.1999999999999886,-0.0086347806442308,-0.0178926473147018,0.0200806269709742
1.2099999999999935,0.0030476717911558,-0.0107032751599832,0.0201885822771256
1.2199999999999989,0.009689772414576,-0.0038949952393344,0.0172576633240716
1.2299999999999898,0.0015301577612531,-0.0015963641173307,0.0151568324504937
1.2399999999999949,-0.01364401272013,0.0045355298634393,0.0157463477597467
1.25,-0.0187841920118624,0.0006111038475228,0.0186854379347889
1.259999999999991,-0.0316861294351863,-0.0070034903277423,0.0139004275305767
1.269999999999996,-0.0370639867246521,-0.0074145273002216,0.0096101931166749
1.2800000000000011,-0.0420164303834786,-0.0091859846289182,0.0078859648083206
1.289999999999992,-0.0394175820237005,-0.0060028541597784,0.0106066438867357
1.2999999999999972,-0.0422301831741997,-0.0010510854828565,0.0152872090128273
1.3100000000000025,-0.0392561407520003,-0.0066466832415566,0.0087851878541414
1.3199999999999932,-0.0338882614265245,-0.0001196557531872,0.0190047139156834
1.3299999999999983,-0.0208545878779234,0.005346515633124,0.0228749638902374
1.3399999999999892,-0.0222648094188665,0.0040858552518439,0.0186387684753083
1.3499999999999943,-0.0175107082827119,0.006154157333867,0.0252665053387783
1.3599999999999994,-0.0127735233919781,0.0090522477139214,0.0287758920134972
1.3699999999999903,-0.0109107667619225,0.0028639107392472,0.0282614497353163
1.3799999999999957,0.0029531342438939,-0.0070413943777364,0.0337450519053126
1.3900000000000006,0.0027382596099932,-0.0117451598477434,0.0410565196146273
1.3999999999999917,0.0078786668861924,-0.0194107129269828,0.0429218807449054
1.4099999999999966,0.0072754344620187,-0.0216964716046481,0.0445061204601206
1.4200000000000017,0.0021034195049488,-0.017740099185174,0.0478384856280523
1.4299999999999926,0.000656796220682,-0.0080326032494222,0.0532071333021623
1.4399999999999975,-0.00251667127468,-0.0135743936401845,0.0506083667032848
1.4499999999999886,-0.0054182211695857,-0.0188397821595383,0.0584428137020345
1.4599999999999935,-0.0131579972307102,-0.0137998526719339,0.0614368111681213
1.4699999999999989,-0.0138729969858506,-0.0205931587529848,0.0583811491765897
1.4799999999999898,-0.0116306700177278,-0.0154797132624745,0.0646354339175953
1.4899999999999949,-0.0147767068795428,-0.0123113987788783,0.0654225938879319
1.5,-0.0177583755992759,-0.0154595694637902,0.0754851657256638
1.509999999999991,-0.0247570158337816,-0.0087618956461096,0.0838815853894866
1.519999999999996,-0.0185643381765262,-0.0041605093785208,0.088117153774867
1.5300000000000011,-0.0207335909760584,0.0064177024327114,0.0993143568553265
1.539999999999992,-0.0238521937340577,0.0168251709997807,0.1040997722174746
1.5499999999999972,-0.0223607948537407,0.0106391721490173,0.1155681402793063
1.5600000000000025,-0.0200919111841006,0.0175616513055209,0.1280655415305927
1.5699999999999932,-0.0128260551117335,0.0257117127503076,0.1403343647094527
1.5799999999999983,0.0024969706578086,0.0320477032519987,0.1454237615740478
1.5899999999999892,0.0189043991202379,0.0342998295330932,0.1515996240982811
1.5999999999999943,0.0474196438934972,0.0486866086786175,0.1648163099228484
1.6099999999999994,0.0795584865314658,0.0617873656360868,0.1808762727491273
1.6199999999999903,0.1230245401094803,0.0655435743586797,0.1917474290797138
