time,Gyr_X,Gyr_Y,Gyr_Z
0.0,-0.0298095504854897,-0.0422489839832789,-0.0145206329105229
0.0099999999999909,-0.016862580463502,-0.0360508059844922,-0.0135122430362878
0.019999999999996,-0.0293788077908126,-0.0358923013882503,-0.010241518010868
0.0300000000000011,-0.0199075392585434,-0.0397726629017329,-0.011303577669786
0.039999999999992,-0.030344846559171,-0.0341721643048815,-0.0043543302242949
0.0499999999999971,-0.036929955126168,-0.039473007216709,-0.0020907994063916
0.0600000000000022,-0.0346652872352416,-0.0340982237049449,-0.0031637173248957
0.0699999999999931,-0.0379389913716067,-0.0291363461090073,0.0016349703042054
0.0799999999999983,-0.0483962637847516,-0.0294043296347782,0.0065188030872234
0.0899999999999892,-0.0379392345346513,-0.0319917163505516,0.0068083072546146
0.0999999999999943,-0.0379055023128643,-0.0288089500390785,0.0019824086240612
0.1099999999999994,-0.0407926794406786,-0.0258336645571565,0.0047742112419957
0.1199999999999903,-0.0349100112600382,-0.0280154387582232,0.0064438325867146
0.1299999999999954,-0.0432252362402608,-0.0331783644548267,0.0113225144252507
0.1400000000000005,-0.061233670524793,-0.0315469691896407,0.0105609363734402
0.1499999999999914,-0.0515579161181119,-0.0339295678782443,0.0150275068247452
0.1599999999999966,-0.0548863681478032,-0.0230515449604304,0.0180055714424101
0.1700000000000017,-0.0417014181511551,-0.0193066291022532,0.0150260144373463
0.1799999999999926,-0.0440821209262197,-0.0233066423097755,0.0132567517802669
0.1899999999999977,-0.0428288486547197,-0.0196097386511018,0.0115095506272879
0.1999999999999886,-0.0319873575531274,-0.0204988415067703,0.0197898456689218
0.2099999999999937,-0.0381628395961851,-0.0173416905765965,0.0195011917915513
0.2199999999999988,-0.0335478997686487,-0.0191800625585668,0.0209813637308366
0.2299999999999897,-0.0309628284552542,-0.0155904600979646,0.0245505558392082
0.2399999999999948,-0.0328654281343886,-0.0126345620190084,0.0228231606051574
0.25,-0.0377665606815417,-0.0040527826607094,0.0242649780933447
0.2599999999999909,-0.0313463491445014,-0.0095668397565082,0.0219694612418009
0.269999999999996,-0.0356385928084703,-0.0071626729015892,0.0311708904555485
0.2800000000000011,-0.0307173305813776,-0.0045763338196177,0.0291331451323026
0.289999999999992,-0.0310992235590393,-0.0069647309353184,0.0307239628265377
0.2999999999999971,-0.020812111872539,-0.0081048737963448,0.0306764564292078
0.3100000000000023,-0.0120334493113864,-0.016286900193465,0.0303639610160675
0.3199999999999932,-0.0111749903611735,-0.0191571295999301,0.0330003532855536
0.3299999999999983,-0.0059869496993482,-0.0191233257399009,0.0305817063063075
0.3399999999999892,0.0080841564271883,-0.0196103042253381,0.0286289854715376
0.3499999999999943,0.0070133633548761,-0.0202710023481529,0.0326841635751291
0.3599999999999994,0.005270950028346,-0.0196825674861737,0.0329995866342251
0.3699999999999903,0.0093412347635757,-0.0191284087958298,0.0307314241374053
0.3799999999999954,-0.0122742294497133,-0.017678356913208,0.0322632825127157
0.3900000000000005,-0.0053005704426688,-0.0242422628868935,0.0355953900309953
0.3999999999999915,-0.009497389395578,-0.0247652288600482,0.0405072623207169
0.4099999999999966,-0.0105888683583081,-0.0349200839604391,0.0413254758450864
0.4200000000000017,-0.0098683999449674,-0.0431142564030523,0.0344396737747317
0.4299999999999926,-0.0112539831932795,-0.0396714432941937,0.0327231280984951
0.4399999999999977,0.003651120356459,-0.0359219079298581,0.032988117265369
0.4499999999999886,0.0209772853951643,-0.0262326838523579,0.0313346360415454
0.4599999999999937,0.039904979792111,-0.0186158095874279,0.0345140670469918
0.4699999999999988,0.041824503542889,-0.0191502504713676,0.0297233683388247
0.4799999999999897,0.0317924914255337,-0.0189522132933753,0.0307925464114182
0.4899999999999949,0.0177775534679713,-0.0215329958202126,0.03170666720332
0.5,0.0100179513000466,-0.0297018595078062,0.0288498442315753
0.5099999999999909,-0.0054006679026864,-0.0268085676528867,0.0329140651446337
0.519999999999996,-0.0105666811295554,-0.0247377451363546,0.0236565678668456
0.5300000000000011,-0.0125907489459293,-0.0275523755917035,0.0216497344025993
0.539999999999992,-0.0195521806015966,-0.0274369094985357,0.027000016013413
0.5499999999999972,-0.0107670996533584,-0.0273285180490566,0.0260697306973703
0.5600000000000023,-0.010680377680874,-0.0255614198641936,0.0319134650924994
0.5699999999999932,-0.004955580343112,-0.0210387529213449,0.0330663689380859
0.5799999999999983,0.0029915299272697,-0.0224261608061005,0.0323820336536424
0.5899999999999892,0.0069591076507167,-0.0214942896915711,0.0334768436496943
0.5999999999999943,0.0125522963631258,-0.0202663383539352,0.0361071270704953
0.6099999999999994,0.0149770256939644,-0.021640158592355,0.0388744467201993
0.6199999999999903,0.0147877846259547,-0.0226536964107372,0.0380199746943805
0.6299999999999955,0.0177164650269712,-0.0202891414460773,0.0423139468664854
0.6400000000000006,0.0249949397986946,-0.0196423098739526,0.0479186743167815
0.6499999999999915,0.0272903589633539,-0.0227856562571499,0.0492302725931168
0.6599999999999966,0.0357073417509486,-0.0225563856532411,0.0535965173511871
0.6700000000000017,0.031552820616353,-0.0264592806161996,0.0582587024761937
0.6799999999999926,0.0346994264181696,-0.0216646609529092,0.0600045738862954
0.6899999999999977,0.0328272058654682,-0.0277657672126098,0.0614755053288243
0.6999999999999886,0.0199338301142245,-0.0291158596515057,0.0625067559577194
0.7099999999999937,0.0183430493782331,-0.0307716843561565,0.065223683107137
0.7199999999999989,0.0144395640409055,-0.0371942824750783,0.0670677563190117
0.7299999999999898,0.0152145266659248,-0.0330971036035753,0.0708061148290987
0.7399999999999949,0.0155074343080566,-0.0388012255090634,0.0786344226919203
0.75,0.0127275988733687,-0.0301706642384549,0.0841056621034972
0.7599999999999909,0.0055607430495325,-0.0275166569495045,0.0951087215520943
0.769999999999996,-0.0068473573044993,-0.0184465618940122,0.1009247459337791
0.7800000000000011,-0.0050303495699674,-0.0109745178376595,0.1075539728749511
0.789999999999992,0.0018160424554752,-0.005145733925685,0.1228628063913849
0.7999999999999972,0.000810331747664,-0.0011157680209415,0.1292201484490042
0.8100000000000023,0.0026263799760336,0.004110954004819,0.1361124548976488
0.8199999999999932,0.0072398304390385,0.0158563005058354,0.1374193278317314
0.8299999999999983,0.0270605540954648,0.0196640488604152,0.1448692644958649
0.8399999999999892,0.0456246993224372,0.0247198354884882,0.1574807219706641
0.8499999999999943,0.0698473653345602,0.0381277336789129,0.1850845631658236
0.8599999999999994,0.1017990826124392,0.0465295746287907,0.201944510830926
0.8699999999999903,0.1416839098758683,0.0509425477850895,0.213083890221347
0.8799999999999955,0.1687629896200136,0.0452084727607056,0.224431852664282
0.8900000000000006,0.1944213371587267,0.0535207137504267,0.2415774737462588
0.8999999999999915,0.2155361163318438,0.0448472422296308,0.2472969198525189
0.9099999999999966,0.238763878121107,0.0405840225850414,0.2594422186227646
0.9200000000000016,0.2475643378874388,0.0537436100698104,0.2731853319745512
0.9299999999999926,0.2558759362041957,0.0584442317189745,0.2913873058044936
0.9399999999999976,0.2720602869427694,0.0577736753288892,0.2920433956802906
0.9499999999999886,0.2751717656012879,0.0613502190481866,0.3135574891374553
0.9599999999999936,0.2849608849271649,0.0622411539963676,0.3360267975732674
0.9699999999999988,0.2979788184386788,0.0752238742888573,0.3566168368682126
0.9799999999999898,0.3262300119714481,0.080910876734426,0.3776454735427885
0.9899999999999948,0.348998510957424,0.0922082316931894,0.3891302763870531
1.0,0.3533696288861316,0.1092820278026455,0.4053327287931557
1.009999999999991,0.3556384355350129,0.1063224513684828,0.4358346439160532
1.019999999999996,0.3465874624817804,0.1240234416612404,0.4595964943979148
1.0300000000000011,0.3188941502126562,0.1258984043592605,0.4791602175832091
1.039999999999992,0.2839613661720056,0.1154397623616037,0.5142750101315628
1.0499999999999972,0.246991369607965,0.1167755675876878,0.5321675931313445
1.0600000000000025,0.2247049567208303,0.1034233450525424,0.5577676208648078
1.0699999999999932,0.2033880345148646,0.0949550908514032,0.5877231184848087
1.0799999999999983,0.1933161964521361,0.090856953913219,0.6123696318903702
1.0899999999999892,0.1875634894283586,0.0871799687392815,0.6402698292192673
1.0999999999999943,0.1604420787921946,0.0908420667297851,0.6633771378380697
1.1099999999999994,0.1311492361163065,0.102028234552087,0.6919394203595333
1.1199999999999903,0.0965584729644549,0.1017238740290461,0.7249232836112001
1.1299999999999957,0.0704644097561674,0.096740195354592,0.760596572491397
1.1400000000000006,0.0639150223183853,0.1006323513167415,0.7935829674144181
1.1499999999999917,0.0606062343838744,0.101718045631737,0.825703464850313
1.1599999999999966,0.068604099641115,0.1081353947687597,0.8624432593914506
1.1700000000000017,0.0932925298054881,0.1202441077643588,0.8886329708233917
1.1799999999999926,0.1125521282209411,0.1240391437883177,0.917140086828764
1.1899999999999975,0.1416492192985294,0.1294556451863025,0.9568357573132168
1.1999999999999886,0.1521073192350582,0.1384327904700968,0.994836383362867
1.2099999999999935,0.1621659815377437,0.1415415326084309,1.027003898897353
1.2199999999999989,0.1705061937189267,0.1359903152297902,1.0719389129215642
1.2299999999999898,0.1670785821832,0.1285630396224943,1.1122375748491802
1.2399999999999949,0.1781826365583212,0.1236892647774848,1.1511841932101754
1.25,0.1846679639439661,0.1103084780617525,1.1971768765367297
1.259999999999991,0.2013138761233302,0.1026840757740331,1.2413336754833424
1.269999999999996,0.1908075394363823,0.0859841087227183,1.2807260908395044
1.2800000000000011,0.1739594694172835,0.0768880278820429,1.3127062205560285
1.289999999999992,0.1703199532242313,0.0540037606236793,1.3517665181003284
1.2999999999999972,0.1474000660202098,0.0318514941595877,1.3853136057479076
1.3100000000000025,0.1331414563549218,0.0146161779007362,1.4196178648183089
1.3199999999999932,0.1113832229805316,-0.0129943131736529,1.449602843536104
1.3299999999999983,0.1001835313601601,-0.0256039273703554,1.4798651954487971
1.3399999999999892,0.0961913035913438,-0.0401720111286273,1.5030762599559266
1.3499999999999943,0.0969608819095456,-0.0557042742139599,1.5234136725186278
1.3599999999999994,0.1195136620951755,-0.0653029993570501,1.550167958582474
1.3699999999999903,0.1333711363840562,-0.0749818767045533,1.5731577342090983
1.3799999999999957,0.1505382832711953,-0.0800254660797896,1.5980186044820477
1.3900000000000006,0.1548425213396976,-0.091043353227339,1.620082909662754
1.3999999999999917,0.1527067049797445,-0.0977932566208668,1.6519469462393932
1.4099999999999966,0.1582615251234956,-0.0911507623466657,1.683968325769673
1.4200000000000017,0.1654285477484007,-0.0993274189230067,1.6975748086219526
1.4299999999999926,0.1640815050773187,-0.0911001489551526,1.7197982715260507
1.4399999999999975,0.1795351115755894,-0.0787557025824976,1.7306227029368486
1.4499999999999886,0.1652611051739068,-0.0708392476084064,1.7510575480008628
1.4599999999999935,0.1193073104184154,-0.0432583740711563,1.7644761679250969
1.4699999999999989,0.0447202264577567,-0.0136781895305563,1.78092486990439
1.4799999999999898,-0.0386681738160957,0.0225716680692245,1.790697587746091
1.4899999999999949,-0.1215280157245883,0.0551346130129011,1.7879715767626485
1.5,-0.204947793615762,0.0887762712520786,1.7843700338130508
1.509999999999991,-0.2787228662882528,0.124396800317393,1.768851679162433
1.519999999999996,-0.3289145159476983,0.1583145530987393,1.7529332878222383
1.5300000000000011,-0.3613185489584634,0.1927105912618738,1.7331846862261129
1.539999999999992,-0.3838153965346149,0.2308463546944471,1.711505561642196
1.5499999999999972,-0.3834703519282468,0.2665817570540615,1.685259463328044
1.5600000000000025,-0.3786303799529064,0.2917059959462811,1.671615837496442
1.5699999999999932,-0.3811922799559573,0.320447362602029,1.6504273197616794
1.5799999999999983,-0.3857107099578217,0.3345483442263423,1.6279726099246128
1.5899999999999892,-0.3818232538987859,0.3418487167951323,1.6136001336117294
1.5999999999999943,-0.3843461846187042,0.3424742795479853,1.5817584068251256
1.6099999999999994,-0.3861576855520149,0.3307069749004697,1.5505503978018589
1.6199999999999903,-0.3742475343522011,0.3176439583273812,1.524316749370874
1.6299999999999957,-0.3523421252328088,0.2975220580770571,1.4987956319611797
1.6400000000000006,-0.3314379119808333,0.2876185159426066,1.4752832596710554
1.6499999999999917,-0.3016125255126291,0.2698894129585433,1.450320019896032
1.6599999999999966,-0.2584224107582391,0.2511557518527688,1.436252263628863
1.6700000000000017,-0.2206944176042406,0.2345615725041888,1.435271323121364
1.6799999999999926,-0.190868204875251,0.2133780619153959,1.434884761585829
1.6899999999999975,-0.1683723818497237,0.1941444996659702,1.4314979824867382
1.6999999999999886,-0.1614191755663785,0.1693962676110363,1.4257166239566668
1.7099999999999935,-0.1646943929795817,0.1519181170345098,1.416139264830332
1.7199999999999989,-0.1757318537837278,0.1323089071855065,1.4159313989061926
1.7299999999999898,-0.1803314625178121,0.1232719970874874,1.4082816042598283
1.7399999999999949,-0.1765234939721867,0.1288821640767833,1.394411398203521
1.75,-0.1620657503030442,0.1327830948517879,1.3947586889999926
1.759999999999991,-0.1525900717073617,0.1483286490652928,1.3917183726060345
1.769999999999996,-0.1283724476778707,0.1558985709992691,1.3901273713269726
1.7800000000000011,-0.098080268617339,0.1716699095531042,1.3859923550864317
1.789999999999992,-0.0518661674471446,0.179178075354012,1.3756490416929208
1.7999999999999972,-0.012738276040783,0.1919757918974588,1.3749919964873627
1.8100000000000025,0.0034852431598802,0.197842010115597,1.3751909564975948
1.8199999999999927,0.0188822675621905,0.2063407512391882,1.3639701094871042
1.8299999999999983,0.026513722266284,0.2048911737095476,1.356356778915149
1.8399999999999888,0.009011742988343,0.1905263629614833,1.3418271824414385
1.8499999999999943,-0.0021695797111423,0.179268902743875,1.3414873817880013
1.8599999999999997,-0.0034056874348012,0.1534529976799439,1.3268111553325157
1.8699999999999903,-0.0266781059542771,0.1370127082359321,1.319473119458901
1.8799999999999957,-0.0427544908568267,0.1101866203498638,1.3165462593321415
1.8900000000000008,-0.0666624164948519,0.0881646208140827,1.3145783025453368
1.8999999999999917,-0.0712196516232437,0.0656388067013713,1.3043186592902638
1.9099999999999968,-0.0854181572191869,0.0459108315404282,1.3012685009700775
1.9200000000000017,-0.1008889834039405,0.0258955503075061,1.297870071978277
1.9299999999999928,-0.1151267702528398,0.0156334263763228,1.293669930202756
1.9399999999999975,-0.1316178030267278,0.0073908330195371,1.2893898172120803
1.9499999999999889,-0.1465480944909745,0.0022740850842471,1.289925878561366
1.9599999999999935,-0.1603896106355746,0.002120613490248,1.2901636145130333
1.9699999999999989,-0.1716456810913365,0.0050715422235407,1.2923095801021882
1.9799999999999895,-0.1787517779651506,0.0203924507811304,1.288208363431049
1.9899999999999949,-0.1868642165743679,0.0231074029473448,1.2688372203879723
2.0,-0.2028079554338309,0.0435543834949304,1.2622751921738993
2.009999999999991,-0.2083727669823256,0.0576529845149069,1.2546106219034558
2.019999999999996,-0.2101804332766918,0.0813211261877347,1.232258804973839
2.030000000000001,-0.2263838814290639,0.1249743854768784,1.216693797140872
2.039999999999992,-0.2327388708355492,0.1637687217538489,1.2010278675009944
2.049999999999997,-0.2371293490480005,0.1887724356273448,1.1795750507987284
2.0600000000000023,-0.2419480573389837,0.2194185392757375,1.171992799164133
2.069999999999993,-0.2390954647516582,0.2389531421248274,1.1440488451016857
2.0799999999999983,-0.2350728958857675,0.2731360576088372,1.1242274948923108
2.089999999999989,-0.2266031564558885,0.2943867448371011,1.1040349701050836
2.0999999999999943,-0.2051971402538592,0.3320374801096889,1.0855725090606207
2.1099999999999994,-0.1850118505500204,0.3603289044372478,1.0729004179846782
2.1199999999999903,-0.1777685507895338,0.385447277132104,1.04948258667822
2.1299999999999955,-0.161608980190669,0.4132289049839204,1.0294784925503029
2.140000000000001,-0.1489740909162653,0.4269201839250822,1.0022729761394171
2.1499999999999915,-0.1275851239870733,0.429262194148383,0.9733866433494556
2.1599999999999966,-0.093960138138726,0.4266893856013108,0.9602506095038754
2.1700000000000017,-0.0813124367725668,0.4167784711291987,0.9442325369925916
2.1799999999999926,-0.0723894643223121,0.3936198884542682,0.9346071416106998
2.1899999999999977,-0.0799342070263701,0.3708752645363827,0.9323587922240734
2.1999999999999886,-0.1053787903705228,0.3365089275297213,0.9298806804674205
2.2099999999999937,-0.1295543882532128,0.3167479716061373,0.9180984068683606
2.219999999999999,-0.1835171055445228,0.2933976741955519,0.9190404084796748
2.2299999999999898,-0.2366162193175813,0.2805984456822259,0.9168585205922248
2.239999999999995,-0.2816516305963557,0.2776447878325021,0.918559731467916
2.25,-0.311247777224481,0.2618057529487439,0.9173813102243612
2.259999999999991,-0.3120058781675082,0.2543146650875902,0.9252206310468064
2.269999999999996,-0.3124504111702738,0.2409799747644374,0.931346843293988
2.280000000000001,-0.3123845656561559,0.2354567880333747,0.9349923923579444
2.289999999999992,-0.311861438156937,0.2269514031777554,0.942187521331894
2.299999999999997,-0.3144403298212466,0.22266260656921,0.940748775390898
2.3100000000000023,-0.2926783144339671,0.2246958664863249,0.9524060602044452
2.319999999999993,-0.2592304582702021,0.2144814668658448,0.9691480409953338
2.3299999999999983,-0.2308447816794165,0.2091914956743546,0.9738039820015684
2.339999999999989,-0.2118689223505571,0.1993681899571601,0.971566156401242
2.3499999999999943,-0.1852599775000213,0.181724241363672,0.971659132999666
2.3599999999999994,-0.1538965739527387,0.1616689763510503,0.9677092241841572
2.3699999999999903,-0.1250899064002011,0.1319732689288861,0.9489880313884428
2.3799999999999955,-0.0861862726130282,0.1033670942242703,0.9410606234118538
2.390000000000001,-0.0340613602430223,0.0707438152250566,0.9246056559577294
2.3999999999999915,0.0012754357849561,0.0243849979218221,0.9199685463506
2.4099999999999966,0.0218177372575975,-0.0131551253709072,0.9117657989884018
2.4200000000000017,0.0314661626610438,-0.0480457340209116,0.9031353684820695
2.4299999999999926,0.0381919096382071,-0.0836378154218875,0.9064499787686816
2.4399999999999977,0.0255961590574784,-0.1081754975398481,0.9084140325587504
2.4499999999999886,0.0127810585975782,-0.1406146738037509,0.9102052370412232
2.4599999999999937,-0.0100927579351611,-0.1529994010849025,0.9136001241324784
2.469999999999999,-0.0141368654866081,-0.1706171738387085,0.9242156496619616
2.4799999999999898,-0.0154897039649258,-0.1922575331216575,0.9259123639713248
2.489999999999995,-0.0100319461403134,-0.2066091840127837,0.924775608847072
2.5,0.0083774877395212,-0.2211092529395772,0.930551387424983
2.509999999999991,0.0027595781657106,-0.2138092688866928,0.9480379775572836
2.519999999999996,-0.0121070759476285,-0.2026591587615888,0.96030734253455
2.530000000000001,-0.0502130534667591,-0.1877079810350755,0.9506963312926594
2.539999999999992,-0.0745378241382346,-0.1727912928095992,0.957520068833436
2.549999999999997,-0.0913628151462701,-0.1623946455064903,0.9626379140206408
2.5600000000000023,-0.091994763648138,-0.1590396585663348,0.9551348598315992
2.569999999999993,-0.0791498854923806,-0.1431745121070264,0.9485753784425084
2.5799999999999983,-0.0817048692352916,-0.1414152235846344,0.9346614295035022
2.589999999999989,-0.0820424078085732,-0.1302229876253318,0.9309971145617822
2.5999999999999943,-0.0971326849570597,-0.1056004013731748,0.925248856521414
2.6099999999999994,-0.1204899057922374,-0.0903247561341915,0.9223060720100682
2.6199999999999903,-0.1433408490328263,-0.0742280901601079,0.9116616480776204
2.6299999999999955,-0.158103116476261,-0.0597853089370009,0.8902158876200758
2.640000000000001,-0.1599763701936149,-0.0511194671837974,0.8614235542114395
2.6499999999999915,-0.1516685847051526,-0.0616948043555593,0.8387872256710965
2.6599999999999966,-0.1280191468391034,-0.0548164182305725,0.8196610578837916
2.6700000000000017,-0.1089668640848517,-0.057179810281714,0.8058202771245923
2.6799999999999926,-0.1077735510608607,-0.0474840872780232,0.790891158102234
2.6899999999999977,-0.1074540237167869,-0.0366684117888528,0.7761338311030166
2.6999999999999886,-0.0941956219087869,-0.0283694585209117,0.7676281169120279
2.7099999999999937,-0.0771437194658909,-0.0174353234985724,0.747526009753331
2.719999999999999,-0.0616069438656902,-0.0063396808739852,0.7119010291724277
2.7299999999999898,-0.0452928308059786,0.0021290957292924,0.6807252981589269
2.739999999999995,-0.0315752952389894,0.008669129127515,0.6559003091663422
2.75,-0.0320873177275624,0.0129022469463635,0.6412436181095643
2.759999999999991,-0.0311308571156463,0.0114745039150601,0.6187674522230062
2.769999999999996,-0.0519214202022982,0.0190592872226063,0.6082059069783122
2.780000000000001,-0.0610734226821341,0.0200562568205704,0.6063258304485278
2.789999999999992,-0.0414209536778069,0.03228584673424,0.6078934930613049
2.799999999999997,-0.013563673994385,0.0444676804514245,0.6056670108999832
2.8100000000000023,0.0117537010818955,0.052743671405316,0.602808119161622
2.819999999999993,0.0415304546124105,0.0655599087479033,0.5869492257093132
2.8299999999999983,0.0615342936897927,0.0729565247494443,0.5814729900585024
2.839999999999989,0.0803948485310836,0.0840434478196499,0.5753160000634928
2.8499999999999943,0.1048932006297693,0.0829002172303077,0.5577094769515833
2.8599999999999994,0.1388214796234633,0.0879113095318705,0.549014093250809
2.8699999999999903,0.1810265996999511,0.0894734009501478,0.5530681881619993
2.8799999999999955,0.2093124844161304,0.0979952439551894,0.5610768218681264
2.890000000000001,0.2170851527582941,0.1014517341131477,0.5738517796671688
2.8999999999999915,0.2033149135281628,0.0920849947515724,0.5873993603812299
2.9099999999999966,0.1796097481891311,0.1066280556187477,0.5958687120714149
2.9200000000000017,0.1626371687329303,0.1016121364695347,0.5961243418863332
2.9299999999999926,0.1232488328975741,0.0983358903070829,0.5911546015605181
2.9399999999999977,0.0914115708473102,0.0904904513303107,0.5854107686271858
2.9499999999999886,0.0362846651103939,0.094169779779647,0.5781901555476856
2.9599999999999937,-0.0363190811726492,0.1059060629605495,0.5614969962142295
2.969999999999999,-0.1078034628639404,0.1051397574248975,0.5550279367776937
2.9799999999999898,-0.1885537985652937,0.1119777409985202,0.5466380106728228
2.989999999999995,-0.2791336662105075,0.1183899581652302,0.5439806562431131
3.0,-0.3649594011323923,0.1266958645422043,0.542725989924281
3.009999999999991,-0.4199844135629968,0.1302748496457926,0.5448156942464573
3.019999999999996,-0.4467830009478337,0.1296074263338942,0.5418905040319647
3.030000000000001,-0.4491735285196241,0.1243329213421332,0.5378902725457955
3.039999999999992,-0.41584632250565,0.1122144613596917,0.5377321249669805
3.049999999999997,-0.3542226563237758,0.1143344414030071,0.5404782903464023
3.0600000000000023,-0.2870003570980021,0.1017724569787419,0.5508651151827191
3.069999999999993,-0.2264810525080167,0.0941886385566924,0.5648544052800311
3.0799999999999983,-0.1689793933041735,0.089792989416401,0.5816105291998528
3.089999999999989,-0.1202477894137826,0.0672930614974331,0.6007076801768811
3.0999999999999943,-0.0896452705493502,0.041085782395212,0.6169963299707174
3.1099999999999994,-0.0827849505674904,0.0190405415297584,0.6357001822211977
3.1199999999999903,-0.0842043895866219,0.0003446551970479,0.6405185435418417
3.1299999999999955,-0.0842285507896037,-0.0206245514103148,0.6354664966794468
3.140000000000001,-0.0836689326567777,-0.0405851027243632,0.6347364534902163
3.1499999999999915,-0.0863766613302235,-0.0529792209468706,0.61937915013788
3.1599999999999966,-0.1091910906093529,-0.0639072168338421,0.6029735184076334
3.1700000000000017,-0.1375738166800626,-0.0612351734036354,0.581967838059889
3.1799999999999926,-0.1702425261193875,-0.0617472806710966,0.5603300533694543
3.1899999999999977,-0.1938908359912749,-0.0674514870825838,0.5322752850250373
3.1999999999999886,-0.2130740186244608,-0.0633404072634052,0.5036750492848586
3.2099999999999937,-0.218021603203792,-0.0547846469015632,0.4718951414201758
3.219999999999999,-0.2144761211530316,-0.0492437929614905,0.4512584268790787
3.2299999999999898,-0.2028161555356579,-0.0364486180552555,0.4250265956540663
3.239999999999995,-0.1799066721152464,-0.0217090145026856,0.4115802130528243
3.25,-0.148873266862705,-0.0160212704938554,0.3967186670714179
3.259999999999991,-0.1226478902530383,-0.0117634209031931,0.3775656612976314
3.269999999999996,-0.0972103798395201,-0.0179440297422536,0.3617281239121556
3.280000000000001,-0.0498214594527413,-0.0236567493701671,0.3213937297476668
3.289999999999992,0.0216543919662002,-0.030508247307787,0.2956043710630098
3.299999999999997,0.0966851918699568,-0.0368508198282789,0.2602227359140296
3.3100000000000023,0.1802762466927349,-0.0532286224950029,0.2294693295722505
3.319999999999993,0.2630227205524842,-0.0601942820254201,0.2029467884917906
3.3299999999999983,0.3068367248492476,-0.07373152658273,0.1539335879853244
3.339999999999989,0.3356335790540754,-0.0757736001350495,0.1302091303976922
3.3499999999999943,0.3499687508607076,-0.0866624052537503,0.1035158668731063
3.3599999999999994,0.3489666895894563,-0.095749134745122,0.0799035733609893
3.3699999999999903,0.3475909465344137,-0.0931399931341472,0.065433374398211
3.3799999999999955,0.3506573962502582,-0.0995980844535977,0.0512569931372838
3.390000000000001,0.3686979431694707,-0.1149995835575319,0.0339623303126793
3.3999999999999915,0.3769166239156799,-0.1251162111886589,0.0125036272015516
3.4099999999999966,0.388996557236647,-0.1323878625436703,-0.0089828416500353
3.4200000000000017,0.4005516768657705,-0.137739513232373,-0.0271232702538869
3.4299999999999926,0.3821065696506585,-0.146855244525234,-0.0439623061828177
3.4399999999999977,0.3461184113517096,-0.1416948177702053,-0.0594048636312777
3.4499999999999886,0.3218436053089951,-0.1277611924377074,-0.0656290084569108
3.4599999999999937,0.2709667300089501,-0.1062780993512477,-0.0775986452247734
3.469999999999999,0.2184293570218741,-0.0870072136512821,-0.0992751401610022
3.4799999999999898,0.1857234261586528,-0.0625776510430483,-0.1158978750248297
3.489999999999995,0.1567748525353339,-0.0527336357103807,-0.1347253056329723
3.5,0.1420710408524075,-0.045803965190896,-0.1489397666416915
3.509999999999991,0.1567005779986981,-0.0377311739765993,-0.1643508767964705
3.519999999999996,0.1672457951773515,-0.0322915461651731,-0.1806711052900665
3.530000000000001,0.1783239831867545,-0.0323861096677591,-0.2042187679033581
3.539999999999992,0.1777956534475194,-0.0173565363963832,-0.2301120752335128
3.549999999999997,0.1687550943262804,-0.0063016518007351,-0.2541067914121092
3.5600000000000023,0.1844688513474199,0.005381647432419,-0.2824602407364687
3.569999999999993,0.1830134917118711,0.0062381068252558,-0.3153775327793511
3.5799999999999983,0.1899919688287857,0.015292540202057,-0.3513957907442949
3.589999999999989,0.191159774099962,0.0201463803134808,-0.3875121570944756
3.5999999999999943,0.1923235214389123,0.0207012984150253,-0.4208053108599069
3.61,0.1817169313784677,0.0269129614866191,-0.4581166286546775
3.6199999999999903,0.1627768177073696,0.0307475904059047,-0.4892859604337707
3.629999999999996,0.155135145455322,0.023073860119979,-0.5095153707072269
3.640000000000001,0.1242266254019478,0.0116324399688927,-0.5350908130717591
3.649999999999992,0.1136326591711289,0.0018011764253754,-0.5558729914243526
3.6599999999999966,0.0931851871840861,-0.0126568035252352,-0.5653421303627552
3.6700000000000017,0.0498475113486614,-0.0240397958722636,-0.5720424884997393
3.6799999999999926,0.0104704261992811,-0.0430012490013911,-0.5704626170348062
3.6899999999999977,-0.0236219204781956,-0.0548089579705868,-0.575846622229874
3.6999999999999886,-0.0593759209225928,-0.0650825418823563,-0.585500767140602
3.7099999999999937,-0.083936113990112,-0.0679908745165931,-0.5937475232963076
3.719999999999999,-0.1045071681598749,-0.0678700171746572,-0.6066708066410731
3.7299999999999898,-0.1297447815203652,-0.0741922758804532,-0.6239318010155311
3.739999999999995,-0.1428197043944258,-0.0739534738887527,-0.6471810909323447
3.75,-0.1560398366381814,-0.0776263961286087,-0.6684525149602644
3.759999999999991,-0.1823157817324269,-0.0774305175186128,-0.6876484744300204
3.769999999999996,-0.2182534199136455,-0.0772513351701542,-0.7041365669066583
3.780000000000001,-0.2509859177589277,-0.0861125479836441,-0.7042761032661912
3.789999999999992,-0.2797757724597456,-0.0679685503291393,-0.7057085054672421
3.799999999999997,-0.3171904119006962,-0.0566330936901484,-0.7073244007194622
3.8100000000000014,-0.3284095817938681,-0.036702031429094,-0.7067200881389276
3.819999999999993,-0.3504652509284065,-0.0176014122057947,-0.7169961283157685
3.8299999999999983,-0.357718391863265,0.0035457219658697,-0.7277353045340916
3.839999999999989,-0.360026410426924,0.021040336055272,-0.7481816207823713
3.8499999999999934,-0.3771805365470407,0.0281352697458065,-0.771350640488814
3.86,-0.371407692307097,0.0345886860683833,-0.7981059742198955
3.8699999999999903,-0.3477849106381666,0.034362091461619,-0.8329966527261023
3.879999999999996,-0.3242777870532383,0.0264512158036731,-0.8672911289426426
3.890000000000001,-0.2938529157068173,0.0090955588007489,-0.897692330542841
3.899999999999992,-0.2535540037950293,-0.0090689673566616,-0.9331648225538094
3.9099999999999966,-0.2471827423514949,-0.0269764985520047,-0.9721510872918286
3.9200000000000017,-0.24545481950563,-0.0418767577126753,-1.0017517743732696
3.9299999999999926,-0.2541432373531987,-0.0653099547983084,-1.036149980736604
3.9399999999999977,-0.2638341891442375,-0.0709995933528804,-1.072235577865611
3.9499999999999886,-0.26712284848686,-0.0830315015670009,-1.0996364853846825
3.9599999999999937,-0.2553605401503431,-0.0937544287562065,-1.134042892845058
3.969999999999999,-0.2268903409568736,-0.1046314416516151,-1.1652046425140186
3.9799999999999898,-0.1895497233047309,-0.1238320624924603,-1.1955178884131847
3.989999999999995,-0.1493101239821785,-0.1334196177283864,-1.2193367142543647
4.0,-0.1178514173416527,-0.155233565756598,-1.2414131015378318
4.009999999999991,-0.077124750361822,-0.1628800254305862,-1.2622812301848398
4.019999999999996,-0.050746170571827,-0.1745899330321895,-1.2782232638764637
4.030000000000001,-0.0058501006017173,-0.1823943338401328,-1.2928719468052714
4.039999999999992,0.0374422121980685,-0.1902424885242978,-1.311950067419397
4.049999999999997,0.0774687130574266,-0.211246504899606,-1.3269157475991666
4.060000000000002,0.107922871360063,-0.2125340395198671,-1.325087588555478
4.069999999999993,0.1342152412109556,-0.2009230577294909,-1.3250782949451303
4.079999999999998,0.1342865272028116,-0.1878300824393142,-1.3253574288135317
4.089999999999989,0.1151109119533919,-0.1668025260894171,-1.3212189016915452
4.099999999999994,0.0974991230463282,-0.1385107938910728,-1.310923343722647
4.109999999999999,0.0977941830026432,-0.1233959800811481,-1.312116077300359
4.11999999999999,0.1130262252112023,-0.1056765452417661,-1.3110844628910974
4.129999999999996,0.1370436005794811,-0.0907272752158064,-1.2966764060505584
4.140000000000001,0.1628385630004702,-0.0756896510505888,-1.2880184138934536
4.149999999999992,0.1717972110757123,-0.0440963993343065,-1.272305361876575
4.159999999999997,0.2051941978326382,-0.01696862638357,-1.2543451766568916
4.170000000000002,0.2167310182834121,0.0128756216810101,-1.2441897729027052
4.179999999999993,0.232281498174747,0.0434023628854382,-1.2236747055308668
4.189999999999998,0.2366806637745256,0.0765731619971334,-1.207370724784841
4.199999999999989,0.2483455674568253,0.1098831566247902,-1.194888271727497
4.209999999999994,0.2654651293764448,0.1294950100280655,-1.1830423999092
4.219999999999999,0.2813732890439228,0.1562201570328989,-1.167373593586497
4.22999999999999,0.2913421333183279,0.190129355680156,-1.136784489150499
4.239999999999995,0.2889541392615826,0.2075601000166263,-1.1099937492656349
4.25,0.303735268058384,0.2283101788087052,-1.0823876147170577
4.259999999999991,0.3207269710949163,0.2533458864618111,-1.0653058512285936
4.269999999999996,0.3401478176979359,0.26787532480519,-1.068470499212805
4.280000000000001,0.3634015982023296,0.2852926603335363,-1.0682030029165392
4.289999999999992,0.3895534140741645,0.303878670994514,-1.0831088491069554
4.299999999999997,0.3984708141355783,0.3219557449922562,-1.08656161047184
4.310000000000002,0.4070804158728269,0.3193904873454793,-1.0757710345969296
4.319999999999993,0.3824917654172712,0.3276358427251241,-1.0636948264586812
4.329999999999998,0.3266508103234294,0.3363406686742932,-1.0416410671993157
4.339999999999989,0.2461461458083832,0.3362676733635549,-1.0296812029412818
4.349999999999994,0.1648793489856282,0.3432949599982214,-1.0234034729138346
4.359999999999999,0.0664614412898403,0.3480228670951994,-1.0200525872893935
4.36999999999999,-0.0215282104356413,0.351552103901541,-1.0096748754033356
4.379999999999996,-0.0889088266143788,0.3649768695892886,-0.9970702901672738
4.390000000000001,-0.1205634705980245,0.371623301884699,-0.9757037629375488
4.399999999999992,-0.1108032657752917,0.3741255416504909,-0.9435222138532882
4.409999999999997,-0.0710990162269209,0.3736156813802836,-0.911230163549302
4.420000000000002,-0.0276964073624251,0.3619861967065702,-0.8832115776807824
4.429999999999993,-0.0068340806665737,0.3676528108214856,-0.8503321719098188
4.439999999999998,0.0365036433448814,0.3682218525369772,-0.8086819874830812
4.449999999999989,0.0747411094194241,0.3656533096971201,-0.7837852269606932
4.459999999999994,0.120193302900744,0.3700207072874902,-0.7585885681095237
4.469999999999999,0.1751708943478276,0.3625024928574045,-0.7463911764002507
4.47999999999999,0.2112119566405431,0.3547037792621911,-0.745703964320152
4.489999999999995,0.2609623787968222,0.3371109594453423,-0.7576666322207752
4.5,0.2934368345547938,0.3121646292276802,-0.7665269916231705
4.509999999999991,0.3117763986144537,0.2784201407556835,-0.7877772391458111
4.519999999999996,0.3349403866174435,0.2411403777699962,-0.8116507051689466
4.530000000000001,0.3513985859323464,0.2100392515799646,-0.8408944592588368
4.539999999999992,0.3801831202722846,0.1770245526009361,-0.8565822942310135
4.549999999999997,0.4183133542920366,0.1562316396033171,-0.87705483918201
4.560000000000002,0.4449725916102148,0.13774554238104,-0.903524258788134
4.569999999999993,0.4747153695763497,0.1153807268248705,-0.9046311252322136
4.579999999999998,0.5032962215977851,0.1018691549040013,-0.9184395050667395
4.589999999999989,0.526123900383713,0.0833526137752904,-0.9165364057246363
4.599999999999994,0.5475644574384094,0.0720209535234791,-0.9264796980242952
4.609999999999999,0.5506429410735143,0.0696620616000174,-0.9194328404404934
4.61999999999999,0.5719490445821459,0.062861657165156,-0.9051843111948222
4.629999999999996,0.573395066871402,0.0564425514986246,-0.8925036118069992
4.640000000000001,0.5737234710452673,0.0478486175497682,-0.8710660244778783
4.649999999999992,0.5744486088480434,0.052722559256643,-0.8552118224180199
4.659999999999997,0.56570109411963,0.0530786561061342,-0.8363626653154388
4.670000000000002,0.5503603143043778,0.060048236237087,-0.8290128476758039
4.679999999999993,0.5308914252806576,0.0615182886041369,-0.8274028726963614
4.689999999999998,0.5238773010029096,0.0637032886389894,-0.8255831139793302
4.699999999999989,0.5139479876173885,0.0558828421670937,-0.8249505998291761
4.709999999999994,0.5141648729975014,0.046834755066696,-0.8261628608661734
4.719999999999999,0.5079783369480694,0.042879930074853,-0.8253263697427146
4.72999999999999,0.4851573546454283,0.0402859030164239,-0.8236829645225331
4.739999999999995,0.4636820920608641,0.0483244653623412,-0.8367705287255559
4.75,0.4206633907877264,0.042685004156662,-0.866752885732166
4.759999999999991,0.3774025414513913,0.0494469529485721,-0.8916505466371214
4.769999999999996,0.3432920980588727,0.0412372874919681,-0.9215462089650118
4.780000000000001,0.3015854292223606,0.0309871999159312,-0.955229302815174
4.789999999999992,0.2631835240669355,0.0159625056523886,-0.9837001222582276
4.799999999999997,0.2154859536090392,0.0068360074997966,-1.0077145069658844
4.810000000000002,0.1831090322365768,0.0037232221832423,-1.0279189165550044
4.819999999999993,0.1647577579607718,0.0024100930397442,-1.0447205423382646
4.829999999999998,0.1642727473589618,0.0093049874047955,-1.0671167767382546
4.839999999999989,0.1651176644715864,0.0112213200666729,-1.076743647886406
4.849999999999994,0.183606168955284,0.0139690408742125,-1.0897587000947042
4.859999999999999,0.2078642763093939,0.0097621142746057,-1.0966537153087197
4.86999999999999,0.2120502221399034,0.0039387599901792,-1.0937181363810804
4.879999999999996,0.2139490929144877,-0.0093506862577364,-1.0936705988263415
4.890000000000001,0.2073471062136383,-0.0085177809794922,-1.0889017826993312
4.899999999999992,0.1738955069604252,-0.0239998770047799,-1.0864967633877594
4.909999999999997,0.144030822273639,-0.0341091660145918,-1.0932658993820443
4.920000000000002,0.0853201163590505,-0.0546615579104818,-1.1106808651906346
4.929999999999993,0.0112406010503694,-0.0669043374132582,-1.1431778702129762
4.939999999999998,-0.067238763309454,-0.0775128074523606,-1.1725394440504204
4.949999999999989,-0.1521181105406295,-0.0924389364110256,-1.1788908188610971
4.959999999999994,-0.2303607935161702,-0.1073978087848042,-1.175327842714984
4.969999999999999,-0.292418105912109,-0.1220908832838179,-1.1628436027762843
4.97999999999999,-0.3200162304517286,-0.1489673590749615,-1.1413221082264362
4.989999999999995,-0.3342498626485875,-0.1696168706772465,-1.1204960555621384
5.0,-0.3183426413393686,-0.189374511898617,-1.0921270095952578
5.009999999999991,-0.2985968048394599,-0.2148264486725753,-1.0738724110641509
5.019999999999996,-0.2526711878787984,-0.2232029727594683,-1.0582390248825648
5.030000000000001,-0.1905794415713275,-0.2318425968510509,-1.0389696574245857
5.039999999999992,-0.1290799593992922,-0.2289916379751077,-1.0209612209401702
5.049999999999997,-0.0505190929346889,-0.2355346112044394,-1.0000796539328052
5.060000000000002,0.0307848465189624,-0.2398138823244591,-0.984635874543868
5.069999999999993,0.1064463009714485,-0.2268131608545252,-0.9579276760808696
5.079999999999998,0.1675334227996021,-0.2316598104460483,-0.931793257368596
5.089999999999989,0.2268738902867937,-0.2312806744117237,-0.9055169858231626
5.099999999999994,0.2559593122643411,-0.2324589468785095,-0.8728362004643423
5.109999999999999,0.2819986110247616,-0.2346618468477982,-0.8440112500262916
5.11999999999999,0.2960302407058847,-0.244065817154552,-0.8242968986363647
5.129999999999996,0.3005337256746818,-0.2546128904427898,-0.8137481143100272
5.140000000000001,0.3008031261022661,-0.2427918378334498,-0.7971032429060503
5.149999999999992,0.2956927639375116,-0.240320984225601,-0.7913201926437117
5.159999999999997,0.2885489721321803,-0.2321084098235214,-0.7781962924241609
5.170000000000002,0.2706662303450351,-0.21808363993809,-0.7659903988582674
5.179999999999993,0.2629894812368982,-0.2083116523791683,-0.7538750998254438
5.189999999999998,0.2506228252653167,-0.1970592243803083,-0.7347450347247989
5.199999999999989,0.253113729895067,-0.1866257709046849,-0.7143858344071831
5.209999999999994,0.2632151443367394,-0.1590323111124992,-0.6987433160099085
5.219999999999999,0.269123195692492,-0.1327933753304448,-0.6830267288389462
5.22999999999999,0.2699435635244719,-0.1186013096969713,-0.6692553194783014
5.239999999999995,0.2852212736896722,-0.0996411811401,-0.6488600577982129
5.25,0.2834623593409537,-0.0817829668862536,-0.6145411792886643
5.259999999999991,0.291609872986912,-0.0606576680153898,-0.5902092648598215
5.269999999999996,0.3118064850256879,-0.0308673858058841,-0.5537806986676818
5.280000000000001,0.3309549104429607,-0.005552323615757,-0.5096085237178032
5.289999999999992,0.3581991764918402,0.0204333132007174,-0.4708283342208297
5.299999999999997,0.3747848831670742,0.0409618161742912,-0.4347832382363511
5.310000000000002,0.3998112418679586,0.0564775968775652,-0.3920482808264789
5.319999999999993,0.3993000401358706,0.057748292742558,-0.354687333539198
5.329999999999998,0.4075890790190641,0.0592910565886328,-0.3211050428574871
5.339999999999989,0.4140766211098506,0.0508039536507404,-0.2927364159789239
5.349999999999994,0.3997426638747228,0.0507228127921468,-0.2791984072171077
5.359999999999999,0.3949286592531645,0.0501741035718778,-0.272171193847173
5.36999999999999,0.349001121579873,0.0635831463527666,-0.2778609084737569
5.379999999999996,0.2741306378411196,0.0821584885887377,-0.278936719072165
5.390000000000001,0.1732619171751396,0.0883110745054959,-0.2801015144114757
5.399999999999992,0.0691895261777401,0.1018459762431991,-0.2639651537274324
5.409999999999997,-0.0733647566210386,0.1044507737587392,-0.2567863740325012
5.420000000000002,-0.2087903528997796,0.1073855838046188,-0.2315120794414684
5.429999999999993,-0.3172848013554072,0.1050142665190882,-0.1889081040215484
5.439999999999998,-0.4017890234222646,0.1069704037343501,-0.1479590251322076
5.449999999999989,-0.44965065230898,0.1128510098762644,-0.1146297580092703
5.459999999999994,-0.4630296073884192,0.1204603339106342,-0.1020523679217273
5.469999999999999,-0.4362769619554491,0.1293715821729134,-0.1075755458846794
5.47999999999999,-0.4004183535220429,0.1271971855813767,-0.1166513013554635
5.489999999999995,-0.342499766242204,0.1174489557613862,-0.1357179333829367
5.5,-0.2827684798680474,0.0977833543892946,-0.1584935438572175
5.509999999999991,-0.2179570833374194,0.0558057029923986,-0.1771754203834689
5.519999999999996,-0.1563978785039722,0.0151841959337271,-0.1953249912481663
5.530000000000001,-0.1172194453537379,-0.0303566543467891,-0.2188312145311788
5.539999999999992,-0.0736696101992998,-0.0745111851006247,-0.2526733191089432
5.549999999999997,-0.0350641655796601,-0.1162434550159109,-0.291017181143722
5.560000000000002,-0.0252374148598895,-0.1686045753829694,-0.3405399826728529
5.569999999999993,0.0020469614113403,-0.2207449173263297,-0.3854417879252968
5.579999999999998,0.0136676487612204,-0.2665434944089155,-0.4311860846280633
5.589999999999989,0.0171850908267943,-0.3103128748499918,-0.4708401466216797
5.599999999999994,0.0308211698166865,-0.3583555858967851,-0.4900773983016379
5.609999999999999,0.0425831535795595,-0.3969910150714005,-0.5083994896693135
5.61999999999999,0.0667165655175836,-0.428582795132971,-0.5272507397871363
5.629999999999996,0.0838759366016022,-0.4621522310067187,-0.5378230576216037
5.640000000000001,0.1119871501922173,-0.4938307667363236,-0.5574172594751525
5.649999999999992,0.1343358502254421,-0.5065011268142291,-0.5810486909302947
5.659999999999997,0.1577510263714265,-0.5205982011738532,-0.6062019621585731
5.670000000000002,0.1839069467486253,-0.5204309751426702,-0.6229725946682936
5.679999999999993,0.2005149591399365,-0.5192077154345098,-0.6475197064742905
5.689999999999998,0.2142898023363196,-0.5058069352338715,-0.6681035354599881
5.699999999999989,0.2325367747710136,-0.491696666493931,-0.6867436401545426
5.709999999999994,0.2546292100273359,-0.4792264899697731,-0.7049081007555135
5.719999999999999,0.2780748637268012,-0.4503520866072985,-0.7231377619992532
5.72999999999999,0.293382691389329,-0.4278852796556578,-0.7527968242354123
5.739999999999995,0.3003114367517728,-0.4040484575895295,-0.7721309994967495
5.75,0.3094450503866388,-0.3740978390146948,-0.788735788264443
5.759999999999991,0.2936806761963014,-0.3407511949972007,-0.7956427940826541
5.769999999999996,0.2851491080905314,-0.3008563348161032,-0.803301718271872
5.780000000000001,0.267764890274727,-0.2769393469217245,-0.8141750936096683
5.789999999999992,0.2505842720575895,-0.2439014384973925,-0.8238454637908602
5.799999999999997,0.2277470601357526,-0.2188415523854624,-0.8213347114879063
5.810000000000002,0.1982879671517246,-0.1917548743588961,-0.8127473620753595
5.819999999999993,0.1747071075801464,-0.1708492191182103,-0.8114633255072995
5.829999999999998,0.1596927220485083,-0.1506565350286788,-0.8196647228365106
5.839999999999989,0.1333919212877742,-0.1349251262067138,-0.8280618143013784
5.849999999999994,0.1036214683752917,-0.1298133038824185,-0.833750329336661
5.859999999999999,0.0539699321053677,-0.1358670157657294,-0.8422525223592568
5.86999999999999,0.0025136828492565,-0.1406570828969477,-0.8320859893261455
5.879999999999996,-0.0452912092387201,-0.1410477422553934,-0.8139447848435715
5.890000000000001,-0.1163066461288672,-0.1481196936602343,-0.7798943340555947
5.899999999999992,-0.1834397634199874,-0.1440698941705163,-0.743834899048365
5.909999999999997,-0.2505580429262202,-0.1233082088247782,-0.6934642358432968
5.920000000000002,-0.2750813937799765,-0.1029289791856398,-0.6631221159154503
5.929999999999993,-0.2649919677214734,-0.0764135877446812,-0.6372701504520417
5.939999999999998,-0.2148442006935042,-0.0520222117583958,-0.6135239493337148
5.949999999999989,-0.156845409286015,-0.0402560847801418,-0.5946416834382178
5.959999999999994,-0.0848135176120688,-0.028599910875519,-0.5921810861150918
5.969999999999999,-0.0183813623050982,-0.031158028749191,-0.5867581766147272
5.97999999999999,0.0498686478762014,-0.0521242376869091,-0.5798851924866665
5.989999999999995,0.1075621944629163,-0.0810039511156918,-0.5911853859649123
6.0,0.1463660005346357,-0.1065153180852423,-0.5946921172097833
6.009999999999991,0.1667310382895657,-0.1368667586132392,-0.6159244971808091
6.019999999999996,0.1836487537141677,-0.1664591020019777,-0.6476202101663876
6.030000000000001,0.1912838538601452,-0.1795697642381624,-0.6841243651115204
6.039999999999992,0.1789743457023633,-0.1851558886343032,-0.7352954430696594
6.049999999999997,0.1567625563848245,-0.1859479626023671,-0.7771317765209882
6.060000000000002,0.1404782111496431,-0.1821651752091104,-0.8173443398913509
6.069999999999993,0.1302317429578061,-0.176037674148071,-0.8461556474044307
6.079999999999998,0.1222073005529618,-0.1733283648634034,-0.8604468629626355
6.089999999999989,0.1223656284646801,-0.1544283215309907,-0.8748883217789654
6.099999999999994,0.1379129815669735,-0.1451482658725952,-0.8812316640976641
6.109999999999999,0.1806278621432768,-0.1400424999003505,-0.8861442291250524
6.11999999999999,0.2293381702262057,-0.128937696212559,-0.8974028694971191
6.129999999999996,0.2973531357794222,-0.129860745606188,-0.910265255287199
6.140000000000001,0.3630514366480317,-0.143731961215191,-0.9266655168776468
6.149999999999992,0.4293364981296792,-0.1645596808835351,-0.9467536534890092
6.159999999999997,0.4934474770664251,-0.1750114577038021,-0.9595713934840704
6.170000000000002,0.5367062995834092,-0.185034310555703,-0.9647092153085656
6.179999999999993,0.5761259714096955,-0.1789137646169203,-0.9596049245569528
6.189999999999998,0.5939211234350885,-0.1739121340142912,-0.9460396582330488
6.199999999999989,0.6054246388851485,-0.1792463957420954,-0.9166283375452928
6.209999999999994,0.6025729930118774,-0.1883160517683529,-0.9004281815815847
6.219999999999999,0.599271201837351,-0.1996760840633605,-0.8861563466729072
6.22999999999999,0.5732842461091122,-0.2232093870804388,-0.8694007477022926
6.239999999999995,0.5425173118180245,-0.2487000308469664,-0.8572360835444841
6.25,0.5225782313329287,-0.2680829214087826,-0.8473192488885753
6.259999999999991,0.4937439670389942,-0.2815536925898555,-0.8399038699209875
6.269999999999996,0.4500216090581045,-0.2901901143465304,-0.8266393530137287
6.280000000000001,0.4009890291941144,-0.2919302804297651,-0.8229799651766506
6.289999999999992,0.3535662658166894,-0.3054672826435571,-0.8115489724979627
6.299999999999997,0.2971471128818327,-0.3172781131263083,-0.7991045717550346
6.310000000000002,0.2266693034517715,-0.3393995206600836,-0.8044306875984478
6.319999999999993,0.1496291589042528,-0.3653627680502426,-0.8134113873444138
6.329999999999998,0.0703659103104496,-0.386644601053614,-0.8260187065240363
6.339999999999989,-0.0096754874428499,-0.4048922740155938,-0.8425149196069117
6.349999999999994,-0.1068514454144696,-0.4144830210601437,-0.8565357893175286
6.359999999999999,-0.208093710532656,-0.4036958619848177,-0.8509749975380306
6.36999999999999,-0.3065891524656212,-0.3872203239024052,-0.8303379486626052
6.379999999999996,-0.3942441844295904,-0.3642830215852912,-0.8079808592344336
6.390000000000001,-0.4577696482915656,-0.3459296537880679,-0.7831478996527065
6.399999999999992,-0.5077728667992276,-0.3265301457938093,-0.7664305390210772
6.409999999999997,-0.5430256175694089,-0.3030390106748042,-0.7540867003902767
6.420000000000002,-0.5561125669976534,-0.2820549161437748,-0.7517800101348495
6.429999999999993,-0.5577990954910608,-0.2458452007034043,-0.7671229827149886
6.439999999999998,-0.5501549919270852,-0.2240805261058194,-0.7894490768958959
6.449999999999989,-0.5010089212736647,-0.1843084439128833,-0.8097949562042266
6.459999999999994,-0.4399307432113166,-0.1520611736860545,-0.8261547630210923
6.469999999999999,-0.3695892418505358,-0.1253617179592351,-0.8482307610718572
6.47999999999999,-0.2714732517549412,-0.0996177977762862,-0.8661408560213475
6.489999999999995,-0.1425388806042735,-0.0660339229204425,-0.8954819277200029
6.5,-0.0290622097682314,-0.0322844672532524,-0.928712900512437
6.509999999999991,0.0670339043028004,-0.0141843476934362,-0.9723762205229336
6.519999999999996,0.144762733257986,-0.0026180805754587,-1.014133978693387
6.530000000000001,0.201295830326494,-0.0011089769093576,-1.0637714863113523
6.539999999999992,0.2327166136175256,0.0278358355404983,-1.1097781917134282
6.549999999999997,0.2495550449619325,0.0546941782614835,-1.1479609457132505
6.560000000000002,0.245163913289268,0.0803832034201614,-1.194726547220796
6.569999999999993,0.2355687115407744,0.1016296542500276,-1.2282741277831852
6.579999999999998,0.2193579980339267,0.1252245175424456,-1.2617318336240564
6.589999999999989,0.1972053512721462,0.1583532187045371,-1.2896689342900332
6.599999999999994,0.1727741857982243,0.1711631715045859,-1.3028781354768433
6.609999999999999,0.1221930176131949,0.1841957181603666,-1.3179019251632589
6.61999999999999,0.0863391739806545,0.1797951279449729,-1.3214231965496157
6.629999999999996,0.0482868864150554,0.1666231528959728,-1.3198004617941927
6.639999999999986,0.0222969453742053,0.1526434442765518,-1.3303376484317102
6.650000000000006,0.0085337177028451,0.1514977410225695,-1.3326596099073478
6.659999999999997,0.0279409294756986,0.1420352518463585,-1.3387132141196123
6.669999999999988,0.029968146341744,0.1332743621821963,-1.3447634752337974
6.680000000000007,0.0373192829090044,0.124458092517542,-1.3453815313025992
6.689999999999998,0.0583624262821171,0.0968479451273973,-1.3397623834319017
6.699999999999989,0.0559552545660134,0.0790062922895746,-1.3339665149083335
6.710000000000008,0.0396035680013852,0.0551918046322972,-1.3300612591537992
6.719999999999999,0.0132943372129464,0.0201790575339218,-1.3326372852006132
6.72999999999999,-0.0021366383784265,-0.0253588446407794,-1.3448630213492132
6.740000000000009,-0.0182243032163655,-0.0558351219249674,-1.3533193530679837
6.75,-0.0271823338794823,-0.0783290373573492,-1.3561850819706438
6.759999999999991,-0.0401851040112642,-0.0936267944486159,-1.3556146826118367
6.769999999999982,-0.0307238525588886,-0.10815543621656,-1.3525824233528845
6.780000000000001,-0.0164823732560055,-0.1265002461543375,-1.3570578579096273
6.789999999999992,0.008352416682701,-0.1404414096231651,-1.3538122207041912
6.799999999999983,0.0556947934938078,-0.1750072739622968,-1.353874676771279
6.810000000000002,0.1047091586876261,-0.1990832271670492,-1.3540036077186215
6.819999999999993,0.1557870248851993,-0.2293547808532258,-1.3543991002786224
6.829999999999984,0.1995287550273833,-0.2391594075510214,-1.3694196871451811
6.840000000000003,0.2243366632841542,-0.2580436393687054,-1.377583347452204
6.849999999999994,0.2424503642447117,-0.2832349154901809,-1.3916680451812475
6.859999999999985,0.2379792531246171,-0.2911619287661755,-1.4060802476623069
6.8700000000000045,0.2200022052848801,-0.3045911886433835,-1.4118149980368204
6.879999999999996,0.1927292937353328,-0.3074921318938913,-1.4203402133734515
6.889999999999986,0.1544396215380769,-0.3120648495323498,-1.4106185239354772
6.900000000000006,0.1150281724323391,-0.3062429094500782,-1.4081520403037553
6.909999999999997,0.0755915429317656,-0.2939105785682178,-1.4076711616306856
6.919999999999988,0.019988341069917,-0.2804471813773674,-1.4024886315243466
6.930000000000007,-0.0285868132304622,-0.2517871336841061,-1.379730243009476
6.939999999999998,-0.0569556041039263,-0.2200187369531708,-1.3565432717642192
6.949999999999989,-0.0924426728595275,-0.1915453082269493,-1.3330944829541729
6.960000000000008,-0.1135949366424165,-0.1738727266143453,-1.3027520665145027
6.969999999999999,-0.1271659758252477,-0.1518038334267825,-1.2820487526286326
6.97999999999999,-0.1378224915360501,-0.1334862465776421,-1.2623122225832597
6.990000000000009,-0.1260776691525403,-0.1132098224220712,-1.24607641078075
7.0,-0.1172348362104168,-0.0934369271001658,-1.2301092177275084
7.009999999999991,-0.0908203996853701,-0.0800737750329126,-1.225531696342956
7.019999999999982,-0.0536114556761095,-0.0567651064542707,-1.2239453437047774
7.030000000000001,-0.0072379929107231,-0.0324141881643002,-1.2259493373203627
7.039999999999992,0.0351982317302089,-0.0161730166372064,-1.241330835996416
7.049999999999983,0.0676513490499549,-0.0072181574816527,-1.2500643223218868
7.060000000000002,0.0832863987931739,0.0059471440844333,-1.25851284095256
7.069999999999993,0.0891967106590945,0.0185029003270293,-1.2756678259865384
7.079999999999984,0.0628083960656879,0.0301858089806728,-1.2831161717215465
7.090000000000003,0.0244362293778292,0.0466761040332393,-1.2770311058637958
7.099999999999994,-0.0173374477227454,0.0577964790769699,-1.2877995409640828
7.109999999999985,-0.0769120533063186,0.0704461203400747,-1.290819121704641
7.1200000000000045,-0.1408064269355754,0.1022780730540838,-1.30402996783911
7.129999999999996,-0.2065044153027052,0.1206192071406263,-1.3296382078160158
7.139999999999986,-0.2679056364556666,0.1369918303237385,-1.3510003611339734
7.150000000000006,-0.3192510651610507,0.145747163347755,-1.365561219902958
7.159999999999997,-0.362160658396862,0.1553302815564266,-1.3649537282260833
7.169999999999988,-0.38290489088775,0.1559145655439137,-1.370722766324949
7.180000000000007,-0.3860595034759119,0.1451998717807857,-1.36825905639615
7.189999999999998,-0.3769330275711674,0.130676498626601,-1.3653306503180178
7.199999999999989,-0.34646244469318,0.1042495473739333,-1.374399206621126
7.210000000000008,-0.2945162347383959,0.0818114512735325,-1.3735774629834827
7.219999999999999,-0.2299554628026134,0.0335524447664308,-1.37120663863286
7.22999999999999,-0.1585358575512561,-0.0074916256856944,-1.3683040544739982
7.240000000000009,-0.0792280390456626,-0.0378153875220925,-1.3733563915171485
7.25,-0.0098549722277249,-0.0745261237145222,-1.366287326894012
7.259999999999991,0.0271381770766579,-0.10258316717275,-1.3512687674814607
7.269999999999982,0.0353023062383279,-0.1113966752258367,-1.34896062665006
7.280000000000001,0.0252230625329026,-0.1263924368621959,-1.3416868112958942
7.289999999999992,0.0003384387933078,-0.1425292764930104,-1.3376450624570977
7.299999999999983,-0.0226323810594255,-0.1556437392874367,-1.3348254267712294
7.310000000000002,-0.0401385211762414,-0.166563135898252,-1.3225670282765525
7.319999999999993,-0.0552335469147897,-0.1708033396092937,-1.3071093396010225
7.329999999999984,-0.047168999136909,-0.1795074543141715,-1.2931790574447304
7.340000000000003,-0.0446925138281078,-0.1769694479213573,-1.27229066063319
7.349999999999994,-0.0399366122853417,-0.1693575713170433,-1.2475206287503977
7.359999999999985,-0.0197788069729038,-0.1600940309195793,-1.2202792429152145
7.370000000000003,0.0113350128504322,-0.1475867789324392,-1.195673193203947
7.3799999999999955,0.0475900177817411,-0.1403883142738352,-1.1750725811161862
7.389999999999986,0.0862959217451096,-0.1242732504430806,-1.1525029638049071
7.400000000000006,0.1170213583469203,-0.1180789360051458,-1.1348896362909862
7.409999999999997,0.1524144511550155,-0.0939507424042091,-1.101644181127608
7.4199999999999875,0.1800474447711939,-0.0736314770156284,-1.07656270786806
7.430000000000007,0.2004514404083212,-0.0479242026362617,-1.0565007774445538
7.439999999999998,0.2367050311500939,-0.0209049931664794,-1.0233445060927788
7.449999999999989,0.2581086866591829,-0.0095974853685087,-0.9963138862586411
7.460000000000008,0.2671257530461306,0.0158564076757832,-0.9832997681630088
7.469999999999999,0.2758946151589896,0.0317560072642238,-0.9610649045624162
7.47999999999999,0.2683293870585813,0.0554635652341514,-0.9496058998690368
7.490000000000009,0.2553072653505997,0.0755485864006079,-0.9326415255388248
7.5,0.2359033948677392,0.096819137157452,-0.9157706442021626
7.509999999999991,0.2202489922961464,0.1159277253269383,-0.9083781306269344
7.519999999999982,0.2013041358611971,0.1205694799237491,-0.8905671613086005
7.530000000000001,0.1760777695312988,0.1199673134746638,-0.8833046485616555
7.539999999999992,0.1692638306298667,0.1064972459282076,-0.8688747869074421
7.549999999999983,0.161587153344052,0.0966807193922929,-0.8575565506803927
7.560000000000002,0.164800951961709,0.0804742342121163,-0.8404779082151539
7.569999999999993,0.1642457059673099,0.0667508158308032,-0.8173479402693679
7.579999999999984,0.188654406489954,0.0542574479454601,-0.7958019613529526
7.590000000000003,0.1832247652111037,0.0455774216824676,-0.7686082752294838
7.599999999999994,0.1700210472006422,0.0388444792760319,-0.7550399085128117
7.609999999999985,0.150775717555792,0.0186963617871591,-0.7374482493852649
7.620000000000003,0.1070481347927198,0.0044766921455504,-0.7307669125253947
7.6299999999999955,0.0592118863603208,-0.0121969730320323,-0.7097257785362513
7.639999999999986,0.0063389196892665,-0.0254736907022267,-0.6987516087780782
7.650000000000006,-0.0414056612298796,-0.0370390587605479,-0.6845153909343146
7.659999999999997,-0.0774481012042259,-0.0460543043347087,-0.6655480118450406
7.6699999999999875,-0.1034338824336639,-0.0603714423363273,-0.649923491488457
7.680000000000007,-0.1192514466409499,-0.0679425096577456,-0.624627257595171
7.689999999999998,-0.115230963472829,-0.0781313774002058,-0.6088180055164503
7.699999999999989,-0.1153515497006651,-0.0840357580071245,-0.5785373205289617
7.710000000000008,-0.0922581991373918,-0.0853831263301906,-0.5551541933074963
7.719999999999999,-0.0583185865189224,-0.0923329920622438,-0.5264113023727778
7.72999999999999,-0.0296288971635035,-0.0896637021016688,-0.4946026336691515
7.740000000000009,-0.0064580569536454,-0.0814970728276243,-0.4685800475942941
7.75,0.0214862409218436,-0.0805585858017584,-0.4334756353494452
7.759999999999991,0.0564773631513607,-0.0846864089117004,-0.4035572483417682
7.769999999999982,0.0982600120646823,-0.0908885681006784,-0.3752602130880657
7.780000000000001,0.1176299203188602,-0.0949096636888314,-0.3545253585095249
7.789999999999992,0.1253819304646699,-0.0913542865807062,-0.3385396841221286
7.799999999999983,0.1213928666478195,-0.0985518701766659,-0.3257232878168694
7.810000000000002,0.1118507636026622,-0.0999382660727612,-0.3134259286704289
7.819999999999993,0.1164767369767523,-0.0957009944835784,-0.3079828144359161
7.829999999999984,0.1135499703869323,-0.0884212917979424,-0.308712337816501
7.840000000000003,0.0938439624385125,-0.072556243179015,-0.302081531628454
7.849999999999994,0.0669647783858849,-0.0505302910729965,-0.2863308091187939
7.859999999999985,0.0419868815206217,-0.0261966516794851,-0.2737121303418485
7.870000000000003,0.0182835065800765,0.0061521973995224,-0.2573911033735556
7.8799999999999955,-0.0057902813439235,0.0300058379676512,-0.2491289562806802
7.889999999999986,-0.0224516856372591,0.0377379353667348,-0.2338183692741453
7.900000000000006,-0.0479323754163946,0.0426393100833858,-0.2314250099995946
7.909999999999997,-0.060968347220319,0.0367957740915078,-0.2303976203018277
7.9199999999999875,-0.0781369519331307,0.0315757553283517,-0.2228500612793237
7.930000000000007,-0.0881773000965515,0.0350845057283892,-0.2128771870439863
7.939999999999998,-0.0899785696720518,0.0295368283177449,-0.1950759939170282
7.949999999999989,-0.0750176468108449,0.0354005921105651,-0.1800402075124858
7.960000000000008,-0.0736113381500256,0.0470853681525176,-0.1715525695414576
7.969999999999999,-0.0728486888539274,0.054751203341197,-0.1633838220040203
7.97999999999999,-0.0838073083993888,0.0491374642287684,-0.1636502029795963
7.990000000000009,-0.0880629076108402,0.0492637892658075,-0.1732188945817401
8.0,-0.0976209223304096,0.0440097165500017,-0.1811660003246008
8.009999999999991,-0.1164394184079215,0.0358010155789796,-0.2006658827846554
8.019999999999982,-0.1102504605193138,0.0301461840502054,-0.2246559599636162
8.030000000000001,-0.1273051329353581,0.0259136842314158,-0.2400242857790411
8.039999999999992,-0.1382447529854893,0.0291660952392577,-0.258595905921125
8.049999999999983,-0.1463173105193981,0.0320899758780678,-0.2567446877421956
8.060000000000002,-0.1769510393945273,0.0406246429817467,-0.2580919687912528
8.069999999999993,-0.2070084243472045,0.0378453840484548,-0.2502236197551567
8.079999999999984,-0.232673270125768,0.0319028698992044,-0.2401207014775074
8.090000000000003,-0.2396382440787719,0.0351339418946998,-0.2497201775743929
8.099999999999994,-0.245648317932907,0.0227452591438315,-0.2536139355670676
8.109999999999985,-0.2491154408052411,0.0197859621379596,-0.251499386842294
8.120000000000005,-0.242674584673169,0.002905407001623,-0.2453066695759203
8.129999999999995,-0.2413589028951461,-0.0117710663806315,-0.2356511664063763
8.139999999999986,-0.2376052448758981,-0.0276746981681143,-0.2431432899020912
8.150000000000006,-0.2425106336870301,-0.0704461990604164,-0.2487430385514588
8.159999999999997,-0.242592466326414,-0.1298456439692741,-0.2641702430282273
8.169999999999987,-0.2556766330173907,-0.1895339354468791,-0.2858240398889998
8.180000000000007,-0.2870442860948264,-0.2237187625677283,-0.3035003471742349
8.189999999999998,-0.2509605186266145,-0.2614688622759278,-0.3096856496689556
8.199999999999989,-0.1301144616817992,-0.3005089171875318,-0.2961323004212858
8.210000000000008,-0.1093306925750638,-0.2506871676873426,-0.2763532289356336
8.219999999999999,-0.0725868859634442,-0.2163194220433603,-0.2528184348336745
8.22999999999999,0.0073968465645902,-0.2045753887475195,-0.2535928902604212
8.240000000000009,0.0281487187075125,-0.1938061215890152,-0.2472905317807598
8.25,0.0426783604921048,-0.1891242723365253,-0.2440175450967783
8.259999999999991,0.0324814817547718,-0.190929777896286,-0.2447104047762845
8.269999999999982,0.0461240927449904,-0.1926303059471891,-0.2308551474955222
8.280000000000001,0.02410824549381,-0.1936709672300458,-0.2321463241912634
8.289999999999992,0.0311016874923309,-0.1876107239158161,-0.2428574888235312
8.299999999999983,0.0173301328871198,-0.173993443616074,-0.251193813182219
8.310000000000002,0.07185239252527,-0.1579888575093586,-0.2525510431918758
8.319999999999993,0.2996876897823649,-0.115977134516075,-0.2507961687370507
8.329999999999984,0.3104712717995725,-0.0911355818310004,-0.241248237468533
8.340000000000003,0.3085165726628622,-0.0772237961495237,-0.2248150320657639
8.349999999999994,0.3149342935216233,-0.0784409551252092,-0.223034238780113
8.359999999999985,0.2373370772994893,-0.0623198744378701,-0.2050806606525964
8.370000000000005,0.2550874400523771,-0.0654993485663131,-0.1898271444721709
8.379999999999995,0.286873377638781,-0.0611453192887551,-0.1785006435036893
8.389999999999986,0.2448237584811529,-0.0374551319631214,-0.1495043305082901
8.400000000000006,0.2226630480978504,-0.0448177772751633,-0.1347565677246751
8.409999999999997,0.220348199136863,-0.0366507539432811,-0.1274459085128472
8.419999999999987,0.2494348621192378,-0.0370137973373024,-0.1203047908969868
8.430000000000007,0.2607980760702155,-0.0551877300888677,-0.1228643703299236
8.439999999999998,0.2407687044233065,-0.0752194815905413,-0.1243872457787846
8.449999999999989,0.2194059377210717,-0.1109631202534573,-0.1382688197007583
8.460000000000008,0.2475532964114739,-0.1359231168985212,-0.1512192581703629
8.469999999999999,0.2715852427588129,-0.1422287250754131,-0.1609669775369768
8.47999999999999,0.2919283173586509,-0.151334794612312,-0.1703914572083528
8.490000000000009,0.2814281406623473,-0.1585858186390301,-0.1779048961727294
8.5,0.2815331163606617,-0.1573796153469464,-0.1863585445395379
8.509999999999991,0.3115853418281422,-0.1624964822584834,-0.1799509485590063
8.519999999999982,0.3236788007121763,-0.1641648991184393,-0.1767380323332645
8.530000000000001,0.3084706892986816,-0.1566788888667045,-0.1765061270334392
8.539999999999992,0.2946557061006889,-0.1611671167421031,-0.1759003480485874
8.549999999999983,0.3019968534864398,-0.1588978119782855,-0.1714264128254559
8.560000000000002,0.302487173460214,-0.1579154593601313,-0.171285073960011
8.569999999999993,0.2909735220127211,-0.1625424189829458,-0.1669400139391093
8.579999999999984,0.263844727316659,-0.1533889646997076,-0.1600453139987492
8.590000000000003,0.2332327446698674,-0.1361326962439382,-0.1503277924724259
8.599999999999994,0.2195233842307998,-0.1277423250181681,-0.1469782192832849
8.609999999999985,0.2155478553413775,-0.1231452470281376,-0.1465277937282718
8.620000000000005,0.1967921776234364,-0.1196097797974031,-0.1352929875856835
8.629999999999995,0.1827614131202835,-0.1155949750730209,-0.1212725052415016
8.639999999999986,0.1777942147387524,-0.1092016456514334,-0.1200346206609853
8.650000000000006,0.1672967094554573,-0.1051276677574829,-0.1201924653089398
8.659999999999997,0.163937819672013,-0.091590398295916,-0.1178160639453293
8.669999999999987,0.1502126933673044,-0.0847829066403473,-0.124471267363618
8.680000000000007,0.1465954842707703,-0.0854242580173017,-0.1450749323348474
8.689999999999998,0.1390241364572928,-0.081550378195262,-0.1493801863758516
8.699999999999989,0.1568933668426447,-0.0776668534496406,-0.1481268586112711
8.710000000000008,0.0906460091949181,-0.0742561026483739,-0.1465826113275742
8.719999999999999,0.0164407927955316,-0.0483529778340337,-0.1262947936695571
8.72999999999999,0.0197770117215224,-0.0195986682110524,-0.1062975675475979
8.740000000000009,-0.0056714132321743,0.0042212496399826,-0.0875240800706909
8.75,-0.0163782837654819,0.0157770350987117,-0.0753617644449803
8.759999999999991,-0.0055329738707147,0.003294807155908,-0.0730328113246252
8.769999999999982,0.0033161033813556,0.007447291249069,-0.0874491154999756
8.780000000000001,0.0181687304752072,-0.0091751028595572,-0.0961932924006311
8.789999999999992,0.0287191421886559,0.0034378703207199,-0.0968132040634419
8.799999999999983,0.0051799574534574,0.0006292273925702,-0.0839329883737162
8.810000000000002,0.0155764517504356,-0.0086066974250974,-0.0750906418559887
8.819999999999993,0.0123109294103955,-0.0012979922422904,-0.0668851437454333
8.829999999999984,0.0035216525316868,0.0052634173016095,-0.0447659963507037
8.840000000000003,0.010239191956463,0.0136666521964064,-0.0432089701967646
8.849999999999994,0.0111603301734108,0.0169734378423481,-0.0387019182822942
8.859999999999985,0.0095034682297831,0.0034756942200573,-0.0280783745151509
8.870000000000005,0.0156227934125767,-0.0147308948307281,-0.0378373736739229
8.879999999999995,0.0149667321970206,-0.0088334663832711,-0.0356802150626275
8.889999999999986,0.0134257646449089,-0.0005220824219099,-0.0248209787094309
8.900000000000006,0.0167239505888901,0.0037987371060762,-0.0185734400472599
8.909999999999997,0.0186227172856772,0.0086159728802422,-0.0079910121810893
8.919999999999987,0.0143769239971381,0.0054345936178653,-0.0065788422844993
8.930000000000007,0.0005789219485161,-0.0047904871167677,-0.0083754114772388
8.939999999999998,0.0041299261288254,-0.0130741805413522,-0.0064939679465635
8.949999999999989,0.0120611513558879,0.0051901001908109,0.0020609293014586
8.960000000000008,0.0117589166964491,0.0235743073407385,0.0106774538826616
8.969999999999999,0.0146738186137462,0.0227052528556904,0.024916699865529
8.97999999999999,0.0104792635416025,0.0331186970692262,0.0475514526826257
8.990000000000009,0.006738675025419,0.0300432765189522,0.0612935163608431
9.0,-0.0026799333251117,0.0277627219814845,0.064330966234473
9.009999999999993,0.0017951338862453,0.018545804167937,0.0633592124680621
9.019999999999982,0.0097945931510272,0.0069818134679606,0.0543391694200711
9.03,0.014687007717256,0.0110942549565686,0.0441500543348382
9.039999999999992,0.0174077967940963,0.0173468639777572,0.0445406663437188
9.049999999999985,0.0182347054262279,0.0433585247236209,0.0396415065969602
9.060000000000002,0.0129805329514273,0.0619248023773417,0.0340529992169735
9.069999999999991,0.0066007159880659,0.0641398309536701,0.0437305307626915
9.079999999999984,-0.0086752167272275,0.0479665449250534,0.0340176621677374
9.090000000000003,-0.0078093743964935,0.0248029500249666,0.0244685307660884
9.099999999999994,-0.0039936186405046,0.0005767195039294,0.0099587109140769
9.109999999999983,0.0112354067820247,-0.0223763240351085,0.0009156548023958
9.120000000000005,0.0170250877944581,-0.0153515832163913,-0.0122073425531441
9.129999999999995,0.017353597250351,0.0055159482417992,-0.0124622523639462
9.139999999999986,0.0249178160332442,0.0366002716406409,-0.0095892152805974
9.150000000000006,0.0187872899200779,0.0576486197523332,0.0022945778016607
9.159999999999997,0.0124940978937468,0.0600564692278278,0.0088774184246067
9.169999999999987,-0.0089909809295377,0.0432330751243523,0.0192937761451345
9.180000000000009,-0.0095862199384325,0.034138282406469,0.0322077280985453
9.189999999999998,-0.004776677788592,0.0162088151320074,0.0321389416984781
9.199999999999989,0.0008990149472075,0.0008923734074373,0.0353384998261272
9.210000000000008,0.0063390256516627,-0.0081300041644517,0.0411086065976884
9.22,0.0179137025016063,0.0013187866251208,0.0537114101611976
9.22999999999999,0.0147562712188931,0.0128855493256443,0.0600300430677263
9.240000000000007,0.0142854439251535,0.018720460871391,0.059297144933443
9.25,0.0070302794220408,0.0207857067355331,0.059564757218142
9.259999999999993,-0.007836727871653,0.0068178038841423,0.0596477428246782
9.269999999999982,0.0006176648969106,0.0081627279216762,0.0679646769138188
9.28,0.0024872690854577,0.0158831745106268,0.072025592985594
9.289999999999992,-0.0060386237394721,0.0074475420499952,0.0645706173134113
9.299999999999985,0.0112139255182859,0.0017269983134551,0.0513665868848397
9.310000000000002,0.0103297692561069,-0.0077176570157381,0.0412094873539997
9.319999999999991,0.0158778776703765,-0.0159010678092664,0.0352701654892693
9.329999999999984,0.0068415891104552,-0.0075560761856218,0.0327164729140673
9.340000000000003,0.0064492419398654,0.0031986921597664,0.0329676876985199
9.349999999999994,0.0107899911930936,0.0143980616278861,0.0339011923707034
9.359999999999983,0.0003091080003954,0.01829441867162,0.0387837388746722
9.370000000000005,0.0111569922067528,0.0187858995094194,0.0389911280388029
9.379999999999995,0.0111588644860902,0.0142579559136335,0.0326649174636859
9.389999999999986,0.0095314843882456,0.0082008598818211,0.0201740378342718
9.400000000000006,-0.0041344758281062,0.0018681848325959,0.0084193427198492
9.409999999999997,0.0050350995160259,0.0035488912379634,-0.0084132254729738
9.419999999999987,0.0027266523500012,0.0019670599033814,-0.0152488765602787
9.430000000000009,0.0124042962971512,0.0018031449424264,-0.0233823813206925
9.439999999999998,0.0164756526236409,0.0005289594637096,-0.026809015947987
9.449999999999989,0.0152267004726336,0.0003656641612651,-0.0413951499529689
9.460000000000008,0.0148847254410865,0.0051590696746946,-0.0463188549052849
9.47,0.0171259670023082,0.0061428295679688,-0.0422585698848405
9.47999999999999,0.0094751647364696,0.0076995152934005,-0.0406348252358425
9.490000000000007,-0.0035879737817034,0.0021654603770458,-0.0333459479424937
