time,Gyr_X,Gyr_Y,Gyr_Z
0.0,4.5e-05,0.006246,0.009672
0.0024999999999977,0.002202,0.00396,0.009365
0.0049999999999954,0.000259,-0.001509,0.011689
0.0074999999999931,0.007107,0.001474,0.010217
0.0099999999999909,0.004,0.000428,0.00852
0.0124999999999886,0.004297,0.001531,0.009885
0.0149999999999863,0.00288,0.000388,0.009837
0.017499999999984,0.002012,0.005206,0.011318
0.0200000000000102,0.003765,0.002394,0.011995
0.0225000000000079,0.003312,0.001263,0.010698
0.0250000000000056,0.000683,0.001683,0.009937
0.0275000000000034,8e-05,0.004826,0.007457
0.0300000000000011,0.001044,0.004213,0.009934
0.0324999999999988,0.000184,0.001847,0.011069
0.0349999999999965,0.00096,0.000193,0.010311
0.0374999999999943,-0.001192,0.001649,0.009552
0.039999999999992,-0.0016,0.004592,0.011749
0.0424999999999897,0.002258,0.001308,0.008342
0.0449999999999874,0.002051,0.002798,0.011089
0.0474999999999852,0.000712,-0.000386,0.006699
0.0499999999999829,0.002629,0.00108,0.010695
0.052500000000009,0.002033,0.002468,0.008274
0.0550000000000068,0.000856,0.004152,0.01004
0.0575000000000045,0.001887,0.001434,0.009557
0.0600000000000022,0.002124,0.000765,0.006133
0.0625,-0.000112,0.003334,0.008216
0.0649999999999977,0.00141,0.003121,0.008313
0.0674999999999954,0.00036,0.004534,0.009509
0.0699999999999931,-0.00027,0.000358,0.007134
0.0724999999999909,4.3e-05,0.003068,0.010289
0.0749999999999886,0.002541,0.00596,0.012238
0.0774999999999863,-0.00163,-9.1e-05,0.007791
0.079999999999984,-0.000893,0.002073,0.007675
0.0825000000000102,0.000256,0.002725,0.008514
0.0850000000000079,0.004152,0.005578,0.010394
0.0875000000000056,0.000445,0.003045,0.009849
0.0900000000000034,-0.002782,-0.000419,0.007462
0.0925000000000011,0.000272,0.001208,0.008164
0.0949999999999988,0.001784,-0.00152,0.006764
0.0974999999999965,-0.001064,0.00404,0.009166
0.0999999999999943,-0.001043,0.001807,0.00793
0.102499999999992,-0.00277,0.004857,0.010137
0.1049999999999897,0.002179,-0.000259,0.008229
0.1074999999999875,0.00051,0.005355,0.010357
0.1099999999999852,-0.000861,0.001483,0.008263
0.1124999999999829,9.8e-05,-0.0008,0.007958
0.1150000000000091,0.000937,0.001412,0.010621
0.1175000000000068,0.000874,-0.000606,0.01019
0.1200000000000045,0.000922,0.000832,0.009666
0.1225000000000022,-0.001383,0.003882,0.009448
0.125,-0.000906,-0.001509,0.01168
0.1274999999999977,-0.000277,-0.000292,0.006109
0.1299999999999954,0.001759,0.001817,0.008855
0.1324999999999931,0.002209,0.002902,0.009682
0.1349999999999909,0.002293,0.001765,0.011408
0.1374999999999886,3.5e-05,0.00089,0.011215
0.1399999999999863,0.001558,0.004119,0.011187
0.142499999999984,0.001416,0.002802,0.007407
0.1450000000000102,7e-06,0.005148,0.010484
0.1475000000000079,0.000953,0.000749,0.010113
0.1500000000000056,-0.000665,0.003978,0.010801
0.1525000000000034,-0.001641,-0.001512,0.008181
0.1550000000000011,-0.001365,0.001904,0.013939
0.1574999999999988,-0.000861,0.001427,0.009156
0.1599999999999966,-0.000371,0.005732,0.009421
0.1624999999999943,-0.000538,0.003991,0.010002
0.164999999999992,0.000414,0.003978,0.01063
0.1674999999999897,0.002452,0.006095,0.010582
0.1699999999999875,0.001056,-0.001046,0.009679
0.1724999999999852,0.002144,0.001558,0.01222
0.1749999999999829,0.000291,0.002734,0.010642
0.1775000000000091,0.002655,0.002215,0.009801
0.1800000000000068,0.001813,0.004532,0.006563
0.1825000000000045,0.001893,0.0006,0.006593
0.1850000000000022,0.00139,0.003407,0.008637
0.1875,0.000498,0.00037,0.012784
0.1899999999999977,1.3e-05,0.003745,0.01195
0.1924999999999954,-0.000286,0.000928,0.011598
0.1949999999999931,0.0023,0.004482,0.009405
0.1974999999999909,0.001339,-0.000371,0.00833
0.1999999999999886,0.00082,0.002964,0.010347
0.2024999999999863,0.002203,0.005218,0.011247
0.204999999999984,-0.000697,0.003872,0.014534
0.2075000000000102,-0.001901,0.005402,0.007809
0.2100000000000079,0.003404,0.004403,0.00855
0.2125000000000056,0.000463,0.005541,0.010414
0.2150000000000034,-0.002459,0.000345,0.006
0.2175000000000011,-0.001766,0.002552,0.010157
0.2199999999999988,-0.002669,-0.00138,0.010353
0.2224999999999966,0.00134,0.000683,0.006761
0.2249999999999943,-0.003098,0.002769,0.009913
0.227499999999992,-0.001571,0.003322,0.011978
0.2299999999999897,0.001652,0.004741,0.012877
0.2324999999999875,-0.001378,0.00231,0.010001
0.2349999999999852,0.001553,0.00454,0.009956
0.2374999999999829,-0.000599,0.005069,0.009089
0.2400000000000091,-0.001754,0.004674,0.008533
0.2425000000000068,0.000861,0.002699,0.012859
0.2450000000000045,-0.002645,0.002421,0.009275
0.2475000000000022,0.001626,-0.001837,0.00966
0.25,0.003149,-0.001015,0.007764
0.2524999999999977,-0.001386,0.002114,0.00721
0.2549999999999954,0.001489,3.8e-05,0.009661
0.2574999999999932,-0.000313,0.005095,0.007471
0.2599999999999909,0.00189,0.001978,0.010642
0.2624999999999886,0.00212,0.001904,0.010208
0.2649999999999863,0.000717,-0.000724,0.00977
0.2674999999999841,0.001848,0.00269,0.008195
0.2700000000000102,-0.00096,0.00191,0.010718
0.2725000000000079,0.001619,0.001165,0.009266
0.2750000000000057,-0.002639,0.001796,0.006326
0.2775000000000034,0.00147,0.000533,0.00901
0.2800000000000011,0.000615,3.7e-05,0.008305
0.2824999999999988,-0.001198,0.003413,0.009113
0.2849999999999966,-0.000428,0.001303,0.012525
0.2874999999999943,0.000217,0.001947,0.011859
0.289999999999992,-0.001076,0.001105,0.010606
0.2924999999999897,0.001166,0.000652,0.010727
0.2949999999999875,-0.00217,0.003906,0.009184
0.2974999999999852,-0.001803,0.00209,0.008113
0.2999999999999829,-0.002317,0.002534,0.007524
0.3025000000000091,-0.002997,0.002224,0.006447
0.3050000000000068,-0.002469,0.003054,0.006659
0.3075000000000045,-0.001152,0.007459,0.011647
0.3100000000000023,-0.002757,0.000677,0.009599
0.3125,-0.004649,0.003565,0.007503
0.3149999999999977,-0.002043,0.00516,0.011414
0.3174999999999954,-0.004481,0.00696,0.011525
0.3199999999999932,-0.001934,0.008959,0.007721
0.3224999999999909,-0.005433,0.007101,0.007182
0.3249999999999886,-0.00459,0.007253,0.008195
0.3274999999999863,-0.005314,0.008658,0.010394
0.3299999999999841,-0.00798,0.005979,0.007688
0.3325000000000102,-0.003558,0.004105,0.007465
0.3350000000000079,-0.0085,0.00932,0.010302
0.3375000000000057,-0.007033,0.004563,0.007115
0.3400000000000034,-0.007261,0.006328,0.007626
0.3425000000000011,-0.006323,0.00628,0.005885
0.3449999999999988,-0.009148,0.007191,0.008034
0.3474999999999966,-0.007986,0.012309,0.005621
0.3499999999999943,-0.012857,0.009016,0.004952
0.352499999999992,-0.013781,0.011291,0.006353
0.3549999999999897,-0.014445,0.009831,0.003754
0.3574999999999875,-0.010924,0.006982,0.003975
0.3599999999999852,-0.015998,0.011197,0.002898
0.3624999999999829,-0.016299,0.012425,0.005119
0.3650000000000091,-0.015616,0.011613,0.00475
0.3675000000000068,-0.01817,0.007158,0.004206
0.3700000000000045,-0.015931,0.010311,0.00375
0.3725000000000023,-0.018214,0.009493,0.00274
0.375,-0.011641,0.007007,0.002364
0.3774999999999977,-0.017412,0.006036,0.004346
0.3799999999999954,-0.012077,0.010038,0.003924
0.3824999999999932,-0.016983,0.007068,0.003325
0.3849999999999909,-0.011989,0.009165,0.00442
0.3874999999999886,-0.008471,0.004537,0.003303
0.3899999999999863,-0.00627,0.005607,0.006222
0.3924999999999841,-0.002028,0.004712,0.00344
0.3950000000000102,-0.003743,0.003231,0.008855
0.3975000000000079,-0.004281,0.004327,0.011594
0.4000000000000057,0.003799,-0.000933,0.007422
0.4025000000000034,0.000318,-0.00218,0.010287
0.4050000000000011,0.004768,-0.002433,0.012199
0.4074999999999988,0.004592,0.000436,0.006215
0.4099999999999966,0.008035,-2.8e-05,0.009517
0.4124999999999943,0.003356,0.000266,0.012227
0.414999999999992,0.000893,-0.000215,0.010503
0.4174999999999897,0.003061,-0.000809,0.009694
0.4199999999999875,-0.001901,0.000214,0.009827
0.4224999999999852,-0.000831,0.000255,0.00914
0.4249999999999829,-0.005013,-0.00131,0.01111
0.4275000000000091,-0.008979,0.001471,0.009345
0.4300000000000068,-0.008401,0.003072,0.010952
0.4325000000000045,-0.01069,-0.00097,0.010081
0.4350000000000023,-0.012718,-0.000994,0.00959
0.4375,-0.010775,-0.000992,0.010995
0.4399999999999977,-0.010943,0.003124,0.006381
0.4424999999999954,-0.010993,-0.001585,0.004957
0.4449999999999932,-0.009324,-0.002491,0.003833
0.4474999999999909,-0.007224,-0.001693,0.004546
0.4499999999999886,-0.010137,-0.003523,0.003997
0.4524999999999863,-0.009647,-0.000708,0.002449
0.4549999999999841,-0.008163,-0.001028,0.008471
0.4575000000000102,-0.007613,-0.000463,0.003714
0.4600000000000079,-0.008389,-0.00291,0.004261
0.4625000000000057,-0.008649,0.001285,0.006521
0.4650000000000034,-0.009434,0.002269,0.004765
0.4675000000000011,-0.007524,0.000451,0.00521
0.4699999999999988,-0.0072,0.001877,0.004674
0.4724999999999966,-0.007798,0.004373,0.007392
0.4749999999999943,-0.00764,0.001735,0.007673
0.477499999999992,-0.009044,0.005335,0.003584
0.4799999999999897,-0.008769,0.001245,0.00413
0.4824999999999875,-0.012757,0.002531,0.005663
0.4849999999999852,-0.014088,0.000294,0.007471
0.4874999999999829,-0.013709,0.003345,0.003812
0.4900000000000091,-0.015554,0.001176,0.006091
0.4925000000000068,-0.014602,0.002822,0.008865
0.4950000000000045,-0.016588,0.001488,0.006547
0.4975000000000023,-0.019488,0.003248,0.006831
0.5,-0.017586,0.004306,0.005572
0.5024999999999977,-0.019489,0.006663,0.004033
0.5049999999999955,-0.019233,0.00032,0.004724
0.5074999999999932,-0.025697,0.001047,0.006095
0.5099999999999909,-0.027625,0.005128,0.006665
0.5124999999999886,-0.024755,0.002512,0.004037
0.5149999999999864,-0.025883,0.003301,0.000338
0.5174999999999841,-0.028344,0.005845,0.00455
0.5200000000000102,-0.029807,0.002869,0.008341
0.522500000000008,-0.028706,0.005727,0.005222
0.5250000000000057,-0.027432,0.00689,0.004088
0.5275000000000034,-0.029977,0.004925,0.003463
0.5300000000000011,-0.032748,0.003145,0.006884
0.5324999999999989,-0.033052,0.000235,0.003218
0.5349999999999966,-0.03214,-0.000779,0.005148
0.5374999999999943,-0.032023,0.001235,0.006638
0.539999999999992,-0.033484,0.003491,0.001626
0.5424999999999898,-0.035267,0.002974,0.005207
0.5449999999999875,-0.02874,0.001939,0.006477
0.5474999999999852,-0.032283,0.003586,0.006605
0.549999999999983,-0.028893,0.004283,0.005772
0.5525000000000091,-0.028872,0.000789,0.006644
0.5550000000000068,-0.029008,0.0033,0.005557
0.5575000000000045,-0.028338,0.001269,0.003972
0.5600000000000023,-0.02448,0.002568,0.005845
0.5625,-0.026487,-0.000262,0.004681
0.5649999999999977,-0.02443,0.001811,0.005019
0.5674999999999955,-0.025447,-0.001672,0.007975
0.5699999999999932,-0.023879,0.000144,0.008161
0.5724999999999909,-0.024265,0.002984,0.007766
0.5749999999999886,-0.023857,0.001886,0.004154
0.5774999999999864,-0.023611,0.001007,0.005185
0.5799999999999841,-0.025967,0.000849,0.007135
0.5825000000000102,-0.028446,0.000847,0.003365
0.585000000000008,-0.027198,-0.001991,0.005444
0.5875000000000057,-0.027618,0.000473,0.00483
0.5900000000000034,-0.026423,0.003445,0.008181
0.5925000000000011,-0.029053,0.003139,0.006991
0.5949999999999989,-0.030884,-0.000542,0.005378
0.5974999999999966,-0.03105,0.005249,0.00497
0.5999999999999943,-0.032713,0.002121,0.006332
0.602499999999992,-0.032529,0.003273,0.002637
0.6049999999999898,-0.032207,0.003594,0.005801
0.6074999999999875,-0.038168,0.001916,0.004762
0.6099999999999852,-0.036286,0.00397,0.006787
0.612499999999983,-0.039506,0.003662,0.005645
0.6150000000000091,-0.044963,-0.000338,0.004113
0.6175000000000068,-0.04545,-0.001912,0.004786
0.6200000000000045,-0.045916,0.003769,0.006836
0.6225000000000023,-0.048032,0.003027,0.006071
0.625,-0.049444,5e-06,0.005678
0.6274999999999977,-0.051299,0.004659,0.005097
0.6299999999999955,-0.053032,0.000791,0.00594
0.6324999999999932,-0.055674,0.002696,0.008517
0.6349999999999909,-0.055249,0.001863,0.0051
0.6374999999999886,-0.059335,0.000156,0.004845
0.6399999999999864,-0.061008,0.001497,0.005456
0.6424999999999841,-0.058237,-0.000598,0.007314
0.6450000000000102,-0.062723,0.003729,0.005255
0.647500000000008,-0.064857,0.006817,0.005747
0.6500000000000057,-0.068875,0.005788,0.003725
0.6525000000000034,-0.070667,0.00333,0.002333
0.6550000000000011,-0.074179,0.00321,0.003632
0.6574999999999989,-0.076479,0.001627,0.004016
0.6599999999999966,-0.081168,-0.000177,0.004641
0.6624999999999943,-0.080858,0.002228,0.003447
0.664999999999992,-0.084537,0.001001,0.006025
0.6674999999999898,-0.090259,-0.000402,0.002567
0.6699999999999875,-0.092396,0.001352,0.004017
0.6724999999999852,-0.097059,0.003008,0.004723
0.674999999999983,-0.101154,0.004262,0.007967
0.6775000000000091,-0.104247,0.001071,0.006741
0.6800000000000068,-0.110982,0.001765,0.001768
0.6825000000000045,-0.11214,0.004374,0.00237
0.6850000000000023,-0.118378,-0.000143,0.00378
0.6875,-0.121345,0.000562,0.0062
0.6899999999999977,-0.127164,0.001087,0.005766
0.6924999999999955,-0.134414,0.00369,0.007559
0.6949999999999932,-0.138658,0.002261,0.003452
0.6974999999999909,-0.142194,-0.001062,0.006547
0.6999999999999886,-0.149439,-0.001672,0.007652
0.7024999999999864,-0.15187,0.002738,0.007807
0.7049999999999841,-0.162949,0.002193,0.00976
0.7075000000000102,-0.167389,-0.001037,0.006802
0.710000000000008,-0.17398,-0.000167,0.008076
0.7125000000000057,-0.181627,0.002726,0.006709
0.7150000000000034,-0.19034,0.002309,0.003641
0.7175000000000011,-0.192687,0.000777,0.009335
0.7199999999999989,-0.205263,-0.00167,0.00565
0.7224999999999966,-0.213321,-0.001928,0.004561
0.7249999999999943,-0.221477,-0.001031,-0.000294
0.727499999999992,-0.232038,-0.003381,0.00168
0.7299999999999898,-0.241308,-0.00121,0.003017
0.7324999999999875,-0.248571,-0.003679,0.00119
0.7349999999999852,-0.25937,-0.003932,0.000774
0.737499999999983,-0.267974,-0.002047,0.001811
0.7400000000000091,-0.280643,-0.00618,-0.000304
0.7425000000000068,-0.285751,-0.006068,0.000996
0.7450000000000045,-0.295888,-0.002584,0.00056
0.7475000000000023,-0.305592,-0.003508,0.001232
0.75,-0.311767,-0.005902,0.000996
0.7524999999999977,-0.325716,-0.006276,-0.000685
0.7549999999999955,-0.33695,-0.005083,-0.002384
0.7574999999999932,-0.34097,-0.00404,-0.000891
0.7599999999999909,-0.350013,-0.007233,0.000831
0.7624999999999886,-0.360139,-0.006238,0.000554
0.7649999999999864,-0.369015,-0.005387,0.001069
0.7674999999999841,-0.375684,-0.00816,0.000919
0.7700000000000102,-0.382471,-0.010931,-0.00196
0.772500000000008,-0.389922,-0.002924,-0.004728
0.7750000000000057,-0.397599,-0.003743,-0.002263
0.7775000000000034,-0.404064,-0.00643,-0.00245
0.7800000000000011,-0.410989,-0.007278,-0.00381
0.7824999999999989,-0.419517,-0.005218,-0.000556
0.7849999999999966,-0.432575,-0.005288,-0.003485
0.7874999999999943,-0.43339,-0.006478,-0.003552
0.789999999999992,-0.441892,-0.008154,-0.005604
0.7924999999999898,-0.452364,-0.006539,-0.005893
0.7949999999999875,-0.455278,-0.006896,-0.007886
0.7974999999999852,-0.463314,-0.008199,-0.007814
0.799999999999983,-0.470333,-0.008561,-0.00907
0.8025000000000091,-0.481159,-0.006314,-0.00737
0.8050000000000068,-0.486721,-0.009435,-0.009519
0.8075000000000045,-0.492223,-0.005387,-0.011097
0.8100000000000023,-0.498632,-0.00957,-0.011683
0.8125,-0.505105,-0.005762,-0.013821
0.8149999999999977,-0.515778,-0.009784,-0.011434
0.8174999999999955,-0.519565,-0.008215,-0.009601
0.8199999999999932,-0.527068,-0.011995,-0.013447
0.8224999999999909,-0.534393,-0.011159,-0.013743
0.8249999999999886,-0.540634,-0.011657,-0.014488
0.8274999999999864,-0.547864,-0.011902,-0.011221
0.8299999999999841,-0.552349,-0.010896,-0.013438
0.8325000000000102,-0.55891,-0.009473,-0.0122
0.835000000000008,-0.562587,-0.01332,-0.009973
0.8375000000000057,-0.567088,-0.006995,-0.011329
0.8400000000000034,-0.572819,-0.013402,-0.011134
0.8425000000000011,-0.579852,-0.00841,-0.011046
0.8449999999999989,-0.582953,-0.012316,-0.008824
0.8474999999999966,-0.588198,-0.012586,-0.008415
0.8499999999999943,-0.592685,-0.010669,-0.012718
0.852499999999992,-0.595887,-0.009088,-0.010902
0.8549999999999898,-0.598768,-0.00876,-0.013585
0.8574999999999875,-0.600533,-0.008604,-0.010365
0.8599999999999852,-0.606972,-0.009711,-0.008118
0.862499999999983,-0.609744,-0.010949,-0.010022
0.8650000000000091,-0.612362,-0.009651,-0.007373
0.8675000000000068,-0.614746,-0.009018,-0.006507
0.8700000000000045,-0.612561,-0.008056,-0.006267
0.8725000000000023,-0.615098,-0.00813,-0.006141
0.875,-0.616212,-0.006764,-0.004908
0.8774999999999977,-0.620763,-0.009182,-0.001875
0.8799999999999955,-0.61769,-0.005338,-0.002021
0.8824999999999932,-0.621226,-0.006574,-0.000584
0.8849999999999909,-0.622058,-0.007494,-0.001471
0.8874999999999886,-0.620569,-0.006829,-0.00084
0.8899999999999864,-0.623435,-0.005507,-0.00283
0.8924999999999841,-0.622205,-0.004448,-0.000697
0.8950000000000102,-0.622676,-0.007053,0.00065
0.897500000000008,-0.623237,-0.004381,0.001533
0.9000000000000057,-0.619277,-0.007826,0.001582
0.9025000000000034,-0.620143,-0.006898,-4.8e-05
0.9050000000000012,-0.620166,-0.006123,0.003646
0.9074999999999988,-0.619283,-0.006059,0.003705
0.9099999999999966,-0.616859,-0.003327,0.002792
0.9124999999999944,-0.617531,-0.005391,0.004009
0.914999999999992,-0.614129,-0.00629,0.002954
0.9174999999999898,-0.615828,-0.007769,0.0043
0.9199999999999876,-0.61169,-0.005268,0.006507
0.9224999999999852,-0.610873,-0.004071,0.008006
0.924999999999983,-0.608024,-0.005411,0.00734
0.9275000000000092,-0.606664,-0.005732,0.008629
0.9300000000000068,-0.610973,-0.004217,0.005262
0.9325000000000044,-0.607523,-0.003134,0.004008
0.9350000000000024,-0.606567,-0.004619,0.008292
0.9375,-0.609151,-0.002483,0.008448
0.9399999999999976,-0.605996,-0.001155,0.005091
0.9424999999999956,-0.606445,-0.003339,0.007667
0.9449999999999932,-0.603163,-0.004572,0.006086
0.9474999999999908,-0.607649,-0.005987,0.008368
0.9499999999999886,-0.605957,-0.002605,0.007131
0.9524999999999864,-0.60371,-0.0066,0.006861
0.954999999999984,-0.602758,-0.007369,0.008179
0.9575000000000102,-0.601533,-0.007436,0.007062
0.960000000000008,-0.602742,-0.00577,0.010134
0.9625000000000056,-0.600201,-0.003637,0.011367
0.9650000000000034,-0.593446,-0.005931,0.012123
0.9675000000000012,-0.594105,-0.006852,0.007781
0.9699999999999988,-0.599325,-0.004353,0.00945
0.9724999999999966,-0.594524,-0.006521,0.008676
0.9749999999999944,-0.594157,-0.003168,0.007037
0.977499999999992,-0.591758,-0.005479,0.01036
0.9799999999999898,-0.595433,-0.004008,0.008012
0.9824999999999876,-0.5919,-0.007741,0.005826
0.9849999999999852,-0.592853,-0.006618,0.005936
0.987499999999983,-0.593624,-0.005303,0.005155
0.9900000000000092,-0.591324,-0.005539,0.007048
0.9925000000000068,-0.588761,-0.000931,0.008092
0.9950000000000044,-0.588703,-0.005235,0.009324
0.9975000000000024,-0.591913,-0.004534,0.008438
1.0,-0.58821,-0.007989,0.007626
1.0024999999999975,-0.59149,-0.006993,0.006879
1.0049999999999957,-0.592807,-0.007789,0.005526
1.0074999999999932,-0.594582,-0.009237,0.004441
1.009999999999991,-0.596573,-0.009291,0.004636
1.0124999999999886,-0.594907,-0.008565,0.004266
1.0149999999999864,-0.595664,-0.009094,0.005031
1.017499999999984,-0.601065,-0.006379,0.005438
1.0200000000000102,-0.604723,-0.004588,0.005064
1.022500000000008,-0.608338,-0.005962,0.003334
1.0250000000000057,-0.610907,-0.00705,0.003418
1.0275000000000034,-0.612885,-0.00093,0.002331
1.0300000000000011,-0.616771,-0.00169,0.000874
1.0324999999999989,-0.620014,-0.002936,0.002214
1.0349999999999966,-0.627504,-0.003113,0.001665
1.0374999999999943,-0.628668,-0.004421,0.002363
1.039999999999992,-0.636935,-0.00256,0.002363
1.0424999999999898,-0.642069,-0.001974,0.005875
1.0449999999999875,-0.646766,-0.002912,0.002805
1.0474999999999852,-0.654417,-0.003414,0.005578
1.049999999999983,-0.657787,-0.005862,0.010245
1.052500000000009,-0.670724,-0.007054,0.004932
1.0550000000000068,-0.672217,-0.002083,0.006371
1.0575000000000043,-0.676662,-0.008012,0.007908
1.0600000000000025,-0.681916,-0.005838,0.007335
1.0625,-0.689645,-0.008088,0.010044
1.0649999999999975,-0.693481,-0.004353,0.011439
1.0674999999999957,-0.700899,-0.006661,0.011808
1.0699999999999932,-0.706504,-0.005689,0.011546
1.072499999999991,-0.711879,-0.009255,0.010253
1.0749999999999886,-0.715973,-0.00729,0.013978
1.0774999999999864,-0.719242,-0.006124,0.012325
1.079999999999984,-0.725471,-0.011727,0.010218
1.0825000000000102,-0.731348,-0.010434,0.009137
1.085000000000008,-0.736697,-0.009365,0.013206
1.0875000000000057,-0.739852,-0.009146,0.011522
1.0900000000000034,-0.745349,-0.011931,0.011729
1.0925000000000011,-0.749208,-0.009705,0.010744
1.0949999999999989,-0.752555,-0.01221,0.011616
1.0974999999999966,-0.758039,-0.011003,0.007565
1.0999999999999943,-0.759091,-0.011052,0.009825
1.102499999999992,-0.759547,-0.012086,0.010165
1.1049999999999898,-0.765467,-0.010319,0.010116
1.1074999999999875,-0.766289,-0.012349,0.005332
1.1099999999999852,-0.772715,-0.011073,0.004419
1.112499999999983,-0.77444,-0.012031,0.006347
1.115000000000009,-0.77842,-0.011669,0.00562
1.1175000000000068,-0.779294,-0.012626,0.00693
1.1200000000000043,-0.78383,-0.011143,0.007675
1.1225000000000025,-0.785589,-0.013152,0.006559
1.125,-0.788768,-0.012751,0.008521
1.1274999999999975,-0.785267,-0.01387,0.005429
1.1299999999999957,-0.78993,-0.011893,0.007943
1.1324999999999932,-0.788835,-0.01262,0.006501
1.134999999999991,-0.79239,-0.008771,0.007705
1.1374999999999886,-0.792478,-0.010243,0.01005
1.1399999999999864,-0.790021,-0.014892,0.007195
1.142499999999984,-0.796192,-0.014967,0.005936
1.1450000000000102,-0.79329,-0.00986,0.006872
1.147500000000008,-0.793369,-0.013559,0.005954
1.1500000000000057,-0.796575,-0.013763,0.005522
1.1525000000000034,-0.790178,-0.01729,0.005778
1.1550000000000011,-0.793357,-0.013416,0.003435
1.1574999999999989,-0.790422,-0.016452,0.007791
1.1599999999999966,-0.790328,-0.013416,0.007907
1.1624999999999943,-0.789754,-0.013432,0.005036
1.164999999999992,-0.783572,-0.014398,0.004873
1.1674999999999898,-0.779538,-0.012051,0.005437
1.1699999999999875,-0.778659,-0.015275,0.004525
1.1724999999999852,-0.775968,-0.018866,0.005501
1.174999999999983,-0.773645,-0.013761,0.003348
1.177500000000009,-0.770721,-0.013509,0.004039
1.1800000000000068,-0.76401,-0.013357,0.005399
1.1825000000000043,-0.760375,-0.011179,0.002902
1.1850000000000025,-0.753285,-0.012015,0.005803
1.1875,-0.750114,-0.010924,-0.001852
1.1899999999999975,-0.740197,-0.010329,0.003233
1.1924999999999957,-0.733827,-0.014669,0.002835
1.1949999999999932,-0.731604,-0.013739,0.002909
1.197499999999991,-0.725897,-0.015287,0.003552
1.1999999999999886,-0.718296,-0.016491,0.001494
1.2024999999999864,-0.713848,-0.011949,0.004978
1.204999999999984,-0.70917,-0.014745,0.003619
1.2075000000000102,-0.698088,-0.01602,0.004857
1.210000000000008,-0.692511,-0.013486,0.004652
1.2125000000000057,-0.683399,-0.016493,0.003798
1.2150000000000034,-0.676414,-0.014678,0.005341
1.2175000000000011,-0.669065,-0.013874,0.002196
1.2199999999999989,-0.660192,-0.01417,0.005472
1.2224999999999966,-0.65074,-0.016497,0.005908
1.2249999999999943,-0.642765,-0.01651,0.007781
1.227499999999992,-0.633241,-0.014602,0.006589
1.2299999999999898,-0.623044,-0.017554,0.005905
1.2324999999999875,-0.612512,-0.013386,0.007197
1.2349999999999852,-0.603125,-0.017494,0.007557
1.237499999999983,-0.592321,-0.018075,0.008043
1.240000000000009,-0.58467,-0.019401,0.006406
1.2425000000000068,-0.57675,-0.016342,0.010198
1.2450000000000043,-0.560764,-0.019607,0.006934
1.2475000000000025,-0.554808,-0.019175,0.009263
1.25,-0.542052,-0.019249,0.007709
1.2524999999999975,-0.535311,-0.011978,0.00939
1.2549999999999957,-0.521381,-0.012159,0.011169
1.2574999999999932,-0.514354,-0.012,0.010719
1.259999999999991,-0.502586,-0.00888,0.009476
1.2624999999999886,-0.490104,-0.011095,0.009542
1.2649999999999864,-0.48535,-0.013624,0.011506
1.267499999999984,-0.474542,-0.00833,0.009308
1.2700000000000102,-0.464666,-0.006852,0.007235
1.272500000000008,-0.456938,-0.003108,0.007293
1.2750000000000057,-0.449976,-0.005832,0.005268
1.2775000000000034,-0.437427,-0.003362,0.004541
1.2800000000000011,-0.430523,-0.002483,0.005118
1.2824999999999989,-0.428565,-0.002271,0.005699
1.2849999999999966,-0.422999,-0.005925,0.002647
1.2874999999999943,-0.416997,-0.000398,0.002668
1.289999999999992,-0.409642,-0.00127,-0.000556
1.2924999999999898,-0.404789,0.00129,0.004081
1.2949999999999875,-0.402707,-0.001115,-0.003012
1.2974999999999852,-0.393289,-0.00283,0.000287
1.299999999999983,-0.389157,-0.000441,-0.00091
1.302500000000009,-0.386635,-0.005604,-0.000109
1.3050000000000068,-0.382619,-0.00217,0.000861
1.3075000000000043,-0.375806,-0.001256,-0.000401
1.3100000000000025,-0.373314,-0.003657,-0.002778
1.3125,-0.369942,-0.002298,0.000513
1.3149999999999975,-0.366193,-0.001571,0.000793
1.3174999999999957,-0.363933,-0.002056,0.000178
1.3199999999999932,-0.360978,0.002024,0.00167
1.322499999999991,-0.357887,-0.001897,0.000197
1.3249999999999886,-0.352839,-0.000152,-0.001733
1.3274999999999864,-0.353153,-0.004998,0.00012
1.329999999999984,-0.348678,-0.00131,-0.001982
1.3325000000000102,-0.350924,-0.002362,-0.000928
1.335000000000008,-0.349207,-0.002937,-0.001298
1.3375000000000057,-0.345966,-0.004643,-0.0003
1.3400000000000034,-0.345762,-0.004673,0.000607
1.3425000000000011,-0.347634,-0.004041,0.002012
1.3449999999999989,-0.346319,-0.003429,0.002726
1.3474999999999966,-0.346053,-0.0027,0.001474
1.3499999999999943,-0.346878,-0.004543,-0.00142
1.352499999999992,-0.344943,-0.005604,0.001902
1.3549999999999898,-0.343677,-0.004116,0.00153
1.3574999999999875,-0.347017,-0.007908,0.001901
1.3599999999999852,-0.345545,-0.00612,0.00427
1.362499999999983,-0.344138,-0.006557,0.001628
1.365000000000009,-0.344534,-0.008769,0.002422
1.3675000000000068,-0.35001,-0.003225,0.002149
1.3700000000000043,-0.351509,-0.003019,0.006793
1.3725000000000025,-0.350823,-0.004318,0.004105
1.375,-0.352106,-0.006226,0.00614
1.3774999999999975,-0.357103,-0.003281,0.002354
1.3799999999999957,-0.358698,-0.001583,0.004791
1.3824999999999932,-0.361484,-0.003299,0.004552
1.384999999999991,-0.363447,-0.001311,0.003832
1.3874999999999886,-0.369868,0.000527,0.005234
1.3899999999999864,-0.371563,0.00161,0.003698
1.392499999999984,-0.375371,0.001683,0.004632
1.3950000000000102,-0.381713,0.000858,0.005019
1.397500000000008,-0.386561,0.003134,0.007313
1.4000000000000057,-0.389655,0.001829,0.007918
1.4025000000000034,-0.392935,-0.00352,0.011536
1.4050000000000011,-0.396965,-0.000323,0.007858
1.4074999999999989,-0.399736,0.0044,0.01132
1.4099999999999966,-0.402358,-0.000359,0.010962
1.4124999999999943,-0.407697,0.002087,0.010604
1.414999999999992,-0.40973,-0.000682,0.011121
1.4174999999999898,-0.417095,-0.000769,0.01177
1.4199999999999875,-0.420936,0.000139,0.007477
1.4224999999999852,-0.425467,-0.001961,0.009877
1.424999999999983,-0.430195,-0.004894,0.009622
1.427500000000009,-0.433114,-0.002195,0.009591
1.4300000000000068,-0.439002,-0.002576,0.010496
1.4325000000000043,-0.442091,-0.007398,0.00856
1.4350000000000025,-0.446871,-0.003384,0.010443
1.4375,-0.452294,-0.001919,0.007426
1.4399999999999975,-0.456639,-0.006671,0.007687
1.4424999999999957,-0.462855,-0.006697,0.006119
1.4449999999999932,-0.465038,-0.006808,0.006179
1.447499999999991,-0.470558,-0.003295,0.00755
1.4499999999999886,-0.476223,-0.003301,0.00969
1.4524999999999864,-0.47902,-0.004989,0.006112
1.454999999999984,-0.486015,-0.007786,0.006867
1.4575000000000102,-0.490168,-0.006184,0.00538
1.460000000000008,-0.495085,-0.006184,0.006668
1.4625000000000057,-0.499404,-0.007467,0.005531
1.4650000000000034,-0.501978,-0.006342,0.00489
1.4675000000000011,-0.504787,-0.007601,0.005531
1.4699999999999989,-0.509906,-0.008357,0.007277
1.4724999999999966,-0.513899,-0.007461,0.005264
1.4749999999999943,-0.514777,-0.007313,0.005341
1.477499999999992,-0.521107,-0.009048,0.00517
1.4799999999999898,-0.524086,-0.007905,0.004796
1.4824999999999875,-0.529206,-0.007409,0.005151
1.4849999999999852,-0.532243,-0.006485,0.00468
1.487499999999983,-0.537609,-0.006445,0.006729
1.490000000000009,-0.538524,-0.005676,0.005084
1.4925000000000068,-0.54232,-0.006561,0.003842
1.4950000000000043,-0.54497,-0.002746,0.005525
1.4975000000000025,-0.548974,-0.005266,0.005081
1.5,-0.549886,-0.004125,0.001378
1.5024999999999975,-0.553499,-0.006141,0.002084
1.5049999999999957,-0.556567,-0.006239,0.001856
1.5074999999999932,-0.563233,-0.004394,0.002437
1.509999999999991,-0.568383,-0.000888,-0.001895
1.5124999999999886,-0.574412,-0.003263,0.000847
1.5149999999999864,-0.578666,-0.002661,-0.003326
1.517499999999984,-0.588121,-0.005007,-0.005251
1.5200000000000102,-0.590694,-0.003938,-0.002505
1.522500000000008,-0.592293,-0.006127,-0.006345
1.5250000000000057,-0.599279,-0.001197,-0.001442
1.5275000000000034,-0.600128,-0.007248,-0.002678
1.5300000000000011,-0.602567,-0.003107,-0.002193
1.5324999999999989,-0.606915,-0.004014,-0.000913
1.5349999999999966,-0.610495,-0.00729,-0.00114
1.5374999999999943,-0.611885,-0.007592,0.00448
1.539999999999992,-0.611836,-0.010854,0.003829
1.5424999999999898,-0.61878,-0.010663,0.005858
1.5449999999999875,-0.620926,-0.008611,0.007363
1.5474999999999852,-0.623511,-0.009063,0.005529
1.549999999999983,-0.625144,-0.00934,0.008278
1.552500000000009,-0.62397,-0.008547,0.01265
1.5550000000000068,-0.626919,-0.00913,0.008724
1.5575000000000043,-0.624487,-0.010379,0.010448
1.5600000000000025,-0.629538,-0.009386,0.011867
1.5625,-0.628552,-0.009398,0.011396
1.5649999999999975,-0.630561,-0.006375,0.010078
1.5674999999999957,-0.631787,-0.006431,0.01075
1.5699999999999932,-0.631028,-0.008437,0.011121
1.572499999999991,-0.62929,-0.00964,0.009789
1.5749999999999886,-0.632034,-0.006217,0.00637
1.5774999999999864,-0.631844,-0.006431,0.00826
1.579999999999984,-0.632685,-0.003682,0.006772
1.5825000000000102,-0.632989,-0.006013,0.009888
1.585000000000008,-0.63593,-0.004956,0.007854
1.5875000000000057,-0.638422,-0.000644,0.008392
1.5900000000000034,-0.641947,-0.004554,0.008488
1.5925000000000011,-0.641592,-0.00557,0.006338
1.5949999999999989,-0.64465,-0.003476,0.007956
1.5974999999999966,-0.646772,-0.007603,0.007547
1.5999999999999943,-0.648192,-0.007428,0.006024
1.602499999999992,-0.652337,-0.011572,0.006025
1.6049999999999898,-0.653221,-0.005458,0.009515
1.6074999999999875,-0.656457,-0.005758,0.005377
1.6099999999999852,-0.65741,-0.010896,0.002291
1.612499999999983,-0.658921,-0.010228,0.00271
1.615000000000009,-0.66502,-0.010724,0.00271
1.6175000000000068,-0.665397,-0.007439,0.004131
1.6200000000000043,-0.665522,-0.009055,0.002917
1.6225000000000025,-0.66796,-0.009124,0.001811
1.625,-0.674011,-0.009763,0.003888
1.6274999999999975,-0.673626,-0.012037,0.003649
1.6299999999999957,-0.673182,-0.011621,0.000896
1.6324999999999932,-0.674741,-0.011678,0.00193
1.634999999999991,-0.676467,-0.011915,0.000589
1.6374999999999886,-0.678627,-0.011651,-1.8e-05
1.6399999999999864,-0.677188,-0.013189,0.00033
1.642499999999984,-0.677268,-0.012563,-0.000602
1.6450000000000102,-0.675711,-0.0098,0.00403
1.647500000000008,-0.678457,-0.012124,0.000591
1.6500000000000057,-0.680678,-0.009166,6.3e-05
1.6525000000000034,-0.681909,-0.009504,0.001309
1.6550000000000011,-0.682861,-0.008495,0.002312
1.6574999999999989,-0.678979,-0.010528,0.003131
1.6599999999999966,-0.683902,-0.011794,0.002079
1.6624999999999943,-0.682934,-0.012018,0.001418
1.664999999999992,-0.680801,-0.012724,0.000837
1.6674999999999898,-0.680745,-0.008735,0.001145
1.6699999999999875,-0.683072,-0.008762,0.002236
1.6724999999999852,-0.686371,-0.008093,0.001604
1.674999999999983,-0.687055,-0.005393,0.001942
1.677500000000009,-0.687637,-0.008978,0.00137
1.6800000000000068,-0.687331,-0.012667,0.000649
1.6825000000000043,-0.688245,-0.010963,0.003847
1.6850000000000025,-0.687312,-0.009486,0.005011
1.6875,-0.687884,-0.008304,0.001018
1.6899999999999975,-0.689472,-0.010645,0.001922
1.6924999999999957,-0.692725,-0.006814,0.003577
1.6949999999999932,-0.694867,-0.010064,-0.000957
1.697499999999991,-0.692521,-0.008528,0.00268
1.6999999999999886,-0.691514,-0.009924,0.002543
1.7024999999999864,-0.693293,-0.010966,-8.5e-05
1.704999999999984,-0.695846,-0.011343,0.006156
1.7075000000000102,-0.691307,-0.010687,0.00202
1.710000000000008,-0.696886,-0.006449,0.003266
1.7125000000000057,-0.695713,-0.010052,-0.000288
1.7150000000000034,-0.69485,-0.013715,0.002972
1.7175000000000011,-0.695169,-0.012818,-0.002883
1.7199999999999989,-0.697753,-0.014123,-0.000195
1.7224999999999966,-0.695889,-0.016436,-0.001232
1.7249999999999943,-0.696069,-0.012493,-0.001186
1.727499999999992,-0.693917,-0.015779,-0.001448
1.7299999999999898,-0.693855,-0.013706,0.000144
1.7324999999999875,-0.694339,-0.01331,-0.002655
1.7349999999999852,-0.691225,-0.014208,0.000726
1.737499999999983,-0.688213,-0.018172,-0.003184
1.740000000000009,-0.684217,-0.016998,-0.000161
1.7425000000000068,-0.680219,-0.015981,0.001567
1.7450000000000043,-0.675513,-0.020498,0.00258
1.7475000000000025,-0.676224,-0.017527,-0.001393
1.75,-0.668088,-0.013427,0.00354
1.7524999999999975,-0.664234,-0.016557,-0.002141
1.7549999999999957,-0.659952,-0.012885,-0.001241
1.7574999999999932,-0.652692,-0.016434,-0.000723
1.759999999999991,-0.64591,-0.012605,-0.002402
1.7624999999999886,-0.637271,-0.010197,-0.004494
1.7649999999999864,-0.633754,-0.014924,-0.003737
1.767499999999984,-0.629336,-0.012079,-0.004199
1.7700000000000102,-0.620385,-0.013272,-0.007515
1.772500000000008,-0.607537,-0.011533,-0.00743
1.7750000000000057,-0.604126,-0.013226,-0.008877
1.7775000000000034,-0.59198,-0.014009,-0.009261
1.7800000000000011,-0.580934,-0.015786,-0.007007
1.7824999999999989,-0.567606,-0.01553,-0.011282
1.7849999999999966,-0.559263,-0.015809,-0.009899
1.7874999999999943,-0.547627,-0.016369,-0.012909
1.789999999999992,-0.532624,-0.016449,-0.01777
1.7924999999999898,-0.525093,-0.017375,-0.016844
1.7949999999999875,-0.512941,-0.018162,-0.017096
1.7974999999999852,-0.500065,-0.019634,-0.020325
1.799999999999983,-0.487708,-0.015587,-0.01962
1.802500000000009,-0.477026,-0.018333,-0.020258
1.8050000000000068,-0.469118,-0.010966,-0.024153
1.8075000000000043,-0.454196,-0.015336,-0.026077
1.8100000000000025,-0.444298,-0.015064,-0.027692
1.8125,-0.429934,-0.012156,-0.030477
1.8149999999999975,-0.420612,-0.014003,-0.031593
1.8174999999999957,-0.406747,-0.010948,-0.033888
1.8199999999999927,-0.400133,-0.011602,-0.035408
1.822499999999991,-0.390364,-0.013421,-0.038303
1.8249999999999889,-0.378118,-0.012837,-0.039802
1.8274999999999864,-0.367859,-0.008602,-0.040212
1.829999999999984,-0.360243,-0.008053,-0.041471
1.8325000000000105,-0.350486,-0.010623,-0.039706
1.835000000000008,-0.33702,-0.009866,-0.038742
1.8375000000000057,-0.329313,-0.007154,-0.03836
1.8400000000000036,-0.317222,-0.008819,-0.04026
1.8425000000000007,-0.307946,-0.006673,-0.037391
1.8449999999999989,-0.29444,-0.006539,-0.039938
1.8474999999999968,-0.284594,-0.003794,-0.035083
1.8499999999999943,-0.273485,-0.005245,-0.032759
1.852499999999992,-0.264525,-0.003172,-0.031999
1.8549999999999895,-0.251855,-0.003342,-0.027892
1.8574999999999875,-0.24462,-0.003967,-0.026116
1.8599999999999848,-0.229642,-0.004038,-0.02225
1.862499999999983,-0.219493,-0.001404,-0.01969
1.865000000000009,-0.20913,-0.002092,-0.016591
1.8675000000000068,-0.198916,-0.00568,-0.01305
1.8700000000000043,-0.19161,-0.001819,-0.011066
1.8725000000000025,-0.180514,-0.002663,-0.009048
1.875,-0.167184,-0.001264,-0.007156
1.8774999999999975,-0.159892,-0.000592,-0.003715
1.8799999999999957,-0.14822,0.003076,-0.00259
1.8824999999999927,-0.137471,-0.00084,-0.000295
1.884999999999991,-0.126651,0.000421,0.004794
1.8874999999999889,-0.115319,0.002494,0.001178
1.8899999999999864,-0.110382,-0.001395,0.004884
1.892499999999984,-0.100142,0.001846,0.006012
1.8950000000000105,-0.090149,0.002649,0.00691
1.897500000000008,-0.081143,0.000944,0.006763
1.9000000000000057,-0.079022,0.002078,0.008852
1.9025000000000036,-0.066176,0.002787,0.008134
1.9050000000000007,-0.057359,0.003239,0.008009
1.9074999999999989,-0.052552,0.003441,0.008626
1.9099999999999968,-0.044225,0.001476,0.009409
1.9124999999999943,-0.038247,0.001397,0.008098
1.914999999999992,-0.031933,0.001919,0.008478
1.9174999999999895,-0.021555,0.003431,0.007891
1.9199999999999875,-0.017564,0.008176,0.010131
1.9224999999999848,-0.012793,0.002248,0.009627
1.924999999999983,-0.007166,0.00691,0.009201
1.927500000000009,-0.001392,0.006814,0.006928
1.9300000000000068,0.000957,0.007466,0.01001
1.9325000000000043,0.008453,0.004581,0.009283
1.9350000000000025,0.009757,0.004094,0.010426
1.9375,0.010378,0.005733,0.009739
1.9399999999999975,0.013391,0.00269,0.011825
1.9424999999999957,0.016841,0.005601,0.011105
1.9449999999999927,0.017925,0.004911,0.013042
1.947499999999991,0.018769,0.005842,0.011563
1.9499999999999889,0.022789,0.004037,0.015479
1.9524999999999864,0.021522,0.007471,0.013139
1.954999999999984,0.023128,0.007027,0.016215
1.9575000000000105,0.021327,0.007712,0.010007
1.960000000000008,0.017222,0.005817,0.014391
1.9625000000000057,0.015192,0.005069,0.013929
1.9650000000000036,0.015896,0.006691,0.014331
1.9675000000000007,0.015014,0.008484,0.011823
1.9699999999999989,0.014239,0.006577,0.011817
1.9724999999999968,0.012075,0.005815,0.012267
1.9749999999999943,0.007731,0.004642,0.013985
1.977499999999992,0.006039,0.006431,0.011643
1.9799999999999895,0.004625,0.004422,0.007585
1.9824999999999875,0.002173,0.001609,0.01044
1.9849999999999848,0.001302,0.002214,0.005772
1.987499999999983,-0.006388,0.003653,0.007952
1.990000000000009,-0.003813,0.005069,0.007781
1.9925000000000068,-0.00397,0.001376,0.004811
1.9950000000000043,-0.007799,0.005426,0.005504
1.9975000000000025,-0.0108,0.003431,0.005188
2.0,-0.014319,0.003686,0.001442
2.0024999999999977,-0.01722,0.003713,0.00299
2.0049999999999955,-0.018977,0.005367,0.002303
2.007499999999993,-0.021285,0.005718,0.001235
2.009999999999991,-0.029904,0.002395,-0.000431
2.0124999999999886,-0.033702,0.004015,0.004365
2.0149999999999864,-0.035323,0.00222,-0.001112
2.017499999999984,-0.041601,0.003996,0.001537
2.0200000000000102,-0.043921,0.006291,0.001109
2.022500000000008,-0.050777,0.005861,0.000409
2.0250000000000057,-0.05507,0.007249,-0.00114
2.0275000000000034,-0.060387,0.006361,0.002689
2.030000000000001,-0.063391,0.006046,-0.002992
2.032499999999999,-0.072525,0.007302,-0.000305
2.0349999999999966,-0.07904,0.008046,-0.000107
2.0374999999999943,-0.087075,0.008836,-0.003116
2.039999999999992,-0.091547,0.00639,-0.003868
2.0424999999999898,-0.096467,0.009487,-0.001921
2.0449999999999875,-0.103633,0.01182,-0.002012
2.047499999999985,-0.108571,0.008013,-0.006685
2.049999999999983,-0.114125,0.007837,-0.003256
2.052500000000009,-0.122131,0.006149,-0.005732
2.055000000000007,-0.129181,0.009137,-0.00429
2.0575000000000045,-0.133429,0.00578,-0.006212
2.0600000000000023,-0.14081,0.006353,-0.004676
2.0625,-0.149745,0.0062,-0.00426
2.0649999999999977,-0.157006,0.006849,-0.008342
2.0674999999999955,-0.162333,0.007559,-0.00895
2.069999999999993,-0.170456,0.004566,-0.003897
2.072499999999991,-0.177406,0.006618,-0.00395
2.0749999999999886,-0.188056,0.007205,-0.006372
2.0774999999999864,-0.192492,0.002413,-0.006855
2.079999999999984,-0.199375,0.006523,-0.006311
2.0825000000000102,-0.207898,0.00258,-0.001907
2.085000000000008,-0.216295,0.004577,-0.005272
2.0875000000000057,-0.217614,0.004115,-0.001551
2.0900000000000034,-0.226088,0.002674,-0.003088
2.092500000000001,-0.233649,0.0005,-0.002682
2.094999999999999,-0.240086,0.004794,-0.002041
2.0974999999999966,-0.248458,0.002082,0.002184
2.0999999999999943,-0.252017,0.002783,0.00061
2.102499999999992,-0.260457,0.000342,0.001021
2.1049999999999898,-0.267157,0.000585,0.000338
2.1074999999999875,-0.274627,0.002646,0.00151
2.109999999999985,-0.281945,0.003529,-0.002667
2.112499999999983,-0.288241,0.003595,0.001166
2.115000000000009,-0.297719,-9.1e-05,-0.00184
2.117500000000007,-0.298926,-0.000785,0.002903
2.1200000000000045,-0.303201,-0.000553,-0.001232
2.1225000000000023,-0.311798,-0.000715,0.002027
2.125,-0.318278,-0.001554,0.000114
2.1274999999999977,-0.322419,-0.000235,-0.000396
2.1299999999999955,-0.328627,-0.001195,-0.000155
2.132499999999993,-0.333628,0.000221,9e-05
2.134999999999991,-0.340229,-0.001431,-0.00087
2.1374999999999886,-0.347649,-0.003603,-0.00075
2.1399999999999864,-0.350428,-0.002511,0.000548
2.142499999999984,-0.357427,-0.002457,0.002068
2.1450000000000102,-0.359653,-0.002186,-0.003517
2.147500000000008,-0.367557,-0.001478,-0.000528
2.1500000000000057,-0.365998,-0.001842,-0.000429
2.1525000000000034,-0.371785,-0.004169,0.002211
2.155000000000001,-0.375594,-0.0025,-2.7e-05
2.157499999999999,-0.382093,-0.002521,-0.001177
2.1599999999999966,-0.386998,-0.003091,-0.001703
2.1624999999999943,-0.393114,-0.002223,-0.002064
2.164999999999992,-0.395016,-0.001378,-0.00142
2.1674999999999898,-0.397547,0.000376,-3.1e-05
2.1699999999999875,-0.40255,-0.000988,-0.00082
2.172499999999985,-0.40627,-0.000982,0.001355
2.174999999999983,-0.409566,-0.003679,0.001257
2.177500000000009,-0.410821,-0.00056,-0.001454
2.180000000000007,-0.414744,-0.003311,0.000767
2.1825000000000045,-0.419614,9.2e-05,0.000555
2.1850000000000023,-0.424331,-0.003834,-0.000341
2.1875,-0.427946,-0.007364,0.000881
2.1899999999999977,-0.42706,-0.005977,0.000477
2.1924999999999955,-0.428903,-0.005698,0.004276
2.194999999999993,-0.433604,-0.001803,-0.000472
2.197499999999991,-0.434129,-0.003958,0.002084
2.1999999999999886,-0.441049,-0.00212,0.002053
2.2024999999999864,-0.442792,-0.002097,-0.000456
2.204999999999984,-0.448032,-0.006612,-0.000536
2.2075000000000102,-0.446743,-0.003479,0.000451
2.210000000000008,-0.449882,-0.003673,0.000984
2.2125000000000057,-0.453831,-0.004837,0.001291
2.2150000000000034,-0.45628,-0.004427,-0.000603
2.217500000000001,-0.454626,-0.004312,-0.000714
2.219999999999999,-0.457141,-0.003779,0.002328
2.2224999999999966,-0.463043,-0.009477,0.001123
2.2249999999999943,-0.462651,-0.008072,0.00146
2.227499999999992,-0.467859,-0.007673,0.001604
2.2299999999999898,-0.464907,-0.008623,0.003859
2.2324999999999875,-0.468014,-0.007275,0.0039
2.234999999999985,-0.470311,-0.009586,0.000682
2.237499999999983,-0.472257,-0.005324,0.003441
2.240000000000009,-0.478317,-0.004876,0.003176
2.242500000000007,-0.478499,-0.004579,0.006387
2.2450000000000045,-0.47691,-0.006394,0.003257
2.2475000000000023,-0.481327,-0.006294,0.004282
2.25,-0.479823,-0.005053,0.003674
2.2524999999999977,-0.483532,-0.002186,0.005501
2.2549999999999955,-0.484921,-0.007501,0.005362
2.257499999999993,-0.486897,-0.006457,0.00165
2.259999999999991,-0.484978,-0.005174,0.00485
2.2624999999999886,-0.489207,-0.007594,0.003547
2.2649999999999864,-0.489259,-0.006057,0.005964
2.267499999999984,-0.488363,-0.006117,0.004939
2.2700000000000102,-0.490159,-0.008966,0.005978
2.272500000000008,-0.490473,-0.006075,0.004271
2.2750000000000057,-0.49057,-0.008252,0.003652
2.2775000000000034,-0.492935,-0.005277,0.006331
2.280000000000001,-0.492138,-0.001647,0.003181
2.282499999999999,-0.489646,-0.007159,0.004487
2.2849999999999966,-0.490655,-0.007704,0.004094
2.2874999999999943,-0.491799,-0.006998,0.004443
2.289999999999992,-0.497761,-0.007774,0.005519
2.2924999999999898,-0.49613,-0.008367,0.004806
2.2949999999999875,-0.500383,-0.005552,0.001361
2.297499999999985,-0.496955,-0.005777,0.003164
2.299999999999983,-0.497992,-0.008506,0.004712
2.302500000000009,-0.500657,-0.009079,0.007626
2.305000000000007,-0.500664,-0.012186,0.003251
2.3075000000000045,-0.503399,-0.004767,0.006386
2.3100000000000023,-0.503941,-0.007547,0.009138
2.3125,-0.505245,-0.010777,0.006441
2.3149999999999977,-0.508155,-0.007959,0.008035
2.3174999999999955,-0.512038,-0.006545,0.00871
2.319999999999993,-0.515199,-0.007036,0.007579
2.322499999999991,-0.514233,-0.007245,0.010537
2.3249999999999886,-0.517879,-0.00838,0.007298
2.3274999999999864,-0.519758,-0.007313,0.006371
2.329999999999984,-0.526077,-0.007227,0.005313
2.3325000000000102,-0.52568,-0.005691,0.003245
2.335000000000008,-0.532395,-0.007737,0.006769
2.3375000000000057,-0.534791,-0.007105,0.005599
2.3400000000000034,-0.535676,-0.009762,0.002732
2.342500000000001,-0.542083,-0.009063,0.005529
2.344999999999999,-0.543374,-0.009024,0.005085
2.3474999999999966,-0.546514,-0.00872,0.010383
2.3499999999999943,-0.549011,-0.007538,0.008164
2.352499999999992,-0.554481,-0.005268,0.010464
2.3549999999999898,-0.55643,-0.010252,0.003006
2.3574999999999875,-0.560404,-0.008962,0.003897
2.359999999999985,-0.560705,-0.004502,0.009687
2.362499999999983,-0.559935,-0.006633,0.013164
2.365000000000009,-0.563936,-0.010809,0.009859
2.367500000000007,-0.570115,-0.004286,0.006989
2.3700000000000045,-0.576474,-0.010835,0.003784
2.3725000000000023,-0.573544,-0.00791,0.005309
2.375,-0.580804,-0.008386,0.007725
2.3774999999999977,-0.582399,-0.002965,0.00537
2.3799999999999955,-0.582348,-0.003307,0.007502
2.382499999999993,-0.585875,-0.006081,0.00741
2.384999999999991,-0.590783,-0.009467,0.007432
2.3874999999999886,-0.595708,-0.007652,0.006714
2.3899999999999864,-0.596531,-0.004795,0.007529
2.392499999999984,-0.599296,-0.006713,0.01059
2.3950000000000102,-0.603759,-0.013624,0.007125
2.397500000000008,-0.608637,-0.005478,0.010825
2.4000000000000057,-0.608712,-0.005388,0.009628
2.4025000000000034,-0.614111,-0.007738,0.006067
2.405000000000001,-0.617623,-0.004782,0.010996
2.407499999999999,-0.622273,-0.005099,0.009275
2.4099999999999966,-0.62761,-0.007321,0.010457
2.4124999999999943,-0.634272,-0.007237,0.009251
2.414999999999992,-0.635187,-0.004832,0.008809
2.4174999999999898,-0.642081,-0.006974,0.008013
2.4199999999999875,-0.644785,-0.008768,0.010018
2.422499999999985,-0.652367,-0.007227,0.00856
2.424999999999983,-0.656566,-0.00767,0.008319
2.427500000000009,-0.662863,-0.004329,0.010728
2.430000000000007,-0.666617,-0.004438,0.008667
2.4325000000000045,-0.665294,-0.005361,0.006799
2.4350000000000023,-0.672485,-0.004834,0.010074
2.4375,-0.678767,-0.008266,0.009257
2.4399999999999977,-0.68067,-0.004455,0.010265
2.4424999999999955,-0.684199,-0.007044,0.00704
2.444999999999993,-0.686134,-0.002219,0.008849
2.447499999999991,-0.690557,-0.005591,0.010169
2.4499999999999886,-0.695396,-0.004332,0.009646
2.4524999999999864,-0.699207,-0.009653,0.010214
2.454999999999984,-0.70363,-0.008419,0.009113
2.4575000000000102,-0.701936,-0.005421,0.011397
2.460000000000008,-0.707592,-0.00526,0.009612
2.4625000000000057,-0.709699,-0.004223,0.008035
2.4650000000000034,-0.713979,-0.005928,0.010779
2.467500000000001,-0.712681,-0.010748,0.012261
2.469999999999999,-0.715332,-0.008108,0.008192
2.4724999999999966,-0.719152,-0.007744,0.009852
2.4749999999999943,-0.720313,-0.008762,0.009816
2.477499999999992,-0.721622,-0.009176,0.009223
2.4799999999999898,-0.722817,-0.008377,0.009798
2.4824999999999875,-0.722168,-0.010946,0.008855
2.484999999999985,-0.722742,-0.005552,0.010037
2.487499999999983,-0.727166,-0.005779,0.011446
2.490000000000009,-0.726211,-0.006044,0.009393
2.492500000000007,-0.727515,-0.007692,0.01068
2.4950000000000045,-0.730233,-0.006388,0.0096
2.4975000000000023,-0.73017,-0.007258,0.00912
2.5,-0.731093,-0.008982,0.007726
2.5024999999999977,-0.733851,-0.005393,0.008289
2.5049999999999955,-0.73622,-0.007233,0.008991
2.507499999999993,-0.736965,-0.007169,0.010825
2.509999999999991,-0.739239,-0.007187,0.009087
2.5124999999999886,-0.740244,-0.006379,0.007086
2.5149999999999864,-0.739235,-0.009613,0.011057
2.517499999999984,-0.741911,-0.007987,0.010888
2.5200000000000102,-0.740033,-0.009404,0.011892
2.522500000000008,-0.742082,-0.010726,0.010767
2.5250000000000057,-0.740075,-0.012551,0.008667
2.5275000000000034,-0.740692,-0.002895,0.01209
2.530000000000001,-0.743276,-0.011541,0.010633
2.532499999999999,-0.746611,-0.009082,0.011674
2.5349999999999966,-0.743795,-0.011204,0.011697
2.5374999999999943,-0.742749,-0.008222,0.010366
2.539999999999992,-0.741601,-0.00831,0.015121
2.5424999999999898,-0.742109,-0.006771,0.011199
2.5449999999999875,-0.741092,-0.008103,0.013774
2.547499999999985,-0.737852,-0.009286,0.013442
2.549999999999983,-0.737243,-0.01245,0.009672
2.552500000000009,-0.73577,-0.008267,0.012095
2.555000000000007,-0.733836,-0.004461,0.01516
2.5575000000000045,-0.732991,-0.007804,0.010835
2.5600000000000023,-0.732546,-0.007533,0.010964
2.5625,-0.731464,-0.005294,0.012075
2.5649999999999977,-0.729206,-0.008662,0.008129
2.5674999999999955,-0.726365,-0.006047,0.010643
2.569999999999993,-0.728086,-0.009522,0.011738
2.572499999999991,-0.726993,-0.000609,0.006197
2.5749999999999886,-0.726031,-0.002484,0.008249
2.5774999999999864,-0.725922,-0.005606,0.009163
2.579999999999984,-0.726053,-0.005783,0.009476
2.5825000000000102,-0.729154,-0.004198,0.007861
2.585000000000008,-0.727154,-0.006171,0.006301
2.5875000000000057,-0.728581,-0.00596,0.011312
2.5900000000000034,-0.727852,-0.005822,0.008757
2.592500000000001,-0.731525,-0.003552,0.009271
2.594999999999999,-0.727157,-0.00709,0.007499
2.5974999999999966,-0.730279,-0.006469,0.012425
2.5999999999999943,-0.728005,-0.009002,0.009116
2.602499999999992,-0.727543,-0.011775,0.010031
2.6049999999999898,-0.726241,-0.009543,0.00947
2.6074999999999875,-0.729475,-0.012049,0.00874
2.609999999999985,-0.728229,-0.009744,0.009271
2.612499999999983,-0.728569,-0.009495,0.010302
2.615000000000009,-0.725693,-0.007483,0.008639
2.617500000000007,-0.727636,-0.010239,0.011943
2.6200000000000045,-0.725605,-0.008419,0.010163
2.6225000000000023,-0.724793,-0.009882,0.011792
2.625,-0.726974,-0.011818,0.009308
2.6274999999999977,-0.726569,-0.012287,0.011743
2.6299999999999955,-0.725517,-0.008704,0.010861
2.632499999999993,-0.721328,-0.010222,0.008163
2.634999999999991,-0.72072,-0.010075,0.011001
2.6374999999999886,-0.72369,-0.009075,0.009785
2.6399999999999864,-0.72026,-0.009981,0.009014
2.642499999999984,-0.721236,-0.012586,0.011339
2.6450000000000102,-0.717957,-0.009462,0.007934
2.647500000000008,-0.718847,-0.009128,0.010922
2.6500000000000057,-0.718777,-0.007886,0.00638
2.6525000000000034,-0.719923,-0.006065,0.009007
2.655000000000001,-0.718416,-0.010151,0.008839
2.657499999999999,-0.718919,-0.007132,0.009084
2.6599999999999966,-0.715168,-0.007626,0.006365
2.6624999999999943,-0.714178,-0.005019,0.009946
2.664999999999992,-0.71798,-0.007394,0.009521
2.6674999999999898,-0.72095,-0.006686,0.010236
2.6699999999999875,-0.719667,-0.008088,0.01061
2.672499999999985,-0.720619,-0.004537,0.009375
2.674999999999983,-0.723142,-0.008172,0.009473
2.677500000000009,-0.723109,-0.007376,0.010512
2.680000000000007,-0.722809,-0.007939,0.011116
2.6825000000000045,-0.719673,-0.010578,0.011506
2.6850000000000023,-0.722675,-0.012822,0.010339
2.6875,-0.720863,-0.01,0.011312
2.6899999999999977,-0.722203,-0.008944,0.009271
2.6924999999999955,-0.724752,-0.009997,0.01056
2.694999999999993,-0.723089,-0.011086,0.010299
2.697499999999991,-0.724992,-0.009975,0.012466
2.6999999999999886,-0.722484,-0.008203,0.01203
2.7024999999999864,-0.720461,-0.009303,0.010916
2.704999999999984,-0.724046,-0.011092,0.013276
2.7075000000000102,-0.721155,-0.007915,0.0126
2.710000000000008,-0.722425,-0.010338,0.015836
2.7125000000000057,-0.720477,-0.012068,0.011735
2.7150000000000034,-0.721824,-0.011034,0.013997
2.717500000000001,-0.721139,-0.010565,0.010081
2.719999999999999,-0.721367,-0.009052,0.010038
2.7224999999999966,-0.721669,-0.007421,0.009648
2.7249999999999943,-0.721955,-0.00841,0.008085
2.727499999999992,-0.722265,-0.005186,0.008395
2.7299999999999898,-0.720409,-0.008914,0.008976
2.7324999999999875,-0.720012,-0.010519,0.006617
2.734999999999985,-0.722905,-0.009446,0.008007
2.737499999999983,-0.722629,-0.012884,0.005276
2.740000000000009,-0.722949,-0.01047,0.008137
2.742500000000007,-0.721695,-0.009932,0.008812
2.7450000000000045,-0.722253,-0.00861,0.01056
2.7475000000000023,-0.721757,-0.009117,0.008114
2.75,-0.725345,-0.012779,0.007854
2.7524999999999977,-0.72069,-0.009602,0.009791
2.7549999999999955,-0.720129,-0.010984,0.010633
2.757499999999993,-0.722192,-0.010026,0.011352
2.759999999999991,-0.722416,-0.011241,0.008734
2.7624999999999886,-0.721075,-0.010151,0.011086
2.7649999999999864,-0.718494,-0.010341,0.011814
2.767499999999984,-0.724276,-0.011607,0.009554
2.7700000000000102,-0.722011,-0.00748,0.010998
2.772500000000008,-0.7183,-0.009009,0.014894
2.7750000000000057,-0.721184,-0.010855,0.012862
2.7775000000000034,-0.718738,-0.011224,0.013775
2.780000000000001,-0.719081,-0.008613,0.01232
2.782499999999999,-0.719354,-0.00914,0.011884
2.7849999999999966,-0.719041,-0.010955,0.011482
2.7874999999999943,-0.718404,-0.009646,0.013932
2.789999999999992,-0.718677,-0.008404,0.011834
2.7924999999999898,-0.720725,-0.010742,0.009822
2.7949999999999875,-0.717037,-0.009242,0.010306
2.797499999999985,-0.718856,-0.011013,0.011354
2.799999999999983,-0.719154,-0.008081,0.013941
2.802500000000009,-0.718245,-0.009969,0.008989
2.805000000000007,-0.71819,-0.011046,0.011917
2.8075000000000045,-0.71906,-0.008397,0.010275
2.8100000000000023,-0.720884,-0.009051,0.010041
2.8125,-0.718774,-0.007163,0.012714
2.8149999999999977,-0.722404,-0.005223,0.010503
2.8174999999999955,-0.722803,-0.009455,0.010365
2.819999999999993,-0.721228,-0.009425,0.010284
2.822499999999991,-0.72401,-0.00927,0.010263
2.8249999999999886,-0.721492,-0.007002,0.011904
2.8274999999999864,-0.716722,-0.008743,0.006432
2.829999999999984,-0.720291,-0.009924,0.009406
2.8325000000000102,-0.719474,-0.010599,0.011716
2.835000000000008,-0.72334,-0.00965,0.013315
2.8375000000000057,-0.719255,-0.011224,0.009728
2.8400000000000034,-0.720789,-0.007828,0.012068
2.842500000000001,-0.71588,-0.011805,0.008348
2.844999999999999,-0.715085,-0.010759,0.008888
2.8474999999999966,-0.715393,-0.007717,0.01195
2.8499999999999943,-0.716998,-0.005996,0.009791
2.852499999999992,-0.718197,-0.013609,0.011713
2.8549999999999898,-0.713681,-0.010726,0.011054
2.8574999999999875,-0.711356,-0.011256,0.011497
2.859999999999985,-0.707036,-0.009325,0.010968
2.862499999999983,-0.705502,-0.010163,0.008509
2.865000000000009,-0.700654,-0.012232,0.008617
2.867500000000007,-0.699413,-0.010583,0.01105
2.8700000000000045,-0.697954,-0.009774,0.012357
2.8725000000000023,-0.693055,-0.011957,0.008594
2.875,-0.685914,-0.010143,0.009134
2.8774999999999977,-0.685436,-0.009839,0.011515
2.8799999999999955,-0.680691,-0.009981,0.009401
2.882499999999993,-0.674065,-0.009173,0.011859
2.884999999999991,-0.670607,-0.009026,0.01044
2.8874999999999886,-0.66585,-0.01099,0.008801
2.8899999999999864,-0.658754,-0.011168,0.012047
2.892499999999984,-0.653529,-0.008565,0.010819
2.8950000000000102,-0.64452,-0.006434,0.00945
2.897500000000008,-0.640097,-0.008723,0.008
2.9000000000000057,-0.636125,-0.009772,0.008442
2.9025000000000034,-0.628391,-0.005981,0.009104
2.905000000000001,-0.627059,-0.007129,0.009809
2.907499999999999,-0.614455,-0.008884,0.01075
2.9099999999999966,-0.611185,-0.007057,0.010893
2.9124999999999943,-0.602146,-0.002186,0.007636
2.914999999999992,-0.593129,-0.010794,0.004641
2.9174999999999898,-0.592497,-0.005549,0.010213
2.9199999999999875,-0.580745,-0.008057,0.012475
2.922499999999985,-0.575878,-0.006242,0.011951
2.924999999999983,-0.572041,-0.002888,0.00825
2.927500000000009,-0.564215,-0.003247,0.012019
2.930000000000007,-0.552458,-0.006369,0.008621
2.9325000000000045,-0.554708,-0.000763,0.006402
2.9350000000000023,-0.546078,-0.003532,0.008126
2.9375,-0.537653,-0.005436,0.007065
2.9399999999999977,-0.535657,-0.003494,0.009873
2.9424999999999955,-0.529274,-0.005174,0.009561
2.944999999999993,-0.523298,-0.006849,0.008713
2.947499999999991,-0.517869,-0.008072,0.007007
2.9499999999999886,-0.510067,-0.007492,0.009116
2.9524999999999864,-0.506757,-0.006691,0.008277
2.954999999999984,-0.498757,-0.003988,0.007232
2.9575000000000102,-0.490621,-0.004178,0.004985
2.960000000000008,-0.487797,-0.004622,0.00645
2.9625000000000057,-0.476806,-0.000422,0.008849
2.9650000000000034,-0.472546,-0.003037,0.00718
2.967500000000001,-0.468882,-0.004391,0.00614
2.969999999999999,-0.463252,-0.001094,0.006079
2.9724999999999966,-0.455998,-0.005446,0.008702
2.9749999999999943,-0.449044,-0.004342,0.007191
2.977499999999992,-0.440453,-0.003457,0.007721
2.9799999999999898,-0.431189,-0.003031,0.005282
2.9824999999999875,-0.426695,-0.005434,0.010384
2.984999999999985,-0.423223,-0.005719,0.004647
2.987499999999983,-0.416333,-0.003359,0.003665
2.990000000000009,-0.405151,-0.003202,0.007757
2.992500000000007,-0.403269,-0.002086,0.006232
2.9950000000000045,-0.398268,-0.002825,0.006305
2.9975000000000023,-0.392254,-0.00591,0.007273
3.0,-0.383759,-0.003909,0.008459
3.0024999999999977,-0.382012,-0.003889,0.005216
3.0049999999999955,-0.375919,-0.005667,0.010338
3.007499999999993,-0.369968,-0.004086,0.00814
3.009999999999991,-0.366083,-0.004001,0.009189
3.0124999999999886,-0.360817,-0.007163,0.007994
3.0149999999999864,-0.355749,-0.005016,0.010204
3.017499999999984,-0.350091,-0.003763,0.008198
3.0200000000000102,-0.347325,-0.004512,0.01039
3.022500000000008,-0.345074,-0.00257,0.011504
3.0250000000000057,-0.342099,-0.005877,0.010737
3.0275000000000034,-0.335638,-0.0029,0.009374
3.030000000000001,-0.334343,-0.001843,0.007991
3.032499999999999,-0.328086,-0.000753,0.012036
3.0349999999999966,-0.326256,-0.0035,0.007873
3.0374999999999943,-0.322121,-0.001727,0.009652
3.039999999999992,-0.31866,0.001731,0.01077
3.0424999999999898,-0.316148,-0.000545,0.012577
3.0449999999999875,-0.311965,-0.001343,0.011345
3.047499999999985,-0.314593,-0.003019,0.009424
3.049999999999983,-0.306271,-0.000663,0.008344
3.052500000000009,-0.30866,-0.004131,0.009733
3.055000000000007,-0.302312,-0.003932,0.010037
3.0575000000000045,-0.305073,-0.004183,0.010438
3.0600000000000023,-0.302269,-0.004634,0.011826
3.0625,-0.299273,-0.00225,0.012579
3.0649999999999977,-0.299938,-0.004339,0.011132
3.0674999999999955,-0.294781,-0.001457,0.012196
3.069999999999993,-0.294201,8.9e-05,0.010524
3.072499999999991,-0.293386,-0.002849,0.010674
3.0749999999999886,-0.293131,-0.004506,0.007968
3.0774999999999864,-0.291285,-0.005174,0.008442
3.079999999999984,-0.288826,-0.004576,0.008344
3.0825000000000102,-0.287367,-0.007097,0.01168
3.085000000000008,-0.286657,-0.003602,0.008387
3.0875000000000057,-0.283748,-0.001958,0.00808
3.0900000000000034,-0.28253,-0.003774,0.009456
3.092500000000001,-0.281978,-0.003584,0.011941
3.094999999999999,-0.28244,0.001938,0.009187
3.0974999999999966,-0.277576,-0.00155,0.011837
3.0999999999999943,-0.275676,-0.002664,0.011279
3.102499999999992,-0.272125,-0.003786,0.013114
3.1049999999999898,-0.268495,0.000849,0.010423
3.1074999999999875,-0.268908,-0.002001,0.010615
3.109999999999985,-0.262794,-0.000939,0.011215
3.112499999999983,-0.264201,-0.000623,0.009718
3.115000000000009,-0.262789,-0.003237,0.011808
3.117500000000007,-0.262205,-0.001018,0.013936
3.1200000000000045,-0.259225,-0.000682,0.011408
3.1225000000000023,-0.255565,-0.003284,0.012145
3.125,-0.25388,-0.001043,0.009718
3.1274999999999977,-0.252096,-0.000533,0.010676
3.1299999999999955,-0.253683,-0.001821,0.010162
3.132499999999993,-0.246507,-0.003976,0.011971
3.134999999999991,-0.245787,-0.006016,0.006799
3.1374999999999886,-0.247942,-0.002944,0.009424
3.1399999999999864,-0.245515,-0.001973,0.007331
3.142499999999984,-0.242411,-0.005655,0.008111
3.1450000000000102,-0.238195,-0.002781,0.005814
3.147500000000008,-0.24264,-0.003859,0.00687
3.1500000000000057,-0.241107,-0.0008,0.006936
3.1525000000000034,-0.236759,-0.004078,0.00916
3.155000000000001,-0.236529,-0.000915,0.009159
3.157499999999999,-0.232638,-0.004025,0.007703
3.1599999999999966,-0.236815,-0.003313,0.008067
3.1624999999999943,-0.231723,-0.000335,0.008429
3.164999999999992,-0.233683,-0.003986,0.009371
3.1674999999999898,-0.229026,-0.002587,0.010023
3.1699999999999875,-0.231071,-0.003681,0.008548
3.172499999999985,-0.22911,-0.002831,0.009885
3.174999999999983,-0.229593,-0.0048,0.010217
3.177500000000009,-0.232837,-0.002766,0.01143
3.180000000000007,-0.227554,-0.005086,0.009414
3.1825000000000045,-0.226893,-0.00359,0.01033
3.1850000000000023,-0.228731,-0.004852,0.009456
3.1875,-0.228338,0.000142,0.012174
3.1899999999999977,-0.230493,-0.002858,0.010353
3.1924999999999955,-0.228795,-0.000843,0.00833
3.194999999999993,-0.23019,-0.004883,0.013039
3.197499999999991,-0.22959,-0.001916,0.011107
3.1999999999999886,-0.230256,-0.002649,0.011054
3.2024999999999864,-0.231965,-0.002451,0.011941
3.204999999999984,-0.234032,-0.000763,0.011068
3.2075000000000102,-0.232686,0.000147,0.007149
3.210000000000008,-0.235993,-0.001122,0.010914
3.2125000000000057,-0.23669,0.000318,0.010742
3.2150000000000034,-0.238062,0.001729,0.008158
3.217500000000001,-0.236718,0.000925,0.007611
3.219999999999999,-0.240865,0.001792,0.009
3.2224999999999966,-0.24322,-0.000745,0.008904
3.2249999999999943,-0.243589,-0.001362,0.007265
3.227499999999992,-0.244676,-0.002025,0.009697
3.2299999999999898,-0.248727,-0.000739,0.009773
3.2324999999999875,-0.250337,-0.002271,0.008345
3.234999999999985,-0.250125,-0.00321,0.007268
3.237499999999983,-0.252646,-0.000817,0.009438
3.240000000000009,-0.258209,0.00108,0.0114
3.242500000000007,-0.256987,0.001747,0.009016
3.2450000000000045,-0.257777,0.000188,0.011062
3.2475000000000023,-0.258541,-0.000444,0.011527
3.25,-0.260986,-0.002046,0.012466
3.2524999999999977,-0.263472,-0.002022,0.009825
3.2549999999999955,-0.264111,-0.001864,0.008699
3.257499999999993,-0.263025,4.4e-05,0.008821
3.259999999999991,-0.263819,0.002735,0.008614
3.2624999999999886,-0.265987,-0.000544,0.009044
3.2649999999999864,-0.267671,-0.001486,0.0108
3.267499999999984,-0.264117,-0.000364,0.009202
3.2700000000000102,-0.271019,-0.002587,0.010537
3.272500000000008,-0.270748,-0.000702,0.009664
3.2750000000000057,-0.270082,0.001746,0.012534
3.2775000000000034,-0.270303,-0.006047,0.012898
3.280000000000001,-0.271976,0.000954,0.010956
3.282499999999999,-0.273913,-0.003415,0.010384
3.2849999999999966,-0.273453,-0.001331,0.010514
3.2874999999999943,-0.270978,-0.003606,0.008675
3.289999999999992,-0.269951,-0.005031,0.010166
3.2924999999999898,-0.273499,-0.004813,0.009201
3.2949999999999875,-0.272633,-0.001614,0.008953
3.297499999999985,-0.277649,-0.008065,0.009977
3.299999999999983,-0.276536,-0.00622,0.008544
3.302500000000009,-0.275408,-0.003965,0.01199
3.305000000000007,-0.27975,-0.0039,0.012744
3.3075000000000045,-0.277795,-0.003372,0.010603
3.3100000000000023,-0.279304,-0.004718,0.010306
3.3125,-0.281766,-0.003587,0.009029
3.3149999999999977,-0.281662,-0.005044,0.011737
3.3174999999999955,-0.27962,-0.008757,0.010041
3.319999999999993,-0.281148,-0.008748,0.010701
3.322499999999991,-0.278556,-0.003907,0.009311
3.3249999999999886,-0.280048,-0.001836,0.010917
3.3274999999999864,-0.278716,-0.00688,0.010579
3.329999999999984,-0.277421,-0.003524,0.011944
3.3325000000000102,-0.277929,-0.006659,0.010497
3.335000000000008,-0.27855,-0.007391,0.013395
3.3375000000000057,-0.276931,-0.007762,0.013407
3.3400000000000034,-0.269407,-0.008774,0.010812
3.342500000000001,-0.272048,-0.006413,0.00916
3.344999999999999,-0.271076,-0.004189,0.011382
3.3474999999999966,-0.273941,-0.005752,0.013577
3.3499999999999943,-0.26819,-0.007752,0.012163
3.352499999999992,-0.266828,-0.004952,0.011442
3.3549999999999898,-0.267492,-0.007392,0.014123
3.3574999999999875,-0.267263,-0.004122,0.012634
3.359999999999985,-0.264582,-0.006592,0.010692
3.362499999999983,-0.266907,-0.00574,0.00978
3.365000000000009,-0.264442,-0.003824,0.008859
3.367500000000007,-0.26333,-0.000808,0.010199
3.3700000000000045,-0.262089,-0.005662,0.011907
3.3725000000000023,-0.261849,-0.003165,0.011273
3.375,-0.260419,-0.002746,0.01085
3.3774999999999977,-0.256947,-0.003599,0.009612
3.3799999999999955,-0.259233,0.000132,0.010148
3.382499999999993,-0.259238,-0.001341,0.011758
3.384999999999991,-0.261468,-0.003524,0.006502
3.3874999999999886,-0.255345,-0.000341,0.013413
3.3899999999999864,-0.258955,3.8e-05,0.007517
3.392499999999984,-0.260709,-0.00225,0.01074
3.3950000000000102,-0.262813,-0.001371,0.011722
3.397500000000008,-0.263789,0.000697,0.009017
3.4000000000000057,-0.263791,-0.004846,0.011081
3.4025000000000034,-0.259903,-0.003469,0.007506
3.405000000000001,-0.262345,0.002574,0.009593
3.407499999999999,-0.261001,-0.005369,0.011476
3.4099999999999966,-0.261438,-0.002779,0.010022
3.4124999999999943,-0.259428,-0.003594,0.008764
3.414999999999992,-0.262579,0.000267,0.009242
3.4174999999999898,-0.260085,-0.003578,0.009818
3.4199999999999875,-0.263084,-0.001472,0.009225
3.422499999999985,-0.264922,-0.003642,0.011439
3.424999999999983,-0.263445,-0.003327,0.01094
3.427500000000009,-0.267237,-0.001661,0.010999
3.430000000000007,-0.266446,-0.004277,0.008825
3.4325000000000045,-0.269149,0.000257,0.01236
3.4350000000000023,-0.268859,-0.001284,0.010199
3.4375,-0.270936,-0.002202,0.009409
3.4399999999999977,-0.269017,-0.000645,0.010394
3.4424999999999955,-0.268255,-0.002104,0.008004
3.444999999999993,-0.271317,-0.00056,0.012658
3.447499999999991,-0.273758,-0.001264,0.01109
3.4499999999999886,-0.273152,-0.003408,0.012443
3.4524999999999864,-0.274615,-0.000209,0.010804
3.454999999999984,-0.278091,-0.003892,0.012935
3.4575000000000102,-0.280564,0.001655,0.011652
3.460000000000008,-0.278579,-0.001746,0.01457
3.4625000000000057,-0.282866,-0.003521,0.013512
3.4650000000000034,-0.288087,-0.005044,0.013965
3.467500000000001,-0.285913,-0.002027,0.012345
3.469999999999999,-0.28801,-0.00639,0.010697
3.4724999999999966,-0.292689,-0.003177,0.011716
3.4749999999999943,-0.29005,-0.001086,0.010639
3.477499999999992,-0.292201,-0.006527,0.0097
3.4799999999999898,-0.297371,-0.004651,0.008633
3.4824999999999875,-0.299416,-0.004393,0.008897
3.484999999999985,-0.299676,-0.005452,0.010457
3.487499999999983,-0.29994,-0.003527,0.011786
3.490000000000009,-0.30001,-0.006469,0.010333
3.492500000000007,-0.304271,-0.009035,0.01098
3.4950000000000045,-0.308144,-0.002733,0.011223
3.4975000000000023,-0.301386,-0.007391,0.01182
3.5,-0.301154,-0.009008,0.012735
3.5024999999999977,-0.302976,-0.008339,0.015254
3.5049999999999955,-0.306094,-0.008677,0.010595
3.507499999999993,-0.305949,-0.008476,0.012764
3.509999999999991,-0.309244,-0.008623,0.012166
3.5124999999999886,-0.304772,-0.009961,0.011771
3.5149999999999864,-0.307424,-0.00855,0.013069
3.517499999999984,-0.305575,-0.007981,0.010625
3.5200000000000102,-0.307658,-0.008203,0.011805
3.522500000000008,-0.308214,-0.008059,0.012467
3.5250000000000057,-0.305359,-0.012538,0.01132
3.5275000000000034,-0.305797,-0.007205,0.012698
3.530000000000001,-0.302856,-0.007066,0.011165
3.532499999999999,-0.304963,-0.007614,0.008596
3.5349999999999966,-0.303154,-0.010765,0.012539
3.5374999999999943,-0.300981,-0.007907,0.010485
3.539999999999992,-0.3032,-0.009583,0.009909
3.5424999999999898,-0.298038,-0.011075,0.009408
3.5449999999999875,-0.296198,-0.00999,0.012835
3.547499999999985,-0.298229,-0.009096,0.010819
3.549999999999983,-0.294094,-0.006862,0.009886
3.552500000000009,-0.296131,-0.008012,0.01382
3.555000000000007,-0.291927,-0.008205,0.011008
3.5575000000000045,-0.292335,-0.010803,0.012409
3.5600000000000023,-0.290829,-0.012206,0.015066
3.5625,-0.286639,-0.009653,0.009602
3.5649999999999977,-0.2866,-0.007525,0.010622
3.5674999999999955,-0.285834,-0.009923,0.013227
3.569999999999993,-0.287184,-0.008871,0.010737
3.572499999999991,-0.282255,-0.009859,0.013154
3.5749999999999886,-0.281376,-0.00876,0.007879
3.5774999999999864,-0.276011,-0.010428,0.011788
3.579999999999984,-0.279237,-0.012146,0.008766
3.5825000000000102,-0.277434,-0.007653,0.01175
3.585000000000008,-0.274546,-0.004451,0.012311
3.5875000000000057,-0.273408,-0.006992,0.010189
3.5900000000000034,-0.270964,-0.004952,0.010604
3.592500000000001,-0.270467,-0.005102,0.010476
3.594999999999999,-0.270519,-0.010473,0.011022
3.5974999999999966,-0.268598,-0.002922,0.012922
3.5999999999999943,-0.268309,-0.005543,0.012887
3.602499999999992,-0.267488,-0.008856,0.011354
3.6049999999999898,-0.264834,-0.007485,0.008235
3.607499999999988,-0.26717,-0.003339,0.010405
3.609999999999985,-0.267996,-0.003563,0.0087
3.612499999999983,-0.261132,-0.000282,0.011758
3.615000000000009,-0.262015,-0.0044,0.010314
3.617500000000007,-0.266662,-0.001367,0.012925
3.620000000000005,-0.265433,-0.003459,0.009196
3.6225000000000014,-0.264554,-0.003013,0.010923
3.625,-0.266972,-0.003447,0.011048
3.6274999999999977,-0.271472,0.000974,0.0076
3.629999999999996,-0.270937,-0.003801,0.011177
3.632499999999993,-0.269358,-0.00644,0.009333
3.634999999999991,-0.26833,-0.003342,0.010999
3.6374999999999886,-0.272574,-0.000732,0.010137
3.6399999999999855,-0.275683,-0.005168,0.010068
3.642499999999984,-0.275743,-0.003858,0.009871
3.64500000000001,-0.274929,-0.005515,0.011734
3.647500000000008,-0.278708,-0.002436,0.010531
3.6500000000000057,-0.279765,-0.001596,0.013668
3.6525000000000034,-0.281064,-0.00311,0.01175
3.655000000000001,-0.281259,-0.003801,0.012196
3.657499999999999,-0.284475,-0.00146,0.011092
3.6599999999999966,-0.28661,-0.002883,0.013053
3.6624999999999934,-0.285801,-0.002719,0.012176
3.664999999999992,-0.287896,-0.00073,0.011408
3.6674999999999898,-0.290802,-0.002758,0.014415
3.669999999999988,-0.29313,-0.000782,0.012559
3.672499999999985,-0.291479,-0.003277,0.014047
3.674999999999983,-0.291115,-0.000454,0.015
3.677500000000009,-0.294113,0.000428,0.016201
3.680000000000007,-0.293566,-0.00456,0.01524
3.682500000000005,-0.290222,-0.004029,0.01656
3.6850000000000014,-0.28964,-0.001597,0.019466
3.6875,-0.285596,-0.005995,0.018788
3.6899999999999977,-0.28515,-0.002134,0.022636
3.692499999999996,-0.283638,-0.00695,0.023914
3.694999999999993,-0.282472,-0.008993,0.027613
3.697499999999991,-0.275098,-0.008173,0.03256
3.6999999999999886,-0.272949,-0.005478,0.035738
3.7024999999999855,-0.263044,-0.006913,0.039097
3.704999999999984,-0.255629,-0.007389,0.037114
3.70750000000001,-0.250508,-0.006703,0.042564
3.710000000000008,-0.238784,-0.004883,0.045363
3.7125000000000057,-0.22798,-0.010963,0.049957
3.7150000000000034,-0.221166,-0.008786,0.053085
3.717500000000001,-0.207372,-0.010784,0.055402
3.719999999999999,-0.196978,-0.008801,0.060222
3.7224999999999966,-0.187019,-0.009106,0.058823
3.7249999999999934,-0.175603,-0.007235,0.064261
3.727499999999992,-0.168048,-0.010054,0.066753
3.7299999999999898,-0.154407,-0.010452,0.071006
3.732499999999988,-0.140722,-0.009379,0.070029
3.734999999999985,-0.128132,-0.01155,0.071704
3.737499999999983,-0.118004,-0.008088,0.068974
3.740000000000009,-0.10936,-0.00695,0.067621
3.742500000000007,-0.100455,-0.007299,0.066382
3.745000000000005,-0.091121,-0.006834,0.064915
3.7475000000000014,-0.081895,-0.006393,0.06269
3.75,-0.078686,-0.002231,0.05687
3.7524999999999977,-0.067174,-0.002725,0.055245
3.754999999999996,-0.06243,-0.001964,0.04858
3.757499999999993,-0.052367,0.002082,0.046504
3.759999999999991,-0.048804,0.005374,0.040796
3.7624999999999886,-0.045918,-0.00059,0.037707
3.7649999999999855,-0.04153,-9.8e-05,0.032916
3.767499999999984,-0.039884,0.000869,0.027496
3.77000000000001,-0.03307,0.000147,0.023157
3.772500000000008,-0.031134,-0.000709,0.019225
3.7750000000000057,-0.026673,0.000248,0.016547
3.7775000000000034,-0.023107,-0.001302,0.010676
3.780000000000001,-0.019532,-0.004038,0.011852
3.782499999999999,-0.016809,-0.002992,0.009713
3.7849999999999966,-0.018156,0.001623,0.005854
3.7874999999999934,-0.013369,-0.00224,0.006435
3.789999999999992,-0.013235,-0.00196,0.006152
3.7924999999999898,-0.012177,-0.0026,0.004909
3.794999999999988,-0.009479,-0.000972,0.005939
3.797499999999985,-0.006768,-0.004795,0.006589
3.799999999999983,-0.010224,-0.00383,0.008217
3.802500000000009,-0.008929,-0.001307,0.00973
3.805000000000007,-0.006381,0.000245,0.008399
3.807500000000005,-0.005828,-0.005023,0.0105
3.8100000000000014,-0.003253,-0.000687,0.00976
3.8125,-0.002213,-0.000384,0.008582
3.8149999999999977,-0.003569,0.000935,0.010432
3.817499999999996,-0.00553,-0.000226,0.009704
3.819999999999993,-0.004061,0.001808,0.015958
3.822499999999991,0.000247,0.000217,0.016119
3.8249999999999886,-0.004959,-0.00266,0.013686
3.8274999999999855,-0.003363,-0.0045,0.01133
3.829999999999984,-0.000337,-0.000817,0.01036
3.83250000000001,-0.002524,-0.002931,0.011963
3.835000000000008,-0.007263,-0.000747,0.015192
3.8375000000000057,-0.005208,-0.002255,0.014517
3.8400000000000034,-0.006519,-0.001779,0.011227
3.842500000000001,-0.006409,0.002181,0.011855
3.844999999999999,-0.00447,0.004495,0.011063
3.8474999999999966,-0.003934,0.001422,0.012257
3.8499999999999934,-0.003211,-0.002691,0.011643
3.852499999999992,-0.004138,-0.003742,0.013005
3.8549999999999898,-0.003661,0.001615,0.011388
3.857499999999988,-0.004569,-0.001927,0.011954
3.859999999999985,-0.004403,-0.003025,0.012901
3.862499999999983,-0.000899,0.001272,0.011458
3.865000000000009,-0.000826,-0.001158,0.013027
3.867500000000007,-0.001872,-0.001135,0.013032
3.870000000000005,-8.9e-05,0.004698,0.013997
3.8725000000000014,-0.003217,-0.000842,0.013214
3.875,-0.000903,0.000151,0.013746
3.8774999999999977,-0.003573,0.000339,0.010712
3.879999999999996,-0.001891,-0.000253,0.012449
3.882499999999993,-3.9e-05,-0.001298,0.008794
3.884999999999991,0.000592,0.002185,0.013145
3.8874999999999886,0.001087,0.00175,0.012846
3.8899999999999855,-0.004034,0.000503,0.011361
3.892499999999984,-0.002283,0.002988,0.01049
3.89500000000001,-0.004333,0.001023,0.010555
3.897500000000008,-0.001815,0.003775,0.009648
3.9000000000000057,-0.000559,-0.001672,0.009435
3.9025000000000034,0.001842,-0.000669,0.011605
3.905000000000001,-0.000168,-0.001267,0.00901
3.907499999999999,-0.00013,0.001495,0.008208
3.9099999999999966,0.004389,-0.000325,0.00652
3.9124999999999934,0.002585,8.9e-05,0.008302
3.914999999999992,0.002781,0.001179,0.006644
3.9174999999999898,0.003054,-0.001954,0.007329
3.919999999999988,0.003702,0.00036,0.008219
3.922499999999985,0.004578,0.001543,0.008232
3.924999999999983,0.005089,0.003953,0.012475
3.927500000000009,0.00911,0.000129,0.006112
3.930000000000007,0.006727,0.002448,0.008745
3.932500000000005,0.008855,-0.001891,0.009044
3.9350000000000014,0.008384,0.004268,0.005113
3.9375,0.010706,-0.004362,0.008615
3.9399999999999977,0.007924,-0.000598,0.007664
3.942499999999996,0.008594,0.004209,0.003546
3.944999999999993,0.00794,0.000187,0.002543
3.947499999999991,0.010028,0.001634,0.003842
3.9499999999999886,0.009949,-0.00017,0.003832
3.9524999999999855,0.009633,0.003055,0.005165
3.954999999999984,0.01137,-0.003667,0.00343
3.95750000000001,0.014434,-0.001407,0.004851
3.960000000000008,0.010661,-0.000241,0.005104
3.9625000000000057,0.009661,-0.00153,0.005912
3.9650000000000034,0.008333,0.000422,0.00393
3.967500000000001,0.004917,0.002386,0.006179
3.969999999999999,0.008588,-0.000182,0.00527
3.9724999999999966,0.00853,-0.00181,0.00411
3.9749999999999934,0.00756,-0.002432,0.006074
3.977499999999992,0.006773,-0.003107,0.008249
3.9799999999999898,0.006715,-0.003086,0.00579
3.982499999999988,0.00402,2.9e-05,0.005578
3.984999999999985,0.002731,-0.001138,0.008915
3.987499999999983,0.002506,0.000944,0.009739
3.990000000000009,0.003337,-0.00222,0.007183
3.992500000000007,-0.000249,0.000385,0.009444
3.995000000000005,-0.001115,0.001072,0.009597
3.9975000000000014,-0.00519,-0.000177,0.011622
4.0,-0.006051,0.001062,0.013723
4.002499999999998,-0.006653,-0.00302,0.011233
4.004999999999996,-0.007562,-0.00035,0.011235
4.007499999999993,-0.004642,-0.001967,0.01253
4.009999999999991,-0.010575,0.002886,0.014596
4.012499999999989,-0.013544,-0.000818,0.013592
4.014999999999986,-0.013669,0.002142,0.014108
4.017499999999984,-0.015858,0.000941,0.017849
4.02000000000001,-0.017075,0.000233,0.018858
4.022500000000008,-0.019351,0.000989,0.016388
4.025000000000006,-0.017451,0.002012,0.018444
4.027500000000003,-0.020297,0.000942,0.018946
4.030000000000001,-0.022516,-0.001518,0.019737
4.032499999999999,-0.023665,0.000107,0.017167
4.034999999999997,-0.023422,0.001688,0.023001
4.037499999999994,-0.022915,-0.001664,0.02365
4.039999999999992,-0.022379,0.000934,0.02316
4.04249999999999,-0.024594,1.3e-05,0.020761
4.044999999999988,-0.023782,-0.00041,0.023102
4.047499999999985,-0.025572,-0.00017,0.023229
4.049999999999983,-0.023912,-0.000839,0.024193
4.052500000000009,-0.02438,-0.000192,0.024316
4.055000000000007,-0.026801,-0.000763,0.028303
4.0575000000000045,-0.027248,0.001768,0.025984
4.060000000000002,-0.028403,9.9e-05,0.026578
4.0625,-0.024618,-0.002187,0.025689
4.064999999999998,-0.02473,-0.003065,0.023546
4.067499999999996,-0.022276,-0.001259,0.022884
4.069999999999993,-0.02384,0.0005,0.020335
4.072499999999991,-0.021197,0.000355,0.021844
4.074999999999989,-0.026642,-0.002554,0.023267
4.077499999999986,-0.025779,0.002053,0.022908
4.079999999999984,-0.025794,0.002307,0.022111
4.08250000000001,-0.026026,-3.4e-05,0.022102
4.085000000000008,-0.021297,-0.001934,0.020116
4.087500000000006,-0.020437,-0.000717,0.02115
4.090000000000003,-0.020033,-0.002484,0.019332
4.092500000000001,-0.02161,0.003951,0.02246
4.094999999999999,-0.019857,-0.000301,0.019235
4.097499999999997,-0.021011,0.00072,0.019742
4.099999999999994,-0.020002,0.001936,0.018377
4.102499999999992,-0.013363,-0.004362,0.019876
4.10499999999999,-0.017227,-0.000152,0.016589
4.107499999999988,-0.015946,0.000731,0.017404
4.109999999999985,-0.0113,-0.003004,0.01938
4.112499999999983,-0.01682,0.00077,0.015068
4.115000000000009,-0.010131,0.000825,0.017083
4.117500000000007,-0.012465,0.000554,0.015264
4.1200000000000045,-0.009316,-0.001636,0.014066
4.122500000000002,-0.010721,0.00046,0.013959
4.125,-0.003698,0.002555,0.014415
4.127499999999998,-0.008991,-0.000532,0.015434
4.129999999999996,-0.005262,0.003638,0.01116
4.132499999999993,-0.007412,0.00334,0.012475
4.134999999999991,-0.002539,0.000183,0.012278
4.137499999999989,-0.006051,0.002081,0.011412
4.139999999999986,-0.006397,0.003874,0.011154
4.142499999999984,-0.003657,0.001707,0.009679
4.14500000000001,0.002285,-0.000298,0.007606
4.147500000000008,-0.003509,-0.000238,0.007168
4.150000000000006,-0.003934,0.002348,0.00963
4.152500000000003,0.001676,4.2e-05,0.010649
4.155000000000001,-0.000364,-0.00052,0.007568
4.157499999999999,0.003333,-0.001584,0.00788
4.159999999999997,0.000366,0.002318,0.006103
4.162499999999994,0.003674,-0.000161,0.007413
4.164999999999992,0.002245,0.001521,0.007645
4.16749999999999,-0.002907,-0.001177,0.004601
4.169999999999988,0.000706,0.002869,0.00817
4.172499999999985,0.004298,0.002175,0.009149
4.174999999999983,0.003073,0.003358,0.005864
4.177500000000009,0.004566,-0.000936,0.006066
4.180000000000007,0.002623,0.000591,0.006891
4.1825000000000045,0.001404,-0.000823,0.007335
4.185000000000002,0.004435,0.001331,0.008514
4.1875,0.003374,0.0007,0.007617
4.189999999999998,0.002149,0.001673,0.007988
4.192499999999996,0.006393,0.003444,0.006621
4.194999999999993,0.003508,-0.001878,0.007398
4.197499999999991,0.000475,0.000384,0.008876
4.199999999999989,-0.000118,0.001884,0.008186
4.202499999999986,0.003725,0.002136,0.006872
4.204999999999984,-0.000277,0.0005,0.007274
4.20750000000001,0.00261,0.001583,0.007885
4.210000000000008,-0.001197,0.000126,0.007526
4.212500000000006,0.002018,-0.000918,0.008313
4.215000000000003,0.001835,-0.000228,0.009201
4.217500000000001,-0.000548,0.002109,0.007173
4.219999999999999,-9.5e-05,-0.000139,0.010782
4.222499999999997,0.000406,0.001372,0.009098
4.224999999999994,-0.003405,0.001923,0.009771
4.227499999999992,0.002845,2e-05,0.01195
4.22999999999999,-0.000624,0.00286,0.010895
4.232499999999988,0.000895,0.003491,0.010077
4.234999999999985,-0.002097,0.002714,0.012235
4.237499999999983,-0.003767,0.002228,0.009625
4.240000000000009,-0.003698,-0.002939,0.009104
4.242500000000007,-0.001906,0.001297,0.013121
4.2450000000000045,0.002589,0.015064,0.011969
4.247500000000002,0.003739,0.008363,0.004502
4.25,0.006872,0.00798,0.003245
4.252499999999998,0.0024,-0.001332,0.005002
4.254999999999996,0.00835,-0.004229,0.006662
4.257499999999993,0.008544,-0.012721,0.010378
4.259999999999991,0.002979,-0.009798,0.00966
4.262499999999989,0.002062,-0.003798,0.006751
4.264999999999986,0.000349,-0.003979,0.007767
4.267499999999984,0.001577,0.001041,0.006733
4.27000000000001,-0.002125,0.007106,0.006887
4.272500000000008,0.001483,0.004382,0.010511
4.275000000000006,0.001793,0.005037,0.007545
4.277500000000003,-0.000824,0.000852,0.005259
4.280000000000001,-0.004114,0.002774,0.010055
4.282499999999999,-0.001293,-0.002605,0.011861
4.284999999999997,-0.002533,-0.000885,0.01355
4.287499999999994,-0.003806,-0.002193,0.011588
4.289999999999992,-0.003563,-0.000118,0.008494
4.29249999999999,-0.005312,0.004084,0.009488
4.294999999999988,-0.006115,0.003146,0.012862
4.297499999999985,-0.005189,0.00265,0.014137
4.299999999999983,-0.003898,0.001255,0.010181
4.302500000000009,-0.007185,0.000975,0.012452
4.305000000000007,-0.004643,0.002299,0.012807
4.3075000000000045,-0.004058,-0.000961,0.013838
4.310000000000002,-0.005321,0.001847,0.010587
4.3125,-0.005563,0.002164,0.014045
4.314999999999998,-0.007546,0.000756,0.008862
4.317499999999996,-0.006191,0.002895,0.00984
4.319999999999993,-0.006384,0.00212,0.009432
4.322499999999991,-0.005789,0.005149,0.012726
4.324999999999989,-0.004111,0.000326,0.011902
4.327499999999986,-0.005214,0.002535,0.013027
4.329999999999984,-0.007692,-0.000311,0.010351
4.33250000000001,-0.005874,0.000887,0.013071
4.335000000000008,-0.005695,0.003793,0.0103
4.337500000000006,-0.007099,0.000734,0.010758
4.340000000000003,-0.004569,-0.000215,0.01241
4.342500000000001,-0.007936,-0.000508,0.013477
4.344999999999999,-0.003248,0.003054,0.011674
4.347499999999997,-0.00287,-0.001469,0.009414
4.349999999999994,-0.002094,-0.003089,0.012947
4.352499999999992,-0.00312,0.002369,0.011144
4.35499999999999,-0.007302,0.001036,0.012594
4.357499999999988,-0.005302,-0.00215,0.012628
4.359999999999985,0.000549,-5.5e-05,0.01046
4.362499999999983,-0.002882,0.00027,0.011332
4.365000000000009,-0.000937,0.002638,0.010108
4.367500000000007,-0.001732,0.001661,0.010725
4.3700000000000045,-0.002052,-0.001261,0.009515
4.372500000000002,0.001334,0.002807,0.010347
4.375,-0.003232,0.001097,0.008798
4.377499999999998,0.000786,-0.00076,0.009028
4.379999999999996,0.001711,-0.000937,0.006583
4.382499999999993,-0.003043,-0.001375,0.0104
4.384999999999991,0.00141,-0.001197,0.009095
4.387499999999989,-0.001927,-0.000346,0.008094
4.389999999999986,-0.001419,0.004079,0.009768
4.392499999999984,0.00437,0.004151,0.011177
4.39500000000001,-0.001328,0.000717,0.008222
4.397500000000008,0.001623,0.004461,0.008412
4.400000000000006,0.001029,0.001437,0.010555
4.402500000000003,-0.001648,0.000121,0.009937
4.405000000000001,-0.000201,-0.003888,0.009292
4.407499999999999,0.00039,0.000256,0.006401
4.409999999999997,0.002027,-0.000891,0.009289
4.412499999999994,0.002065,0.003507,0.009034
4.414999999999992,-0.000182,0.002339,0.009125
4.41749999999999,0.001699,0.001361,0.010321
4.419999999999988,0.001874,0.001002,0.008871
4.422499999999985,0.001579,0.001802,0.008688
