time,Gyr_X,Gyr_Y,Gyr_Z
0.0,-0.0085224427374883,-0.0330233747769847,-0.0042603487041181
0.0035000000000025,-0.0106534897541733,-0.029827676916583,-0.002131047016685
0.007000000000005,-0.0063913957208032,-0.029827676916583,-0.0031956978604016
0.0105000000000003,-0.002131047016685,-0.0266319790561814,-0.0074577918937717
0.0140000000000028,0.0,-0.0223716303520633,-0.0053267448770866
0.0175000000000054,0.0106534897541733,-0.0223716303520633,-0.0106534897541733
0.0210000000000007,0.01598023463126,-0.0202405833353782,-0.0085224427374883
0.0245000000000032,0.0191759324916617,-0.0149138384582915,-0.0127827914416064
0.0280000000000057,0.0234362811957798,-0.0074577918937717,-0.0117181405978899
0.0315000000000011,0.0223716303520633,-0.0042603487041181,-0.013849187614575
0.0350000000000036,0.0191759324916617,-0.0127827914416064,-0.0106534897541733
0.0385000000000061,0.0149138384582915,-0.013849187614575,-0.0010646508437165
0.0420000000000015,0.0127827914416064,-0.0117181405978899,-0.0063913957208032
0.045500000000004,0.0031956978604016,-0.0063913957208032,-0.0106534897541733
0.0489999999999994,0.0010646508437165,-0.0053267448770866,-0.0085224427374883
0.0525000000000019,-0.0031956978604016,-0.0095870935812048,-0.0117181405978899
0.0560000000000044,-0.0063913957208032,-0.0053267448770866,-0.0085224427374883
0.0594999999999998,0.002131047016685,-0.002131047016685,-0.002131047016685
0.0630000000000023,0.0053267448770866,-0.0042603487041181,-0.0053267448770866
0.0665000000000048,0.0117181405978899,-0.0053267448770866,-0.0095870935812048
0.0700000000000002,0.0149138384582915,-0.0063913957208032,-0.0042603487041181
0.0735000000000027,0.0170448854749766,-0.0063913957208032,0.0
0.0770000000000052,0.0170448854749766,-0.0031956978604016,-0.0053267448770866
0.0805000000000006,0.01598023463126,0.0,-0.0031956978604016
0.0840000000000031,0.0181095363186931,-0.0042603487041181,-0.002131047016685
0.0875000000000056,0.0063913957208032,-0.0063913957208032,-0.0010646508437165
0.091000000000001,0.0053267448770866,-0.0053267448770866,-0.0031956978604016
0.0945000000000035,0.002131047016685,-0.0031956978604016,-0.0042603487041181
0.098000000000006,0.0042603487041181,-0.0063913957208032,-0.0053267448770866
0.1015000000000014,0.002131047016685,-0.0042603487041181,-0.0053267448770866
0.1050000000000039,0.0063913957208032,-0.0053267448770866,0.0
0.1084999999999993,0.0095870935812048,-0.0031956978604016,-0.0063913957208032
0.1120000000000018,0.0085224427374883,-0.0053267448770866,-0.0053267448770866
0.1155000000000043,0.013849187614575,-0.0042603487041181,-0.0117181405978899
0.1189999999999997,0.01598023463126,-0.0085224427374883,-0.0095870935812048
0.1225000000000022,0.013849187614575,-0.0085224427374883,-0.0053267448770866
0.1260000000000047,0.0149138384582915,-0.0085224427374883,-0.0053267448770866
0.1295000000000001,0.0149138384582915,-0.0095870935812048,-0.0042603487041181
0.1330000000000026,0.013849187614575,-0.0255673282124649,-0.002131047016685
0.1365000000000051,0.0191759324916617,-0.0511346564249298,0.0
0.1400000000000005,0.0234362811957798,-0.0628527970228197,0.0063913957208032
0.143500000000003,0.029827676916583,-0.0671131457269379,0.0010646508437165
0.1470000000000055,0.0330233747769847,-0.0564614013020165,0.0
0.1505000000000009,0.0319587239332681,-0.0319587239332681,-0.0010646508437165
0.1540000000000034,0.0319587239332681,-0.0149138384582915,-0.0031956978604016
0.1575000000000059,0.0191759324916617,0.0053267448770866,0.0
0.1610000000000013,0.0149138384582915,0.0106534897541733,-0.0010646508437165
0.1645000000000038,0.0074577918937717,0.01598023463126,0.0010646508437165
0.1679999999999992,0.0053267448770866,0.0106534897541733,-0.002131047016685
0.1715000000000017,0.0010646508437165,-0.0031956978604016,-0.0031956978604016
0.1750000000000042,0.0042603487041181,-0.0031956978604016,-0.0042603487041181
0.1784999999999996,0.002131047016685,-0.0042603487041181,-0.0031956978604016
0.1820000000000021,0.0,0.0,-0.0031956978604016
0.1855000000000046,0.002131047016685,0.0010646508437165,0.0
0.189,0.0063913957208032,0.0053267448770866,-0.0010646508437165
0.1925000000000025,0.0202405833353782,-0.002131047016685,-0.0063913957208032
0.196000000000005,0.0202405833353782,-0.0042603487041181,-0.0031956978604016
0.1995000000000004,0.0234362811957798,-0.0149138384582915,-0.0010646508437165
0.2030000000000029,0.0191759324916617,-0.01598023463126,0.0010646508437165
0.2065000000000054,0.0191759324916617,-0.0170448854749766,0.0
0.2100000000000008,0.0266319790561814,-0.0181095363186931,0.0
0.2135000000000033,0.0223716303520633,-0.0213052341790947,0.0
0.2170000000000058,0.0191759324916617,-0.0181095363186931,0.0
0.2205000000000012,0.0202405833353782,-0.0074577918937717,0.0
0.2240000000000037,0.0127827914416064,-0.0031956978604016,0.002131047016685
0.2275000000000062,0.013849187614575,0.0095870935812048,-0.0010646508437165
0.2310000000000016,0.013849187614575,0.0191759324916617,0.0031956978604016
0.2345000000000041,0.0191759324916617,0.0383501196540714,0.0010646508437165
0.2379999999999995,0.0234362811957798,0.0458079115478431,0.0042603487041181
0.241500000000002,0.0308940730895516,0.041545817514473,0.0085224427374883
0.2450000000000045,0.0351544217936697,0.0340897709499532,0.013849187614575
0.2484999999999999,0.0351544217936697,0.0223716303520633,0.0181095363186931
0.2520000000000024,0.0319587239332681,0.0170448854749766,0.0127827914416064
0.2555000000000049,0.0319587239332681,0.0170448854749766,0.0074577918937717
0.2590000000000003,0.0308940730895516,0.0170448854749766,0.0010646508437165
0.2625000000000028,0.029827676916583,0.0127827914416064,-0.0053267448770866
0.2660000000000053,0.0202405833353782,0.0149138384582915,-0.0053267448770866
0.2695000000000007,0.0191759324916617,0.0149138384582915,-0.0074577918937717
0.2730000000000032,0.01598023463126,0.0074577918937717,-0.0042603487041181
0.2765000000000057,0.0191759324916617,0.002131047016685,-0.002131047016685
0.2800000000000011,0.0213052341790947,0.0031956978604016,-0.0031956978604016
0.2835000000000036,0.0181095363186931,0.0,-0.0031956978604016
0.2870000000000061,0.0170448854749766,0.0010646508437165,-0.0053267448770866
0.2905000000000015,0.0170448854749766,0.0,0.0
0.294000000000004,0.0202405833353782,-0.0010646508437165,-0.002131047016685
0.2974999999999994,0.0202405833353782,-0.0053267448770866,-0.002131047016685
0.3010000000000019,0.0149138384582915,-0.0053267448770866,-0.0042603487041181
0.3045000000000044,0.0117181405978899,-0.0085224427374883,-0.0106534897541733
0.3079999999999998,0.0181095363186931,-0.0074577918937717,-0.0095870935812048
0.3115000000000023,0.013849187614575,-0.0010646508437165,-0.0074577918937717
0.3150000000000048,0.0106534897541733,0.0095870935812048,-0.0063913957208032
0.3185000000000002,0.0106534897541733,0.0170448854749766,-0.0042603487041181
0.3220000000000027,0.0117181405978899,0.02769837522915,0.0
0.3255000000000052,0.01598023463126,0.0383501196540714,0.002131047016685
0.3290000000000006,0.0308940730895516,0.0479389585645282,0.0127827914416064
0.3325000000000031,0.041545817514473,0.0521993072686464,0.013849187614575
0.3360000000000056,0.0511346564249298,0.0543303542853314,0.0117181405978899
0.339500000000001,0.0575260521457331,0.0607217500061347,0.0085224427374883
0.3430000000000035,0.0575260521457331,0.0713752397603081,0.0042603487041181
0.346500000000006,0.0532657034416149,0.0820287295144815,-0.0031956978604016
0.3500000000000014,0.0468725623915597,0.0894847760790012,-0.0063913957208032
0.3535000000000039,0.0468725623915597,0.0905494269227178,-0.0063913957208032
0.3569999999999993,0.0362208179666383,0.0980072188164895,-0.0063913957208032
0.3605000000000018,0.0287630260728665,0.0937468701123714,-0.013849187614575
0.3640000000000043,0.0245026773687483,0.0916158230956863,-0.01598023463126
0.3674999999999997,0.0191759324916617,0.0894847760790012,-0.0191759324916617
0.3710000000000022,0.0181095363186931,0.083093380358198,-0.0191759324916617
0.3745000000000047,0.0202405833353782,0.0798976824977964,-0.0234362811957798
0.3780000000000001,0.0266319790561814,0.0724398906040246,-0.02769837522915
0.3815000000000026,0.0319587239332681,0.0649838440395048,-0.0266319790561814
0.3850000000000051,0.0330233747769847,0.0543303542853314,-0.0340897709499532
0.3885000000000005,0.0351544217936697,0.041545817514473,-0.0330233747769847
0.392000000000003,0.0404811666707564,0.029827676916583,-0.0362208179666383
0.3955000000000055,0.0330233747769847,0.0202405833353782,-0.0394165158270399
0.3990000000000009,0.0202405833353782,0.0202405833353782,-0.0426122136874415
0.4025000000000034,0.013849187614575,0.0170448854749766,-0.0436768645311581
0.4060000000000059,0.0,0.0106534897541733,-0.0426122136874415
0.4095000000000013,-0.0085224427374883,0.0106534897541733,-0.0436768645311581
0.4130000000000038,-0.0127827914416064,0.0042603487041181,-0.0383501196540714
0.4164999999999992,-0.0202405833353782,-0.0010646508437165,-0.0372854688103548
0.4200000000000017,-0.0213052341790947,-0.0085224427374883,-0.0287630260728665
0.4235000000000042,-0.0170448854749766,-0.0085224427374883,-0.0234362811957798
0.4269999999999996,-0.002131047016685,-0.0181095363186931,-0.0202405833353782
0.4305000000000021,0.0053267448770866,-0.0202405833353782,-0.013849187614575
0.4340000000000046,0.0181095363186931,-0.0170448854749766,-0.0053267448770866
0.4375,0.0234362811957798,-0.0213052341790947,-0.0042603487041181
0.4410000000000025,0.029827676916583,-0.0170448854749766,0.0063913957208032
0.444500000000005,0.0340897709499532,-0.013849187614575,0.0074577918937717
0.4480000000000004,0.0330233747769847,-0.0117181405978899,0.013849187614575
0.4515000000000029,0.0308940730895516,-0.0106534897541733,0.0149138384582915
0.4550000000000054,0.0266319790561814,-0.0085224427374883,0.013849187614575
0.4585000000000008,0.0181095363186931,-0.0063913957208032,0.01598023463126
0.4620000000000033,0.0085224427374883,0.0031956978604016,0.0170448854749766
0.4655000000000058,0.0085224427374883,0.0042603487041181,0.0223716303520633
0.4690000000000012,0.0063913957208032,0.0127827914416064,0.0234362811957798
0.4725000000000037,0.0063913957208032,0.013849187614575,0.0266319790561814
0.4760000000000062,0.0095870935812048,0.0170448854749766,0.0340897709499532
0.4795000000000016,0.013849187614575,0.0170448854749766,0.0436768645311581
0.4830000000000041,0.0308940730895516,0.0170448854749766,0.0543303542853314
0.4864999999999995,0.0383501196540714,0.0170448854749766,0.0639174478665363
0.490000000000002,0.0479389585645282,0.0191759324916617,0.0681795418999064
0.4935000000000045,0.0500682602519613,0.0181095363186931,0.0703088435873395
0.4969999999999999,0.0521993072686464,0.0351544217936697,0.0575260521457331
0.5005000000000024,0.0447432607041266,0.0330233747769847,0.0436768645311581
0.5040000000000049,0.0234362811957798,0.0511346564249298,0.0191759324916617
0.5075000000000003,0.0,0.0543303542853314,0.0117181405978899
0.5110000000000028,-0.0085224427374883,0.0543303542853314,-0.0042603487041181
0.5145000000000053,-0.0127827914416064,0.0532657034416149,-0.0106534897541733
0.5180000000000007,-0.0170448854749766,0.0447432607041266,-0.0127827914416064
0.5215000000000032,-0.0149138384582915,0.0447432607041266,-0.0117181405978899
0.5250000000000057,-0.013849187614575,0.0426122136874415,-0.0170448854749766
0.5285000000000011,-0.0042603487041181,0.0468725623915597,-0.0223716303520633
0.5320000000000036,0.0127827914416064,0.0490036094082447,-0.0245026773687483
0.5355000000000061,0.02769837522915,0.0564614013020165,-0.0245026773687483
0.5390000000000015,0.0447432607041266,0.0564614013020165,-0.0245026773687483
0.542500000000004,0.0543303542853314,0.0575260521457331,-0.0245026773687483
0.5459999999999994,0.0607217500061347,0.0607217500061347,-0.0213052341790947
0.5495000000000019,0.0564614013020165,0.0596570991624181,-0.0191759324916617
0.5530000000000044,0.0564614013020165,0.0671131457269379,-0.0095870935812048
0.5564999999999998,0.0500682602519613,0.0639174478665363,-0.0117181405978899
0.5600000000000023,0.0447432607041266,0.069244192743623,-0.01598023463126
0.5635000000000048,0.0447432607041266,0.0607217500061347,-0.0063913957208032
0.5670000000000002,0.055395005129048,0.0479389585645282,-0.002131047016685
0.5705000000000027,0.0681795418999064,0.0447432607041266,0.0053267448770866
0.5740000000000052,0.0724398906040246,0.029827676916583,0.0042603487041181
0.5775000000000006,0.0798976824977964,0.0255673282124649,0.0117181405978899
0.5810000000000031,0.0862890782185996,0.0213052341790947,0.0181095363186931
0.5845000000000056,0.0958761717998045,0.01598023463126,0.0223716303520633
0.588000000000001,0.0990718696602061,0.02769837522915,0.0213052341790947
0.5915000000000035,0.0916158230956863,0.0404811666707564,0.0266319790561814
0.595000000000006,0.0841580312019145,0.0490036094082447,0.0287630260728665
0.5985000000000014,0.0713752397603081,0.0564614013020165,0.0351544217936697
0.6020000000000039,0.0703088435873395,0.0628527970228197,0.02769837522915
0.6054999999999993,0.0628527970228197,0.0681795418999064,0.0266319790561814
0.6090000000000018,0.0458079115478431,0.0724398906040246,0.0255673282124649
0.6125000000000043,0.0319587239332681,0.0798976824977964,0.0191759324916617
0.6159999999999997,0.0170448854749766,0.0841580312019145,0.0095870935812048
0.6195000000000022,0.01598023463126,0.0905494269227178,0.0063913957208032
0.6230000000000047,0.013849187614575,0.0948115209560879,0.0031956978604016
0.6265000000000001,0.0074577918937717,0.0980072188164895,-0.002131047016685
0.6300000000000026,-0.0010646508437165,0.1001382658331746,-0.0074577918937717
0.6335000000000051,-0.0095870935812048,0.1075943123976944,-0.01598023463126
0.6370000000000005,-0.0042603487041181,0.1118564064310645,-0.0202405833353782
0.640500000000003,0.0042603487041181,0.1161167551351827,-0.0234362811957798
0.6440000000000055,0.0117181405978899,0.1257055940456395,-0.0223716303520633
0.6475000000000009,0.0074577918937717,0.1395530363309626,-0.02769837522915
0.6510000000000034,0.002131047016685,0.152337573101821,-0.0266319790561814
0.6545000000000059,0.0074577918937717,0.1565979218059392,-0.029827676916583
0.6580000000000013,0.0106534897541733,0.1640557136997109,-0.029827676916583
0.6615000000000038,0.0117181405978899,0.166186760716396,-0.0266319790561814
0.6650000000000063,0.0095870935812048,0.166186760716396,-0.0308940730895516
0.6685000000000016,0.0117181405978899,0.1736428072809158,-0.0255673282124649
0.6720000000000041,0.01598023463126,0.1725781564371993,-0.0191759324916617
0.6754999999999995,0.02769837522915,0.1768385051413174,-0.0202405833353782
0.679000000000002,0.0319587239332681,0.1821652500184041,-0.0170448854749766
0.6825000000000045,0.0202405833353782,0.1811005991746876,-0.0106534897541733
0.6859999999999999,0.0117181405978899,0.1885583910684593,-0.0095870935812048
0.6895000000000024,0.0117181405978899,0.1811005991746876,-0.0085224427374883
0.693000000000005,0.0234362811957798,0.1768385051413174,-0.0031956978604016
0.6965000000000003,0.0330233747769847,0.1693824585767977,-0.0042603487041181
0.7000000000000028,0.0340897709499532,0.1629910628559944,-0.0063913957208032
0.7035000000000053,0.0351544217936697,0.1491418752414194,0.0
0.7070000000000007,0.0468725623915597,0.138488385487246,0.0053267448770866
0.7105000000000032,0.0543303542853314,0.1320969897664428,0.002131047016685
0.7140000000000057,0.0436768645311581,0.1235745470289545,0.002131047016685
0.7175000000000011,0.0234362811957798,0.1193124529955843,0.0042603487041181
0.7210000000000036,0.0149138384582915,0.1182478021518678,0.002131047016685
0.7245000000000061,0.0245026773687483,0.1225098961852379,0.0053267448770866
0.7280000000000015,0.0330233747769847,0.1214435000122694,0.0010646508437165
0.731500000000004,0.0404811666707564,0.1203788491685528,0.0010646508437165
0.7349999999999994,0.0372854688103548,0.1225098961852379,-0.0010646508437165
0.7385000000000019,0.0255673282124649,0.1161167551351827,-0.0042603487041181
0.7420000000000044,0.0191759324916617,0.1065296615539778,-0.0095870935812048
0.7454999999999998,0.029827676916583,0.0980072188164895,-0.0191759324916617
0.7490000000000023,0.0202405833353782,0.0980072188164895,-0.0181095363186931
0.7525000000000048,0.0106534897541733,0.1043986145372928,-0.0255673282124649
0.7560000000000002,-0.0042603487041181,0.1075943123976944,-0.029827676916583
0.7595000000000027,-0.01598023463126,0.1182478021518678,-0.0319587239332681
0.7630000000000052,-0.0202405833353782,0.1225098961852379,-0.0362208179666383
0.7665000000000006,-0.0063913957208032,0.1161167551351827,-0.0383501196540714
0.7700000000000031,0.0106534897541733,0.1086607085706629,-0.0362208179666383
0.7735000000000056,0.0223716303520633,0.096942567972773,-0.0287630260728665
0.777000000000001,0.0330233747769847,0.0905494269227178,-0.0308940730895516
0.7805000000000035,0.041545817514473,0.083093380358198,-0.02769837522915
0.784000000000006,0.0585907029894496,0.0809623333415129,-0.0308940730895516
0.7875000000000014,0.0767019846373948,0.0798976824977964,-0.0372854688103548
0.7910000000000039,0.1086607085706629,0.0798976824977964,-0.02769837522915
0.7944999999999993,0.1427504795206162,0.0809623333415129,-0.013849187614575
0.7980000000000018,0.1608600158393093,0.0724398906040246,-0.0042603487041181
0.8015000000000043,0.1821652500184041,0.0617864008498512,-0.0010646508437165
0.8049999999999997,0.1864273440517743,0.0521993072686464,-0.0031956978604016
0.8085000000000022,0.1853609478788057,0.02769837522915,-0.002131047016685
0.8120000000000047,0.1768385051413174,0.0127827914416064,-0.0042603487041181
0.8155000000000001,0.1768385051413174,-0.0085224427374883,-0.0149138384582915
0.8190000000000026,0.180035948330971,-0.0181095363186931,-0.0095870935812048
0.8225000000000051,0.1885583910684593,-0.0181095363186931,0.0010646508437165
0.8260000000000005,0.2024058333537824,-0.0181095363186931,0.0063913957208032
0.829500000000003,0.2215817658454441,-0.0127827914416064,0.0213052341790947
0.8330000000000055,0.2375620004767041,-0.0106534897541733,0.0234362811957798
0.8365000000000009,0.2428870000245388,-0.0117181405978899,0.01598023463126
0.8400000000000034,0.2450180470412239,-0.0117181405978899,0.0127827914416064
0.8435000000000059,0.2343645572870505,-0.0170448854749766,0.0053267448770866
0.8470000000000013,0.2258421145495622,-0.0191759324916617,0.0042603487041181
0.8505000000000038,0.2109282760912707,-0.0213052341790947,0.002131047016685
0.8539999999999992,0.1960144376329791,-0.02769837522915,-0.0010646508437165
0.8575000000000017,0.152337573101821,-0.0458079115478431,-0.0053267448770866
0.8610000000000042,0.110790010258096,-0.0639174478665363,-0.013849187614575
0.8644999999999996,0.0660484948832214,-0.0948115209560879,-0.0170448854749766
0.8680000000000021,0.0500682602519613,-0.1086607085706629,-0.0223716303520633
0.8715000000000046,0.0639174478665363,-0.1182478021518678,-0.0149138384582915
0.875,0.0958761717998045,-0.1182478021518678,-0.0106534897541733
0.8785000000000025,0.1651203645434275,-0.0990718696602061,0.0031956978604016
0.882000000000005,0.2024058333537824,-0.0809623333415129,0.0074577918937717
0.8855000000000004,0.2322352555996175,-0.0777666354811113,0.0053267448770866
0.8890000000000029,0.2258421145495622,-0.0798976824977964,0.0063913957208032
0.8925000000000054,0.1864273440517743,-0.0958761717998045,-0.0031956978604016
0.8960000000000008,0.1278348957330726,-0.1118564064310645,-0.0074577918937717
0.8995000000000033,0.0351544217936697,-0.1480754790684509,-0.0234362811957798
0.9030000000000058,-0.029827676916583,-0.1725781564371993,-0.0213052341790947
0.9065000000000012,-0.1129210572747811,-0.2151903701246408,-0.0394165158270399
0.9100000000000036,-0.1619246666830259,-0.2364956043037356,-0.0458079115478431
0.9135000000000062,-0.2514094427620272,-0.2918906094327836,-0.0905494269227178
0.9170000000000016,-0.300413052170272,-0.3217200316786187,-0.124639197872671
0.920500000000004,-0.3302424744161071,-0.3568744534722885,-0.1704471094205142
0.9239999999999996,-0.3313071252598236,-0.3781796876513833,-0.2045368803704674
0.927500000000002,-0.3110665419244454,-0.3962909692993285,-0.2428870000245388
0.9310000000000044,-0.2908259585890671,-0.4101401569139035,-0.2780431671474606
0.9345,-0.2503447919183106,-0.4197272504951083,-0.3121311927681619
0.9380000000000024,-0.2279731615662473,-0.4282496932325966,-0.3387649171535954
0.9415000000000048,-0.1949497867892626,-0.4463592295512898,-0.3643322453660603
0.9450000000000004,-0.1906876927558924,-0.4602084171658648,-0.3813771308410369
0.9485000000000028,-0.1832316461913727,-0.480449000501243,-0.3941599222826434
0.9520000000000052,-0.191754088928861,-0.4996249329929048,-0.4048134120368167
0.9555000000000008,-0.2130593231079557,-0.5273215628928027,-0.41120480775762
0.9590000000000032,-0.2343645572870505,-0.5443664483677794,-0.4175962034784233
0.9625000000000056,-0.2641939795328856,-0.5709984274239609,-0.42292294835551
0.9660000000000012,-0.2801724688348938,-0.5859140112115044,-0.4207919013388249
0.9695000000000036,-0.2982837504828389,-0.6018925005135125,-0.4122694586013365
0.973000000000006,-0.300413052170272,-0.6114795940947174,-0.397355620143045
0.9765000000000016,-0.2993484013265554,-0.6231994800218592,-0.3824417816847534
0.980000000000004,-0.274847469287059,-0.626395177882261,-0.3568744534722885
0.9834999999999994,-0.2503447919183106,-0.6253287817092923,-0.3291760782431385
0.987000000000002,-0.219450718828759,-0.6189373859884891,-0.3014794483432405
0.9905000000000044,-0.1874919948954908,-0.6040235475301975,-0.2705853752536888
0.9939999999999998,-0.138488385487246,-0.5709984274239609,-0.2354309534600191
0.9975000000000024,-0.1065296615539778,-0.5454328445407479,-0.2173214171413259
1.0010000000000048,-0.0575260521457331,-0.4974938859762197,-0.1864273440517743
1.0045000000000002,-0.0266319790561814,-0.4580773701491797,-0.1747092034538843
1.008000000000003,0.0149138384582915,-0.4037470158638482,-0.1512729222581045
1.0115000000000052,0.0436768645311581,-0.3536787556118869,-0.138488385487246
1.0150000000000006,0.0777666354811113,-0.2961527034661538,-0.1150521042914662
1.018500000000003,0.1022693128498597,-0.2482137449016255,-0.1033339636935762
1.0220000000000056,0.1203788491685528,-0.180035948330971,-0.0894847760790012
1.025500000000001,0.1395530363309626,-0.1257055940456395,-0.083093380358198
1.0290000000000037,0.150206526085136,-0.055395005129048,-0.0777666354811113
1.032500000000006,0.166186760716396,0.0,-0.0767019846373948
1.0360000000000014,0.1853609478788057,0.0767019846373948,-0.0713752397603081
1.039500000000004,0.1853609478788057,0.0767019846373948,-0.0713752397603081
1.0429999999999993,0.1853609478788057,0.0767019846373948,-0.0713752397603081
1.0465000000000018,0.1853609478788057,0.0767019846373948,-0.0713752397603081
1.0500000000000045,0.2812388650078622,0.3824417816847534,-0.055395005129048
1.0534999999999997,0.3014794483432405,0.4431635316908882,-0.0511346564249298
1.0570000000000022,0.3270467765557054,0.5262569120490862,-0.0490036094082447
1.0605000000000049,0.341960615013997,0.5805872663344177,-0.0468725623915597
1.064,0.3547434064556034,0.6455693650446706,-0.0479389585645282
1.0675000000000026,0.3600701513326901,0.6913772765925138,-0.0372854688103548
1.071000000000005,0.3664615470534934,0.7414472821737271,-0.0223716303520633
1.0745000000000005,0.3632658491930918,0.7584921676487036,-0.0074577918937717
1.078000000000003,0.3579391043160051,0.7787327509840819,0.0106534897541733
1.0815000000000057,0.3504830577514853,0.7840577505319166,0.0181095363186931
1.0850000000000009,0.3323735214327921,0.7925801932694049,0.0308940730895516
1.0885000000000034,0.3110665419244454,0.7787327509840819,0.0340897709499532
1.092000000000006,0.286565609884949,0.7680792612299085,0.0362208179666383
1.0955000000000013,0.2673896773932873,0.7467722817215618,0.041545817514473
1.0990000000000038,0.2418223491808223,0.7169446048049787,0.041545817514473
1.1024999999999991,0.2258421145495622,0.6881815787321122,0.0458079115478431
1.1060000000000016,0.2002765316663493,0.642373667184269,0.0479389585645282
1.109500000000004,0.1928187397725775,0.6125459902676859,0.0543303542853314
1.1129999999999995,0.1811005991746876,0.5656734278761262,0.0596570991624181
1.116500000000002,0.1768385051413174,0.5305172607532044,0.0703088435873395
1.1200000000000043,0.166186760716396,0.4857757453783297,0.0756355884644262
1.1235,0.1672514115601126,0.4506213235846599,0.0820287295144815
1.1270000000000024,0.1565979218059392,0.4026823650201317,0.0948115209560879
1.130500000000005,0.1544686201185061,0.3675279432264619,0.0958761717998045
1.1340000000000003,0.1512729222581045,0.3185243338182171,0.0980072188164895
1.1375000000000028,0.1491418752414194,0.2854992137119804,0.0948115209560879
1.1410000000000051,0.1438151303643327,0.2343645572870505,0.0948115209560879
1.1445000000000007,0.1427504795206162,0.2045368803704674,0.0862890782185996
1.1480000000000032,0.1470108282247343,0.1555332709622227,0.0841580312019145
1.1515000000000055,0.1438151303643327,0.1257055940456395,0.0777666354811113
1.1550000000000011,0.1512729222581045,0.083093380358198,0.0703088435873395
1.1585000000000036,0.1448797812080492,0.0394165158270399,0.0564614013020165
1.162000000000006,0.1395530363309626,-0.0042603487041181,0.0404811666707564
1.1655000000000015,0.1235745470289545,-0.0383501196540714,0.0245026773687483
1.169000000000004,0.1118564064310645,-0.0862890782185996,0.0010646508437165
1.1724999999999994,0.0948115209560879,-0.1193124529955843,-0.0149138384582915
1.176000000000002,0.0671131457269379,-0.1651203645434275,-0.0266319790561814
1.1795000000000044,0.0490036094082447,-0.1960144376329791,-0.0372854688103548
1.1829999999999998,0.0266319790561814,-0.2396913021641372,-0.0458079115478431
1.1865000000000023,0.0085224427374883,-0.2705853752536888,-0.0585907029894496
1.1900000000000048,-0.0181095363186931,-0.3153286359578155,-0.0681795418999064
1.1935000000000002,-0.0330233747769847,-0.3440916620306821,-0.0809623333415129
1.1970000000000027,-0.0543303542853314,-0.3803107346680683,-0.0937468701123714
1.2005000000000052,-0.0649838440395048,-0.4037470158638482,-0.1054650107102613
1.2040000000000006,-0.083093380358198,-0.4303807402492817,-0.1139874534477496
1.2075000000000031,-0.0894847760790012,-0.4420988808471717,-0.1182478021518678
1.2110000000000056,-0.1043986145372928,-0.4516859744283765,-0.1214435000122694
1.214500000000001,-0.1043986145372928,-0.4516859744283765,-0.1214435000122694
1.2180000000000035,-0.1043986145372928,-0.4516859744283765,-0.1214435000122694
1.221500000000006,-0.1043986145372928,-0.4516859744283765,-0.1214435000122694
1.2250000000000014,-0.1672514115601126,-0.4506213235846599,-0.1235745470289545
1.228500000000004,-0.177904901314286,-0.4484902765679749,-0.1257055940456395
1.231999999999999,-0.1949497867892626,-0.4431635316908882,-0.124639197872671
1.2355000000000018,-0.205601531214184,-0.4325100419367148,-0.124639197872671
1.2390000000000043,-0.2087989744038376,-0.4207919013388249,-0.1161167551351827
1.2424999999999995,-0.2087989744038376,-0.4090737607409349,-0.1118564064310645
1.2460000000000022,-0.1992101354933808,-0.3888331774055567,-0.1075943123976944
1.2495000000000047,-0.1821652500184041,-0.3771150368076668,-0.1022693128498597
1.253,-0.1480754790684509,-0.3472873598910836,-0.0916158230956863
1.2565000000000026,-0.1171831513081512,-0.3238510786953038,-0.0873537290623162
1.2600000000000051,-0.0703088435873395,-0.2844345628682639,-0.0820287295144815
1.2635000000000003,-0.0319587239332681,-0.2482137449016255,-0.0735062867769931
1.267000000000003,0.0074577918937717,-0.1992101354933808,-0.0617864008498512
1.2705000000000055,0.0468725623915597,-0.1629910628559944,-0.0532657034416149
1.274000000000001,0.0916158230956863,-0.1171831513081512,-0.0394165158270399
1.2775000000000034,0.1161167551351827,-0.0809623333415129,-0.0319587239332681
1.281000000000006,0.1480754790684509,-0.0372854688103548,-0.0287630260728665
1.2845000000000013,0.1704471094205142,0.0,-0.0255673282124649
1.2880000000000038,0.1938833906162941,0.0500682602519613,-0.0213052341790947
1.2914999999999992,0.2077325782308691,0.0958761717998045,-0.0149138384582915
1.2950000000000017,0.2279731615662473,0.152337573101821,0.0
1.2985000000000042,0.2439533961975074,0.2024058333537824,0.013849187614575
1.3019999999999996,0.2578025838120824,0.2599318854995155,0.0383501196540714
1.305500000000002,0.2769767709744921,0.3068061932203272,0.0521993072686464
1.3090000000000046,0.2972173543098703,0.3717882919305801,0.0788312863248278
1.3125,0.3100018910807288,0.41120480775762,0.0894847760790012
1.3160000000000025,0.3270467765557054,0.4559463231324946,0.1054650107102613
1.319500000000005,0.3398295679973119,0.4911024902554164,0.1182478021518678
1.3230000000000004,0.3515477085952018,0.5283879590657713,0.1278348957330726
1.326500000000003,0.3611348021764067,0.5496931932448661,0.1352926876268444
1.3300000000000054,0.3675279432264619,0.5805872663344177,0.1438151303643327
1.3335000000000008,0.3749839897909817,0.600827849669796,0.1480754790684509
1.3370000000000033,0.3739193389472651,0.6189373859884891,0.1534022239455376
1.3405000000000058,0.3675279432264619,0.6391779693238674,0.1565979218059392
1.3440000000000012,0.3643322453660603,0.6540918077821589,0.1597953649955928
1.3475000000000037,0.3536787556118869,0.670072042413419,0.1619246666830259
1.3510000000000062,0.341960615013997,0.6913772765925138,0.1544686201185061
1.3545000000000016,0.3334381722765087,0.7041618133633722,0.1597953649955928
1.358000000000004,0.3217200316786187,0.7244023966987505,0.1608600158393093
1.3614999999999997,0.3057397970473587,0.7265316983861836,0.1725781564371993
1.365000000000002,0.288694911572382,0.7244023966987505,0.1874919948954908
1.3685000000000045,0.2578025838120824,0.7126842561008605,0.1992101354933808
1.372,0.2269085107225308,0.6998997193300021,0.205601531214184
1.3755000000000024,0.1832316461913727,0.6764634381342222,0.2141239739516723
1.3790000000000049,0.1459461773810178,0.6477004120613556,0.2205171150017275
1.3825000000000005,0.0948115209560879,0.6125459902676859,0.2322352555996175
1.3860000000000028,0.0628527970228197,0.5795208701614492,0.2354309534600191
1.3895000000000053,0.0245026773687483,0.5305172607532044,0.2375620004767041
1.393000000000001,0.0042603487041181,0.4974938859762197,0.2503447919183106
1.3965000000000032,-0.0127827914416064,0.4538170214450616,0.2524758389349957
1.4000000000000057,-0.0106534897541733,0.4154651564617382,0.260998281672484
1.403500000000001,-0.0127827914416064,0.3803107346680683,0.2684543282370038
1.4070000000000036,-0.0042603487041181,0.3494166615785167,0.2780431671474606
1.410500000000006,0.0042603487041181,0.3089354949077603,0.2801724688348938
1.4140000000000017,0.0127827914416064,0.2801724688348938,0.2833681666952953
1.417500000000004,0.0255673282124649,0.2386266513204207,0.2854992137119804
1.4209999999999994,0.0308940730895516,0.2130593231079557,0.286565609884949
1.424500000000002,0.0319587239332681,0.1747092034538843,0.2823035158515788
1.4280000000000044,0.0319587239332681,0.150206526085136,0.2759121201307756
1.4314999999999998,0.0287630260728665,0.1129210572747811,0.2737810731140905
1.4350000000000025,0.0223716303520633,0.0894847760790012,0.2737810731140905
1.4385000000000048,0.0181095363186931,0.0532657034416149,0.2705853752536888
1.4420000000000002,0.0127827914416064,0.029827676916583,0.260998281672484
1.445500000000003,0.0,-0.0063913957208032,0.2503447919183106
1.4490000000000052,-0.0106534897541733,-0.0287630260728665,0.2418223491808223
1.4525000000000006,-0.0308940730895516,-0.0703088435873395,0.2205171150017275
1.456000000000003,-0.0490036094082447,-0.1043986145372928,0.2077325782308691
1.4595000000000056,-0.0703088435873395,-0.1459461773810178,0.1864273440517743
1.463000000000001,-0.0884201252352847,-0.1768385051413174,0.1747092034538843
1.4665000000000037,-0.1150521042914662,-0.2173214171413259,0.1629910628559944
1.470000000000006,-0.1225098961852379,-0.2439533961975074,0.1576643179789077
1.4735000000000014,-0.1406194325039311,-0.2791078179911772,0.1555332709622227
1.477000000000004,-0.1438151303643327,-0.2982837504828389,0.1555332709622227
1.4804999999999993,-0.1427504795206162,-0.3302424744161071,0.1555332709622227
1.4840000000000018,-0.136357338470561,-0.3494166615785167,0.1565979218059392
1.4875000000000045,-0.1182478021518678,-0.3771150368076668,0.1544686201185061
1.4909999999999997,-0.1012029166768912,-0.3930952714389268,0.1512729222581045
1.4945000000000022,-0.0777666354811113,-0.4165315526347067,0.1416840833476476
1.4980000000000049,-0.055395005129048,-0.4303807402492817,0.1374237346435295
1.5015,-0.0308940730895516,-0.4463592295512898,0.1299659427497577
1.5050000000000026,-0.0181095363186931,-0.4538170214450616,0.124639197872671
1.508500000000005,-0.0095870935812048,-0.4634041150262664,0.1214435000122694
1.5120000000000005,-0.0074577918937717,-0.4665998128866681,0.1214435000122694
1.515500000000003,-0.01598023463126,-0.4697955107470696,0.1033339636935762
1.5190000000000057,-0.0255673282124649,-0.4676662090596366,0.1054650107102613
1.5225000000000009,-0.0521993072686464,-0.4676662090596366,0.0937468701123714
1.5260000000000034,-0.0756355884644262,-0.4591437663221482,0.0873537290623162
1.529500000000006,-0.1065296615539778,-0.452750625272093,0.0745709376207097
1.5330000000000013,-0.1257055940456395,-0.4410324846742031,0.0681795418999064
1.5365000000000038,-0.1512729222581045,-0.4239875991992265,0.0532657034416149
1.5399999999999991,-0.1640557136997109,-0.4090737607409349,0.0490036094082447
1.5435000000000016,-0.1757738542976009,-0.3813771308410369,0.0372854688103548
1.547000000000004,-0.1725781564371993,-0.3579391043160051,0.0340897709499532
1.5504999999999995,-0.1608600158393093,-0.3291760782431385,0.0319587239332681
1.554000000000002,-0.1470108282247343,-0.3046751462036421,0.0330233747769847
1.5575000000000043,-0.1257055940456395,-0.2695207244099723,0.0340897709499532
1.561,-0.0980072188164895,-0.2407576983371057,0.0319587239332681
1.5645000000000024,-0.0649838440395048,-0.2024058333537824,0.0362208179666383
1.568000000000005,-0.0394165158270399,-0.1768385051413174,0.0383501196540714
1.5715000000000003,-0.0053267448770866,-0.1406194325039311,0.0458079115478431
1.5750000000000028,0.0191759324916617,-0.1214435000122694,0.0479389585645282
1.5785000000000051,0.0543303542853314,-0.1001382658331746,0.0521993072686464
1.5820000000000007,0.0735062867769931,-0.0894847760790012,0.055395005129048
1.5855000000000032,0.0948115209560879,-0.0777666354811113,0.0511346564249298
1.5890000000000055,0.1129210572747811,-0.0788312863248278,0.0436768645311581
1.5925000000000011,0.1320969897664428,-0.0809623333415129,0.0372854688103548
1.5960000000000036,0.1438151303643327,-0.0905494269227178,0.02769837522915
1.599500000000006,0.1512729222581045,-0.1086607085706629,0.0191759324916617
1.6030000000000015,0.1640557136997109,-0.1214435000122694,0.0117181405978899
1.606500000000004,0.1736428072809158,-0.1448797812080492,-0.0031956978604016
1.6099999999999994,0.1789695521580025,-0.1608600158393093,-0.0074577918937717
1.613500000000002,0.1874919948954908,-0.180035948330971,-0.0202405833353782
1.6170000000000044,0.1864273440517743,-0.1928187397725775,-0.0255673282124649
1.6204999999999998,0.1928187397725775,-0.2024058333537824,-0.029827676916583
1.6240000000000023,0.1970790884766957,-0.2151903701246408,-0.0372854688103548
1.6275000000000048,0.1949497867892626,-0.2237128128621291,-0.0436768645311581
1.6310000000000002,0.1992101354933808,-0.2247774637058457,-0.0511346564249298
1.6345000000000027,0.1970790884766957,-0.2269085107225308,-0.0532657034416149
1.6380000000000052,0.1970790884766957,-0.2258421145495622,-0.055395005129048
1.6415000000000006,0.1970790884766957,-0.2237128128621291,-0.0564614013020165
1.6450000000000031,0.1896230419121759,-0.2226464166891606,-0.0458079115478431
1.6485000000000056,0.1896230419121759,-0.2130593231079557,-0.0426122136874415
1.652000000000001,0.1821652500184041,-0.2002765316663493,-0.0362208179666383
1.6555000000000035,0.1704471094205142,-0.1896230419121759,-0.0308940730895516
1.659000000000006,0.1565979218059392,-0.1811005991746876,-0.0223716303520633
1.6625000000000014,0.1342280367831279,-0.166186760716396,-0.0191759324916617
1.666000000000004,0.1182478021518678,-0.1619246666830259,-0.0085224427374883
1.669499999999999,0.0916158230956863,-0.1448797812080492,0.0
1.6730000000000018,0.0756355884644262,-0.1352926876268444,0.0031956978604016
1.6765000000000043,0.0532657034416149,-0.1118564064310645,0.0042603487041181
1.6799999999999995,0.0394165158270399,-0.0948115209560879,0.0063913957208032
1.6835000000000022,0.0213052341790947,-0.069244192743623,0.0106534897541733
1.6870000000000047,0.0095870935812048,-0.0575260521457331,0.0170448854749766
1.6905,-0.0085224427374883,-0.0330233747769847,0.0245026773687483
1.6940000000000026,-0.02769837522915,-0.0213052341790947,0.029827676916583
1.6975000000000051,-0.0511346564249298,-0.002131047016685,0.0330233747769847
1.7010000000000003,-0.069244192743623,0.0063913957208032,0.0330233747769847
1.704500000000003,-0.096942567972773,0.0223716303520633,0.0394165158270399
1.7080000000000055,-0.1182478021518678,0.0255673282124649,0.041545817514473
1.711500000000001,-0.1534022239455376,0.0372854688103548,0.0362208179666383
1.7150000000000034,-0.180035948330971,0.0436768645311581,0.0404811666707564
1.718500000000006,-0.1992101354933808,0.0426122136874415,0.0394165158270399
1.7220000000000013,-0.2237128128621291,0.0436768645311581,0.0436768645311581
1.7255000000000038,-0.2450180470412239,0.0426122136874415,0.0521993072686464
1.7289999999999992,-0.2567361876391139,0.0458079115478431,0.0564614013020165
1.7325000000000017,-0.2695207244099723,0.0458079115478431,0.0649838440395048
1.7360000000000042,-0.2737810731140905,0.0458079115478431,0.0788312863248278
1.7394999999999996,-0.2716500260974054,0.0490036094082447,0.0862890782185996
1.743000000000002,-0.2695207244099723,0.0490036094082447,0.1033339636935762
1.7465000000000046,-0.2620629325162006,0.0511346564249298,0.1203788491685528
1.75,-0.2492801410745941,0.0458079115478431,0.136357338470561
1.7535000000000025,-0.2311688594266489,0.0468725623915597,0.150206526085136
1.757000000000005,-0.2024058333537824,0.0468725623915597,0.1608600158393093
1.7605000000000004,-0.1725781564371993,0.0372854688103548,0.166186760716396
1.764000000000003,-0.1331616406101593,0.0351544217936697,0.1747092034538843
1.7675000000000054,-0.1043986145372928,0.0404811666707564,0.177904901314286
1.7710000000000008,-0.0639174478665363,0.0362208179666383,0.1906876927558924
1.7745000000000033,-0.0308940730895516,0.0458079115478431,0.1906876927558924
1.7780000000000058,0.0095870935812048,0.0511346564249298,0.1970790884766957
1.7815000000000012,0.0383501196540714,0.0596570991624181,0.2002765316663493
1.7850000000000037,0.0703088435873395,0.0735062867769931,0.1960144376329791
1.7885000000000062,0.0926804739394028,0.0798976824977964,0.1938833906162941
1.7920000000000016,0.1182478021518678,0.0905494269227178,0.1906876927558924
1.795500000000004,0.138488385487246,0.1033339636935762,0.1853609478788057
1.7989999999999997,0.1587289688226243,0.1129210572747811,0.1789695521580025
1.802500000000002,0.1768385051413174,0.1193124529955843,0.1736428072809158
1.8060000000000045,0.2002765316663493,0.1310323389227262,0.1715135055934827
1.8095,0.2237128128621291,0.136357338470561,0.1736428072809158
1.8130000000000024,0.2599318854995155,0.136357338470561,0.1768385051413174
1.8165000000000049,0.2950880526224372,0.1352926876268444,0.1768385051413174
1.8200000000000005,0.3515477085952018,0.138488385487246,0.1704471094205142
1.8235000000000028,0.4058780628805333,0.1374237346435295,0.1597953649955928
1.8270000000000053,0.4740576047804398,0.1320969897664428,0.1480754790684509
1.830500000000001,0.533712958613606,0.1299659427497577,0.1352926876268444
1.8340000000000032,0.6125459902676859,0.1214435000122694,0.1086607085706629
1.8375000000000057,0.6690056462404504,0.1193124529955843,0.0937468701123714
1.841000000000001,0.7382515843133254,0.1118564064310645,0.0713752397603081
1.844500000000004,0.7744706569507118,0.1086607085706629,0.0511346564249298
1.848000000000006,0.8085604279006651,0.1033339636935762,0.02769837522915
1.8515000000000013,0.820278568498555,0.1022693128498597,0.0074577918937717
1.855000000000004,0.8170828706381533,0.1033339636935762,-0.0181095363186931
1.8584999999999996,0.8021690321798618,0.1012029166768912,-0.0351544217936697
1.8620000000000017,0.7638171671965385,0.1043986145372928,-0.055395005129048
1.8655000000000044,0.7265316983861836,0.1075943123976944,-0.0767019846373948
1.869,0.670072042413419,0.1182478021518678,-0.096942567972773
1.8725000000000025,0.616806338971804,0.124639197872671,-0.1150521042914662
1.8760000000000048,0.5422354013510943,0.1416840833476476,-0.1438151303643327
1.8795,0.4857757453783297,0.1587289688226243,-0.1619246666830259
1.883000000000003,0.3994866671597301,0.1874919948954908,-0.1885583910684593
1.8865000000000047,0.3291760782431385,0.2045368803704674,-0.1981454846496642
1.8900000000000008,0.233299906443334,0.2354309534600191,-0.2130593231079557
1.893500000000003,0.1544686201185061,0.2514094427620272,-0.2183860679850424
1.8970000000000056,0.0490036094082447,0.2759121201307756,-0.2311688594266489
1.900500000000001,-0.0308940730895516,0.300413052170272,-0.2396913021641372
1.9040000000000037,-0.136357338470561,0.3387649171535954,-0.258867234655799
1.907500000000006,-0.2077325782308691,0.3664615470534934,-0.2716500260974054
1.9110000000000011,-0.288694911572382,0.3962909692993285,-0.2833681666952953
1.914500000000004,-0.3398295679973119,0.4165315526347067,-0.2940216564494687
1.9179999999999997,-0.3888331774055567,0.4367721359700849,-0.3068061932203272
1.9215000000000015,-0.4090737607409349,0.4506213235846599,-0.3174579376452486
1.9250000000000045,-0.4218582975117934,0.464468765869983,-0.3249157295390203
1.9285,-0.4218582975117934,0.4719265577637547,-0.3376985209806268
1.9320000000000024,-0.397355620143045,0.4793843496575265,-0.3547434064556034
1.9355000000000049,-0.3792460838243518,0.4751222556241564,-0.3622011983493752
1.939,-0.3398295679973119,0.4655351620429515,-0.3781796876513833
1.9425000000000023,-0.3036087500306735,0.4495549274116914,-0.3877685265618402
1.946000000000005,-0.2663250265495707,0.42292294835551,-0.3920288752659583
1.9495000000000005,-0.2354309534600191,0.4058780628805333,-0.3952245731263599
1.953000000000003,-0.2002765316663493,0.3728546881035486,-0.4048134120368167
1.9565000000000052,-0.1704471094205142,0.3526141047681703,-0.41120480775762
1.9600000000000009,-0.1406194325039311,0.3313071252598236,-0.4080091098972184
1.9635000000000036,-0.1225098961852379,0.3153286359578155,-0.4048134120368167
1.9670000000000056,-0.1012029166768912,0.3036087500306735,-0.3984202709867616
1.9705000000000013,-0.0905494269227178,0.2940216564494687,-0.3941599222826434
1.974000000000004,-0.0820287295144815,0.2854992137119804,-0.3813771308410369
1.9774999999999991,-0.0862890782185996,0.2769767709744921,-0.3675279432264619
1.9810000000000016,-0.0905494269227178,0.2695207244099723,-0.3494166615785167
1.984500000000004,-0.0980072188164895,0.2695207244099723,-0.3291760782431385
1.9879999999999995,-0.1139874534477496,0.2492801410745941,-0.3078708440640437
1.991500000000002,-0.1278348957330726,0.2205171150017275,-0.2908259585890671
1.9950000000000043,-0.1534022239455376,0.1619246666830259,-0.2620629325162006
1.9985,-0.1693824585767977,0.1203788491685528,-0.2364956043037356
2.0020000000000024,-0.1981454846496642,0.0596570991624181,-0.2162550209683574
2.005500000000005,-0.2311688594266489,0.013849187614575,-0.2045368803704674
2.0090000000000003,-0.2801724688348938,-0.0500682602519613,-0.2013411825100658
2.012500000000003,-0.3249157295390203,-0.1086607085706629,-0.1992101354933808
2.0160000000000053,-0.3941599222826434,-0.1864273440517743,-0.1992101354933808
2.0195000000000007,-0.4474238803950063,-0.2428870000245388,-0.1981454846496642
2.0230000000000032,-0.5230612141886847,-0.3206536355056502,-0.1928187397725775
2.0265000000000057,-0.5773915684740161,-0.3803107346680683,-0.1832316461913727
2.030000000000001,-0.6221330838488908,-0.452750625272093,-0.1811005991746876
2.033500000000004,-0.6466357612176391,-0.4985585368199362,-0.1715135055934827
2.037000000000006,-0.6658099483800488,-0.5571509851386378,-0.1640557136997109
2.040500000000001,-0.6626142505196473,-0.6018925005135125,-0.1480754790684509
2.044000000000004,-0.6381133184801508,-0.6498314590780407,-0.1352926876268444
2.0474999999999994,-0.6093502924072843,-0.6903126257487973,-0.1267702448893561
2.051000000000002,-0.5582156359823544,-0.7329248394362388,-0.1171831513081512
2.0545000000000044,-0.5113430735907947,-0.7659482142132235,-0.1129210572747811
2.058,-0.4463592295512898,-0.8096250787443816,-0.1043986145372928
2.0615000000000023,-0.4026823650201317,-0.836258803129815,-0.1022693128498597
2.065000000000005,-0.3451563128743986,-0.8788692714880046,-0.0926804739394028
2.0685,-0.3089354949077603,-0.8991098548233829,-0.0905494269227178
2.0720000000000027,-0.274847469287059,-0.9225478813484148,-0.0788312863248278
2.075500000000005,-0.2556715367953973,-0.9310703240859032,-0.0681795418999064
2.0790000000000006,-0.2428870000245388,-0.933199625773336,-0.0521993072686464
2.082500000000003,-0.2428870000245388,-0.9268082300525328,-0.0404811666707564
2.0860000000000056,-0.2482137449016255,-0.905502995873438,-0.0308940730895516
2.089500000000001,-0.2631275833599171,-0.8810003185046897,-0.0149138384582915
2.0930000000000035,-0.2737810731140905,-0.8554329902922247,-0.0063913957208032
2.096500000000006,-0.288694911572382,-0.8138871727777518,0.0085224427374883
2.1000000000000014,-0.3046751462036421,-0.7787327509840819,0.0191759324916617
2.103500000000004,-0.3249157295390203,-0.7265316983861836,0.0458079115478431
2.1069999999999998,-0.3313071252598236,-0.683921230027994,0.0671131457269379
2.110500000000002,-0.3387649171535954,-0.6274598287259775,0.1033339636935762
2.1140000000000043,-0.3345028231202252,-0.5795208701614492,0.1374237346435295
2.1175,-0.3270467765557054,-0.5124077244345112,0.1789695521580025
2.121000000000002,-0.3153286359578155,-0.464468765869983,0.2077325782308691
2.1245000000000047,-0.2918906094327836,-0.397355620143045,0.2301042085829324
2.128,-0.2652586303766022,-0.3462209637181151,0.247149094057909
2.1315000000000026,-0.2279731615662473,-0.2918906094327836,0.2556715367953973
2.135000000000005,-0.2034722295267509,-0.2503447919183106,0.2567361876391139
2.1385000000000005,-0.1619246666830259,-0.2034722295267509,0.2578025838120824
2.142000000000003,-0.1352926876268444,-0.1629910628559944,0.2535404897787122
2.145500000000005,-0.1043986145372928,-0.1214435000122694,0.2418223491808223
2.149000000000001,-0.0852244273748831,-0.083093380358198,0.2386266513204207
2.1525000000000034,-0.0585907029894496,-0.0479389585645282,0.2247774637058457
2.156000000000006,-0.0447432607041266,-0.0202405833353782,0.2183860679850424
2.1595000000000013,-0.0351544217936697,0.0031956978604016,0.2066679273871525
2.163000000000004,-0.02769837522915,0.0245026773687483,0.1938833906162941
2.166499999999999,-0.0266319790561814,0.0479389585645282,0.1715135055934827
2.1700000000000017,-0.0191759324916617,0.0628527970228197,0.1491418752414194
2.173500000000004,-0.0106534897541733,0.0767019846373948,0.1214435000122694
2.177,-0.0074577918937717,0.0905494269227178,0.0937468701123714
2.180500000000002,0.0,0.0990718696602061,0.0628527970228197
2.1840000000000046,0.0053267448770866,0.1065296615539778,0.0458079115478431
2.1875,0.0117181405978899,0.1225098961852379,0.0149138384582915
2.1910000000000025,0.0127827914416064,0.1289012919060412,0.0
2.194500000000005,0.0191759324916617,0.1395530363309626,-0.0213052341790947
2.1980000000000004,0.0213052341790947,0.1491418752414194,-0.029827676916583
2.201500000000003,0.0255673282124649,0.1565979218059392,-0.0340897709499532
2.2050000000000054,0.0308940730895516,0.1640557136997109,-0.0319587239332681
2.208500000000001,0.0404811666707564,0.1715135055934827,-0.0255673282124649
2.2120000000000037,0.0447432607041266,0.1725781564371993,-0.0191759324916617
2.215500000000006,0.0585907029894496,0.1736428072809158,-0.0095870935812048
2.219000000000001,0.0703088435873395,0.177904901314286,-0.0053267448770866
2.222500000000004,0.0884201252352847,0.1747092034538843,0.0074577918937717
2.226000000000006,0.0980072188164895,0.1757738542976009,0.0170448854749766
2.2295000000000016,0.1129210572747811,0.1715135055934827,0.0372854688103548
2.233000000000004,0.1225098961852379,0.1640557136997109,0.0511346564249298
2.2364999999999995,0.1257055940456395,0.1448797812080492,0.0649838440395048
2.240000000000002,0.1310323389227262,0.1310323389227262,0.0724398906040246
2.2435000000000045,0.1182478021518678,0.1043986145372928,0.0862890782185996
2.247,0.1065296615539778,0.0809623333415129,0.0905494269227178
2.2505000000000024,0.0735062867769931,0.0458079115478431,0.0948115209560879
2.254000000000005,0.0394165158270399,0.0234362811957798,0.0958761717998045
2.2575000000000003,-0.0063913957208032,0.0,0.0958761717998045
2.261000000000003,-0.0500682602519613,-0.0181095363186931,0.0990718696602061
2.2645000000000053,-0.1086607085706629,-0.0245026773687483,0.0926804739394028
2.2680000000000007,-0.1544686201185061,-0.02769837522915,0.0873537290623162
2.271500000000003,-0.2109282760912707,-0.02769837522915,0.083093380358198
2.2750000000000057,-0.2524758389349957,-0.0181095363186931,0.0724398906040246
2.278500000000001,-0.3036087500306735,-0.002131047016685,0.055395005129048
2.282000000000004,-0.3398295679973119,0.013849187614575,0.0394165158270399
2.285500000000006,-0.3675279432264619,0.041545817514473,0.0127827914416064
2.289000000000001,-0.3867021303888716,0.0735062867769931,-0.0106534897541733
2.292500000000004,-0.3984202709867616,0.0894847760790012,-0.0394165158270399
2.296,-0.4005513180034466,0.1065296615539778,-0.055395005129048
2.299500000000002,-0.4037470158638482,0.1129210572747811,-0.0767019846373948
2.3030000000000044,-0.3962909692993285,0.124639197872671,-0.0894847760790012
2.3065,-0.3877685265618402,0.1331616406101593,-0.1022693128498597
2.3100000000000023,-0.3749839897909817,0.1320969897664428,-0.110790010258096
2.3135000000000048,-0.355809802628572,0.1267702448893561,-0.1257055940456395
2.317,-0.3366338701369103,0.1182478021518678,-0.136357338470561
2.3205000000000027,-0.314262239784847,0.1012029166768912,-0.1480754790684509
2.324000000000005,-0.2929570056057522,0.0905494269227178,-0.1587289688226243
2.327500000000001,-0.2673896773932873,0.0639174478665363,-0.1725781564371993
2.331000000000003,-0.2503447919183106,0.0447432607041266,-0.1747092034538843
2.3345000000000056,-0.2247774637058457,0.0223716303520633,-0.180035948330971
2.338000000000001,-0.205601531214184,-0.002131047016685,-0.1811005991746876
2.3415000000000035,-0.1842962970350892,-0.029827676916583,-0.1768385051413174
2.345000000000006,-0.1629910628559944,-0.0490036094082447,-0.1725781564371993
2.3485000000000014,-0.1416840833476476,-0.0735062867769931,-0.1640557136997109
2.352000000000004,-0.124639197872671,-0.0958761717998045,-0.1534022239455376
2.3554999999999997,-0.1001382658331746,-0.1203788491685528,-0.150206526085136
2.3590000000000018,-0.0884201252352847,-0.1491418752414194,-0.1395530363309626
2.3625000000000043,-0.0649838440395048,-0.1832316461913727,-0.136357338470561
2.366,-0.0500682602519613,-0.2109282760912707,-0.1331616406101593
2.369500000000002,-0.0372854688103548,-0.2482137449016255,-0.1235745470289545
2.3730000000000047,-0.02769837522915,-0.274847469287059,-0.1203788491685528
2.3765,-0.0308940730895516,-0.2993484013265554,-0.1150521042914662
2.3800000000000026,-0.0319587239332681,-0.314262239784847,-0.1118564064310645
2.383500000000005,-0.0468725623915597,-0.3238510786953038,-0.110790010258096
2.3870000000000005,-0.0596570991624181,-0.3259803803827369,-0.1012029166768912
2.390500000000003,-0.0788312863248278,-0.3185243338182171,-0.0958761717998045
2.394000000000005,-0.1012029166768912,-0.3100018910807288,-0.0916158230956863
2.397500000000001,-0.1193124529955843,-0.2918906094327836,-0.0937468701123714
2.401000000000004,-0.1374237346435295,-0.2759121201307756,-0.0884201252352847
2.404500000000006,-0.1534022239455376,-0.2535404897787122,-0.083093380358198
2.4080000000000013,-0.1587289688226243,-0.2290395577392158,-0.083093380358198
2.411500000000004,-0.1619246666830259,-0.2013411825100658,-0.0884201252352847
2.414999999999999,-0.1576643179789077,-0.177904901314286,-0.0926804739394028
2.4185000000000016,-0.1438151303643327,-0.1406194325039311,-0.096942567972773
2.422000000000004,-0.1310323389227262,-0.1075943123976944,-0.0980072188164895
2.4254999999999995,-0.1065296615539778,-0.0639174478665363,-0.1022693128498597
2.429000000000002,-0.0937468701123714,-0.0330233747769847,-0.0980072188164895
2.4325000000000045,-0.0639174478665363,0.0074577918937717,-0.0852244273748831
2.436,-0.0404811666707564,0.0426122136874415,-0.0777666354811113
2.4395000000000024,-0.0223716303520633,0.069244192743623,-0.0724398906040246
2.443000000000005,-0.0074577918937717,0.1022693128498597,-0.0703088435873395
2.4465000000000003,0.013849187614575,0.1331616406101593,-0.0713752397603081
2.450000000000003,0.029827676916583,0.1619246666830259,-0.0756355884644262
2.4535000000000053,0.0426122136874415,0.1811005991746876,-0.0724398906040246
2.4570000000000007,0.0585907029894496,0.205601531214184,-0.0735062867769931
2.4605000000000032,0.0735062867769931,0.2130593231079557,-0.069244192743623
2.4640000000000057,0.0820287295144815,0.2205171150017275,-0.0617864008498512
2.467500000000001,0.0926804739394028,0.2279731615662473,-0.0511346564249298
2.471000000000004,0.1065296615539778,0.2301042085829324,-0.0447432607041266
2.474500000000006,0.1161167551351827,0.2311688594266489,-0.0372854688103548
2.478000000000001,0.1235745470289545,0.2301042085829324,-0.0319587239332681
2.481500000000004,0.136357338470561,0.2269085107225308,-0.0266319790561814
2.4849999999999994,0.1470108282247343,0.2237128128621291,-0.0213052341790947
2.488500000000002,0.1576643179789077,0.2226464166891606,-0.01598023463126
2.4920000000000044,0.1576643179789077,0.2162550209683574,-0.0117181405978899
2.4955,0.1576643179789077,0.2141239739516723,-0.0063913957208032
2.4990000000000023,0.1491418752414194,0.2034722295267509,0.0106534897541733
2.502500000000005,0.1427504795206162,0.2002765316663493,0.0223716303520633
2.506,0.1331616406101593,0.1938833906162941,0.041545817514473
2.5095000000000027,0.1235745470289545,0.1874919948954908,0.0617864008498512
2.513000000000005,0.1139874534477496,0.1715135055934827,0.0884201252352847
2.5165000000000006,0.1086607085706629,0.1608600158393093,0.1043986145372928
2.520000000000003,0.1022693128498597,0.1480754790684509,0.1299659427497577
2.5235000000000056,0.1097253594143795,0.1406194325039311,0.1448797812080492
2.527000000000001,0.1225098961852379,0.1278348957330726,0.1651203645434275
2.5305000000000035,0.136357338470561,0.1150521042914662,0.1747092034538843
2.534000000000006,0.1608600158393093,0.1086607085706629,0.1821652500184041
2.5375000000000014,0.1832316461913727,0.1054650107102613,0.1853609478788057
2.541000000000004,0.2151903701246408,0.1043986145372928,0.1853609478788057
2.5444999999999998,0.2354309534600191,0.1075943123976944,0.177904901314286
2.548000000000002,0.260998281672484,0.1150521042914662,0.1693824585767977
2.5515000000000043,0.2737810731140905,0.1193124529955843,0.1629910628559944
2.555,0.2876302607286655,0.1331616406101593,0.1534022239455376
2.558500000000002,0.2961527034661538,0.150206526085136,0.1406194325039311
2.5620000000000047,0.2982837504828389,0.1715135055934827,0.1278348957330726
2.5655,0.2961527034661538,0.1938833906162941,0.1139874534477496
2.5690000000000026,0.2908259585890671,0.2162550209683574,0.1033339636935762
2.572500000000005,0.2812388650078622,0.2375620004767041,0.0926804739394028
2.5760000000000005,0.2716500260974054,0.2652586303766022,0.0724398906040246
2.579500000000003,0.2631275833599171,0.2854992137119804,0.0575260521457331
2.583000000000005,0.2503447919183106,0.3110665419244454,0.0436768645311581
2.586500000000001,0.2428870000245388,0.3291760782431385,0.029827676916583
2.5900000000000034,0.2269085107225308,0.341960615013997,0.01598023463126
2.593500000000006,0.2151903701246408,0.3526141047681703,0.0063913957208032
2.5970000000000013,0.1874919948954908,0.3675279432264619,-0.0127827914416064
2.600500000000004,0.166186760716396,0.3760503859639502,-0.0170448854749766
2.603999999999999,0.1331616406101593,0.3803107346680683,-0.02769837522915
2.6075000000000017,0.1033339636935762,0.3867021303888716,-0.0340897709499532
2.611000000000004,0.0649838440395048,0.3845728287014385,-0.0340897709499532
2.6145,0.0340897709499532,0.3781796876513833,-0.0330233747769847
2.618000000000002,-0.0063913957208032,0.3590055004889736,-0.029827676916583
2.6215000000000046,-0.0383501196540714,0.3408942188410284,-0.0234362811957798
2.625,-0.0724398906040246,0.3259803803827369,-0.0106534897541733
2.6285000000000025,-0.1001382658331746,0.3068061932203272,0.0031956978604016
2.632000000000005,-0.1331616406101593,0.2823035158515788,0.0245026773687483
2.6355000000000004,-0.1480754790684509,0.2546051406224288,0.0372854688103548
2.639000000000003,-0.1651203645434275,0.219450718828759,0.0639174478665363
2.6425000000000054,-0.1704471094205142,0.1896230419121759,0.0798976824977964
2.646000000000001,-0.1757738542976009,0.1448797812080492,0.1043986145372928
2.6495000000000037,-0.1768385051413174,0.1118564064310645,0.1171831513081512
2.653000000000006,-0.1736428072809158,0.0617864008498512,0.136357338470561
2.656500000000001,-0.1715135055934827,0.0234362811957798,0.1406194325039311
2.660000000000004,-0.1651203645434275,-0.01598023463126,0.1534022239455376
2.663500000000006,-0.1619246666830259,-0.0404811666707564,0.1565979218059392
2.6670000000000016,-0.1629910628559944,-0.0724398906040246,0.1555332709622227
2.670500000000004,-0.166186760716396,-0.0916158230956863,0.1555332709622227
2.6739999999999995,-0.177904901314286,-0.1086607085706629,0.1491418752414194
2.677500000000002,-0.191754088928861,-0.1171831513081512,0.1406194325039311
2.6810000000000045,-0.2119946722642392,-0.124639197872671,0.1320969897664428
2.6845,-0.2279731615662473,-0.1267702448893561,0.124639197872671
2.6880000000000024,-0.2343645572870505,-0.1320969897664428,0.1139874534477496
2.691500000000005,-0.2396913021641372,-0.1331616406101593,0.1054650107102613
2.6950000000000003,-0.233299906443334,-0.1310323389227262,0.0873537290623162
2.698500000000003,-0.2247774637058457,-0.1310323389227262,0.0703088435873395
2.7020000000000053,-0.1938833906162941,-0.1278348957330726,0.0521993072686464
2.7055000000000007,-0.1651203645434275,-0.1257055940456395,0.029827676916583
2.709000000000003,-0.1267702448893561,-0.1235745470289545,0.0085224427374883
2.7125000000000057,-0.0884201252352847,-0.1139874534477496,-0.0106534897541733
2.716000000000001,-0.0426122136874415,-0.1033339636935762,-0.0330233747769847
2.719500000000004,-0.0117181405978899,-0.1001382658331746,-0.0521993072686464
2.723000000000006,0.0234362811957798,-0.0894847760790012,-0.0735062867769931
2.726500000000001,0.0458079115478431,-0.0862890782185996,-0.0873537290623162
2.730000000000004,0.0671131457269379,-0.0767019846373948,-0.1043986145372928
2.7335,0.0756355884644262,-0.0756355884644262,-0.1171831513081512
2.737000000000002,0.0852244273748831,-0.0703088435873395,-0.1257055940456395
2.7405000000000044,0.0873537290623162,-0.0713752397603081,-0.1320969897664428
2.744,0.0916158230956863,-0.0713752397603081,-0.136357338470561
2.7475000000000023,0.0948115209560879,-0.0745709376207097,-0.1289012919060412
2.7510000000000048,0.0980072188164895,-0.0713752397603081,-0.1235745470289545
2.7545,0.1054650107102613,-0.0649838440395048,-0.1161167551351827
2.7580000000000027,0.1225098961852379,-0.069244192743623,-0.1012029166768912
2.761500000000005,0.1310323389227262,-0.0649838440395048,-0.0852244273748831
2.765000000000001,0.152337573101821,-0.0543303542853314,-0.0724398906040246
2.768500000000003,0.1704471094205142,-0.0490036094082447,-0.055395005129048
2.7720000000000056,0.1874919948954908,-0.0404811666707564,-0.0426122136874415
2.775500000000001,0.2024058333537824,-0.029827676916583,-0.0308940730895516
2.7790000000000035,0.2130593231079557,-0.0213052341790947,-0.0191759324916617
2.782500000000006,0.2173214171413259,-0.0074577918937717,-0.0063913957208032
2.7860000000000014,0.2130593231079557,0.0085224427374883,0.013849187614575
2.789500000000004,0.2045368803704674,0.0255673282124649,0.0351544217936697
2.7929999999999997,0.191754088928861,0.0458079115478431,0.0596570991624181
2.7965000000000018,0.180035948330971,0.0575260521457331,0.0862890782185996
2.8000000000000043,0.1619246666830259,0.069244192743623,0.1054650107102613
2.8035,0.1534022239455376,0.0788312863248278,0.1193124529955843
2.807000000000002,0.1427504795206162,0.0884201252352847,0.1320969897664428
2.8105000000000047,0.1352926876268444,0.1001382658331746,0.138488385487246
2.814,0.1278348957330726,0.1065296615539778,0.136357338470561
2.8175000000000026,0.1214435000122694,0.1075943123976944,0.1342280367831279
2.821000000000005,0.1203788491685528,0.1097253594143795,0.1310323389227262
2.8245000000000005,0.1203788491685528,0.1086607085706629,0.1267702448893561
2.828000000000003,0.1139874534477496,0.1097253594143795,0.1193124529955843
2.831500000000005,0.1129210572747811,0.1012029166768912,0.1065296615539778
2.835000000000001,0.1022693128498597,0.1033339636935762,0.0916158230956863
2.838500000000004,0.0916158230956863,0.0916158230956863,0.0724398906040246
2.842000000000006,0.0852244273748831,0.0873537290623162,0.055395005129048
2.8455000000000013,0.0745709376207097,0.0756355884644262,0.0351544217936697
2.849000000000004,0.0617864008498512,0.069244192743623,0.0149138384582915
2.852499999999999,0.0479389585645282,0.0639174478665363,-0.0074577918937717
2.8560000000000016,0.0372854688103548,0.0617864008498512,-0.02769837522915
2.859500000000004,0.01598023463126,0.0511346564249298,-0.0479389585645282
2.8629999999999995,0.0,0.0447432607041266,-0.0575260521457331
2.866500000000002,-0.0213052341790947,0.0383501196540714,-0.0745709376207097
2.8700000000000045,-0.0362208179666383,0.0383501196540714,-0.0841580312019145
2.8735,-0.0607217500061347,0.0351544217936697,-0.0852244273748831
2.8770000000000024,-0.0777666354811113,0.02769837522915,-0.083093380358198
2.880500000000005,-0.1033339636935762,0.029827676916583,-0.0862890782185996
2.8840000000000003,-0.1203788491685528,0.0255673282124649,-0.0788312863248278
2.887500000000003,-0.1470108282247343,0.029827676916583,-0.0660484948832214
2.8910000000000053,-0.166186760716396,0.029827676916583,-0.055395005129048
2.8945000000000007,-0.1896230419121759,0.0340897709499532,-0.0351544217936697
2.8980000000000032,-0.2087989744038376,0.0362208179666383,-0.0117181405978899
2.9015000000000057,-0.2311688594266489,0.0426122136874415,0.0255673282124649
2.905000000000001,-0.247149094057909,0.0447432607041266,0.0585907029894496
2.908500000000004,-0.2567361876391139,0.0500682602519613,0.1033339636935762
2.912000000000006,-0.2556715367953973,0.0404811666707564,0.1427504795206162
2.915500000000001,-0.2418223491808223,0.0308940730895516,0.1874919948954908
2.919000000000004,-0.2173214171413259,0.0223716303520633,0.219450718828759
2.9224999999999994,-0.1842962970350892,0.0063913957208032,0.260998281672484
2.926000000000002,-0.150206526085136,-0.002131047016685,0.2801724688348938
2.9295000000000044,-0.1043986145372928,-0.01598023463126,0.3121311927681619
2.933,-0.0639174478665363,-0.0287630260728665,0.3281114273994219
2.9365000000000023,-0.013849187614575,-0.0351544217936697,0.3440916620306821
2.940000000000005,0.0170448854749766,-0.041545817514473,0.3462209637181151
2.9435,0.0564614013020165,-0.0458079115478431,0.3536787556118869
2.9470000000000027,0.0820287295144815,-0.0458079115478431,0.3526141047681703
2.950500000000005,0.1054650107102613,-0.0511346564249298,0.3462209637181151
2.9540000000000006,0.1182478021518678,-0.0479389585645282,0.3355692192931938
2.957500000000003,0.1342280367831279,-0.0447432607041266,0.3249157295390203
2.9610000000000056,0.1374237346435295,-0.0394165158270399,0.3057397970473587
2.964500000000001,0.1480754790684509,-0.0340897709499532,0.2897613077453506
2.9680000000000035,0.1544686201185061,-0.0330233747769847,0.2769767709744921
2.971500000000006,0.1608600158393093,-0.0319587239332681,0.2578025838120824
2.9750000000000014,0.166186760716396,-0.0245026773687483,0.2482137449016255
2.978500000000004,0.1736428072809158,-0.0266319790561814,0.233299906443334
2.9819999999999998,0.1747092034538843,-0.0255673282124649,0.2279731615662473
2.985500000000002,0.1821652500184041,-0.0223716303520633,0.2183860679850424
2.9890000000000043,0.1811005991746876,-0.0255673282124649,0.2098636252475541
2.9925,0.1768385051413174,-0.0255673282124649,0.2183860679850424
2.996000000000002,0.1747092034538843,-0.0213052341790947,0.2237128128621291
2.9995000000000047,0.1683160624038291,-0.0245026773687483,0.233299906443334
3.003,0.1629910628559944,-0.02769837522915,0.2439533961975074
3.0065000000000026,0.166186760716396,-0.029827676916583,0.2631275833599171
3.010000000000005,0.1619246666830259,-0.029827676916583,0.2780431671474606
3.0135000000000005,0.1683160624038291,-0.0340897709499532,0.302544099186957
3.017000000000003,0.1683160624038291,-0.0372854688103548,0.3121311927681619
3.020500000000005,0.1811005991746876,-0.041545817514473,0.3376985209806268
3.024000000000001,0.1864273440517743,-0.0479389585645282,0.3483520107348002
3.0275000000000034,0.2045368803704674,-0.0500682602519613,0.3611348021764067
3.031000000000006,0.2141239739516723,-0.0479389585645282,0.3707236410868635
3.0345000000000013,0.2301042085829324,-0.0479389585645282,0.3717882919305801
3.038000000000004,0.2407576983371057,-0.0436768645311581,0.369657244913895
3.041499999999999,0.2503447919183106,-0.0426122136874415,0.3568744534722885
3.0450000000000017,0.2556715367953973,-0.0340897709499532,0.3472873598910836
3.048500000000004,0.2460844432141925,-0.0266319790561814,0.3281114273994219
3.052,0.2375620004767041,-0.0213052341790947,0.3131975889411305
3.055500000000002,0.2215817658454441,-0.0106534897541733,0.2897613077453506
3.0590000000000046,0.2013411825100658,-0.002131047016685,0.2716500260974054
3.0625,0.1747092034538843,0.0085224427374883,0.2418223491808223
3.0660000000000025,0.1480754790684509,0.0223716303520633,0.2215817658454441
3.069500000000005,0.1203788491685528,0.0394165158270399,0.1885583910684593
3.0730000000000004,0.0980072188164895,0.0596570991624181,0.1725781564371993
3.076500000000003,0.0649838440395048,0.0862890782185996,0.1438151303643327
3.0800000000000054,0.0426122136874415,0.1054650107102613,0.1299659427497577
3.083500000000001,0.01598023463126,0.136357338470561,0.110790010258096
3.0870000000000037,0.0010646508437165,0.1534022239455376,0.1054650107102613
3.090500000000006,-0.0213052341790947,0.1832316461913727,0.1022693128498597
3.094000000000001,-0.0383501196540714,0.1970790884766957,0.0980072188164895
3.097500000000004,-0.0585907029894496,0.2279731615662473,0.1065296615539778
3.100999999999999,-0.069244192743623,0.2503447919183106,0.1171831513081512
3.1045000000000016,-0.0852244273748831,0.2780431671474606,0.1395530363309626
3.108000000000004,-0.0905494269227178,0.2961527034661538,0.1619246666830259
3.1114999999999995,-0.096942567972773,0.3131975889411305,0.1981454846496642
3.115000000000002,-0.0948115209560879,0.3217200316786187,0.2279731615662473
3.1185000000000045,-0.0862890782185996,0.3302424744161071,0.2705853752536888
3.122,-0.0777666354811113,0.3313071252598236,0.2993484013265554
3.1255000000000024,-0.0532657034416149,0.3281114273994219,0.3483520107348002
3.129000000000005,-0.041545817514473,0.3249157295390203,0.38350643252847
3.1325000000000003,-0.0117181405978899,0.3153286359578155,0.4282496932325966
3.136000000000003,0.0106534897541733,0.3057397970473587,0.464468765869983
3.1395000000000053,0.0404811666707564,0.2929570056057522,0.5102766774178261
3.1430000000000007,0.0649838440395048,0.2801724688348938,0.5422354013510943
3.146500000000003,0.0980072188164895,0.2641939795328856,0.5773915684740161
3.1500000000000057,0.1193124529955843,0.2546051406224288,0.605088198373914
3.153500000000001,0.1480754790684509,0.2290395577392158,0.626395177882261
3.157000000000004,0.1683160624038291,0.2130593231079557,0.6434400633572375
3.160500000000006,0.1896230419121759,0.1949497867892626,0.6477004120613556
3.164000000000001,0.2045368803704674,0.1725781564371993,0.6551582039551274
3.167500000000004,0.2141239739516723,0.152337573101821,0.6487650629050722
3.171,0.2258421145495622,0.1342280367831279,0.6413090163405525
3.174500000000002,0.2258421145495622,0.1182478021518678,0.6370469223071823
3.1780000000000044,0.2183860679850424,0.1065296615539778,0.6210684330051742
3.1815,0.2119946722642392,0.0948115209560879,0.6104149432510009
3.1850000000000023,0.1874919948954908,0.0777666354811113,0.5986968026531109
3.1885000000000048,0.1715135055934827,0.0660484948832214,0.5923054069323076
3.192,0.1310323389227262,0.0532657034416149,0.5784562193177326
3.1955000000000027,0.1065296615539778,0.0394165158270399,0.5731294744406459
3.199000000000005,0.0649838440395048,0.0127827914416064,0.5646070317031576
3.202500000000001,0.0351544217936697,-0.0010646508437165,0.5518242402615512
3.206000000000003,-0.0042603487041181,-0.0223716303520633,0.5433017975240628
3.2095000000000056,-0.0308940730895516,-0.0383501196540714,0.5358440056302911
3.213000000000001,-0.0639174478665363,-0.0575260521457331,0.5326483077698895
3.2165000000000035,-0.083093380358198,-0.0703088435873395,0.5230612141886847
3.220000000000006,-0.0958761717998045,-0.0841580312019145,0.5230612141886847
3.2235000000000014,-0.1033339636935762,-0.0916158230956863,0.519865516328283
3.227000000000004,-0.0980072188164895,-0.0990718696602061,0.519865516328283
3.2304999999999997,-0.0873537290623162,-0.1086607085706629,0.519865516328283
3.2340000000000018,-0.0617864008498512,-0.1171831513081512,0.5219948180157161
3.2375000000000043,-0.0426122136874415,-0.1182478021518678,0.5219948180157161
3.241,-0.0063913957208032,-0.1203788491685528,0.519865516328283
3.244500000000002,0.0181095363186931,-0.1225098961852379,0.5230612141886847
3.2480000000000047,0.0511346564249298,-0.1267702448893561,0.519865516328283
3.2515,0.0809623333415129,-0.1299659427497577,0.519865516328283
3.2550000000000026,0.1161167551351827,-0.1374237346435295,0.5070809795574245
3.258500000000005,0.1352926876268444,-0.1480754790684509,0.4942981881158181
3.2620000000000005,0.1597953649955928,-0.1565979218059392,0.4751222556241564
3.265500000000003,0.1683160624038291,-0.1651203645434275,0.4591437663221482
3.269000000000005,0.180035948330971,-0.1736428072809158,0.4325100419367148
3.272500000000001,0.1768385051413174,-0.1789695521580025,0.4122694586013365
3.276000000000004,0.1608600158393093,-0.1864273440517743,0.3920288752659583
3.279500000000006,0.1480754790684509,-0.1928187397725775,0.3685925940701784
3.2830000000000013,0.1278348957330726,-0.1981454846496642,0.3387649171535954
3.286500000000004,0.1065296615539778,-0.2024058333537824,0.316393286801532
3.289999999999999,0.0767019846373948,-0.2034722295267509,0.2897613077453506
3.2935000000000016,0.0543303542853314,-0.2024058333537824,0.2652586303766022
3.297000000000004,0.0255673282124649,-0.1981454846496642,0.2396913021641372
3.3004999999999995,0.0053267448770866,-0.2002765316663493,0.219450718828759
3.304000000000002,-0.0095870935812048,-0.1928187397725775,0.2024058333537824
3.3075000000000045,-0.0191759324916617,-0.1853609478788057,0.1896230419121759
3.311,-0.0351544217936697,-0.1811005991746876,0.1715135055934827
3.3145000000000024,-0.0404811666707564,-0.1715135055934827,0.1640557136997109
3.318000000000005,-0.0511346564249298,-0.1651203645434275,0.1608600158393093
3.3215000000000003,-0.0607217500061347,-0.1565979218059392,0.1597953649955928
3.325000000000003,-0.0713752397603081,-0.152337573101821,0.1693824585767977
3.3285000000000053,-0.0724398906040246,-0.1491418752414194,0.1757738542976009
3.3320000000000007,-0.0798976824977964,-0.1416840833476476,0.1896230419121759
3.3355000000000032,-0.0820287295144815,-0.1374237346435295,0.1992101354933808
3.3390000000000057,-0.0809623333415129,-0.1342280367831279,0.2151903701246408
3.342500000000001,-0.0767019846373948,-0.1331616406101593,0.2247774637058457
3.346000000000004,-0.0735062867769931,-0.124639197872671,0.2439533961975074
3.349500000000006,-0.0660484948832214,-0.1214435000122694,0.2535404897787122
3.353000000000001,-0.0521993072686464,-0.1150521042914662,0.2684543282370038
3.356500000000004,-0.0458079115478431,-0.1086607085706629,0.2791078179911772
3.3599999999999994,-0.029827676916583,-0.1075943123976944,0.3014794483432405
3.363500000000002,-0.0202405833353782,-0.1043986145372928,0.3089354949077603
3.3670000000000044,-0.0063913957208032,-0.1022693128498597,0.3217200316786187
3.3705,0.0042603487041181,-0.110790010258096,0.3259803803827369
3.3740000000000023,0.0191759324916617,-0.1161167551351827,0.3366338701369103
3.377500000000005,0.0266319790561814,-0.1257055940456395,0.3334381722765087
3.381,0.0330233747769847,-0.1352926876268444,0.3249157295390203
3.3845000000000027,0.0394165158270399,-0.1416840833476476,0.3238510786953038
3.388000000000005,0.0319587239332681,-0.150206526085136,0.3100018910807288
3.3915000000000006,0.0308940730895516,-0.1576643179789077,0.2982837504828389
3.395000000000003,0.0223716303520633,-0.1619246666830259,0.2929570056057522
3.3985000000000056,0.0117181405978899,-0.1597953649955928,0.288694911572382
3.402000000000001,0.0074577918937717,-0.1629910628559944,0.2823035158515788
3.4055000000000035,0.0010646508437165,-0.1608600158393093,0.2769767709744921
3.409000000000006,-0.0010646508437165,-0.1619246666830259,0.2769767709744921
3.4125000000000014,0.0,-0.1640557136997109,0.2716500260974054
3.416000000000004,0.0053267448770866,-0.1587289688226243,0.2759121201307756
3.4194999999999998,0.0074577918937717,-0.1576643179789077,0.2791078179911772
3.423000000000002,0.0085224427374883,-0.1480754790684509,0.288694911572382
3.4265000000000043,0.0170448854749766,-0.1448797812080492,0.2940216564494687
3.43,0.029827676916583,-0.1320969897664428,0.3089354949077603
3.433500000000002,0.0404811666707564,-0.1267702448893561,0.3174579376452486
3.4370000000000047,0.0521993072686464,-0.1139874534477496,0.3281114273994219
3.4405,0.0607217500061347,-0.1086607085706629,0.3440916620306821
3.4440000000000026,0.069244192743623,-0.0980072188164895,0.3483520107348002
3.447500000000005,0.0745709376207097,-0.0841580312019145,0.3536787556118869
3.4510000000000005,0.0798976824977964,-0.0713752397603081,0.3653968962097769
3.454500000000003,0.0798976824977964,-0.0607217500061347,0.3717882919305801
3.458000000000005,0.083093380358198,-0.0468725623915597,0.38350643252847
3.461500000000001,0.0862890782185996,-0.0404811666707564,0.3877685265618402
3.4650000000000034,0.1001382658331746,-0.0308940730895516,0.4016177141764152
3.468500000000006,0.1086607085706629,-0.0266319790561814,0.4005513180034466
3.4720000000000013,0.1320969897664428,-0.0223716303520633,0.4048134120368167
3.475500000000004,0.1512729222581045,-0.0127827914416064,0.4048134120368167
3.478999999999999,0.1789695521580025,-0.0127827914416064,0.4069427137242498
3.4825000000000017,0.2077325782308691,-0.0063913957208032,0.4037470158638482
3.486000000000004,0.2460844432141925,-0.0085224427374883,0.4037470158638482
3.4895,0.2716500260974054,-0.0095870935812048,0.4005513180034466
3.493000000000002,0.3110665419244454,-0.0127827914416064,0.3898978282492732
3.4965000000000046,0.3355692192931938,-0.013849187614575,0.3813771308410369
3.5,0.3568744534722885,-0.0170448854749766,0.3515477085952018
3.5035000000000025,0.3739193389472651,-0.0213052341790947,0.3291760782431385
3.507000000000005,0.3813771308410369,-0.0245026773687483,0.2918906094327836
3.5105000000000004,0.38350643252847,-0.0330233747769847,0.2631275833599171
3.514000000000003,0.3760503859639502,-0.0383501196540714,0.2226464166891606
3.5175000000000054,0.3664615470534934,-0.0447432607041266,0.191754088928861
3.521000000000001,0.3398295679973119,-0.0436768645311581,0.152337573101821
3.5245000000000037,0.316393286801532,-0.0458079115478431,0.1214435000122694
3.528000000000006,0.2652586303766022,-0.0426122136874415,0.0777666354811113
3.531500000000001,0.2045368803704674,-0.0511346564249298,0.0383501196540714
3.535000000000004,0.1480754790684509,-0.0596570991624181,0.0095870935812048
3.538499999999999,0.0649838440395048,-0.0724398906040246,-0.0245026773687483
3.5420000000000016,0.0042603487041181,-0.0873537290623162,-0.0543303542853314
3.545500000000004,-0.0745709376207097,-0.1012029166768912,-0.0767019846373948
3.5489999999999995,-0.1299659427497577,-0.1139874534477496,-0.0937468701123714
3.552500000000002,-0.1949497867892626,-0.1278348957330726,-0.1075943123976944
3.5560000000000045,-0.2301042085829324,-0.1320969897664428,-0.1161167551351827
3.5595,-0.2567361876391139,-0.1512729222581045,-0.1161167551351827
3.5630000000000024,-0.2737810731140905,-0.1587289688226243,-0.1182478021518678
3.566500000000005,-0.2684543282370038,-0.1693824585767977,-0.1129210572747811
3.5700000000000003,-0.2556715367953973,-0.1757738542976009,-0.1065296615539778
3.573500000000003,-0.2162550209683574,-0.191754088928861,-0.1001382658331746
3.5770000000000053,-0.1811005991746876,-0.1970790884766957,-0.0980072188164895
3.5805000000000007,-0.1214435000122694,-0.2130593231079557,-0.1033339636935762
3.584000000000003,-0.0681795418999064,-0.2162550209683574,-0.110790010258096
3.5875000000000057,-0.0010646508437165,-0.2215817658454441,-0.1182478021518678
3.591000000000001,0.0490036094082447,-0.2258421145495622,-0.1320969897664428
3.594500000000004,0.1086607085706629,-0.2258421145495622,-0.1480754790684509
3.598000000000006,0.1448797812080492,-0.2215817658454441,-0.1651203645434275
3.601500000000001,0.1768385051413174,-0.2109282760912707,-0.1768385051413174
3.605000000000004,0.1960144376329791,-0.2045368803704674,-0.1949497867892626
3.6085,0.205601531214184,-0.1874919948954908,-0.2162550209683574
3.612000000000002,0.2013411825100658,-0.1747092034538843,-0.2354309534600191
3.615500000000005,0.1864273440517743,-0.1576643179789077,-0.2524758389349957
3.619,0.1725781564371993,-0.1427504795206162,-0.2652586303766022
3.6225000000000014,0.1512729222581045,-0.1235745470289545,-0.2812388650078622
3.6260000000000048,0.1331616406101593,-0.1033339636935762,-0.2908259585890671
3.6295,0.1139874534477496,-0.0862890782185996,-0.3036087500306735
3.6330000000000022,0.0980072188164895,-0.0639174478665363,-0.3057397970473587
3.636500000000005,0.0852244273748831,-0.041545817514473,-0.3078708440640437
3.640000000000001,0.0809623333415129,-0.0245026773687483,-0.3100018910807288
3.643500000000003,0.0756355884644262,-0.0095870935812048,-0.3036087500306735
3.6470000000000056,0.0713752397603081,0.0063913957208032,-0.2993484013265554
3.650500000000001,0.0617864008498512,0.0202405833353782,-0.286565609884949
3.654000000000004,0.0596570991624181,0.0287630260728665,-0.2716500260974054
3.657500000000006,0.0532657034416149,0.041545817514473,-0.247149094057909
3.661000000000002,0.0500682602519613,0.0479389585645282,-0.2269085107225308
3.664500000000004,0.0351544217936697,0.0543303542853314,-0.1981454846496642
3.6679999999999993,0.0266319790561814,0.055395005129048,-0.177904901314286
3.6715000000000018,0.01598023463126,0.0596570991624181,-0.1480754790684509
3.675000000000004,-0.0031956978604016,0.0628527970228197,-0.1225098961852379
3.6785,-0.0181095363186931,0.0660484948832214,-0.096942567972773
3.682000000000002,-0.029827676916583,0.0713752397603081,-0.0745709376207097
3.6855000000000047,-0.0458079115478431,0.0735062867769931,-0.0372854688103548
3.689,-0.055395005129048,0.0777666354811113,-0.0149138384582915
3.6925000000000026,-0.0639174478665363,0.0820287295144815,0.0170448854749766
3.696000000000005,-0.069244192743623,0.0884201252352847,0.0351544217936697
3.699500000000001,-0.0788312863248278,0.0916158230956863,0.0564614013020165
3.703000000000003,-0.0841580312019145,0.0884201252352847,0.0703088435873395
3.7065000000000055,-0.083093380358198,0.0873537290623162,0.083093380358198
3.710000000000001,-0.0820287295144815,0.0873537290623162,0.0916158230956863
3.7135000000000034,-0.0681795418999064,0.083093380358198,0.0990718696602061
3.717000000000006,-0.0596570991624181,0.0873537290623162,0.096942567972773
3.720500000000001,-0.0436768645311581,0.0788312863248278,0.1001382658331746
3.724000000000004,-0.0308940730895516,0.0820287295144815,0.1033339636935762
3.727499999999999,-0.0149138384582915,0.0873537290623162,0.1075943123976944
3.7310000000000016,0.002131047016685,0.0884201252352847,0.1129210572747811
3.734500000000004,0.0170448854749766,0.0905494269227178,0.1182478021518678
3.738,0.0351544217936697,0.0916158230956863,0.1267702448893561
3.741500000000002,0.0543303542853314,0.0884201252352847,0.1427504795206162
3.745000000000005,0.069244192743623,0.0937468701123714,0.1565979218059392
3.7485,0.0926804739394028,0.0916158230956863,0.166186760716396
3.7520000000000016,0.110790010258096,0.0937468701123714,0.1768385051413174
3.755500000000005,0.1289012919060412,0.0990718696602061,0.1853609478788057
3.759,0.1395530363309626,0.1054650107102613,0.1896230419121759
3.762500000000003,0.1534022239455376,0.1086607085706629,0.1938833906162941
3.766000000000005,0.1683160624038291,0.1097253594143795,0.1949497867892626
3.7695000000000007,0.1747092034538843,0.1139874534477496,0.1949497867892626
3.7730000000000032,0.1747092034538843,0.1161167551351827,0.1938833906162941
3.7765000000000057,0.1736428072809158,0.1182478021518678,0.1960144376329791
3.780000000000001,0.1693824585767977,0.1161167551351827,0.1992101354933808
3.783500000000004,0.1555332709622227,0.1171831513081512,0.2034722295267509
3.787000000000006,0.1459461773810178,0.110790010258096,0.2034722295267509
3.7905000000000015,0.1299659427497577,0.1054650107102613,0.2002765316663493
3.794000000000004,0.1182478021518678,0.1012029166768912,0.1970790884766957
3.7975,0.1012029166768912,0.0809623333415129,0.1885583910684593
3.801000000000002,0.0894847760790012,0.0671131457269379,0.177904901314286
3.804500000000005,0.0788312863248278,0.0458079115478431,0.1619246666830259
3.808,0.0713752397603081,0.0319587239332681,0.1470108282247343
3.8115000000000014,0.0660484948832214,0.0053267448770866,0.1203788491685528
3.815000000000005,0.0671131457269379,-0.0117181405978899,0.0958761717998045
3.8185,0.0671131457269379,-0.0308940730895516,0.0639174478665363
3.8220000000000023,0.0671131457269379,-0.0500682602519613,0.0426122136874415
3.825500000000005,0.0681795418999064,-0.0703088435873395,0.0063913957208032
3.8290000000000006,0.0671131457269379,-0.0788312863248278,-0.0255673282124649
3.832500000000003,0.0639174478665363,-0.0884201252352847,-0.0490036094082447
3.8360000000000056,0.055395005129048,-0.0926804739394028,-0.0756355884644262
3.839500000000001,0.0511346564249298,-0.0926804739394028,-0.1033339636935762
3.843000000000004,0.0500682602519613,-0.0937468701123714,-0.1235745470289545
3.846500000000006,0.0458079115478431,-0.0894847760790012,-0.1470108282247343
3.8500000000000014,0.0479389585645282,-0.0852244273748831,-0.1672514115601126
3.853500000000004,0.0468725623915597,-0.0777666354811113,-0.191754088928861
3.8569999999999993,0.0564614013020165,-0.0756355884644262,-0.2087989744038376
3.860500000000002,0.0628527970228197,-0.0703088435873395,-0.233299906443334
3.864000000000004,0.069244192743623,-0.0681795418999064,-0.2524758389349957
3.8675,0.0660484948832214,-0.0575260521457331,-0.2812388650078622
3.871000000000002,0.0639174478665363,-0.0660484948832214,-0.2993484013265554
3.8745000000000047,0.0447432607041266,-0.0639174478665363,-0.3238510786953038
3.878,0.0362208179666383,-0.0639174478665363,-0.3345028231202252
3.8815000000000026,0.0181095363186931,-0.0724398906040246,-0.3451563128743986
3.885000000000005,0.0031956978604016,-0.0756355884644262,-0.3462209637181151
3.888500000000001,-0.0127827914416064,-0.0894847760790012,-0.3483520107348002
3.892000000000003,-0.0223716303520633,-0.0980072188164895,-0.3462209637181151
3.8955000000000055,-0.02769837522915,-0.1086607085706629,-0.3451563128743986
3.899000000000001,-0.0255673282124649,-0.1257055940456395,-0.3451563128743986
3.9025000000000034,-0.0191759324916617,-0.1342280367831279,-0.3430252658577135
3.906000000000006,0.0,-0.1491418752414194,-0.3494166615785167
3.909500000000001,0.0117181405978899,-0.1565979218059392,-0.355809802628572
3.913000000000004,0.0372854688103548,-0.166186760716396,-0.369657244913895
3.916499999999999,0.0585907029894496,-0.1768385051413174,-0.3803107346680683
3.9200000000000017,0.0777666354811113,-0.1874919948954908,-0.397355620143045
3.923500000000004,0.0905494269227178,-0.1928187397725775,-0.4090737607409349
3.927,0.0948115209560879,-0.1928187397725775,-0.4293143440763132
3.930500000000002,0.0958761717998045,-0.1970790884766957,-0.4463592295512898
3.9340000000000046,0.0862890782185996,-0.2034722295267509,-0.4634041150262664
3.9375,0.0735062867769931,-0.2013411825100658,-0.4836446983616446
3.9410000000000025,0.0585907029894496,-0.1970790884766957,-0.503885281697023
3.944500000000005,0.0458079115478431,-0.1928187397725775,-0.517734469311598
3.948,0.0287630260728665,-0.1885583910684593,-0.5358440056302911
3.951500000000003,0.0085224427374883,-0.1811005991746876,-0.5539552872782363
3.955000000000005,-0.0010646508437165,-0.1747092034538843,-0.5646070317031576
3.958500000000001,-0.0085224427374883,-0.1651203645434275,-0.5720648235969293
3.9620000000000033,-0.0181095363186931,-0.1555332709622227,-0.5816519171781342
3.965500000000006,-0.02769837522915,-0.1448797812080492,-0.5827165680218508
3.969000000000001,-0.0468725623915597,-0.1342280367831279,-0.5805872663344177
3.972500000000004,-0.0585907029894496,-0.1320969897664428,-0.5784562193177326
3.975999999999999,-0.0798976824977964,-0.1267702448893561,-0.5731294744406459
3.9795000000000016,-0.0958761717998045,-0.1193124529955843,-0.5624759846864725
3.983000000000004,-0.1235745470289545,-0.1161167551351827,-0.5539552872782363
3.9865,-0.1395530363309626,-0.1129210572747811,-0.5401060996636612
3.990000000000002,-0.1587289688226243,-0.1054650107102613,-0.5156034222949128
3.993500000000005,-0.1789695521580025,-0.1012029166768912,-0.4911024902554164
3.997,-0.1970790884766957,-0.0926804739394028,-0.4591437663221482
4.000500000000002,-0.2087989744038376,-0.0820287295144815,-0.4314453910929982
4.004000000000005,-0.2109282760912707,-0.0724398906040246,-0.3867021303888716
4.0075,-0.2141239739516723,-0.0681795418999064,-0.3643322453660603
4.011000000000003,-0.2098636252475541,-0.0639174478665363,-0.3313071252598236
4.014500000000005,-0.2109282760912707,-0.0585907029894496,-0.3068061932203272
4.018000000000001,-0.1960144376329791,-0.0564614013020165,-0.2833681666952953
4.021500000000003,-0.1896230419121759,-0.0543303542853314,-0.2716500260974054
4.025000000000006,-0.1757738542976009,-0.0458079115478431,-0.2546051406224288
4.028500000000001,-0.1640557136997109,-0.0468725623915597,-0.2492801410745941
4.032000000000004,-0.152337573101821,-0.0468725623915597,-0.2460844432141925
4.035500000000006,-0.1448797812080492,-0.0479389585645282,-0.2428870000245388
4.0390000000000015,-0.136357338470561,-0.0383501196540714,-0.2364956043037356
4.042500000000004,-0.1352926876268444,-0.0330233747769847,-0.2407576983371057
4.045999999999999,-0.1395530363309626,-0.029827676916583,-0.2439533961975074
4.049500000000002,-0.1448797812080492,-0.0255673282124649,-0.2514094427620272
4.053000000000004,-0.150206526085136,-0.0191759324916617,-0.2599318854995155
4.0565,-0.1565979218059392,-0.0234362811957798,-0.2631275833599171
4.060000000000002,-0.1715135055934827,-0.0213052341790947,-0.2705853752536888
4.063500000000005,-0.1789695521580025,-0.0202405833353782,-0.2854992137119804
4.067,-0.1874919948954908,-0.0149138384582915,-0.2908259585890671
4.070500000000003,-0.1928187397725775,-0.01598023463126,-0.2972173543098703
4.074000000000005,-0.2002765316663493,-0.0074577918937717,-0.3089354949077603
4.077500000000001,-0.1981454846496642,-0.013849187614575,-0.3206536355056502
4.081000000000003,-0.2066679273871525,0.0,-0.3281114273994219
4.084500000000006,-0.2098636252475541,0.0031956978604016,-0.3291760782431385
4.088000000000001,-0.2098636252475541,0.01598023463126,-0.3238510786953038
4.091500000000004,-0.2098636252475541,0.0213052341790947,-0.3131975889411305
4.095000000000006,-0.2045368803704674,0.0351544217936697,-0.286565609884949
4.098500000000001,-0.1949497867892626,0.0436768645311581,-0.2663250265495707
4.102000000000004,-0.1747092034538843,0.0607217500061347,-0.2375620004767041
4.105499999999999,-0.1544686201185061,0.0681795418999064,-0.2183860679850424
4.109000000000002,-0.1225098961852379,0.0745709376207097,-0.1864273440517743
4.112500000000004,-0.0958761717998045,0.0809623333415129,-0.1715135055934827
4.116,-0.055395005129048,0.0873537290623162,-0.1491418752414194
4.119500000000002,-0.0266319790561814,0.0873537290623162,-0.1438151303643327
4.123000000000005,0.0117181405978899,0.0937468701123714,-0.1310323389227262
4.1265,0.0351544217936697,0.0958761717998045,-0.1257055940456395
4.130000000000003,0.0628527970228197,0.0958761717998045,-0.1320969897664428
4.133500000000005,0.0841580312019145,0.0980072188164895,-0.138488385487246
4.1370000000000005,0.1001382658331746,0.1033339636935762,-0.1470108282247343
4.140500000000003,0.1118564064310645,0.1033339636935762,-0.1640557136997109
4.1440000000000055,0.1129210572747811,0.1054650107102613,-0.1874919948954908
4.147500000000001,0.1065296615539778,0.1065296615539778,-0.2024058333537824
4.151000000000003,0.0980072188164895,0.1086607085706629,-0.2290395577392158
4.154500000000006,0.0852244273748831,0.1022693128498597,-0.2514094427620272
4.158000000000001,0.0681795418999064,0.1033339636935762,-0.2854992137119804
4.161500000000004,0.055395005129048,0.0958761717998045,-0.3131975889411305
4.164999999999999,0.0372854688103548,0.0958761717998045,-0.3536787556118869
4.168500000000002,0.0213052341790947,0.0884201252352847,-0.3845728287014385
4.172000000000004,0.0106534897541733,0.0798976824977964,-0.4261186462159115
4.1755,-0.002131047016685,0.0788312863248278,-0.4506213235846599
4.179000000000002,-0.0085224427374883,0.0660484948832214,-0.4783179534845579
4.1825000000000045,-0.01598023463126,0.0639174478665363,-0.4964292351325031
4.186,-0.0245026773687483,0.0511346564249298,-0.5187991201553145
4.189500000000002,-0.0319587239332681,0.0404811666707564,-0.5326483077698895
4.193000000000005,-0.0372854688103548,0.0330233747769847,-0.5507578440885826
4.1965,-0.0511346564249298,0.029827676916583,-0.5582156359823544
4.200000000000003,-0.0660484948832214,0.01598023463126,-0.5709984274239609
4.203500000000005,-0.0735062867769931,0.0127827914416064,-0.5752605214573311
4.207000000000001,-0.0894847760790012,0.002131047016685,-0.5795208701614492
4.210500000000003,-0.0937468701123714,-0.002131047016685,-0.5859140112115044
4.214000000000006,-0.1065296615539778,-0.0063913957208032,-0.5859140112115044
4.217500000000001,-0.1129210572747811,-0.0117181405978899,-0.5891097090719061
4.221000000000004,-0.1225098961852379,-0.0117181405978899,-0.5848476150385359
4.224500000000006,-0.1257055940456395,-0.0149138384582915,-0.5848476150385359
4.2280000000000015,-0.1289012919060412,-0.0170448854749766,-0.5763251723010476
4.231500000000004,-0.1299659427497577,-0.01598023463126,-0.5731294744406459
4.234999999999999,-0.1320969897664428,-0.0202405833353782,-0.5741958706136145
4.238500000000002,-0.1310323389227262,-0.0255673282124649,-0.5816519171781342
4.242000000000004,-0.1310323389227262,-0.0319587239332681,-0.5955011047927092
4.2455,-0.1352926876268444,-0.0362208179666383,-0.6093502924072843
4.249000000000002,-0.1395530363309626,-0.0490036094082447,-0.6338512244467807
4.252500000000005,-0.1438151303643327,-0.0607217500061347,-0.6594185526592456
4.256,-0.1480754790684509,-0.0660484948832214,-0.6764634381342222
4.259500000000003,-0.152337573101821,-0.0788312863248278,-0.7084221620674903
4.263000000000005,-0.1470108282247343,-0.0873537290623162,-0.7286627454028686
4.266500000000001,-0.150206526085136,-0.0894847760790012,-0.7648835633695069
4.270000000000003,-0.1544686201185061,-0.0958761717998045,-0.7893844954090034
4.273500000000006,-0.1629910628559944,-0.1033339636935762,-0.8234742663589566
4.277000000000001,-0.1651203645434275,-0.1054650107102613,-0.8447812458673034
4.280500000000004,-0.1725781564371993,-0.110790010258096,-0.8746089227838865
4.284000000000006,-0.1757738542976009,-0.1118564064310645,-0.8969805531359498
4.287500000000001,-0.1874919948954908,-0.1118564064310645,-0.921481485175446
4.291000000000004,-0.2002765316663493,-0.110790010258096,-0.9363953236337376
4.294499999999999,-0.2141239739516723,-0.110790010258096,-0.9598333501587696
4.298000000000002,-0.2183860679850424,-0.110790010258096,-0.9694204437399744
4.301500000000004,-0.2418223491808223,-0.1043986145372928,-0.9853989330419826
4.305,-0.2556715367953973,-0.1065296615539778,-0.9928567249357544
4.308500000000002,-0.2769767709744921,-0.096942567972773,-1.0013791676732426
4.312000000000005,-0.288694911572382,-0.0958761717998045,-1.0013791676732426
4.3155,-0.3057397970473587,-0.0894847760790012,-0.9917920740920376
4.319000000000003,-0.3195889846619337,-0.0820287295144815,-0.9811385843378644
4.322500000000005,-0.3291760782431385,-0.0735062867769931,-0.9619626518462028
4.3260000000000005,-0.3291760782431385,-0.0745709376207097,-0.942788464683793
4.329500000000003,-0.3345028231202252,-0.0703088435873395,-0.9118943915942412
4.3330000000000055,-0.3345028231202252,-0.0649838440395048,-0.889522761242178
4.336500000000001,-0.3270467765557054,-0.0607217500061347,-0.8554329902922247
4.340000000000003,-0.3195889846619337,-0.0521993072686464,-0.8309320582527283
4.343500000000006,-0.3121311927681619,-0.0479389585645282,-0.7936465894423735
4.347000000000001,-0.3089354949077603,-0.0447432607041266,-0.7574257714757352
4.350500000000004,-0.300413052170272,-0.0351544217936697,-0.7158799539612621
4.353999999999999,-0.2929570056057522,-0.0223716303520633,-0.6753987872905056
4.357500000000002,-0.286565609884949,-0.0042603487041181,-0.630655526586379
4.361000000000004,-0.2833681666952953,0.0053267448770866,-0.5944364539489927
4.3645,-0.2844345628682639,0.0234362811957798,-0.547562146228181
4.368000000000002,-0.2812388650078622,0.0383501196540714,-0.5166698184678814
4.371500000000005,-0.2833681666952953,0.0617864008498512,-0.4708619069200382
4.375,-0.286565609884949,0.0724398906040246,-0.4463592295512898
4.3785000000000025,-0.2854992137119804,0.0862890782185996,-0.4165315526347067
4.382000000000005,-0.2876302607286655,0.096942567972773,-0.3898978282492732
4.3855,-0.2876302607286655,0.1033339636935762,-0.3590055004889736
4.389000000000003,-0.288694911572382,0.1118564064310645,-0.3376985209806268
4.392500000000005,-0.2897613077453506,0.1150521042914662,-0.3110665419244454
4.396000000000001,-0.2876302607286655,0.1193124529955843,-0.2908259585890671
4.399500000000003,-0.2844345628682639,0.1214435000122694,-0.2663250265495707
4.403000000000006,-0.2876302607286655,0.1257055940456395,-0.2460844432141925
4.406500000000001,-0.2854992137119804,0.1278348957330726,-0.2151903701246408
4.410000000000004,-0.2844345628682639,0.1267702448893561,-0.1928187397725775
4.413499999999999,-0.2769767709744921,0.1278348957330726,-0.1597953649955928
4.417000000000002,-0.2769767709744921,0.1267702448893561,-0.1331616406101593
4.420500000000004,-0.2812388650078622,0.1278348957330726,-0.1001382658331746
4.424,-0.2769767709744921,0.1289012919060412,-0.0767019846373948
4.427500000000002,-0.2833681666952953,0.1278348957330726,-0.0383501196540714
4.4310000000000045,-0.2727164222703739,0.1299659427497577,-0.013849187614575
4.4345,-0.2652586303766022,0.124639197872671,0.0181095363186931
4.438000000000002,-0.2503447919183106,0.124639197872671,0.0458079115478431
4.441500000000005,-0.2301042085829324,0.1267702448893561,0.0681795418999064
4.445,-0.2034722295267509,0.1267702448893561,0.0916158230956863
4.448500000000003,-0.1757738542976009,0.1225098961852379,0.1129210572747811
4.452000000000005,-0.1480754790684509,0.1193124529955843,0.136357338470561
4.455500000000001,-0.1118564064310645,0.1203788491685528,0.1534022239455376
4.459000000000003,-0.0884201252352847,0.1193124529955843,0.1597953649955928
4.462500000000006,-0.055395005129048,0.1193124529955843,0.1789695521580025
4.466000000000001,-0.0330233747769847,0.1203788491685528,0.1896230419121759
4.469500000000004,-0.0053267448770866,0.1235745470289545,0.1970790884766957
4.473000000000006,0.0106534897541733,0.1235745470289545,0.1992101354933808
4.4765000000000015,0.0330233747769847,0.1225098961852379,0.2024058333537824
4.480000000000004,0.0468725623915597,0.1257055940456395,0.2034722295267509
4.483499999999999,0.0671131457269379,0.1299659427497577,0.1938833906162941
4.487000000000002,0.0820287295144815,0.1299659427497577,0.1821652500184041
4.490500000000004,0.1001382658331746,0.1331616406101593,0.1704471094205142
4.494,0.1171831513081512,0.1342280367831279,0.1534022239455376
4.497500000000002,0.138488385487246,0.1331616406101593,0.138488385487246
4.501000000000005,0.1491418752414194,0.1299659427497577,0.1214435000122694
4.5045,0.1715135055934827,0.1257055940456395,0.1129210572747811
4.508000000000003,0.1789695521580025,0.1171831513081512,0.1054650107102613
4.511500000000005,0.1970790884766957,0.110790010258096,0.0958761717998045
4.515000000000001,0.205601531214184,0.1001382658331746,0.0905494269227178
4.518500000000003,0.2130593231079557,0.0862890782185996,0.083093380358198
4.522000000000006,0.2151903701246408,0.0809623333415129,0.0777666354811113
4.525500000000001,0.2119946722642392,0.069244192743623,0.0628527970228197
4.529000000000004,0.2034722295267509,0.0617864008498512,0.0543303542853314
4.532500000000006,0.1874919948954908,0.0490036094082447,0.0458079115478431
4.536000000000001,0.1683160624038291,0.0404811666707564,0.0383501196540714
4.539500000000004,0.136357338470561,0.0319587239332681,0.0330233747769847
4.542999999999999,0.1075943123976944,0.0255673282124649,0.0308940730895516
4.546500000000002,0.0607217500061347,0.0255673282124649,0.0255673282124649
4.550000000000004,0.0181095363186931,0.0202405833353782,0.0245026773687483
4.5535,-0.0479389585645282,0.0223716303520633,0.0362208179666383
4.557000000000002,-0.1022693128498597,0.0234362811957798,0.0372854688103548
4.560500000000005,-0.180035948330971,0.029827676916583,0.0490036094082447
4.564,-0.2407576983371057,0.0351544217936697,0.0585907029894496
4.567500000000003,-0.3217200316786187,0.0394165158270399,0.0724398906040246
4.571000000000005,-0.3781796876513833,0.0362208179666383,0.0916158230956863
4.5745000000000005,-0.4420988808471717,0.0436768645311581,0.1012029166768912
4.578000000000003,-0.4879067923950148,0.0468725623915597,0.1129210572747811
4.5815000000000055,-0.5347793547865746,0.0490036094082447,0.1139874534477496
4.585000000000001,-0.5571509851386378,0.0500682602519613,0.1139874534477496
4.588500000000003,-0.5678027295635593,0.0575260521457331,0.1129210572747811
4.592000000000006,-0.5731294744406459,0.0660484948832214,0.1086607085706629
4.595500000000001,-0.5582156359823544,0.0703088435873395,0.0980072188164895
4.599000000000004,-0.5422354013510943,0.0767019846373948,0.0873537290623162
4.602499999999999,-0.5070809795574245,0.083093380358198,0.0767019846373948
4.606000000000002,-0.4772533026408414,0.0873537290623162,0.0628527970228197
4.609500000000004,-0.4218582975117934,0.1012029166768912,0.0458079115478431
4.613,-0.3888331774055567,0.1065296615539778,0.0330233747769847
4.616500000000002,-0.3313071252598236,0.1225098961852379,0.0127827914416064
4.6200000000000045,-0.2801724688348938,0.1310323389227262,-0.0117181405978899
4.6235,-0.2354309534600191,0.1374237346435295,-0.0287630260728665
4.627000000000002,-0.1842962970350892,0.1448797812080492,-0.0564614013020165
4.630500000000005,-0.1448797812080492,0.1544686201185061,-0.0777666354811113
4.634,-0.0926804739394028,0.166186760716396,-0.1097253594143795
4.637500000000003,-0.0564614013020165,0.1672514115601126,-0.1310323389227262
4.641000000000005,-0.0117181405978899,0.1811005991746876,-0.166186760716396
4.644500000000001,0.0149138384582915,0.1842962970350892,-0.1885583910684593
4.648000000000003,0.0490036094082447,0.2034722295267509,-0.219450718828759
4.651500000000006,0.0745709376207097,0.2162550209683574,-0.2418223491808223
4.655000000000001,0.0948115209560879,0.2343645572870505,-0.2705853752536888
4.658500000000004,0.1054650107102613,0.2503447919183106,-0.286565609884949
4.662000000000006,0.1118564064310645,0.2684543282370038,-0.302544099186957
4.6655000000000015,0.1139874534477496,0.2791078179911772,-0.3121311927681619
4.669000000000004,0.1129210572747811,0.2897613077453506,-0.3185243338182171
4.672499999999999,0.1075943123976944,0.2950880526224372,-0.3195889846619337
4.676000000000002,0.1022693128498597,0.302544099186957,-0.3259803803827369
4.679500000000004,0.0937468701123714,0.3046751462036421,-0.3227846825223353
4.683,0.0798976824977964,0.3057397970473587,-0.3195889846619337
4.686500000000002,0.0681795418999064,0.3068061932203272,-0.3185243338182171
4.690000000000005,0.0575260521457331,0.3068061932203272,-0.3110665419244454
4.6935,0.0479389585645282,0.300413052170272,-0.3078708440640437
4.697000000000003,0.0340897709499532,0.3014794483432405,-0.2993484013265554
4.700500000000005,0.0245026773687483,0.2993484013265554,-0.286565609884949
4.704000000000001,0.0085224427374883,0.288694911572382,-0.2684543282370038
4.707500000000003,-0.0010646508437165,0.2854992137119804,-0.2567361876391139
4.711000000000006,-0.0095870935812048,0.274847469287059,-0.2311688594266489
4.714500000000001,-0.013849187614575,0.2631275833599171,-0.2173214171413259
4.718000000000004,-0.0170448854749766,0.2482137449016255,-0.1970790884766957
4.721500000000006,-0.0117181405978899,0.2364956043037356,-0.1842962970350892
4.725000000000001,-0.002131047016685,0.219450718828759,-0.1725781564371993
4.728500000000004,0.0106534897541733,0.2034722295267509,-0.1651203645434275
4.731999999999999,0.0319587239332681,0.1757738542976009,-0.152337573101821
4.735500000000002,0.0468725623915597,0.1544686201185061,-0.1480754790684509
4.739000000000004,0.0724398906040246,0.1235745470289545,-0.138488385487246
4.7425,0.0926804739394028,0.0990718696602061,-0.1416840833476476
4.746000000000002,0.1161167551351827,0.0639174478665363,-0.1416840833476476
4.749500000000005,0.1289012919060412,0.0351544217936697,-0.1470108282247343
4.753,0.1512729222581045,0.0,-0.1448797812080492
4.756500000000003,0.1651203645434275,-0.029827676916583,-0.1555332709622227
4.760000000000005,0.1789695521580025,-0.0703088435873395,-0.1534022239455376
4.7635000000000005,0.1885583910684593,-0.096942567972773,-0.1576643179789077
4.767000000000003,0.2034722295267509,-0.1278348957330726,-0.1640557136997109
4.7705000000000055,0.2109282760912707,-0.1534022239455376,-0.1651203645434275
4.774000000000001,0.2183860679850424,-0.1811005991746876,-0.1693824585767977
4.777500000000003,0.2247774637058457,-0.2045368803704674,-0.1768385051413174
4.781000000000006,0.2343645572870505,-0.2290395577392158,-0.1864273440517743
4.784500000000001,0.2407576983371057,-0.2482137449016255,-0.1928187397725775
4.788000000000004,0.2503447919183106,-0.274847469287059,-0.2045368803704674
4.791499999999999,0.2567361876391139,-0.286565609884949,-0.2130593231079557
4.795000000000002,0.2556715367953973,-0.302544099186957,-0.2226464166891606
4.798500000000004,0.2556715367953973,-0.314262239784847,-0.2279731615662473
4.802,0.2482137449016255,-0.3302424744161071,-0.2407576983371057
4.805500000000002,0.233299906443334,-0.3355692192931938,-0.2418223491808223
4.809000000000005,0.2130593231079557,-0.341960615013997,-0.2439533961975074
4.8125,0.1853609478788057,-0.3376985209806268,-0.2492801410745941
4.8160000000000025,0.1544686201185061,-0.3323735214327921,-0.2407576983371057
4.819500000000005,0.124639197872671,-0.3270467765557054,-0.2407576983371057
4.823,0.0926804739394028,-0.3131975889411305,-0.2290395577392158
4.826500000000003,0.0649838440395048,-0.302544099186957,-0.2173214171413259
4.830000000000005,0.0372854688103548,-0.2854992137119804,-0.2002765316663493
4.833500000000001,0.0213052341790947,-0.2705853752536888,-0.180035948330971
4.837000000000003,0.0063913957208032,-0.2503447919183106,-0.1651203645434275
4.840500000000006,-0.0042603487041181,-0.2396913021641372,-0.152337573101821
4.844000000000001,-0.0095870935812048,-0.2162550209683574,-0.1342280367831279
4.847500000000004,-0.0181095363186931,-0.1949497867892626,-0.1299659427497577
4.850999999999999,-0.02769837522915,-0.1768385051413174,-0.1193124529955843
4.854500000000002,-0.0340897709499532,-0.1544686201185061,-0.1065296615539778
4.858000000000004,-0.0426122136874415,-0.1331616406101593,-0.1001382658331746
4.8615,-0.0500682602519613,-0.1161167551351827,-0.0958761717998045
4.865000000000002,-0.0564614013020165,-0.0905494269227178,-0.0852244273748831
4.8685000000000045,-0.0639174478665363,-0.069244192743623,-0.0809623333415129
4.872,-0.0628527970228197,-0.0468725623915597,-0.0756355884644262
4.875500000000002,-0.0596570991624181,-0.0340897709499532,-0.0628527970228197
4.879000000000005,-0.0436768645311581,-0.0117181405978899,-0.0564614013020165
4.8825,-0.0287630260728665,-0.0053267448770866,-0.0500682602519613
4.886000000000003,0.0,0.002131047016685,-0.0468725623915597
4.889500000000005,0.02769837522915,0.0074577918937717,-0.0447432607041266
4.893000000000001,0.0585907029894496,0.013849187614575,-0.0490036094082447
4.896500000000003,0.0916158230956863,0.0191759324916617,-0.0511346564249298
4.900000000000006,0.1289012919060412,0.0223716303520633,-0.0532657034416149
4.903500000000001,0.1576643179789077,0.0255673282124649,-0.0532657034416149
4.907000000000004,0.1896230419121759,0.0266319790561814,-0.0490036094082447
4.910500000000006,0.2130593231079557,0.0266319790561814,-0.041545817514473
4.9140000000000015,0.2311688594266489,0.0319587239332681,-0.0255673282124649
4.917500000000004,0.2407576983371057,0.0287630260728665,-0.01598023463126
4.920999999999999,0.2439533961975074,0.0287630260728665,0.002131047016685
4.924500000000002,0.2407576983371057,0.0340897709499532,0.0127827914416064
4.928000000000004,0.2279731615662473,0.0308940730895516,0.0372854688103548
4.9315,0.2173214171413259,0.0266319790561814,0.0596570991624181
4.935000000000002,0.2024058333537824,0.029827676916583,0.0894847760790012
4.938500000000005,0.1938833906162941,0.0245026773687483,0.1171831513081512
4.942,0.1768385051413174,0.0223716303520633,0.1416840833476476
4.945500000000003,0.1704471094205142,0.0223716303520633,0.166186760716396
4.949000000000005,0.1651203645434275,0.0223716303520633,0.1896230419121759
4.952500000000001,0.1651203645434275,0.0191759324916617,0.2034722295267509
4.956000000000003,0.1651203645434275,0.0234362811957798,0.2173214171413259
4.959500000000006,0.1629910628559944,0.0287630260728665,0.2301042085829324
4.963000000000001,0.1587289688226243,0.0340897709499532,0.247149094057909
4.966500000000004,0.1629910628559944,0.0383501196540714,0.2599318854995155
4.970000000000006,0.1565979218059392,0.0468725623915597,0.2769767709744921
4.973500000000001,0.1534022239455376,0.0500682602519613,0.2854992137119804
4.977000000000004,0.1438151303643327,0.0564614013020165,0.2950880526224372
4.980499999999999,0.1225098961852379,0.0607217500061347,0.2982837504828389
4.984000000000002,0.1054650107102613,0.069244192743623,0.2972173543098703
4.987500000000004,0.0756355884644262,0.0671131457269379,0.2940216564494687
4.991,0.0479389585645282,0.0703088435873395,0.2876302607286655
4.994500000000002,0.0106534897541733,0.0745709376207097,0.2791078179911772
4.998000000000005,-0.0202405833353782,0.0788312863248278,0.2716500260974054
5.0015,-0.069244192743623,0.0841580312019145,0.2620629325162006
5.005000000000003,-0.1054650107102613,0.0905494269227178,0.2599318854995155
5.008500000000005,-0.150206526085136,0.096942567972773,0.2546051406224288
5.0120000000000005,-0.177904901314286,0.0990718696602061,0.2535404897787122
5.015500000000003,-0.2109282760912707,0.1022693128498597,0.2599318854995155
5.0190000000000055,-0.2279731615662473,0.1097253594143795,0.2620629325162006
5.022500000000001,-0.2354309534600191,0.1139874534477496,0.2695207244099723
5.026000000000003,-0.2343645572870505,0.1171831513081512,0.2705853752536888
5.029500000000006,-0.2215817658454441,0.1161167551351827,0.2673896773932873
5.033000000000001,-0.2109282760912707,0.110790010258096,0.2578025838120824
5.036500000000004,-0.191754088928861,0.1203788491685528,0.2492801410745941
5.039999999999999,-0.1832316461913727,0.1203788491685528,0.2407576983371057
5.043500000000002,-0.1715135055934827,0.1193124529955843,0.2364956043037356
5.047000000000004,-0.1651203645434275,0.1257055940456395,0.2354309534600191
5.0505,-0.1629910628559944,0.1171831513081512,0.2386266513204207
5.054000000000002,-0.1629910628559944,0.1171831513081512,0.2492801410745941
5.0575000000000045,-0.1693824585767977,0.1118564064310645,0.2567361876391139
5.061,-0.1725781564371993,0.1043986145372928,0.2673896773932873
5.064500000000002,-0.1768385051413174,0.0937468701123714,0.2759121201307756
5.068000000000005,-0.1811005991746876,0.0820287295144815,0.2791078179911772
5.0715,-0.1821652500184041,0.0756355884644262,0.2801724688348938
5.075000000000003,-0.1811005991746876,0.0649838440395048,0.274847469287059
5.078500000000005,-0.1821652500184041,0.0479389585645282,0.2705853752536888
5.082000000000001,-0.1811005991746876,0.0319587239332681,0.2652586303766022
5.085500000000003,-0.1874919948954908,0.0127827914416064,0.2620629325162006
5.089000000000006,-0.1906876927558924,-0.0042603487041181,0.260998281672484
5.092500000000001,-0.1928187397725775,-0.0223716303520633,0.2663250265495707
5.096000000000004,-0.1896230419121759,-0.0447432607041266,0.2652586303766022
5.099499999999999,-0.1811005991746876,-0.0681795418999064,0.274847469287059
5.1030000000000015,-0.1651203645434275,-0.0905494269227178,0.2791078179911772
5.106500000000004,-0.1406194325039311,-0.1203788491685528,0.2823035158515788
5.109999999999999,-0.1097253594143795,-0.1438151303643327,0.2812388650078622
5.113500000000002,-0.069244192743623,-0.1736428072809158,0.2854992137119804
5.117000000000004,-0.02769837522915,-0.1906876927558924,0.2844345628682639
5.1205,0.013849187614575,-0.2130593231079557,0.2791078179911772
5.124000000000002,0.0490036094082447,-0.2279731615662473,0.2769767709744921
5.127500000000005,0.0905494269227178,-0.2418223491808223,0.2705853752536888
5.131,0.1139874534477496,-0.2514094427620272,0.2705853752536888
5.134500000000003,0.1416840833476476,-0.2578025838120824,0.2641939795328856
5.138000000000005,0.152337573101821,-0.2620629325162006,0.2620629325162006
5.141500000000001,0.1672514115601126,-0.2663250265495707,0.258867234655799
5.145000000000003,0.1725781564371993,-0.2673896773932873,0.258867234655799
5.148500000000006,0.1811005991746876,-0.258867234655799,0.258867234655799
5.152000000000001,0.1864273440517743,-0.2535404897787122,0.260998281672484
5.155500000000004,0.1960144376329791,-0.2354309534600191,0.2546051406224288
5.159000000000006,0.2002765316663493,-0.2226464166891606,0.247149094057909
5.162500000000001,0.2077325782308691,-0.2024058333537824,0.2354309534600191
5.166000000000004,0.2119946722642392,-0.1885583910684593,0.2258421145495622
5.169499999999999,0.2087989744038376,-0.1693824585767977,0.2077325782308691
5.173000000000002,0.1981454846496642,-0.150206526085136,0.1960144376329791
5.176500000000004,0.1757738542976009,-0.1203788491685528,0.1789695521580025
5.18,0.1555332709622227,-0.0980072188164895,0.166186760716396
5.183500000000002,0.1182478021518678,-0.0649838440395048,0.166186760716396
5.187000000000005,0.0873537290623162,-0.0426122136874415,0.1672514115601126
5.1905,0.0383501196540714,-0.013849187614575,0.1821652500184041
5.194000000000003,0.0042603487041181,0.0117181405978899,0.1896230419121759
5.197500000000005,-0.0330233747769847,0.0447432607041266,0.2077325782308691
5.2010000000000005,-0.0607217500061347,0.0617864008498512,0.2215817658454441
5.204500000000003,-0.0958761717998045,0.083093380358198,0.2386266513204207
5.2080000000000055,-0.1129210572747811,0.0948115209560879,0.2556715367953973
5.211500000000001,-0.1257055940456395,0.1097253594143795,0.2940216564494687
5.215000000000003,-0.1299659427497577,0.1161167551351827,0.3291760782431385
5.218500000000006,-0.1225098961852379,0.1193124529955843,0.3856374795451551
5.222000000000001,-0.1075943123976944,0.1139874534477496,0.4325100419367148
5.225500000000004,-0.0713752397603081,0.1022693128498597,0.5017542346803379
5.228999999999999,-0.0330233747769847,0.0905494269227178,0.5550199381219528
5.232500000000002,0.0362208179666383,0.0671131457269379,0.6157416881280875
5.236000000000004,0.0958761717998045,0.041545817514473,0.6530271569384424
5.2395,0.1832316461913727,0.0106534897541733,0.6913772765925138
5.243000000000002,0.258867234655799,-0.0117181405978899,0.7073575112237738
5.246500000000005,0.3515477085952018,-0.0511346564249298,0.7244023966987505
5.25,0.4271832970596281,-0.0798976824977964,0.725467047542467
5.2535000000000025,0.5145387714511963,-0.1161167551351827,0.727598094559152
5.257000000000005,0.5731294744406459,-0.1448797812080492,0.7307937924195538
5.2605,0.6391779693238674,-0.1747092034538843,0.7212066988383489
5.264000000000003,0.6817901830113089,-0.2034722295267509,0.7073575112237738
5.267500000000005,0.7148135577882937,-0.2290395577392158,0.6785944851509074
5.271000000000001,0.7307937924195538,-0.2450180470412239,0.6508961099217573
5.274500000000003,0.7190756518216638,-0.2599318854995155,0.6104149432510009
5.278000000000006,0.6956393706258839,-0.2716500260974054,0.5709984274239609
5.281500000000001,0.6466357612176391,-0.2791078179911772,0.5283879590657713
5.285000000000004,0.5955011047927092,-0.2823035158515788,0.4974938859762197
5.288499999999999,0.5102766774178261,-0.2854992137119804,0.4612730680095813
5.292000000000002,0.4399678338304866,-0.2801724688348938,0.4346410889533998
5.295500000000004,0.3483520107348002,-0.2769767709744921,0.4080091098972184
5.299,0.2791078179911772,-0.2652586303766022,0.3920288752659583
5.302500000000002,0.1970790884766957,-0.2556715367953973,0.3771150368076668
5.3060000000000045,0.1395530363309626,-0.2492801410745941,0.3707236410868635
5.3095,0.0788312863248278,-0.2322352555996175,0.3664615470534934
5.313000000000002,0.0394165158270399,-0.2279731615662473,0.3717882919305801
5.316500000000005,0.0053267448770866,-0.2141239739516723,0.38350643252847
5.32,-0.0085224427374883,-0.2024058333537824,0.4026823650201317
5.323500000000003,-0.0181095363186931,-0.1938833906162941,0.4314453910929982
5.327000000000005,-0.0266319790561814,-0.1874919948954908,0.4634041150262664
5.330500000000001,-0.0127827914416064,-0.1747092034538843,0.5017542346803379
5.334000000000003,-0.0042603487041181,-0.1629910628559944,0.5273215628928027
5.337500000000006,0.0223716303520633,-0.1395530363309626,0.5603466829990394
5.341000000000001,0.0617864008498512,-0.1171831513081512,0.5944364539489927
5.344500000000004,0.0916158230956863,-0.0948115209560879,0.6210684330051742
5.348000000000006,0.1416840833476476,-0.0628527970228197,0.6572875056425604
5.3515000000000015,0.1885583910684593,-0.0394165158270399,0.6849858808717105
5.355000000000004,0.2514094427620272,-0.0031956978604016,0.7073575112237738
5.358499999999999,0.300413052170272,0.0245026773687483,0.7222713496820654
5.362000000000002,0.3632658491930918,0.0607217500061347,0.727598094559152
5.365500000000004,0.4048134120368167,0.0884201252352847,0.7265316983861836
5.369,0.452750625272093,0.1214435000122694,0.7180110009779472
5.372500000000002,0.4793843496575265,0.1438151303643327,0.697768672313317
5.376000000000005,0.4974938859762197,0.166186760716396,0.6711366932571355
5.3795,0.4974938859762197,0.1842962970350892,0.6466357612176391
5.383000000000003,0.4900360940824479,0.2013411825100658,0.6072192453905992
5.386500000000005,0.4697955107470696,0.219450718828759,0.5720648235969293
5.390000000000001,0.4314453910929982,0.2311688594266489,0.533712958613606
5.393500000000003,0.3994866671597301,0.2407576983371057,0.4985585368199362
5.397000000000006,0.3494166615785167,0.2460844432141925,0.4516859744283765
5.400500000000001,0.314262239784847,0.2492801410745941,0.4207919013388249
5.404000000000004,0.2684543282370038,0.2450180470412239,0.3845728287014385
5.407500000000006,0.2407576983371057,0.2460844432141925,0.3632658491930918
5.411000000000001,0.2130593231079557,0.2343645572870505,0.3217200316786187
5.414500000000004,0.2034722295267509,0.2269085107225308,0.2982837504828389
5.417999999999999,0.1949497867892626,0.2109282760912707,0.2716500260974054
5.421500000000002,0.1949497867892626,0.1970790884766957,0.2482137449016255
5.425000000000004,0.1960144376329791,0.1747092034538843,0.2237128128621291
5.4285,0.2002765316663493,0.1608600158393093,0.2162550209683574
5.432000000000002,0.2066679273871525,0.1395530363309626,0.2034722295267509
5.435500000000005,0.2034722295267509,0.1225098961852379,0.2066679273871525
5.439,0.1949497867892626,0.1012029166768912,0.2141239739516723
5.442500000000003,0.1832316461913727,0.0884201252352847,0.2205171150017275
5.446000000000005,0.1597953649955928,0.069244192743623,0.2301042085829324
5.4495000000000005,0.136357338470561,0.0585907029894496,0.2407576983371057
5.453000000000003,0.1001382658331746,0.041545817514473,0.2492801410745941
5.4565000000000055,0.0649838440395048,0.02769837522915,0.2546051406224288
5.460000000000001,0.0234362811957798,0.0127827914416064,0.258867234655799
5.463500000000003,-0.0063913957208032,0.0010646508437165,0.2631275833599171
5.467000000000006,-0.0490036094082447,-0.0085224427374883,0.2663250265495707
5.470500000000001,-0.0809623333415129,-0.01598023463126,0.2716500260974054
5.474000000000004,-0.1118564064310645,-0.0234362811957798,0.2780431671474606
5.477499999999999,-0.1331616406101593,-0.0266319790561814,0.2854992137119804
5.481000000000002,-0.1459461773810178,-0.0330233747769847,0.2961527034661538
5.484500000000004,-0.152337573101821,-0.0319587239332681,0.3078708440640437
5.488,-0.1512729222581045,-0.0330233747769847,0.316393286801532
5.491500000000002,-0.1395530363309626,-0.0340897709499532,0.3270467765557054
5.4950000000000045,-0.1161167551351827,-0.0372854688103548,0.3313071252598236
5.4985,-0.0862890782185996,-0.0351544217936697,0.3334381722765087
5.502000000000002,-0.0490036094082447,-0.0319587239332681,0.3227846825223353
5.505500000000005,-0.013849187614575,-0.02769837522915,0.316393286801532
5.509,0.01598023463126,-0.0202405833353782,0.2993484013265554
5.512500000000003,0.0383501196540714,-0.0095870935812048,0.2769767709744921
5.516000000000005,0.0521993072686464,0.0053267448770866,0.2556715367953973
5.519500000000001,0.055395005129048,0.0149138384582915,0.2428870000245388
5.523000000000003,0.0479389585645282,0.0266319790561814,0.2258421145495622
5.526500000000006,0.0330233747769847,0.0351544217936697,0.2162550209683574
5.530000000000001,0.0053267448770866,0.0394165158270399,0.2119946722642392
5.533500000000004,-0.0170448854749766,0.0447432607041266,0.2130593231079557
5.536999999999999,-0.0468725623915597,0.0436768645311581,0.2205171150017275
5.5405000000000015,-0.0671131457269379,0.041545817514473,0.2311688594266489
5.544000000000004,-0.0884201252352847,0.0426122136874415,0.2460844432141925
5.547499999999999,-0.1033339636935762,0.0394165158270399,0.258867234655799
5.551000000000002,-0.110790010258096,0.0319587239332681,0.2791078179911772
5.554500000000004,-0.1129210572747811,0.0287630260728665,0.2972173543098703
5.558,-0.1097253594143795,0.0287630260728665,0.3270467765557054
5.561500000000002,-0.1033339636935762,0.02769837522915,0.3515477085952018
5.565000000000005,-0.0980072188164895,0.0287630260728665,0.3898978282492732
5.5685,-0.0841580312019145,0.0319587239332681,0.4218582975117934
5.572000000000003,-0.0788312863248278,0.0308940730895516,0.4591437663221482
5.575500000000005,-0.0628527970228197,0.0340897709499532,0.4942981881158181
5.579000000000001,-0.0468725623915597,0.0308940730895516,0.5251905158761178
5.582500000000003,-0.0245026773687483,0.0319587239332681,0.5379750526469761
5.586000000000006,-0.0063913957208032,0.0330233747769847,0.5571509851386378
5.589500000000001,0.0074577918937717,0.0362208179666383,0.5571509851386378
