time,Gyr_X,Gyr_Y,Gyr_Z
0.0,2.6097799078158957e-19,0.002131047016685,-0.0042603487041181
0.0035000000000025,0.0042603487041181,0.0042603487041181,-0.0031956978604016
0.0069999999999978,0.0031956978604016,0.002131047016685,-0.0053267448770866
0.0105000000000003,-0.0010646508437165,0.0053267448770866,-0.0042603487041181
0.0140000000000028,0.0042603487041181,-5.217422403749877e-19,-0.0031956978604016
0.0174999999999982,0.0042603487041181,0.0031956978604016,-0.0010646508437165
0.0210000000000007,0.0031956978604016,0.002131047016685,-0.0053267448770866
0.0244999999999961,0.002131047016685,0.0031956978604016,-0.002131047016685
0.0279999999999986,0.0053267448770866,-6.523381063598781e-19,-0.0063913957208032
0.0315000000000011,0.002131047016685,0.0031956978604016,-0.0053267448770866
0.0349999999999965,0.0031956978604016,-3.913601155782886e-19,-0.0042603487041181
0.038499999999999,0.0053267448770866,0.0031956978604016,-0.0042603487041181
0.0420000000000015,0.0031956978604016,0.0010646508437165,-0.0031956978604016
0.0454999999999969,0.002131047016685,0.0010646508437165,-0.0042603487041181
0.0489999999999994,0.0063913957208032,-7.827202311565772e-19,-0.0063913957208032
0.0525000000000019,0.0031956978604016,0.002131047016685,-0.0053267448770866
0.0559999999999973,0.0042603487041181,0.0010646508437165,-0.0042603487041181
0.0594999999999998,0.002131047016685,0.0031956978604016,0.0
0.0630000000000023,0.0010646508437165,0.0042603487041181,-0.0053267448770866
0.0664999999999977,0.0042603487041181,0.0042603487041181,-0.002131047016685
0.0700000000000002,0.002131047016685,0.0042603487041181,-0.0063913957208032
0.0735000000000027,0.0042603487041181,0.0010646508437165,-0.002131047016685
0.0769999999999981,0.0010646508437165,0.002131047016685,-0.0063913957208032
0.0805000000000006,0.0031956978604016,0.0010646508437165,-0.0031956978604016
0.0840000000000031,0.0042603487041181,-5.217422403749877e-19,-0.0031956978604016
0.0874999999999985,0.0010646508437165,0.0031956978604016,-0.0031956978604016
0.091000000000001,0.002131047016685,0.0010646508437165,-0.0042603487041181
0.0944999999999964,0.0053267448770866,0.0042603487041181,-0.002131047016685
0.0979999999999989,0.0031956978604016,-3.913601155782886e-19,-0.0031956978604016
0.1015000000000014,0.0042603487041181,0.002131047016685,-0.0063913957208032
0.1049999999999968,0.0031956978604016,0.002131047016685,-0.0053267448770866
0.1084999999999993,0.0053267448770866,0.0031956978604016,-0.0063913957208032
0.1120000000000018,0.002131047016685,0.002131047016685,-0.0042603487041181
0.1154999999999972,0.0042603487041181,0.0031956978604016,-0.0042603487041181
0.1189999999999997,0.0042603487041181,0.0031956978604016,-0.002131047016685
0.1225000000000022,0.0010646508437165,0.0010646508437165,-0.002131047016685
0.1259999999999976,0.0031956978604016,0.002131047016685,-0.0031956978604016
0.1295000000000001,0.0053267448770866,0.002131047016685,-0.002131047016685
0.1330000000000026,0.0053267448770866,0.0010646508437165,-0.0031956978604016
0.136499999999998,0.0031956978604016,0.002131047016685,-0.002131047016685
0.1400000000000005,0.0042603487041181,0.0010646508437165,-0.0053267448770866
0.143500000000003,2.6097799078158957e-19,0.002131047016685,-0.0042603487041181
0.1469999999999984,0.0031956978604016,0.002131047016685,-0.002131047016685
0.1505000000000009,0.0031956978604016,0.0053267448770866,-0.002131047016685
0.1539999999999963,0.0031956978604016,0.0031956978604016,-0.002131047016685
0.1574999999999988,0.0085224427374883,0.0010646508437165,-0.0031956978604016
0.1610000000000013,3.913601155782886e-19,0.0031956978604016,-0.0074577918937717
0.1644999999999967,0.0031956978604016,0.0031956978604016,-0.0074577918937717
0.1679999999999992,0.0031956978604016,0.0010646508437165,-0.0031956978604016
0.1715000000000017,0.0031956978604016,0.002131047016685,-0.0053267448770866
0.1749999999999971,0.0042603487041181,0.0031956978604016,-0.0042603487041181
0.1784999999999996,0.0031956978604016,0.0031956978604016,-0.0042603487041181
0.1820000000000021,0.0053267448770866,0.002131047016685,-0.0031956978604016
0.1854999999999975,0.0042603487041181,0.002131047016685,-0.0042603487041181
0.189,0.0053267448770866,0.002131047016685,-0.002131047016685
0.1925000000000025,0.0031956978604016,0.0010646508437165,-0.0074577918937717
0.1959999999999979,0.0053267448770866,0.0010646508437165,-0.0010646508437165
0.1995000000000004,0.0031956978604016,0.002131047016685,-0.0053267448770866
0.2030000000000029,0.002131047016685,0.0010646508437165,-0.0031956978604016
0.2064999999999983,0.0042603487041181,0.0031956978604016,-0.0074577918937717
0.2100000000000008,0.002131047016685,0.0010646508437165,-0.0042603487041181
0.2134999999999962,0.002131047016685,0.0010646508437165,-0.0010646508437165
0.2169999999999987,0.0053267448770866,-6.523381063598781e-19,-0.0031956978604016
0.2205000000000012,0.0010646508437165,0.0053267448770866,-0.0053267448770866
0.2239999999999966,0.0031956978604016,0.0010646508437165,-0.0042603487041181
0.2274999999999991,0.0010646508437165,0.0010646508437165,-0.0053267448770866
0.2310000000000016,0.0074577918937717,0.002131047016685,-0.0031956978604016
0.234499999999997,0.0031956978604016,0.0010646508437165,-0.002131047016685
0.2379999999999995,0.0010646508437165,0.0042603487041181,-0.0031956978604016
0.241500000000002,0.0042603487041181,0.0010646508437165,-0.002131047016685
0.2449999999999974,0.0042603487041181,0.0031956978604016,-0.0053267448770866
0.2484999999999999,0.0042603487041181,0.0031956978604016,-0.0010646508437165
0.2520000000000024,0.0063913957208032,-7.827202311565772e-19,-0.0053267448770866
0.2554999999999978,0.0053267448770866,0.002131047016685,-0.0053267448770866
0.2590000000000003,0.0031956978604016,0.002131047016685,-0.0042603487041181
0.2625000000000028,0.0053267448770866,-6.523381063598781e-19,-0.0042603487041181
0.2659999999999982,0.0042603487041181,0.002131047016685,-0.0042603487041181
0.2695000000000007,0.002131047016685,0.0031956978604016,-0.0053267448770866
0.2730000000000032,0.0053267448770866,0.0031956978604016,-0.0053267448770866
0.2764999999999986,0.0042603487041181,0.0042603487041181,-0.002131047016685
0.2800000000000011,0.0053267448770866,0.002131047016685,-0.002131047016685
0.2834999999999965,3.913601155782886e-19,0.0031956978604016,-0.0031956978604016
0.286999999999999,0.002131047016685,0.002131047016685,-0.0085224427374883
0.2905000000000015,-0.0,0.0,-0.0053267448770866
0.2939999999999969,0.0042603487041181,0.0010646508437165,-0.0053267448770866
0.2974999999999994,0.0042603487041181,0.0042603487041181,-0.0063913957208032
0.3010000000000019,0.0074577918937717,-9.133160971414677e-19,-0.002131047016685
0.3044999999999973,0.002131047016685,0.0042603487041181,-0.0031956978604016
0.3079999999999998,0.002131047016685,0.0010646508437165,-0.0031956978604016
0.3115000000000023,0.0053267448770866,-6.523381063598781e-19,-0.0053267448770866
0.3149999999999977,0.0010646508437165,0.0053267448770866,-0.0053267448770866
0.3185000000000002,0.0010646508437165,-1.3038212479669908e-19,-0.0053267448770866
0.3220000000000027,0.0031956978604016,0.002131047016685,-0.0031956978604016
0.3254999999999981,0.0053267448770866,-0.0010646508437165,0.0
0.3290000000000006,5.217422403749877e-19,0.0042603487041181,-0.0042603487041181
0.3325000000000031,0.0063913957208032,-7.827202311565772e-19,-0.0042603487041181
0.3359999999999985,0.0042603487041181,0.0010646508437165,-0.0042603487041181
0.339500000000001,2.6097799078158957e-19,0.002131047016685,-0.0063913957208032
0.3429999999999964,0.0042603487041181,0.0031956978604016,-0.0053267448770866
0.3464999999999989,0.0063913957208032,-7.827202311565772e-19,-0.0042603487041181
0.3500000000000014,0.0031956978604016,0.002131047016685,-0.0053267448770866
0.3534999999999968,0.002131047016685,0.002131047016685,-0.0042603487041181
0.3569999999999993,0.0031956978604016,-3.913601155782886e-19,-0.0010646508437165
0.3605000000000018,5.217422403749877e-19,0.0042603487041181,-0.0010646508437165
0.3639999999999972,0.0063913957208032,-7.827202311565772e-19,-0.0053267448770866
0.3674999999999997,0.002131047016685,-0.0042603487041181,-0.0031956978604016
0.3710000000000022,-1.8264184530947443e-18,-0.0149138384582915,-0.0053267448770866
0.3744999999999976,0.0042603487041181,-0.0245026773687483,-0.0063913957208032
0.3780000000000001,0.013849187614575,-0.0245026773687483,-0.0042603487041181
0.3815000000000026,0.0181095363186931,-0.0170448854749766,-0.0042603487041181
0.384999999999998,0.0127827914416064,-0.0085224427374883,-0.0042603487041181
0.3885000000000005,0.0106534897541733,-1.3046762127197565e-18,-0.0074577918937717
0.392000000000003,0.0053267448770866,0.0053267448770866,-0.0074577918937717
0.3954999999999984,0.0117181405978899,0.0095870935812048,-0.0053267448770866
0.3990000000000009,0.0106534897541733,0.0095870935812048,-0.0031956978604016
0.4024999999999963,0.0127827914416064,0.013849187614575,-0.0074577918937717
0.4059999999999988,0.0010646508437165,0.0095870935812048,-0.0063913957208032
0.4095000000000013,-0.0085224427374883,0.0095870935812048,-0.0063913957208032
0.4129999999999967,-0.0127827914416064,0.013849187614575,-0.0063913957208032
0.4164999999999992,-0.0063913957208032,0.0170448854749766,-0.0053267448770866
0.4200000000000017,1.9570143190796347e-18,0.01598023463126,-0.0085224427374883
0.4234999999999971,0.0031956978604016,0.0095870935812048,-0.0042603487041181
0.4269999999999996,0.0031956978604016,0.0106534897541733,-0.0010646508437165
0.4305000000000021,0.0053267448770866,0.002131047016685,-0.0010646508437165
0.4339999999999975,-5.217422403749877e-19,-0.0042603487041181,-0.0031956978604016
0.4375,0.0063913957208032,-0.0074577918937717,-0.0042603487041181
0.4410000000000025,0.0127827914416064,-0.013849187614575,-0.0053267448770866
0.4444999999999979,0.0127827914416064,-0.01598023463126,-0.0053267448770866
0.4480000000000004,0.0106534897541733,-0.01598023463126,-0.0042603487041181
0.4515000000000029,0.0117181405978899,-0.0127827914416064,-0.0031956978604016
0.4549999999999983,0.0127827914416064,-0.0063913957208032,-0.0042603487041181
0.4585000000000008,0.0106534897541733,-0.0031956978604016,-0.0031956978604016
0.4619999999999962,0.0074577918937717,-9.133160971414677e-19,-0.002131047016685
0.4654999999999987,0.0095870935812048,0.002131047016685,0.002131047016685
0.4690000000000012,0.0074577918937717,-0.0074577918937717,-0.002131047016685
0.4724999999999966,0.0074577918937717,-0.0063913957208032,-0.0031956978604016
0.4759999999999991,0.0106534897541733,-0.0010646508437165,-0.0063913957208032
0.4795000000000016,0.01598023463126,-1.9570143190796347e-18,-0.0042603487041181
0.482999999999997,0.0191759324916617,0.013849187614575,-0.0095870935812048
0.4864999999999995,0.0234362811957798,0.029827676916583,-0.0085224427374883
0.490000000000002,0.0308940730895516,0.0447432607041266,-0.002131047016685
0.4934999999999974,0.0319587239332681,0.0500682602519613,-0.002131047016685
0.4969999999999999,0.041545817514473,0.0490036094082447,-0.0010646508437165
0.5005000000000024,0.0404811666707564,0.041545817514473,0.0
0.5039999999999978,0.0340897709499532,0.0319587239332681,0.0
0.5075000000000003,0.0330233747769847,0.0308940730895516,0.0010646508437165
0.5110000000000028,0.0383501196540714,0.0266319790561814,0.0042603487041181
0.5144999999999982,0.0468725623915597,0.0255673282124649,0.0
0.5180000000000007,0.0607217500061347,0.0149138384582915,-0.0053267448770866
0.5215000000000032,0.069244192743623,0.0191759324916616,-0.0106534897541733
0.5249999999999986,0.0649838440395048,0.0223716303520633,-0.0063913957208032
0.5285000000000011,0.0543303542853314,0.0266319790561814,-0.0085224427374883
0.5319999999999965,0.0394165158270399,0.0266319790561814,-0.0053267448770866
0.535499999999999,0.0340897709499532,0.0223716303520633,-0.0085224427374883
0.5390000000000015,0.0394165158270399,0.02769837522915,-0.0063913957208032
0.5424999999999969,0.0426122136874415,0.029827676916583,-0.0053267448770866
0.5459999999999994,0.041545817514473,0.0245026773687483,-0.002131047016685
0.5495000000000019,0.0426122136874415,0.0213052341790947,0.0010646508437165
0.5529999999999973,0.0426122136874415,0.0181095363186931,0.0053267448770866
0.5564999999999998,0.0362208179666383,0.0117181405978899,0.0
0.5600000000000023,0.0394165158270399,-4.8271309941125444e-18,-0.0010646508437165
0.5634999999999977,0.0383501196540714,-0.0074577918937717,0.0
0.5670000000000002,0.0468725623915597,-0.0213052341790947,-0.0010646508437165
0.5705000000000027,0.0564614013020165,-0.0245026773687483,0.0
0.5739999999999981,0.069244192743623,-0.0223716303520633,0.0
0.5775000000000006,0.0767019846373948,-0.0213052341790947,0.0010646508437165
0.5810000000000031,0.0884201252352847,-0.0170448854749766,0.0031956978604016
0.5844999999999985,0.0905494269227178,-0.0170448854749766,0.0
0.588000000000001,0.1001382658331746,-0.0170448854749766,0.0063913957208032
0.5914999999999964,0.1001382658331746,-0.013849187614575,0.0042603487041181
0.5949999999999989,0.1054650107102613,-0.0095870935812048,0.0063913957208032
0.5985000000000014,0.0937468701123714,-0.0117181405978899,0.0
0.6019999999999968,0.0937468701123714,-0.0245026773687484,0.0010646508437165
0.6054999999999993,0.0873537290623162,-0.0340897709499532,-0.0010646508437165
0.6090000000000018,0.083093380358198,-0.0404811666707564,-0.002131047016685
0.6124999999999972,0.0884201252352847,-0.041545817514473,-0.0031956978604016
0.6159999999999997,0.0937468701123714,-0.0426122136874415,0.0
0.6195000000000022,0.0894847760790012,-0.0362208179666383,0.0031956978604016
0.6229999999999976,0.0767019846373948,-0.0213052341790947,0.0042603487041181
0.6265000000000001,0.0639174478665363,-0.0106534897541733,0.002131047016685
0.6300000000000026,0.041545817514473,-5.0878952437059424e-18,0.0031956978604016
0.633499999999998,0.0181095363186931,0.0095870935812048,0.002131047016685
0.6370000000000005,-0.002131047016685,0.0213052341790947,0.0
0.640500000000003,-0.0255673282124649,0.0319587239332681,0.0010646508437165
0.6439999999999984,-0.0447432607041266,0.0372854688103548,-0.0074577918937717
0.6475000000000009,-0.0735062867769931,0.0479389585645282,-0.0074577918937717
0.6509999999999962,-0.083093380358198,0.0543303542853314,-0.0053267448770866
0.6544999999999987,-0.0884201252352847,0.0543303542853314,-0.002131047016685
0.6580000000000013,-0.0745709376207097,0.0490036094082447,-0.0053267448770866
0.6614999999999966,-0.0639174478665363,0.0394165158270399,0.0
0.6649999999999991,-0.0468725623915597,0.0298276769165831,-0.0031956978604016
0.6685000000000016,-0.0394165158270399,0.0170448854749766,-0.0053267448770866
0.671999999999997,-0.0330233747769847,0.0095870935812048,-0.0095870935812048
0.6754999999999995,-0.0255673282124649,0.0053267448770866,-0.0095870935812048
0.679000000000002,-0.01598023463126,0.0063913957208032,-0.0117181405978899
0.6824999999999974,-0.0031956978604016,0.0255673282124649,-0.013849187614575
0.6859999999999999,0.002131047016685,0.041545817514473,-0.013849187614575
0.6895000000000024,0.0063913957208032,0.069244192743623,-0.0127827914416064
0.6929999999999978,0.0010646508437165,0.0841580312019145,-0.0053267448770866
0.6965000000000003,-0.0010646508437165,0.096942567972773,-0.002131047016685
0.7000000000000028,-0.0074577918937717,0.1054650107102613,0.0053267448770866
0.7034999999999982,-0.0095870935812048,0.1043986145372928,0.0117181405978899
0.7070000000000007,-0.0117181405978899,0.0980072188164895,0.0213052341790947
0.7105000000000032,-0.0117181405978899,0.0990718696602061,0.0319587239332681
0.7139999999999986,-0.0031956978604016,0.096942567972773,0.0404811666707564
0.7175000000000011,0.0010646508437165,0.1001382658331746,0.0394165158270399
0.7209999999999965,0.0074577918937717,0.1043986145372928,0.0351544217936697
0.724499999999999,0.0245026773687484,0.1129210572747811,0.0266319790561814
0.7280000000000015,0.0404811666707564,0.1214435000122694,0.0202405833353782
0.7314999999999969,0.0511346564249298,0.138488385487246,0.0127827914416064
0.7349999999999994,0.0511346564249298,0.150206526085136,0.0074577918937717
0.7385000000000019,0.0362208179666383,0.1672514115601126,0.0053267448770866
0.7419999999999973,0.0298276769165831,0.1693824585767977,0.013849187614575
0.7454999999999998,0.0458079115478431,0.1470108282247343,0.0106534897541733
0.7490000000000023,0.0458079115478431,0.1352926876268444,0.0053267448770866
0.7524999999999977,0.041545817514473,0.1139874534477496,0.0053267448770866
0.7560000000000002,0.0319587239332681,0.1182478021518678,0.0053267448770866
0.7595000000000027,0.0085224427374883,0.1150521042914662,-0.002131047016685
0.7629999999999981,-0.0213052341790947,0.1193124529955843,0.0
0.7665000000000006,-0.055395005129048,0.1299659427497577,0.0053267448770866
0.7700000000000031,-0.0585907029894496,0.1331616406101593,0.0031956978604016
0.7734999999999985,-0.0468725623915597,0.138488385487246,0.0053267448770866
0.777000000000001,-0.0426122136874415,0.1416840833476476,0.0127827914416064
0.7804999999999964,-0.0319587239332681,0.136357338470561,0.0202405833353782
0.7839999999999989,-0.0223716303520633,0.1310323389227262,0.0213052341790947
0.7875000000000014,0.0053267448770867,0.1299659427497577,0.0181095363186931
0.7909999999999968,0.0287630260728665,0.1331616406101593,0.013849187614575
0.7944999999999993,0.0639174478665363,0.1438151303643327,0.0170448854749766
0.7980000000000018,0.0809623333415129,0.1629910628559944,0.0127827914416064
0.8014999999999972,0.1001382658331746,0.1864273440517743,0.0085224427374883
0.8049999999999997,0.1129210572747811,0.1992101354933808,0.0106534897541733
0.8085000000000022,0.122509896185238,0.2098636252475541,0.013849187614575
0.8119999999999976,0.1257055940456396,0.2141239739516723,0.0255673282124649
0.8155000000000001,0.1171831513081513,0.1949497867892626,0.029827676916583
0.8190000000000026,0.0990718696602061,0.1725781564371993,0.0245026773687483
0.822499999999998,0.0543303542853314,0.1406194325039311,0.0181095363186931
0.8260000000000005,0.0170448854749766,0.1257055940456395,0.0127827914416064
0.829500000000003,-0.0234362811957798,0.1139874534477496,0.002131047016685
0.8329999999999984,-0.0372854688103548,0.1182478021518678,-0.0031956978604016
0.8365000000000009,-0.0404811666707564,0.1235745470289545,-0.0053267448770866
0.8399999999999963,-0.0404811666707564,0.1352926876268444,-0.013849187614575
0.8434999999999988,-0.041545817514473,0.1555332709622227,-0.0170448854749766
0.8470000000000013,-0.0458079115478431,0.1608600158393093,-0.01598023463126
0.8504999999999967,-0.0543303542853314,0.1555332709622227,-0.0255673282124649
0.8539999999999992,-0.0596570991624181,0.152337573101821,-0.0287630260728665
0.8575000000000017,-0.0607217500061346,0.1470108282247343,-0.029827676916583
0.8609999999999971,-0.055395005129048,0.1438151303643327,-0.0266319790561814
0.8644999999999996,-0.0490036094082447,0.1512729222581045,-0.02769837522915
0.8680000000000021,-0.0394165158270399,0.1619246666830259,-0.0223716303520633
0.8714999999999975,-0.0308940730895516,0.1725781564371993,-0.0234362811957798
0.875,-0.0340897709499532,0.1864273440517743,-0.0181095363186931
0.8785000000000025,-0.043676864531158,0.1949497867892626,-0.0127827914416064
0.8819999999999979,-0.0511346564249298,0.2066679273871525,-0.0106534897541733
0.8855000000000004,-0.0649838440395048,0.2162550209683574,-0.0085224427374883
0.8890000000000029,-0.0735062867769931,0.2258421145495622,-0.002131047016685
0.8924999999999983,-0.0809623333415129,0.2407576983371057,0.0031956978604016
0.8960000000000008,-0.0767019846373947,0.2450180470412239,0.0149138384582915
0.8994999999999962,-0.0660484948832213,0.247149094057909,0.0287630260728665
0.9029999999999988,-0.0458079115478431,0.2482137449016255,0.0351544217936697
0.9065000000000012,-0.0191759324916616,0.2354309534600191,0.0436768645311581
0.9099999999999966,2.8310020375939005e-17,0.2311688594266489,0.0458079115478431
0.9134999999999992,0.0255673282124649,0.2226464166891606,0.0479389585645282
0.9170000000000016,0.041545817514473,0.2173214171413259,0.0511346564249298
0.920499999999997,0.0543303542853315,0.2087989744038376,0.0458079115478431
0.9239999999999996,0.0660484948832214,0.1992101354933808,0.0372854688103548
0.927500000000002,0.0596570991624181,0.1928187397725775,0.0266319790561814
0.9309999999999974,0.0426122136874415,0.1853609478788057,0.013849187614575
0.9345,0.0095870935812048,0.177904901314286,-0.0042603487041181
0.9380000000000024,2.165647092873172e-17,0.1768385051413174,-0.0127827914416064
0.9414999999999978,0.0063913957208032,0.1811005991746876,-0.0042603487041181
0.9450000000000004,0.0063913957208032,0.1821652500184041,0.0
0.9485000000000028,-0.0095870935812048,0.1885583910684593,-0.0095870935812048
0.9519999999999982,-0.041545817514473,0.1906876927558924,-0.0191759324916617
0.9555000000000008,-0.069244192743623,0.1874919948954908,-0.0191759324916617
0.9590000000000032,-0.0862890782185996,0.180035948330971,-0.0255673282124649
0.9624999999999986,-0.0916158230956863,0.1629910628559944,-0.029827676916583
0.9660000000000012,-0.0884201252352847,0.1576643179789077,-0.0202405833353782
0.9694999999999964,-0.0639174478665363,0.1470108282247343,-0.0010646508437165
0.972999999999999,-0.0458079115478431,0.1448797812080492,0.0031956978604016
0.9765000000000016,-0.0031956978604015,0.1534022239455376,0.0106534897541733
0.9799999999999968,0.0266319790561814,0.1587289688226243,0.0149138384582915
0.9834999999999994,0.0671131457269379,0.177904901314286,0.0106534897541733
0.987000000000002,0.0820287295144815,0.1885583910684593,0.0106534897541733
0.9904999999999972,0.0745709376207097,0.191754088928861,0.0074577918937717
0.9939999999999998,0.0628527970228198,0.1960144376329791,0.0074577918937717
0.9975000000000024,0.0575260521457331,0.1960144376329791,0.0063913957208032
1.0009999999999977,0.0585907029894496,0.2002765316663493,0.013849187614575
1.0045000000000002,0.0639174478665363,0.1981454846496642,0.0117181405978899
1.008000000000003,0.069244192743623,0.1896230419121759,0.0085224427374883
1.011499999999998,0.083093380358198,0.1704471094205142,0.0074577918937717
1.0150000000000006,0.0958761717998045,0.1491418752414194,0.0095870935812048
1.018500000000003,0.1278348957330727,0.1235745470289545,0.0117181405978899
1.0219999999999985,0.1512729222581045,0.1065296615539778,0.0127827914416064
1.025500000000001,0.1715135055934827,0.0809623333415129,0.0074577918937717
1.0289999999999964,0.1949497867892626,0.0617864008498512,-0.002131047016685
1.0324999999999989,0.2301042085829324,0.0468725623915596,-0.0117181405978899
1.0360000000000014,0.2567361876391139,0.0383501196540713,-0.0170448854749766
1.0394999999999968,0.300413052170272,0.0266319790561814,-0.01598023463126
1.0429999999999993,0.3206536355056502,0.0213052341790947,-0.0191759324916617
1.0465000000000018,0.3323735214327921,0.0127827914416064,-0.0202405833353782
1.0499999999999972,0.3430252658577135,0.0117181405978898,-0.0223716303520633
1.0534999999999997,0.3366338701369103,0.01598023463126,-0.0245026773687483
1.0570000000000022,0.3259803803827369,0.0138491876145749,-0.0245026773687483
1.0604999999999976,0.2982837504828389,0.0266319790561814,-0.0266319790561814
1.064,0.274847469287059,0.0276983752291499,-0.0191759324916617
1.0675000000000026,0.2343645572870505,0.043676864531158,-0.01598023463126
1.070999999999998,0.2087989744038376,0.0564614013020165,-0.0031956978604016
1.0745000000000005,0.1619246666830259,0.0820287295144815,0.0010646508437165
1.078000000000003,0.1299659427497577,0.1086607085706629,0.0031956978604016
1.0814999999999984,0.0841580312019145,0.1406194325039311,0.0127827914416064
1.0850000000000009,0.0490036094082448,0.166186760716396,0.0223716303520633
1.0884999999999962,0.0106534897541734,0.1874919948954908,0.0319587239332681
1.0919999999999987,-0.0106534897541733,0.2013411825100658,0.0362208179666383
1.0955000000000013,-0.0362208179666382,0.2151903701246408,0.0351544217936697
1.0989999999999966,-0.0479389585645282,0.2237128128621291,0.0383501196540714
1.1024999999999991,-0.0607217500061346,0.2279731615662473,0.0330233747769847
1.1060000000000016,-0.0681795418999064,0.2258421145495622,0.0330233747769847
1.109499999999997,-0.0788312863248278,0.2183860679850424,0.0287630260728665
1.1129999999999995,-0.085224427374883,0.2119946722642392,0.0266319790561814
1.116500000000002,-0.0894847760790012,0.1970790884766957,0.0213052341790947
1.1199999999999974,-0.0916158230956863,0.1874919948954908,0.0149138384582915
1.1235,-0.085224427374883,0.1715135055934827,0.013849187614575
1.1270000000000024,-0.0713752397603081,0.1619246666830259,0.0031956978604016
1.1304999999999978,-0.0532657034416149,0.1576643179789077,-0.002131047016685
1.1340000000000003,-0.0319587239332681,0.1534022239455376,0.0010646508437165
1.1375000000000028,-0.0095870935812048,0.1534022239455376,0.0074577918937717
1.1409999999999982,0.0042603487041181,0.1512729222581045,0.0031956978604016
1.1445000000000007,0.0170448854749766,0.1480754790684509,0.013849187614575
1.1480000000000032,0.0255673282124649,0.1480754790684509,0.0149138384582915
1.1514999999999986,0.0383501196540714,0.1480754790684509,0.0117181405978899
1.1550000000000011,0.0458079115478431,0.150206526085136,0.0117181405978899
1.1584999999999963,0.055395005129048,0.1544686201185061,0.0191759324916617
1.161999999999999,0.0617864008498512,0.1640557136997109,0.0213052341790947
1.1655000000000015,0.069244192743623,0.1715135055934827,0.0330233747769847
1.168999999999997,0.0735062867769932,0.1747092034538843,0.0436768645311581
1.1724999999999994,0.0798976824977964,0.1757738542976009,0.055395005129048
1.176000000000002,0.0841580312019146,0.1821652500184041,0.055395005129048
1.179499999999997,0.0894847760790013,0.1821652500184041,0.0479389585645282
1.1829999999999998,0.0948115209560879,0.1811005991746876,0.0468725623915597
1.1865000000000023,0.1065296615539779,0.1811005991746876,0.0500682602519613
1.1899999999999975,0.1193124529955843,0.1672514115601125,0.0532657034416149
1.1935000000000002,0.1448797812080493,0.1534022239455376,0.0532657034416149
1.1970000000000027,0.1597953649955928,0.1363573384705609,0.055395005129048
1.200499999999998,0.1896230419121759,0.1139874534477496,0.0521993072686464
1.2040000000000006,0.2034722295267509,0.0873537290623161,0.0511346564249298
1.2075000000000031,0.2301042085829324,0.0564614013020165,0.0479389585645282
1.2109999999999983,0.2407576983371057,0.0287630260728665,0.0394165158270399
1.214500000000001,0.258867234655799,-3.17020930325351e-17,0.0223716303520633
1.2179999999999964,0.2727164222703739,-0.0202405833353782,0.002131047016685
1.221499999999999,0.2929570056057522,-0.041545817514473,-0.0074577918937717
1.2250000000000014,0.3110665419244454,-0.0521993072686464,-0.0170448854749766
1.2284999999999968,0.3046751462036421,-0.0852244273748831,-0.0191759324916617
1.231999999999999,0.2535404897787122,-0.1182478021518678,-0.0330233747769847
1.2355000000000018,0.1725781564371993,-0.1619246666830259,-0.0639174478665363
1.2389999999999972,0.1097253594143794,-0.191754088928861,-0.0756355884644262
1.2424999999999995,0.0202405833353782,-0.2269085107225308,-0.0990718696602061
1.2460000000000022,-0.0394165158270399,-0.2460844432141925,-0.1150521042914662
1.2494999999999976,-0.1150521042914662,-0.2705853752536888,-0.1352926876268444
1.253,-0.1619246666830259,-0.2737810731140905,-0.152337573101821
1.2565000000000026,-0.2258421145495623,-0.2769767709744921,-0.1768385051413174
1.259999999999998,-0.2705853752536889,-0.2737810731140904,-0.1938833906162941
1.2635000000000003,-0.3195889846619337,-0.2641939795328856,-0.2141239739516723
1.267000000000003,-0.3526141047681704,-0.2514094427620271,-0.2279731615662473
1.2704999999999984,-0.3909642244222419,-0.2301042085829323,-0.2396913021641372
1.274000000000001,-0.4080091098972184,-0.2109282760912706,-0.2492801410745941
1.2774999999999963,-0.425053995372195,-0.1768385051413174,-0.2535404897787122
1.2809999999999988,-0.4335764381096833,-0.1555332709622226,-0.2599318854995155
1.2845000000000013,-0.4346410889533998,-0.1427504795206161,-0.2631275833599171
1.2879999999999967,-0.4303807402492817,-0.1374237346435294,-0.2663250265495707
1.2914999999999992,-0.4133358547743051,-0.1342280367831278,-0.2716500260974054
1.2950000000000017,-0.3898978282492732,-0.1342280367831278,-0.274847469287059
1.298499999999997,-0.355809802628572,-0.1448797812080492,-0.2769767709744921
1.3019999999999996,-0.3217200316786187,-0.1459461773810178,-0.2769767709744921
1.305500000000002,-0.2684543282370038,-0.152337573101821,-0.274847469287059
1.3089999999999975,-0.2279731615662473,-0.1512729222581045,-0.2716500260974054
1.3125,-0.1651203645434275,-0.1619246666830258,-0.2641939795328856
1.3160000000000025,-0.1203788491685529,-0.1544686201185061,-0.2556715367953973
1.319499999999998,-0.0639174478665363,-0.1544686201185061,-0.2407576983371057
1.3230000000000004,-0.0170448854749766,-0.1470108282247343,-0.2301042085829324
1.326500000000003,0.0308940730895516,-0.136357338470561,-0.2141239739516723
1.3299999999999983,0.0639174478665363,-0.1203788491685529,-0.2066679273871525
1.3335000000000008,0.1033339636935762,-0.1012029166768912,-0.1938833906162941
1.3369999999999962,0.1278348957330726,-0.0735062867769932,-0.1811005991746876
1.3404999999999987,0.150206526085136,-0.0308940730895516,-0.1683160624038291
1.3440000000000012,0.1715135055934827,0.0042603487041181,-0.1587289688226243
1.3474999999999966,0.1938833906162941,0.0660484948832213,-0.150206526085136
1.350999999999999,0.2119946722642392,0.110790010258096,-0.1438151303643327
1.3545000000000016,0.2311688594266489,0.1747092034538843,-0.1427504795206162
1.357999999999997,0.247149094057909,0.2237128128621291,-0.1459461773810178
1.3614999999999997,0.2673896773932873,0.2950880526224372,-0.152337573101821
1.365000000000002,0.286565609884949,0.3408942188410284,-0.1597953649955928
1.3684999999999974,0.3089354949077603,0.3898978282492732,-0.1715135055934827
1.372,0.3249157295390204,0.4250539953721949,-0.1768385051413174
1.3755000000000024,0.3408942188410285,0.4591437663221482,-0.1970790884766957
1.3789999999999978,0.3494166615785168,0.4687308599033531,-0.2130593231079557
1.3825000000000005,0.3568744534722886,0.4697955107470696,-0.2269085107225308
1.3860000000000028,0.3547434064556035,0.4570127193054631,-0.2290395577392158
1.3894999999999982,0.3494166615785168,0.4367721359700849,-0.2311688594266489
1.393000000000001,0.339829567997312,0.41120480775762,-0.2269085107225308
1.3965000000000032,0.3302424744161071,0.3803107346680683,-0.2183860679850424
1.3999999999999986,0.3142622397848471,0.3536787556118868,-0.2141239739516723
1.403500000000001,0.2950880526224373,0.3185243338182171,-0.1992101354933808
1.4069999999999965,0.2791078179911772,0.2854992137119804,-0.1874919948954908
1.410499999999999,0.2535404897787123,0.2492801410745941,-0.1768385051413174
1.4140000000000017,0.2322352555996175,0.2183860679850424,-0.1672514115601126
1.4174999999999969,0.2002765316663493,0.1864273440517742,-0.1491418752414194
1.4209999999999994,0.1715135055934828,0.1640557136997109,-0.136357338470561
1.424500000000002,0.1320969897664428,0.1395530363309625,-0.1182478021518678
1.4279999999999973,0.0948115209560879,0.124639197872671,-0.1022693128498597
1.4314999999999998,0.0426122136874415,0.1086607085706629,-0.0884201252352847
1.4350000000000025,-0.0074577918937717,0.1022693128498597,-0.0798976824977964
1.4384999999999977,-0.0873537290623161,0.0862890782185996,-0.0735062867769931
1.4420000000000002,-0.1459461773810178,0.0735062867769932,-0.0681795418999064
1.445500000000003,-0.2237128128621291,0.0521993072686464,-0.0585907029894496
1.448999999999998,-0.286565609884949,0.0298276769165831,-0.0511346564249298
1.4525000000000006,-0.3600701513326901,0.0031956978604016,-0.0490036094082447
1.456000000000003,-0.41120480775762,-0.0170448854749765,-0.0458079115478431
1.4594999999999985,-0.4665998128866681,-0.0404811666707564,-0.0500682602519613
1.463000000000001,-0.4953628389595346,-0.0585907029894495,-0.0532657034416149
1.4664999999999964,-0.5294526099094878,-0.0830933803581979,-0.0543303542853314
1.4699999999999989,-0.5390397034906926,-0.0969425679727729,-0.0521993072686464
1.4735000000000014,-0.5401060996636612,-0.1193124529955843,-0.0532657034416149
1.4769999999999968,-0.5262569120490862,-0.1352926876268443,-0.055395005129048
1.4804999999999993,-0.4996249329929048,-0.1544686201185061,-0.0532657034416149
1.4840000000000018,-0.4697955107470696,-0.1629910628559943,-0.055395005129048
1.4874999999999972,-0.425053995372195,-0.1779049013142859,-0.0660484948832214
1.4909999999999997,-0.3845728287014385,-0.1896230419121758,-0.0649838440395048
1.4945000000000022,-0.3291760782431385,-0.1906876927558924,-0.0617864008498512
1.4979999999999976,-0.2833681666952953,-0.1906876927558924,-0.0607217500061347
1.5015,-0.2226464166891606,-0.1885583910684593,-0.0511346564249298
1.5050000000000026,-0.1768385051413175,-0.1789695521580025,-0.0447432607041266
1.508499999999998,-0.1203788491685529,-0.1629910628559944,-0.0287630260728665
1.5120000000000005,-0.0777666354811113,-0.1427504795206162,-0.0106534897541733
1.515500000000003,-0.0266319790561814,-0.1075943123976944,0.0053267448770866
1.5189999999999984,0.0095870935812048,-0.0735062867769931,0.0223716303520633
1.5225000000000009,0.0479389585645282,-0.0255673282124649,0.041545817514473
1.5259999999999962,0.0703088435873395,0.0095870935812048,0.0607217500061347
1.5294999999999987,0.0990718696602061,0.0479389585645282,0.0798976824977964
1.5330000000000013,0.1150521042914662,0.0713752397603081,0.0948115209560879
1.5364999999999966,0.1278348957330726,0.0937468701123714,0.1022693128498597
1.5399999999999991,0.1299659427497577,0.0990718696602061,0.1086607085706629
1.5435000000000016,0.1342280367831279,0.1043986145372928,0.1075943123976944
1.546999999999997,0.1278348957330726,0.1065296615539778,0.1022693128498597
1.5504999999999995,0.1171831513081513,0.1022693128498597,0.0926804739394028
1.554000000000002,0.1001382658331746,0.0958761717998044,0.0873537290623162
1.5574999999999974,0.0703088435873395,0.0905494269227178,0.0820287295144815
1.561,0.0436768645311581,0.0788312863248278,0.0798976824977964
1.5645000000000024,0.0074577918937717,0.0767019846373948,0.0862890782185996
1.5679999999999978,-0.0138491876145749,0.0777666354811113,0.0884201252352847
1.5715000000000003,-0.0479389585645282,0.0767019846373948,0.0980072188164895
1.5750000000000028,-0.057526052145733,0.0798976824977964,0.1043986145372928
1.5784999999999982,-0.0713752397603081,0.0756355884644262,0.1161167551351827
1.5820000000000007,-0.0660484948832214,0.0735062867769932,0.124639197872671
1.585499999999996,-0.0521993072686464,0.0703088435873395,0.136357338470561
1.5889999999999986,-0.0308940730895516,0.069244192743623,0.1406194325039311
1.5925000000000011,0.0127827914416064,0.0660484948832214,0.1427504795206162
1.5959999999999963,0.0511346564249298,0.0639174478665363,0.138488385487246
1.599499999999999,0.1139874534477496,0.0671131457269379,0.1320969897664428
1.6030000000000015,0.1587289688226243,0.0724398906040246,0.1225098961852379
1.606499999999997,0.2183860679850424,0.085224427374883,0.1118564064310645
1.6099999999999994,0.2567361876391139,0.1001382658331746,0.1001382658331746
1.613500000000002,0.2918906094327836,0.1161167551351827,0.0852244273748831
1.616999999999997,0.3100018910807288,0.1257055940456395,0.0788312863248278
1.6204999999999998,0.316393286801532,0.1363573384705609,0.0671131457269379
1.6240000000000023,0.3185243338182171,0.1374237346435295,0.0617864008498512
1.6274999999999975,0.2918906094327836,0.1342280367831278,0.0564614013020165
1.6310000000000002,0.2705853752536888,0.1289012919060412,0.0532657034416149
1.6345000000000027,0.2279731615662473,0.1235745470289545,0.0447432607041266
1.637999999999998,0.1906876927558924,0.1150521042914661,0.0372854688103548
1.6415000000000006,0.138488385487246,0.1012029166768911,0.02769837522915
1.6450000000000031,0.096942567972773,0.0916158230956863,0.0245026773687483
1.6484999999999983,0.0426122136874415,0.069244192743623,0.0127827914416064
1.652000000000001,0.0063913957208032,0.055395005129048,0.0042603487041181
1.6554999999999964,-0.0394165158270399,0.0351544217936697,-0.0031956978604016
1.658999999999999,-0.0660484948832214,0.0149138384582915,-0.0117181405978899
1.6625000000000014,-0.1001382658331746,-0.0042603487041181,-0.0213052341790947
1.6659999999999968,-0.1203788491685528,-0.0095870935812048,-0.0266319790561814
1.669499999999999,-0.1406194325039311,-0.0170448854749766,-0.0330233747769847
1.6730000000000018,-0.1438151303643327,-0.0181095363186931,-0.0308940730895516
1.6764999999999972,-0.1459461773810178,-0.0149138384582915,-0.0266319790561814
1.6799999999999995,-0.138488385487246,-0.0117181405978899,-0.0149138384582915
1.6835000000000022,-0.1150521042914662,-0.0042603487041181,-0.0117181405978899
1.6869999999999976,-0.0958761717998045,0.002131047016685,-0.0074577918937717
1.6905,-0.0649838440395048,0.0095870935812048,-0.0042603487041181
1.6940000000000026,-0.0447432607041266,0.0085224427374883,0.0
1.697499999999998,-0.0213052341790947,0.0010646508437165,0.0074577918937717
1.7010000000000003,-0.0063913957208032,-0.0117181405978899,0.0191759324916617
1.704500000000003,0.0053267448770866,-0.0362208179666383,0.0319587239332681
1.7079999999999984,0.0149138384582915,-0.0585907029894496,0.0458079115478431
1.711500000000001,0.0202405833353782,-0.0894847760790012,0.0649838440395048
1.7149999999999963,0.0213052341790947,-0.1171831513081512,0.0884201252352847
1.7184999999999988,0.0202405833353782,-0.1672514115601126,0.1161167551351827
1.7220000000000013,0.0213052341790947,-0.2098636252475541,0.136357338470561
1.7254999999999967,0.0191759324916616,-0.2727164222703739,0.1619246666830259
1.7289999999999992,0.0138491876145749,-0.3206536355056502,0.1821652500184041
1.7325000000000017,0.0127827914416064,-0.3877685265618402,0.205601531214184
1.735999999999997,0.0138491876145749,-0.4420988808471717,0.2183860679850424
1.7394999999999996,0.0031956978604015,-0.5230612141886847,0.2237128128621291
1.743000000000002,-0.0053267448770867,-0.5859140112115044,0.2247774637058457
1.7464999999999975,-0.0266319790561815,-0.6668763445530174,0.2290395577392158
1.75,-0.0458079115478432,-0.7307937924195538,0.233299906443334
1.7535000000000025,-0.0862890782185997,-0.8000379851631767,0.2343645572870505
1.756999999999998,-0.1193124529955844,-0.8469105475547365,0.2301042085829324
1.7605000000000004,-0.1693824585767978,-0.8948495061192646,0.2258421145495622
1.764000000000003,-0.2109282760912708,-0.9150900894546428,0.2226464166891606
1.7674999999999983,-0.2823035158515789,-0.9140254386109264,0.2109282760912707
1.7710000000000008,-0.3323735214327922,-0.8991098548233829,0.2034722295267509
1.7744999999999962,-0.4026823650201318,-0.8564993864651933,0.1896230419121759
1.7779999999999987,-0.4548816722887782,-0.8106914749173499,0.1821652500184041
1.7815000000000012,-0.5230612141886848,-0.7435765838611601,0.1704471094205142
1.7849999999999966,-0.573129474440646,-0.6796591359946238,0.1672514115601126
1.788499999999999,-0.6306555265863791,-0.5986968026531108,0.1565979218059392
1.7920000000000016,-0.6668763445530175,-0.5315836569261728,0.1491418752414194
1.795499999999997,-0.7105532090841755,-0.441032484674203,0.1342280367831279
1.7989999999999997,-0.7339894902799553,-0.37178829193058,0.1235745470289545
1.802500000000002,-0.767014610386192,-0.2812388650078621,0.1118564064310645
1.8059999999999972,-0.7819284488444836,-0.2119946722642391,0.1065296615539778
1.8095,-0.7979069381464917,-0.1374237346435294,0.1043986145372928
1.8130000000000024,-0.7947112402860901,-0.0809623333415128,0.1086607085706629
1.8164999999999976,-0.7797974018277984,-0.0170448854749765,0.1150521042914662
1.8200000000000005,-0.7552947244590501,0.0276983752291501,0.1289012919060412
1.8235000000000028,-0.6988350684862855,0.0735062867769932,0.1512729222581045
1.8269999999999984,-0.6413090163405525,0.1001382658331747,0.1715135055934827
1.830500000000001,-0.5422354013510943,0.1320969897664428,0.2066679273871525
1.8340000000000032,-0.4548816722887781,0.1470108282247344,0.2311688594266489
1.8374999999999984,-0.3174579376452486,0.1565979218059392,0.2620629325162006
1.841000000000001,-0.2066679273871525,0.1608600158393094,0.2854992137119804
1.8444999999999965,-0.0500682602519613,0.1597953649955928,0.314262239784847
1.847999999999999,0.0756355884644262,0.150206526085136,0.3227846825223353
1.8515000000000013,0.2301042085829324,0.1352926876268444,0.3345028231202252
1.8549999999999969,0.3483520107348002,0.124639197872671,0.341960615013997
1.8584999999999996,0.4793843496575265,0.1043986145372927,0.3440916620306821
1.8620000000000017,0.5699337765802444,0.0894847760790012,0.3440916620306821
1.8654999999999973,0.6647452975363323,0.0671131457269378,0.341960615013997
1.869,0.7105532090841755,0.0543303542853313,0.3408942188410284
1.8725000000000025,0.7627525163528219,0.0447432607041265,0.341960615013997
1.8759999999999977,0.7712749590903102,0.0415458175144729,0.341960615013997
1.8795,0.7627525163528219,0.0394165158270398,0.3398295679973119
1.883000000000003,0.7446429800341288,0.029827676916583,0.3408942188410284
1.886499999999998,0.6945729744529154,0.0085224427374882,0.3302424744161071
1.8900000000000008,0.6402426201675839,-0.0063913957208033,0.3195889846619337
1.893500000000003,0.5603466829990394,-0.0213052341790948,0.3100018910807288
1.8969999999999985,0.4911024902554164,-0.0319587239332682,0.3078708440640437
1.900500000000001,0.3930952714389268,-0.0436768645311581,0.3089354949077603
1.9039999999999964,0.3281114273994219,-0.0490036094082448,0.3089354949077603
1.9074999999999989,0.2322352555996175,-0.0617864008498512,0.3046751462036421
1.9110000000000011,0.1619246666830259,-0.0745709376207097,0.3014794483432405
1.9144999999999968,0.0745709376207097,-0.1012029166768912,0.2982837504828389
1.9179999999999997,0.0010646508437165,-0.1214435000122694,0.2961527034661538
1.9215000000000015,-0.0873537290623162,-0.1491418752414194,0.2876302607286655
1.9249999999999967,-0.1523375731018211,-0.1683160624038291,0.286565609884949
1.9285,-0.2375620004767042,-0.1853609478788057,0.2823035158515788
1.9320000000000024,-0.2929570056057522,-0.1981454846496642,0.2833681666952953
1.9354999999999976,-0.3494166615785167,-0.2162550209683573,0.3100018910807288
1.939,-0.3781796876513834,-0.2322352555996174,0.3355692192931938
1.9425000000000023,-0.3909642244222419,-0.2588672346557989,0.3824417816847534
1.945999999999998,-0.3867021303888717,-0.2791078179911771,0.4144005056180216
1.9495000000000005,-0.3568744534722886,-0.3121311927681618,0.4442281825346047
1.953000000000003,-0.3217200316786188,-0.3398295679973119,0.4602084171658648
1.9564999999999984,-0.2599318854995155,-0.3792460838243517,0.4676662090596366
1.9600000000000009,-0.2013411825100659,-0.4101401569139035,0.4676662090596366
1.963499999999996,-0.1267702448893561,-0.4580773701491797,0.4623394641825499
1.9669999999999987,-0.069244192743623,-0.4974938859762197,0.4495549274116914
1.9705000000000013,0.0053267448770866,-0.5528888911052677,0.4271832970596281
1.9739999999999969,0.0543303542853314,-0.5891097090719061,0.3994866671597301
1.9774999999999991,0.1075943123976943,-0.6381133184801508,0.3632658491930918
1.9810000000000016,0.1342280367831278,-0.670072042413419,0.3323735214327921
1.984499999999997,0.1597953649955927,-0.7126842561008605,0.2950880526224372
1.9879999999999995,0.1587289688226242,-0.7361205372966404,0.2631275833599171
1.991500000000002,0.1512729222581044,-0.7616878655091054,0.2237128128621291
1.9949999999999972,0.1352926876268443,-0.7766017039673969,0.1970790884766957
1.9985,0.0958761717998044,-0.7925801932694049,0.1587289688226243
2.0020000000000024,0.057526052145733,-0.8000379851631767,0.1310323389227262
2.005499999999998,0.0021310470166849,-0.8032336830235783,0.0948115209560879
2.0090000000000003,-0.0415458175144731,-0.8021690321798618,0.0671131457269379
2.012500000000003,-0.1054650107102614,-0.8053647300402634,0.0330233747769847
2.0159999999999982,-0.148075479068451,-0.81069147491735,0.0181095363186931
2.0195000000000007,-0.1981454846496643,-0.8138871727777518,0.0181095363186931
2.022999999999996,-0.2205171150017277,-0.8149518236214683,0.0223716303520633
2.026499999999998,-0.2279731615662474,-0.8170828706381533,0.0383501196540714
2.030000000000001,-0.2247774637058458,-0.8138871727777518,0.0426122136874415
2.0334999999999965,-0.2045368803704675,-0.8256053133756417,0.0351544217936697
2.036999999999999,-0.1832316461913728,-0.8298656620797599,0.0308940730895516
2.040500000000001,-0.1629910628559945,-0.8426501988506182,0.0213052341790947
2.043999999999997,-0.148075479068451,-0.8511726415881066,0.013849187614575
2.0474999999999994,-0.1289012919060413,-0.8575640373089098,0.0
2.051000000000002,-0.1257055940456397,-0.8607597351693115,-0.002131047016685
2.0544999999999973,-0.1331616406101594,-0.8575640373089098,-0.0063913957208032
2.058,-0.1491418752414195,-0.8564993864651933,-0.0042603487041181
2.0615000000000023,-0.1768385051413175,-0.8511726415881066,-0.0010646508437165
2.0649999999999977,-0.2045368803704675,-0.8405191518339332,0.0031956978604016
2.0685,-0.2535404897787123,-0.8266699642193582,0.0170448854749766
2.0720000000000027,-0.2897613077453507,-0.8181475214818699,0.0202405833353782
2.075499999999998,-0.3462209637181153,-0.8011026360068932,0.0234362811957798
2.0790000000000006,-0.3909642244222419,-0.7840577505319166,0.0127827914416064
2.082500000000003,-0.4527506252720931,-0.7659482142132235,0.0
2.0859999999999985,-0.4964292351325032,-0.7446429800341287,-0.013849187614575
2.089500000000001,-0.5528888911052678,-0.7126842561008604,-0.0394165158270399
2.0929999999999964,-0.5933700577760243,-0.686050531715427,-0.0628527970228197
2.096499999999999,-0.6359822714634659,-0.6498314590780406,-0.0905494269227178
2.1000000000000014,-0.6668763445530175,-0.6178727351447725,-0.1193124529955843
2.103499999999997,-0.6924436727654825,-0.5699337765802442,-0.1587289688226243
2.1069999999999998,-0.7084221620674904,-0.535844005630291,-0.1864273440517743
2.110500000000002,-0.7158799539612622,-0.4836446983616445,-0.2205171150017275
2.113999999999997,-0.7158799539612621,-0.4452945787075731,-0.2482137449016255
2.1175,-0.7009661155029706,-0.3930952714389267,-0.2801724688348938
2.121000000000002,-0.6828548338550254,-0.3568744534722884,-0.3046751462036421
2.1244999999999976,-0.6594185526592456,-0.3121311927681618,-0.3270467765557054
2.128,-0.6295908757426625,-0.2865656098849489,-0.3387649171535954
2.1315000000000026,-0.5805872663344177,-0.2418223491808222,-0.3568744534722885
2.134999999999998,-0.5411707505073777,-0.2173214171413258,-0.3675279432264619
2.1385000000000005,-0.4857757453783297,-0.1842962970350891,-0.3824417816847534
2.142000000000003,-0.4378367868138015,-0.1576643179789077,-0.3920288752659583
2.1454999999999984,-0.3803107346680683,-0.1225098961852379,-0.4133358547743051
2.149000000000001,-0.3355692192931938,-0.1012029166768911,-0.4218582975117934
2.1524999999999963,-0.286565609884949,-0.0756355884644262,-0.4261186462159115
2.155999999999999,-0.2524758389349957,-0.0607217500061346,-0.4346410889533998
2.1595000000000013,-0.2130593231079557,-0.0426122136874415,-0.4357057397971164
2.1629999999999967,-0.191754088928861,-0.0287630260728665,-0.4303807402492817
2.166499999999999,-0.1736428072809158,-0.0117181405978899,-0.4175962034784233
2.1700000000000017,-0.1747092034538843,2.139570667913832e-17,-0.4080091098972184
2.173499999999997,-0.1789695521580025,0.0095870935812048,-0.3845728287014385
2.177,-0.1960144376329791,0.0191759324916617,-0.3632658491930918
2.180500000000002,-0.2205171150017275,0.0362208179666383,-0.3249157295390203
2.183999999999997,-0.2524758389349957,0.041545817514473,-0.2993484013265554
2.1875,-0.2876302607286655,0.0479389585645282,-0.2737810731140905
2.1910000000000025,-0.316393286801532,0.0521993072686464,-0.260998281672484
2.194499999999998,-0.3504830577514853,0.0490036094082448,-0.247149094057909
2.1980000000000004,-0.3792460838243518,0.0479389585645283,-0.2418223491808223
2.201500000000003,-0.4122694586013365,0.0468725623915597,-0.2407576983371057
2.2049999999999983,-0.4282496932325966,0.0500682602519613,-0.2396913021641372
2.208500000000001,-0.4442281825346047,0.0575260521457331,-0.2428870000245388
2.211999999999996,-0.4495549274116914,0.0660484948832214,-0.2439533961975074
2.2154999999999987,-0.4452945787075733,0.083093380358198,-0.2503447919183106
2.219000000000001,-0.4378367868138015,0.094811520956088,-0.2556715367953973
2.2224999999999966,-0.4165315526347067,0.1107900102580961,-0.260998281672484
2.225999999999999,-0.3962909692993285,0.1214435000122694,-0.2663250265495707
2.2295000000000016,-0.3653968962097769,0.1331616406101594,-0.2663250265495707
2.232999999999997,-0.3323735214327921,0.1438151303643328,-0.2652586303766022
2.2364999999999995,-0.2854992137119804,0.1544686201185061,-0.2556715367953973
2.240000000000002,-0.2492801410745941,0.1597953649955928,-0.2524758389349957
2.2434999999999974,-0.1992101354933807,0.1725781564371993,-0.247149094057909
2.247,-0.1597953649955928,0.1789695521580026,-0.2386266513204207
2.2505000000000024,-0.1086607085706629,0.1789695521580025,-0.2237128128621291
2.253999999999998,-0.0735062867769931,0.177904901314286,-0.2098636252475541
2.2575000000000003,-0.0330233747769846,0.1672514115601126,-0.1896230419121759
2.261000000000003,-0.002131047016685,0.1565979218059392,-0.1640557136997109
2.264499999999998,0.0298276769165831,0.138488385487246,-0.1289012919060412
2.2680000000000007,0.0532657034416149,0.1203788491685528,-0.1054650107102613
2.271500000000003,0.0767019846373948,0.0916158230956863,-0.069244192743623
2.2749999999999986,0.0980072188164895,0.0649838440395048,-0.0447432607041266
2.278500000000001,0.1203788491685528,0.0255673282124649,-0.01598023463126
2.2819999999999965,0.1352926876268444,-0.0063913957208032,-0.002131047016685
2.285499999999999,0.1597953649955928,-0.0447432607041266,0.0170448854749766
2.289000000000001,0.1683160624038291,-0.0756355884644262,0.0308940730895516
2.292499999999997,0.1821652500184041,-0.1086607085706629,0.0372854688103548
2.296,0.1896230419121758,-0.1320969897664428,0.041545817514473
2.299500000000002,0.193883390616294,-0.1587289688226243,0.0447432607041266
2.3029999999999973,0.1917540889288609,-0.1800359483309711,0.0458079115478431
2.3065,0.193883390616294,-0.2034722295267509,0.0521993072686464
2.3100000000000023,0.1885583910684593,-0.2247774637058457,0.0521993072686464
2.3134999999999977,0.1725781564371993,-0.2460844432141925,0.0458079115478431
2.317,0.1555332709622226,-0.2641939795328856,0.0394165158270399
2.3205000000000027,0.1225098961852379,-0.2833681666952953,0.02769837522915
2.323999999999998,0.0916158230956863,-0.2940216564494687,0.013849187614575
2.327500000000001,0.0426122136874415,-0.300413052170272,-0.0063913957208032
2.331000000000003,-3.692058414222593e-17,-0.3014794483432405,-0.0213052341790947
2.3344999999999985,-0.0660484948832214,-0.2929570056057522,-0.0330233747769847
2.338000000000001,-0.1118564064310646,-0.2823035158515788,-0.041545817514473
2.3414999999999964,-0.1715135055934828,-0.2727164222703739,-0.0372854688103548
2.344999999999999,-0.2087989744038376,-0.2578025838120824,-0.0266319790561814
2.3485000000000014,-0.2460844432141925,-0.2407576983371057,-0.0042603487041181
2.3519999999999968,-0.2620629325162006,-0.2279731615662473,0.0223716303520633
2.3554999999999997,-0.2663250265495707,-0.207732578230869,0.0564614013020165
2.3590000000000018,-0.2578025838120824,-0.1970790884766956,0.0884201252352847
2.362499999999997,-0.2205171150017276,-0.1821652500184041,0.1320969897664428
2.366,-0.1811005991746876,-0.1757738542976009,0.1587289688226243
2.369500000000002,-0.1075943123976944,-0.1576643179789077,0.1970790884766957
2.3729999999999976,-0.0394165158270399,-0.1470108282247343,0.2205171150017275
2.3765,0.055395005129048,-0.1267702448893561,0.2439533961975074
2.3800000000000026,0.1342280367831279,-0.1075943123976944,0.2599318854995155
2.383499999999998,0.2450180470412239,-0.0841580312019146,0.2780431671474606
2.3870000000000005,0.3249157295390203,-0.0617864008498513,0.2897613077453506
2.390500000000003,0.425053995372195,-0.0287630260728666,0.2993484013265554
2.3939999999999984,0.4964292351325031,-0.0031956978604016,0.3014794483432405
2.397500000000001,0.5773915684740161,0.029827676916583,0.3014794483432405
2.400999999999996,0.628524479569694,0.0543303542853314,0.2950880526224372
2.4044999999999987,0.6732677402738206,0.0862890782185995,0.2769767709744921
2.4080000000000013,0.6871169278883955,0.1075943123976943,0.2567361876391139
2.4114999999999966,0.683921230027994,0.1480754790684508,0.2290395577392158
2.414999999999999,0.6647452975363323,0.182165250018404,0.205601531214184
2.4185000000000016,0.6114795940947174,0.2183860679850424,0.1811005991746876
2.421999999999997,0.5667380787198427,0.2439533961975073,0.166186760716396
2.4254999999999995,0.4932317919428496,0.2812388650078622,0.1565979218059392
2.429000000000002,0.4399678338304866,0.3078708440640437,0.1544686201185061
2.432499999999997,0.3728546881035486,0.3419606150139969,0.1555332709622227
2.436,0.3270467765557054,0.3653968962097768,0.1608600158393093
2.4395000000000024,0.2791078179911772,0.3952245731263599,0.1715135055934827
2.442999999999998,0.2567361876391139,0.4144005056180216,0.1768385051413174
2.4465000000000003,0.2354309534600191,0.4367721359700849,0.1906876927558924
2.450000000000003,0.2332999064433341,0.454881672288778,0.2002765316663493
2.4534999999999982,0.2407576983371058,0.4793843496575264,0.2173214171413259
2.4570000000000007,0.2578025838120825,0.5006895838366213,0.2364956043037356
2.460499999999996,0.2854992137119805,0.5305172607532044,0.2599318854995155
2.463999999999998,0.3131975889411305,0.5507578440885826,0.2791078179911772
2.467500000000001,0.3494166615785168,0.5816519171781342,0.3057397970473587
2.4709999999999965,0.3728546881035486,0.5986968026531109,0.316393286801532
2.474499999999999,0.4069427137242499,0.6189373859884891,0.3270467765557054
2.478000000000001,0.4314453910929983,0.6359822714634658,0.3366338701369103
2.481499999999997,0.4538170214450616,0.6551582039551272,0.3387649171535954
2.4849999999999994,0.4708619069200382,0.6732677402738205,0.341960615013997
2.488500000000002,0.4921671410991331,0.6967040214696003,0.3376985209806268
2.4919999999999973,0.5092120265741097,0.7062911150508052,0.3302424744161071
2.4955,0.5273215628928029,0.7244023966987504,0.3195889846619337
2.4990000000000023,0.5401060996636613,0.7350541411236717,0.3046751462036421
2.5024999999999977,0.5603466829990396,0.7489033287382467,0.2897613077453506
2.506,0.5720648235969295,0.7627525163528218,0.2716500260974054
2.5095000000000027,0.5869786620552211,0.7766017039673968,0.2503447919183106
2.512999999999998,0.6008278496697961,0.7872551937215702,0.2322352555996175
2.5165000000000006,0.6146770372843711,0.8053647300402633,0.2087989744038376
2.520000000000003,0.6231994800218593,0.8202785684985548,0.1864273440517743
2.5234999999999985,0.6221330838488909,0.8437148496943346,0.1597953649955928
2.527000000000001,0.6082838962343159,0.8575640373089097,0.1438151303643327
2.5304999999999964,0.598696802653111,0.877804620644288,0.1203788491685528
2.533999999999999,0.570998427423961,0.8873917142254928,0.1129210572747811
2.5375000000000014,0.5422354013510944,0.8948495061192645,0.1001382658331746
2.540999999999997,0.5102766774178262,0.9023072980130364,0.0980072188164895
2.5444999999999998,0.4793843496575266,0.9044365997004694,0.0980072188164895
2.548000000000002,0.4335764381096834,0.9065676467171546,0.1054650107102613
2.551499999999997,0.3994866671597302,0.9044365997004696,0.1118564064310645
2.555,0.3472873598910838,0.901240901840068,0.1182478021518678
2.558500000000002,0.3131975889411306,0.8980452039796664,0.1257055940456395
2.5619999999999976,0.2684543282370039,0.8820667146776582,0.1193124529955843
2.5655,0.2322352555996176,0.8692821779067997,0.1118564064310645
2.5690000000000026,0.1885583910684594,0.8426501988506182,0.096942567972773
2.572499999999998,0.1544686201185062,0.8170828706381533,0.0841580312019145
2.5760000000000005,0.1097253594143796,0.7776663548111135,0.0585907029894496
2.579500000000003,0.0767019846373949,0.7499697249112154,0.0330233747769847
2.5829999999999984,0.0319587239332682,0.7062911150508053,0.0042603487041181
2.586500000000001,0.0042603487041182,0.6732677402738206,-0.013849187614575
2.5899999999999963,-0.0276983752291499,0.6317219227593476,-0.0500682602519613
2.593499999999999,-0.0458079115478431,0.5912390107593392,-0.0724398906040246
2.5970000000000013,-0.0607217500061346,0.5422354013510943,-0.1065296615539778
2.6004999999999967,-0.0745709376207096,0.4996249329929048,-0.136357338470561
2.603999999999999,-0.0798976824977963,0.4399678338304866,-0.1672514115601126
2.6075000000000017,-0.0756355884644262,0.3941599222826434,-0.1960144376329791
2.610999999999997,-0.071375239760308,0.3387649171535954,-0.2269085107225308
2.6145,-0.0692441927436229,0.2961527034661538,-0.2567361876391139
2.618000000000002,-0.0617864008498512,0.2450180470412239,-0.2908259585890671
2.621499999999997,-0.0564614013020165,0.2034722295267509,-0.3153286359578155
2.625,-0.0362208179666383,0.150206526085136,-0.3451563128743986
2.6285000000000025,-0.0213052341790947,0.1065296615539778,-0.3526141047681703
2.631999999999998,0.0127827914416064,0.0511346564249298,-0.3472873598910836
2.6355000000000004,0.0436768645311581,0.002131047016685,-0.3313071252598236
2.639000000000003,0.0990718696602061,-0.0585907029894496,-0.3046751462036421
2.6424999999999983,0.1480754790684509,-0.1086607085706629,-0.2823035158515788
2.646000000000001,0.2215817658454441,-0.1736428072809158,-0.2503447919183106
2.649499999999996,0.2737810731140905,-0.2258421145495623,-0.2311688594266489
2.6529999999999987,0.3366338701369102,-0.2823035158515788,-0.2098636252475541
2.656500000000001,0.3877685265618401,-0.3270467765557054,-0.2024058333537824
2.6599999999999966,0.4420988808471716,-0.3760503859639503,-0.1885583910684593
2.663499999999999,0.482580047517928,-0.409073760740935,-0.1885583910684593
2.6670000000000016,0.5134723752782278,-0.4378367868138015,-0.1864273440517743
2.670499999999997,0.5283879590657713,-0.4527506252720931,-0.1885583910684593
2.6739999999999995,0.537975052646976,-0.4602084171658648,-0.1949497867892626
2.677500000000002,0.5315836569261728,-0.464468765869983,-0.2045368803704674
2.6809999999999974,0.4985585368199361,-0.4580773701491797,-0.2151903701246408
2.6845,0.4644687658699829,-0.45062132358466,-0.2290395577392158
2.6880000000000024,0.4026823650201316,-0.4303807402492817,-0.2514094427620272
2.691499999999998,0.3462209637181151,-0.4069427137242499,-0.2684543282370038
2.6950000000000003,0.2652586303766021,-0.367527943226462,-0.2940216564494687
2.698500000000003,0.1949497867892626,-0.3313071252598236,-0.316393286801532
2.701999999999998,0.0958761717998044,-0.2812388650078622,-0.3462209637181151
2.7055000000000007,0.0319587239332681,-0.2396913021641372,-0.3653968962097769
2.709000000000003,-0.0596570991624181,-0.1864273440517743,-0.3877685265618402
2.7124999999999986,-0.124639197872671,-0.1470108282247343,-0.4016177141764152
2.716000000000001,-0.1874919948954908,-0.0926804739394028,-0.4175962034784233
2.7194999999999965,-0.2343645572870505,-0.0532657034416149,-0.4261186462159115
2.722999999999999,-0.2801724688348938,0.0053267448770867,-0.4271832970596281
2.726500000000001,-0.2982837504828389,0.0468725623915597,-0.4186608543221398
2.729999999999997,-0.3195889846619337,0.1043986145372928,-0.3994866671597301
2.7335,-0.3153286359578155,0.1480754790684509,-0.3760503859639502
2.737000000000002,-0.3046751462036421,0.191754088928861,-0.3398295679973119
2.7404999999999973,-0.286565609884949,0.2141239739516723,-0.3078708440640437
2.744,-0.2567361876391138,0.2482137449016256,-0.2663250265495707
2.7475000000000023,-0.2237128128621291,0.2631275833599171,-0.2311688594266489
2.7509999999999977,-0.180035948330971,0.2791078179911772,-0.1864273440517743
2.7545,-0.1406194325039311,0.2844345628682639,-0.1512729222581045
2.7580000000000027,-0.0894847760790012,0.2876302607286655,-0.1001382658331746
2.761499999999998,-0.0490036094082447,0.2823035158515788,-0.0649838440395048
2.765000000000001,3.3919871601208126e-17,0.2769767709744921,-0.0245026773687483
2.768500000000003,0.0383501196540714,0.2759121201307756,0.0031956978604016
2.7719999999999985,0.083093380358198,0.2620629325162006,0.0181095363186931
2.775500000000001,0.1086607085706629,0.2482137449016255,0.0223716303520633
2.7789999999999964,0.1331616406101594,0.2269085107225307,0.0149138384582915
2.782499999999999,0.1416840833476477,0.2130593231079557,0.0010646508437165
2.7860000000000014,0.1459461773810178,0.193883390616294,-0.0202405833353782
2.7894999999999968,0.1384883854872461,0.1842962970350892,-0.041545817514473
2.7929999999999997,0.1278348957330727,0.1693824585767976,-0.0745709376207097
2.7965000000000018,0.1193124529955843,0.1619246666830258,-0.1012029166768912
2.799999999999997,0.110790010258096,0.1491418752414194,-0.1320969897664428
2.8035,0.110790010258096,0.1331616406101593,-0.1565979218059392
2.807000000000002,0.122509896185238,0.1086607085706629,-0.180035948330971
2.8104999999999976,0.1352926876268444,0.0937468701123714,-0.191754088928861
2.814,0.1651203645434275,0.0798976824977964,-0.2109282760912707
2.8175000000000026,0.1842962970350892,0.0703088435873395,-0.2183860679850424
2.820999999999998,0.219450718828759,0.0596570991624181,-0.219450718828759
2.8245000000000005,0.247149094057909,0.0596570991624181,-0.219450718828759
2.828000000000003,0.2727164222703739,0.0500682602519612,-0.2119946722642392
2.8314999999999984,0.2929570056057522,0.0500682602519612,-0.2002765316663493
2.835000000000001,0.3195889846619337,0.0490036094082447,-0.180035948330971
2.838499999999996,0.3323735214327921,0.0596570991624181,-0.1651203645434275
2.8419999999999987,0.355809802628572,0.0745709376207096,-0.1406194325039311
2.8455000000000013,0.3685925940701784,0.0862890782185996,-0.1235745470289545
2.8489999999999966,0.3888331774055567,0.112921057274781,-0.1022693128498597
2.852499999999999,0.3984202709867616,0.1299659427497577,-0.0948115209560879
2.8560000000000016,0.41120480775762,0.1619246666830258,-0.0798976824977964
2.859499999999997,0.4122694586013365,0.1885583910684593,-0.083093380358198
2.8629999999999995,0.4026823650201317,0.2258421145495622,-0.0852244273748831
2.866500000000002,0.3898978282492733,0.2588672346557989,-0.0905494269227178
2.869999999999997,0.3568744534722886,0.3025440991869569,-0.096942567972773
2.8735,0.3313071252598237,0.3345028231202251,-0.1054650107102613
2.8770000000000024,0.2854992137119805,0.3771150368076667,-0.1182478021518678
2.880499999999998,0.2460844432141925,0.4069427137242498,-0.1310323389227262
2.8840000000000003,0.1938833906162941,0.4431635316908882,-0.1544686201185061
2.887500000000003,0.1587289688226243,0.4708619069200382,-0.1683160624038291
2.8909999999999982,0.1203788491685529,0.4996249329929048,-0.1768385051413174
2.8945000000000007,0.1022693128498598,0.517734469311598,-0.1811005991746876
2.897999999999996,0.0873537290623162,0.5433017975240628,-0.1821652500184041
2.901499999999998,0.0937468701123714,0.5528888911052677,-0.177904901314286
2.905000000000001,0.1150521042914662,0.5709984274239609,-0.1725781564371993
2.9084999999999965,0.1427504795206163,0.5795208701614492,-0.166186760716396
2.911999999999999,0.1842962970350893,0.5880433128989375,-0.1587289688226243
2.915500000000001,0.2215817658454442,0.5923054069323076,-0.1555332709622227
2.918999999999997,0.2791078179911772,0.5976321518093943,-0.1555332709622227
2.9224999999999994,0.3270467765557054,0.605088198373914,-0.1565979218059392
2.926000000000002,0.3813771308410369,0.6125459902676859,-0.1619246666830259
2.9294999999999973,0.4175962034784233,0.6221330838488908,-0.1629910628559944
2.933,0.4559463231324947,0.6274598287259774,-0.1672514115601126
2.9365000000000023,0.4751222556241564,0.6423736671842689,-0.1704471094205142
2.9399999999999977,0.4793843496575266,0.6636806466926156,-0.1768385051413174
2.9435,0.4623394641825499,0.6775280889779386,-0.1821652500184041
2.9470000000000027,0.4261186462159116,0.697768672313317,-0.1896230419121759
2.950499999999998,0.3781796876513834,0.7105532090841755,-0.1938833906162941
2.9540000000000006,0.2940216564494688,0.7329248394362388,-0.2024058333537824
2.957500000000003,0.2290395577392159,0.7446429800341288,-0.2066679273871525
2.9609999999999985,0.1310323389227263,0.7648835633695069,-0.205601531214184
2.964500000000001,0.0585907029894497,0.7840577505319166,-0.2024058333537824
2.9679999999999964,-0.0298276769165829,0.7979069381464917,-0.1853609478788057
2.971499999999999,-0.0798976824977963,0.8074957770569485,-0.1725781564371993
2.9750000000000014,-0.1374237346435294,0.81069147491735,-0.1512729222581045
2.978499999999997,-0.1619246666830258,0.8043000791965469,-0.136357338470561
2.9819999999999998,-0.166186760716396,0.7904508915819718,-0.110790010258096
2.985500000000002,-0.1587289688226242,0.7702103082465936,-0.1012029166768912
2.988999999999997,-0.1278348957330725,0.7297291415758372,-0.0820287295144815
2.9925,-0.0948115209560878,0.6945729744529154,-0.0745709376207097
2.996000000000002,-0.0394165158270398,0.6434400633572375,-0.0617864008498512
2.9994999999999976,0.0063913957208033,0.600827849669796,-0.0596570991624181
3.003,0.0681795418999065,0.5433017975240628,-0.055395005129048
3.0065000000000026,0.1022693128498598,0.4964292351325031,-0.0543303542853314
3.009999999999998,0.1459461773810179,0.4410324846742031,-0.0521993072686464
3.0135000000000005,0.164055713699711,0.397355620143045,-0.055395005129048
3.017000000000003,0.1619246666830259,0.3568744534722885,-0.0543303542853314
3.0204999999999984,0.1534022239455376,0.3259803803827369,-0.0511346564249298
3.024000000000001,0.1182478021518678,0.2908259585890671,-0.0436768645311581
3.0274999999999963,0.0884201252352847,0.274847469287059,-0.0287630260728665
3.030999999999999,0.0308940730895516,0.2428870000245388,-0.0074577918937717
3.0345000000000013,-0.0117181405978899,0.2247774637058457,0.002131047016685
3.0379999999999967,-0.0724398906040246,0.2034722295267509,0.0149138384582915
3.041499999999999,-0.1193124529955843,0.1842962970350892,0.0234362811957798
3.0450000000000017,-0.1736428072809158,0.1693824585767977,0.0340897709499532
3.048499999999997,-0.207732578230869,0.1555332709622227,0.0372854688103548
3.052,-0.2503447919183106,0.1406194325039311,0.0362208179666383
3.055500000000002,-0.2791078179911772,0.136357338470561,0.0340897709499532
3.058999999999997,-0.3121311927681619,0.1384883854872461,0.029827676916583
3.0625,-0.3355692192931938,0.1512729222581045,0.02769837522915
3.0660000000000025,-0.3643322453660603,0.1693824585767977,0.0308940730895516
3.069499999999998,-0.3888331774055567,0.1874919948954909,0.0351544217936697
3.0730000000000004,-0.4165315526347067,0.1960144376329792,0.0351544217936697
3.076500000000003,-0.4378367868138015,0.1928187397725776,0.0404811666707564
3.0799999999999983,-0.4602084171658648,0.1885583910684594,0.0468725623915597
3.083500000000001,-0.4687308599033531,0.1821652500184042,0.0500682602519613
3.086999999999996,-0.4708619069200382,0.1672514115601126,0.0575260521457331
3.0904999999999987,-0.4676662090596366,0.1523375731018211,0.0713752397603081
3.094000000000001,-0.4431635316908882,0.1235745470289545,0.0798976824977964
3.0974999999999966,-0.4175962034784233,0.1012029166768912,0.0916158230956863
3.100999999999999,-0.3739193389472651,0.0628527970228198,0.110790010258096
3.1045000000000016,-0.3334381722765087,0.0351544217936698,0.1225098961852379
3.107999999999997,-0.2631275833599171,-0.0053267448770866,0.1470108282247343
3.1114999999999995,-0.205601531214184,-0.0330233747769846,0.1565979218059392
3.115000000000002,-0.1214435000122694,-0.0639174478665363,0.1747092034538843
3.1184999999999974,-0.0564614013020165,-0.0926804739394028,0.191754088928861
3.122,0.0372854688103548,-0.1342280367831279,0.2066679273871525
3.1255000000000024,0.1075943123976944,-0.1544686201185061,0.2162550209683574
3.128999999999998,0.2066679273871525,-0.1896230419121759,0.2247774637058457
3.1325000000000003,0.2727164222703739,-0.2077325782308691,0.2269085107225308
3.136000000000003,0.3547434064556033,-0.2301042085829324,0.219450718828759
3.139499999999998,0.4080091098972183,-0.2439533961975074,0.2130593231079557
3.1430000000000007,0.4676662090596366,-0.2567361876391139,0.2045368803704674
3.146500000000003,0.5028206308533064,-0.2620629325162006,0.1960144376329791
3.1499999999999986,0.5273215628928027,-0.2663250265495708,0.1768385051413174
3.153500000000001,0.5326483077698895,-0.2631275833599171,0.1629910628559944
3.1569999999999965,0.5241258650324012,-0.2492801410745941,0.1342280367831279
3.160499999999999,0.5028206308533064,-0.2343645572870506,0.1150521042914662
3.164000000000001,0.4591437663221482,-0.2173214171413259,0.0852244273748831
3.167499999999997,0.4165315526347067,-0.1981454846496643,0.0735062867769931
3.171,0.3547434064556034,-0.177904901314286,0.0447432607041266
3.174500000000002,0.3068061932203272,-0.1576643179789078,0.0287630260728665
3.1779999999999973,0.2364956043037356,-0.1214435000122694,0.0053267448770866
3.1815,0.1928187397725775,-0.0948115209560879,-0.013849187614575
3.1850000000000023,0.1438151303643327,-0.0596570991624181,-0.0447432607041266
3.1884999999999977,0.1129210572747811,-0.0308940730895516,-0.0649838440395048
3.192,0.083093380358198,0.0063913957208032,-0.0926804739394028
3.1955000000000027,0.0649838440395048,0.0383501196540713,-0.1065296615539778
3.198999999999998,0.0490036094082447,0.083093380358198,-0.1310323389227262
3.202500000000001,0.0394165158270399,0.1150521042914662,-0.1416840833476476
3.206000000000003,0.0287630260728665,0.1597953649955928,-0.1544686201185061
3.2094999999999985,0.0181095363186931,0.1832316461913727,-0.1640557136997109
3.213000000000001,-0.002131047016685,0.2066679273871525,-0.1736428072809158
3.2164999999999964,-0.0223716303520632,0.2130593231079557,-0.180035948330971
3.219999999999999,-0.0564614013020165,0.2183860679850424,-0.1906876927558924
3.2235000000000014,-0.0841580312019145,0.2173214171413259,-0.1992101354933808
3.2269999999999968,-0.1331616406101593,0.2109282760912707,-0.2034722295267509
3.2304999999999997,-0.1704471094205142,0.1970790884766957,-0.2119946722642392
3.2340000000000018,-0.2173214171413258,0.1811005991746876,-0.2162550209683574
3.237499999999997,-0.2535404897787122,0.1608600158393094,-0.2087989744038376
3.241,-0.2940216564494687,0.1257055940456396,-0.2045368803704674
3.244500000000002,-0.3174579376452486,0.0937468701123714,-0.1970790884766957
3.2479999999999976,-0.3323735214327921,0.0468725623915597,-0.1842962970350892
3.2515,-0.3259803803827369,0.0106534897541734,-0.1757738542976009
3.2550000000000026,-0.3036087500306735,-0.0479389585645282,-0.1565979218059392
3.258499999999998,-0.2716500260974054,-0.0980072188164895,-0.1438151303643327
3.2620000000000005,-0.2162550209683574,-0.166186760716396,-0.1203788491685528
3.265500000000003,-0.1608600158393094,-0.2237128128621291,-0.1001382658331746
3.2689999999999984,-0.080962333341513,-0.3014794483432405,-0.0767019846373948
3.272500000000001,-0.0170448854749766,-0.3590055004889736,-0.0564614013020165
3.275999999999996,0.0649838440395048,-0.4325100419367148,-0.0287630260728665
3.2794999999999987,0.1225098961852379,-0.4900360940824479,-0.0106534897541733
3.2830000000000013,0.1896230419121758,-0.5624759846864725,0.0117181405978899
3.2864999999999966,0.2258421145495621,-0.6136106411114024,0.0287630260728665
3.289999999999999,0.2588672346557989,-0.6722030894301041,0.0436768645311581
3.2935000000000016,0.2673896773932872,-0.7105532090841755,0.0575260521457331
3.296999999999997,0.2599318854995154,-0.7510343757549319,0.0809623333415129
3.3004999999999995,0.2396913021641371,-0.780862052671515,0.0980072188164895
3.304000000000002,0.1938833906162939,-0.8138871727777518,0.1203788491685528
3.307499999999997,0.140619432503931,-0.8341277561131301,0.136357338470561
3.311,0.0607217500061346,-0.8533036886047917,0.1534022239455376
3.3145000000000024,-0.0106534897541734,-0.8671511308901148,0.1715135055934827
3.317999999999998,-0.1107900102580961,-0.8831313655213747,0.1938833906162941
3.3215000000000003,-0.189623041912176,-0.8852624125380599,0.2109282760912707
3.325000000000003,-0.2823035158515789,-0.8927184591025796,0.2439533961975074
3.3284999999999982,-0.3430252658577136,-0.8916538082588631,0.2663250265495707
3.3320000000000007,-0.4080091098972185,-0.8841960163650913,0.2961527034661538
3.335499999999996,-0.4431635316908883,-0.8810003185046897,0.3238510786953038
3.338999999999998,-0.4729912086074714,-0.8714132249234847,0.3483520107348002
3.342500000000001,-0.4804490005012432,-0.8607597351693114,0.3622011983493752
3.3459999999999965,-0.4740576047804399,-0.8351924069568465,0.3792460838243518
3.349499999999999,-0.4580773701491798,-0.8096250787443815,0.3856374795451551
3.353000000000001,-0.4282496932325967,-0.7766017039673969,0.3909642244222418
3.356499999999997,-0.4005513180034467,-0.7478386778945303,0.3856374795451551
3.3599999999999994,-0.353678755611887,-0.7052264642070888,0.3824417816847534
3.363500000000002,-0.3270467765557054,-0.6668763445530174,0.3803107346680683
3.3669999999999973,-0.2823035158515788,-0.6082838962343158,0.3728546881035486
3.3705,-0.2503447919183107,-0.5571509851386378,0.3590055004889736
3.3740000000000023,-0.2141239739516723,-0.4889714432387313,0.3387649171535954
3.3774999999999977,-0.1928187397725776,-0.4399678338304866,0.3217200316786187
3.381,-0.1736428072809159,-0.3749839897909817,0.2876302607286655
3.3845000000000027,-0.1608600158393094,-0.3249157295390203,0.260998281672484
3.387999999999998,-0.1523375731018211,-0.2578025838120824,0.2247774637058457
3.3915000000000006,-0.1491418752414194,-0.2087989744038376,0.2002765316663493
3.395000000000003,-0.1438151303643328,-0.1448797812080492,0.166186760716396
3.3984999999999985,-0.138488385487246,-0.1012029166768911,0.1480754790684509
3.402000000000001,-0.1267702448893561,-0.0458079115478431,0.1331616406101593
3.4054999999999964,-0.1086607085706629,-0.0095870935812048,0.1235745470289545
3.408999999999999,-0.0820287295144815,0.0298276769165831,0.1214435000122694
3.4125000000000014,-0.0543303542853314,0.0532657034416149,0.1225098961852379
3.415999999999997,-0.0117181405978899,0.0809623333415129,0.1310323389227262
3.4194999999999998,0.0202405833353782,0.0948115209560879,0.138488385487246
3.423000000000002,0.0724398906040246,0.1075943123976944,0.1512729222581045
3.426499999999997,0.1075943123976944,0.110790010258096,0.1640557136997109
3.43,0.1512729222581045,0.1012029166768911,0.1842962970350892
3.433500000000002,0.1874919948954908,0.0873537290623161,0.2077325782308691
3.4369999999999976,0.2215817658454441,0.0596570991624181,0.2428870000245388
3.4405,0.2450180470412239,0.0330233747769846,0.2684543282370038
3.4440000000000026,0.2641939795328856,-0.0053267448770867,0.2972173543098703
3.447499999999998,0.274847469287059,-0.0404811666707565,0.3153286359578155
3.4510000000000005,0.2812388650078622,-0.0905494269227178,0.3376985209806268
3.454500000000003,0.2769767709744921,-0.1299659427497577,0.3590055004889736
3.4579999999999984,0.2737810731140905,-0.1768385051413175,0.3675279432264619
3.461500000000001,0.258867234655799,-0.2141239739516723,0.3813771308410369
3.4649999999999963,0.2482137449016255,-0.2609982816724841,0.3930952714389268
3.468499999999999,0.2386266513204206,-0.3014794483432405,0.4005513180034466
3.4720000000000013,0.2237128128621291,-0.3483520107348002,0.4037470158638482
3.4754999999999967,0.2183860679850424,-0.3856374795451551,0.4016177141764152
3.478999999999999,0.2098636252475541,-0.43890318298677,0.3867021303888716
3.4825000000000017,0.2098636252475541,-0.4697955107470696,0.3685925940701784
3.485999999999997,0.2045368803704674,-0.5113430735907947,0.3430252658577135
3.4895,0.2002765316663492,-0.5379750526469761,0.316393286801532
3.493000000000002,0.1992101354933807,-0.5731294744406459,0.2769767709744921
3.496499999999997,0.193883390616294,-0.600827849669796,0.233299906443334
3.5,0.1832316461913726,-0.6327865736030641,0.1768385051413174
3.5035000000000025,0.1736428072809157,-0.6562228547988439,0.136357338470561
3.506999999999998,0.1555332709622226,-0.6690056462404504,0.0798976824977964
3.5105000000000004,0.1374237346435294,-0.6775280889779387,0.0383501196540714
3.514000000000003,0.112921057274781,-0.6796591359946239,-0.0085224427374883
3.5174999999999983,0.0873537290623161,-0.6785944851509074,-0.0500682602519613
3.521000000000001,0.0447432607041265,-0.6775280889779387,-0.1001382658331746
3.524499999999996,0.0149138384582914,-0.6764634381342222,-0.1374237346435295
3.5279999999999987,-0.0340897709499533,-0.6722030894301041,-0.1821652500184041
3.531500000000001,-0.0777666354811114,-0.6679409953967339,-0.2141239739516723
3.5349999999999966,-0.1310323389227263,-0.6636806466926157,-0.2578025838120824
3.538499999999999,-0.1832316461913727,-0.670072042413419,-0.2854992137119804
3.5420000000000016,-0.2428870000245389,-0.6722030894301041,-0.3195889846619337
3.545499999999997,-0.2950880526224373,-0.6753987872905056,-0.3408942188410284
3.5489999999999995,-0.3664615470534935,-0.6860505317154271,-0.3653968962097769
3.552500000000002,-0.4165315526347068,-0.6945729744529154,-0.38350643252847
3.5559999999999974,-0.4857757453783298,-0.7190756518216637,-0.3984202709867616
3.5595,-0.5358440056302912,-0.7393162351570418,-0.3952245731263599
3.5630000000000024,-0.5901743599156227,-0.7648835633695068,-0.3898978282492732
3.566499999999998,-0.6242641308655759,-0.7904508915819717,-0.3749839897909817
3.5700000000000003,-0.6636806466926158,-0.8213432193422714,-0.3536787556118869
3.573500000000003,-0.6839212300279941,-0.8447812458673033,-0.3345028231202252
3.576999999999998,-0.7030954171904038,-0.8810003185046896,-0.3131975889411305
3.5805000000000007,-0.7094885582404591,-0.9033719488567528,-0.300413052170272
3.583999999999996,-0.7116178599278922,-0.933199625773336,-0.2918906094327836
3.5874999999999986,-0.7148135577882938,-0.9534402091087144,-0.286565609884949
3.591000000000001,-0.7116178599278922,-0.9811385843378644,-0.2844345628682639
3.5944999999999965,-0.7073575112237739,-1.0035102146899275,-0.288694911572382
3.597999999999999,-0.7062911150508054,-1.0344025424502272,-0.2897613077453506
3.601500000000001,-0.7062911150508054,-1.055709521958574,-0.2940216564494687
3.604999999999997,-0.6998997193300022,-1.0897992929085274,-0.2929570056057522
3.6085,-0.693508323609199,-1.108973480070937,-0.2982837504828389
3.612000000000002,-0.6785944851509075,-1.138802902316772,-0.2993484013265554
3.615499999999997,-0.6658099483800489,-1.160108136495867,-0.3046751462036421
3.619,-0.6508961099217574,-1.1878065117250167,-0.3089354949077603
3.6225000000000014,-0.6317219227593477,-1.2123074437645132,-0.3089354949077603
3.6259999999999977,-0.612545990267686,-1.2389411681499467,-0.3121311927681619
3.6295,-0.5901743599156227,-1.2517239595915532,-0.314262239784847
3.6330000000000022,-0.5763251723010477,-1.2698334959102464,-0.3195889846619337
3.636499999999998,-0.5560845889656695,-1.275160240787333,-0.3206536355056502
3.640000000000001,-0.5326483077698896,-1.284747334368538,-0.3259803803827369
3.643500000000003,-0.5145387714511964,-1.284747334368538,-0.3291760782431385
3.6469999999999994,-0.4921671410991332,-1.2858137305415065,-0.3249157295390203
3.650500000000001,-0.4719265577637549,-1.282618032681105,-0.3195889846619337
3.653999999999997,-0.4420988808471718,-1.2719645429269315,-0.3057397970473587
3.657499999999999,-0.4229229483555101,-1.25705070446864,-0.2918906094327836
3.661000000000002,-0.3973556201430452,-1.235743724960293,-0.2769767709744921
3.6644999999999968,-0.3771150368076669,-1.2176341886416,-0.2578025838120824
3.6679999999999993,-0.3462209637181153,-1.18247976684793,-0.233299906443334
3.6715000000000018,-0.3195889846619338,-1.1569124386354652,-0.2130593231079557
3.674999999999997,-0.2897613077453507,-1.1174959228084254,-0.1811005991746876
3.6785,-0.2641939795328857,-1.0961906886293304,-0.1587289688226243
3.682000000000002,-0.2332999064433341,-1.0578405689752592,-0.1235745470289545
3.6854999999999976,-0.2098636252475543,-1.0258800997127389,-0.1012029166768912
3.689,-0.1821652500184042,-0.9822032351815808,-0.0745709376207097
3.6925000000000026,-0.1704471094205143,-0.9417220685108244,-0.0596570991624181
3.695999999999998,-0.1608600158393094,-0.8937848552755481,-0.0490036094082447
3.699500000000001,-0.1608600158393094,-0.8575640373089098,-0.0394165158270399
3.703000000000003,-0.1640557136997111,-0.81069147491735,-0.0340897709499532
3.7064999999999984,-0.177904901314286,-0.7755353077944284,-0.0308940730895516
3.710000000000001,-0.2013411825100659,-0.7297291415758372,-0.0266319790561814
3.713499999999996,-0.217321417141326,-0.697768672313317,-0.0245026773687483
3.716999999999999,-0.245018047041224,-0.6487650629050722,-0.0245026773687483
3.720500000000001,-0.2695207244099724,-0.6136106411114024,-0.0255673282124649
3.7239999999999966,-0.2950880526224373,-0.5646070317031576,-0.0266319790561814
3.727499999999999,-0.3089354949077603,-0.5273215628928027,-0.0202405833353782
3.7310000000000016,-0.3249157295390204,-0.4740576047804398,-0.0213052341790947
3.734499999999997,-0.3334381722765087,-0.4367721359700849,-0.0202405833353782
3.738,-0.3376985209806269,-0.3877685265618401,-0.0223716303520633
3.741500000000002,-0.3387649171535954,-0.3504830577514852,-0.01598023463126
3.744999999999997,-0.3291760782431385,-0.3036087500306735,-0.0085224427374883
3.7485,-0.3217200316786188,-0.2673896773932872,-0.002131047016685
3.7520000000000016,-0.302544099186957,-0.2237128128621291,0.0117181405978899
3.755499999999998,-0.288694911572382,-0.1906876927558924,0.0223716303520633
3.759,-0.2535404897787122,-0.1502065260851359,0.0394165158270399
3.762500000000003,-0.2301042085829324,-0.1225098961852379,0.055395005129048
3.7659999999999982,-0.1874919948954908,-0.0916158230956863,0.0756355884644262
3.7695000000000007,-0.1576643179789077,-0.0735062867769931,0.0894847760790012
3.772999999999996,-0.110790010258096,-0.0532657034416149,0.1043986145372928
3.776499999999999,-0.0788312863248278,-0.0426122136874415,0.1129210572747811
3.780000000000001,-0.0330233747769847,-0.0319587239332681,0.1182478021518678
3.783499999999997,-1.9570143190796347e-18,-0.01598023463126,0.124639197872671
3.786999999999999,0.0404811666707564,-0.0031956978604016,0.1214435000122694
3.7905000000000015,0.0607217500061347,-7.436269678363865e-18,0.1150521042914662
3.793999999999997,0.0937468701123714,0.0085224427374883,0.1097253594143795
3.7975,0.1150521042914662,0.0042603487041181,0.1033339636935762
3.801000000000002,0.1352926876268444,0.0085224427374882,0.0948115209560879
3.804499999999997,0.1480754790684509,0.0106534897541733,0.0916158230956863
3.808,0.1651203645434275,0.0213052341790947,0.0767019846373948
3.8115000000000014,0.1747092034538843,0.0287630260728665,0.0660484948832214
3.8149999999999977,0.1864273440517743,0.041545817514473,0.0543303542853314
3.8185,0.191754088928861,0.0543303542853314,0.0394165158270399
3.8220000000000023,0.1949497867892626,0.0767019846373947,0.01598023463126
3.825499999999998,0.2002765316663493,0.0862890782185996,0.0
3.8290000000000006,0.2013411825100658,0.1075943123976944,-0.0223716303520633
3.832500000000003,0.2066679273871525,0.1129210572747811,-0.0404811666707564
3.8359999999999994,0.2077325782308691,0.1289012919060412,-0.0649838440395048
3.839500000000001,0.2130593231079558,0.1352926876268444,-0.0756355884644262
3.842999999999997,0.2162550209683574,0.1470108282247343,-0.0916158230956863
3.846499999999999,0.2215817658454441,0.1395530363309625,-0.0958761717998045
3.8500000000000014,0.2183860679850425,0.1438151303643327,-0.0980072188164895
3.853499999999997,0.2258421145495623,0.1448797812080492,-0.0948115209560879
3.8569999999999993,0.2258421145495623,0.1438151303643327,-0.0884201252352847
3.860500000000002,0.233299906443334,0.1438151303643327,-0.0788312863248278
3.863999999999997,0.2418223491808223,0.1491418752414194,-0.0521993072686464
3.8675,0.2514094427620272,0.1502065260851359,-0.0362208179666383
3.871000000000002,0.2652586303766022,0.1576643179789077,-0.0117181405978899
3.8744999999999976,0.2791078179911772,0.1619246666830258,0.0053267448770866
3.878,0.2972173543098703,0.1736428072809158,0.0213052341790947
3.8815000000000026,0.314262239784847,0.1832316461913726,0.0287630260728665
3.884999999999998,0.3313071252598236,0.2066679273871525,0.0170448854749766
3.888500000000001,0.3408942188410284,0.2183860679850424,0.0042603487041181
3.892000000000003,0.3472873598910837,0.2332999064433339,-0.0191759324916617
3.8954999999999984,0.3547434064556035,0.2482137449016255,-0.0490036094082447
3.899000000000001,0.341960615013997,0.2737810731140904,-0.083093380358198
3.902499999999996,0.3355692192931938,0.2929570056057521,-0.1139874534477496
3.905999999999999,0.3249157295390204,0.316393286801532,-0.1597953649955928
3.909500000000001,0.3089354949077603,0.3366338701369102,-0.191754088928861
3.9129999999999967,0.2897613077453506,0.3653968962097768,-0.2354309534600191
3.916499999999999,0.2801724688348938,0.3835064325284699,-0.2599318854995155
3.9200000000000017,0.2641939795328857,0.413335854774305,-0.2993484013265554
3.923499999999997,0.2556715367953974,0.4293143440763131,-0.3217200316786187
3.927,0.2524758389349957,0.4506213235846599,-0.3462209637181151
3.930500000000002,0.2471490940579091,0.4634041150262664,-0.3547434064556034
3.9339999999999975,0.245018047041224,0.4847093492053611,-0.3653968962097769
3.9375,0.2396913021641373,0.4985585368199361,-0.3685925940701784
3.9410000000000025,0.2386266513204207,0.5241258650324012,-0.3622011983493752
3.944499999999998,0.2343645572870506,0.5347793547865746,-0.3494166615785167
3.948,0.2332999064433341,0.5518242402615512,-0.3270467765557054
3.951500000000003,0.231168859426649,0.5582156359823544,-0.302544099186957
3.9549999999999983,0.2332999064433341,0.5624759846864725,-0.2673896773932873
3.958500000000001,0.2343645572870506,0.5646070317031576,-0.2386266513204207
3.961999999999996,0.2407576983371058,0.5582156359823544,-0.1885583910684593
3.965499999999999,0.245018047041224,0.5518242402615512,-0.1544686201185061
3.969000000000001,0.2556715367953974,0.5390397034906926,-0.1033339636935762
3.9724999999999966,0.2620629325162006,0.5230612141886847,-0.0671131457269379
3.975999999999999,0.2652586303766022,0.5092120265741096,-0.0255673282124649
3.9795000000000016,0.2673896773932873,0.4953628389595345,0.0
3.982999999999997,0.2663250265495708,0.4740576047804398,0.0245026773687483
3.9865,0.2620629325162006,0.4591437663221482,0.0330233747769847
3.990000000000002,0.2514094427620272,0.4357057397971163,0.0340897709499532
3.993499999999997,0.2428870000245389,0.4239875991992264,0.0255673282124649
3.997,0.2301042085829324,0.4080091098972183,0.0149138384582915
4.000500000000002,0.2226464166891607,0.4005513180034466,-0.002131047016685
4.003999999999998,0.2141239739516723,0.3920288752659583,-0.02769837522915
4.0075,0.2130593231079558,0.3962909692993285,-0.0585907029894496
4.011000000000003,0.1992101354933808,0.4080091098972184,-0.1097253594143795
4.014499999999998,0.1906876927558925,0.42292294835551,-0.1470108282247343
4.018000000000001,0.1885583910684594,0.4463592295512898,-0.2045368803704674
4.021499999999996,0.1842962970350893,0.4687308599033531,-0.247149094057909
4.024999999999999,0.1864273440517743,0.4985585368199362,-0.2972173543098703
4.028500000000001,0.1906876927558925,0.5251905158761178,-0.3366338701369103
4.0319999999999965,0.1992101354933808,0.5603466829990394,-0.3845728287014385
4.035499999999999,0.2077325782308691,0.5912390107593392,-0.4144005056180216
4.0390000000000015,0.2119946722642393,0.6338512244467807,-0.4410324846742031
4.042499999999997,0.2237128128621292,0.6690056462404504,-0.4484902765679749
4.045999999999999,0.2301042085829324,0.7201403026653803,-0.4420988808471717
4.049500000000002,0.2386266513204208,0.7574257714757352,-0.4282496932325966
4.052999999999997,0.2503447919183107,0.8138871727777518,-0.3984202709867616
4.0565,0.2599318854995156,0.8575640373089098,-0.3728546881035486
4.060000000000002,0.2780431671474607,0.9150900894546428,-0.3291760782431385
4.063499999999998,0.2908259585890672,0.9555712561253994,-0.302544099186957
4.067,0.3078708440640438,1.007770563394046,-0.2737810731140905
4.070500000000003,0.3142622397848471,1.0471870792210858,-0.2439533961975074
4.073999999999998,0.3355692192931939,1.0983217356460158,-0.2173214171413259
4.077500000000001,0.3408942188410286,1.1377365061438036,-0.2013411825100658
4.081000000000003,0.3430252658577137,1.1867401155520485,-0.1821652500184041
4.084499999999999,0.3419606150139971,1.2229609335186866,-0.1683160624038291
4.088000000000001,0.3291760782431386,1.254919657451955,-0.1597953649955928
4.091499999999996,0.3131975889411306,1.2815516365081363,-0.1565979218059392
4.094999999999999,0.2908259585890673,1.3124457095976878,-0.1608600158393093
4.098500000000001,0.2727164222703741,1.328425944228948,-0.1736428072809158
4.101999999999997,0.2556715367953975,1.3444044335309562,-0.1981454846496642
4.105499999999999,0.2482137449016257,1.3507958292517597,-0.2205171150017275
4.109000000000002,0.2407576983371059,1.351862225424728,-0.260998281672484
4.112499999999997,0.2460844432141926,1.353991527112161,-0.2929570056057522
4.116,0.2588672346557991,1.3529268762684443,-0.3366338701369103
4.119500000000002,0.268454328237004,1.3454708297039246,-0.3739193389472651
4.1229999999999976,0.2950880526224374,1.3390776886538696,-0.4144005056180216
4.1265,0.3142622397848472,1.328425944228948,-0.4463592295512898
4.130000000000003,0.3398295679973121,1.3167078036310582,-0.480449000501243
4.133499999999998,0.3622011983493754,1.300727568999798,-0.4964292351325031
4.1370000000000005,0.3856374795451552,1.282618032681105,-0.5092120265741096
4.140500000000003,0.3984202709867617,1.2623774493457267,-0.5060163287137079
4.143999999999998,0.4090737607409351,1.231483376256175,-0.503885281697023
4.147500000000001,0.4112048077576202,1.203785001027025,-0.4964292351325031
4.150999999999996,0.4016177141764153,1.1633038343562685,-0.4729912086074713
4.154499999999999,0.3877685265618403,1.132411506595969,-0.4474238803950063
4.158000000000001,0.3728546881035487,1.073819058277267,-0.3984202709867616
4.161499999999997,0.3547434064556035,1.035468938623196,-0.3526141047681703
4.164999999999999,0.3355692192931939,0.9768764903044942,-0.2897613077453506
4.168500000000002,0.3206536355056503,0.933199625773336,-0.2396913021641372
4.171999999999997,0.3153286359578156,0.8746089227838865,-0.1651203645434275
4.1755,0.3100018910807289,0.8288010112360433,-0.1065296615539778
4.179000000000002,0.3110665419244455,0.7680792612299085,-0.0383501196540714
4.182499999999997,0.3153286359578156,0.7265316983861836,0.0053267448770866
4.186,0.328111427399422,0.670072042413419,0.0543303542853314
4.189500000000002,0.3334381722765087,0.6327865736030641,0.0820287295144815
4.192999999999998,0.3366338701369104,0.6082838962343158,0.1075943123976944
4.1965,0.3291760782431385,0.5965657556364258,0.110790010258096
4.200000000000003,0.3195889846619337,0.5901743599156226,0.1139874534477496
4.203499999999998,0.3153286359578156,0.5912390107593392,0.1075943123976944
4.207000000000001,0.3078708440640438,0.5965657556364258,0.0926804739394028
4.210499999999996,0.3046751462036422,0.5976321518093943,0.0756355884644262
4.213999999999999,0.3078708440640438,0.6018925005135125,0.0468725623915597
4.217500000000001,0.3185243338182172,0.5997614534968274,0.0213052341790947
4.2209999999999965,0.339829567997312,0.5901743599156226,-0.0191759324916617
4.224499999999999,0.3568744534722886,0.5837829641948193,-0.055395005129048
4.2280000000000015,0.3803107346680684,0.5720648235969293,-0.1054650107102613
4.231499999999997,0.3930952714389269,0.5635423808594411,-0.1512729222581045
4.234999999999999,0.4112048077576201,0.5422354013510943,-0.2109282760912707
4.238500000000002,0.4175962034784233,0.5230612141886847,-0.2514094427620272
4.241999999999997,0.4207919013388249,0.5006895838366213,-0.300413052170272
4.2455,0.4165315526347068,0.4783179534845579,-0.3334381722765087
4.249000000000002,0.4037470158638483,0.452750625272093,-0.3653968962097769
4.252499999999998,0.3941599222826434,0.43890318298677,-0.3824417816847534
4.256,0.3685925940701785,0.4250539953721949,-0.4037470158638482
4.259500000000003,0.3440916620306821,0.4186608543221397,-0.4133358547743051
4.262999999999998,0.2950880526224373,0.4175962034784232,-0.4154651564617382
4.266500000000001,0.2556715367953974,0.4229229483555099,-0.4154651564617382
4.270000000000003,0.1928187397725776,0.4346410889533998,-0.4122694586013365
4.273499999999999,0.1427504795206162,0.4474238803950063,-0.4133358547743051
4.277000000000001,0.0703088435873396,0.4687308599033531,-0.4048134120368167
4.280499999999996,0.0127827914416065,0.492167141099133,-0.3941599222826434
4.283999999999999,-0.0500682602519612,0.5294526099094878,-0.3824417816847534
4.287500000000001,-0.0980072188164895,0.5582156359823544,-0.3707236410868635
4.290999999999997,-0.1480754790684508,0.5933700577760241,-0.355809802628572
4.294499999999999,-0.1779049013142859,0.626395177882261,-0.3472873598910836
4.298000000000002,-0.2024058333537823,0.6594185526592456,-0.3366338701369103
4.301499999999997,-0.2098636252475541,0.6828548338550254,-0.3366338701369103
4.305,-0.2087989744038375,0.7190756518216638,-0.3291760782431385
4.308500000000002,-0.1917540889288609,0.7414472821737271,-0.3281114273994219
4.311999999999998,-0.1470108282247343,0.7574257714757352,-0.3270467765557054
4.3155,-0.1054650107102612,0.767014610386192,-0.3217200316786187
4.319000000000003,-0.0340897709499531,0.7723396099340267,-0.316393286801532
4.322499999999998,0.0287630260728666,0.7680792612299085,-0.314262239784847
4.3260000000000005,0.1267702448893562,0.7595568184924202,-0.3110665419244454
4.329500000000003,0.2013411825100659,0.7510343757549319,-0.3110665419244454
4.332999999999998,0.2886949115723821,0.7339894902799553,-0.3121311927681619
4.336500000000001,0.3494166615785168,0.7222713496820654,-0.3068061932203272
4.339999999999996,0.420791901338825,0.6967040214696004,-0.3078708440640437
4.343499999999999,0.4538170214450616,0.6796591359946238,-0.3046751462036421
4.347000000000001,0.4847093492053612,0.6487650629050721,-0.2993484013265554
4.350499999999997,0.4942981881158181,0.6274598287259774,-0.3014794483432405
4.353999999999999,0.4836446983616447,0.5944364539489926,-0.2961527034661538
4.357500000000002,0.4602084171658648,0.563542380859441,-0.2982837504828389
4.360999999999997,0.4133358547743052,0.5251905158761178,-0.2929570056057522
4.3645,0.3717882919305801,0.4974938859762196,-0.2854992137119804
4.368000000000002,0.3057397970473587,0.466599812886668,-0.2737810731140905
4.3714999999999975,0.2535404897787123,0.4442281825346046,-0.258867234655799
4.375,0.1874919948954909,0.4080091098972184,-0.2343645572870505
4.3785000000000025,0.1395530363309626,0.3771150368076668,-0.2141239739516723
4.381999999999998,0.0756355884644263,0.3408942188410284,-0.1906876927558924
4.3855,0.0266319790561815,0.3121311927681619,-0.177904901314286
4.389000000000003,-0.0319587239332681,0.2833681666952953,-0.1672514115601126
4.392499999999998,-0.0788312863248278,0.2620629325162006,-0.1576643179789077
4.396000000000001,-0.1352926876268444,0.2364956043037356,-0.1438151303643327
4.399499999999996,-0.1768385051413174,0.2162550209683574,-0.1320969897664428
4.402999999999999,-0.2290395577392158,0.1960144376329791,-0.1289012919060412
4.406500000000001,-0.2631275833599171,0.1768385051413175,-0.1139874534477496
4.409999999999997,-0.3036087500306735,0.1629910628559944,-0.1043986145372928
4.413499999999999,-0.3259803803827369,0.1480754790684509,-0.0948115209560879
4.417000000000002,-0.341960615013997,0.136357338470561,-0.083093380358198
4.420499999999997,-0.3483520107348002,0.1161167551351827,-0.0713752397603081
4.424,-0.3387649171535954,0.0958761717998045,-0.0607217500061347
4.427500000000002,-0.316393286801532,0.0735062867769932,-0.0543303542853314
4.430999999999997,-0.2769767709744921,0.0426122136874415,-0.0479389585645282
4.4345,-0.2439533961975074,0.0223716303520633,-0.0404811666707564
4.438000000000002,-0.2024058333537824,2.4787565594546218e-17,-0.0340897709499532
4.441499999999998,-0.1448797812080492,-0.0234362811957798,-0.0255673282124649
4.445,-0.1065296615539778,-0.043676864531158,-0.0213052341790947
4.448500000000003,-0.0521993072686464,-0.0628527970228197,-0.0063913957208032
4.451999999999998,-0.0245026773687484,-0.0767019846373948,-0.002131047016685
4.455500000000001,0.0074577918937717,-0.0926804739394028,0.0085224427374883
4.458999999999996,0.0234362811957798,-0.1012029166768912,0.0181095363186931
4.462499999999999,0.0319587239332681,-0.1097253594143795,0.02769837522915
4.466000000000001,0.0372854688103548,-0.1118564064310645,0.0383501196540714
4.4694999999999965,0.0319587239332681,-0.1129210572747811,0.0617864008498512
4.472999999999999,0.0255673282124649,-0.1129210572747811,0.0777666354811113
4.4765000000000015,0.0117181405978899,-0.1086607085706629,0.1033339636935762
4.479999999999997,0.002131047016685,-0.1054650107102613,0.1214435000122694
4.483499999999999,-0.0234362811957798,-0.1054650107102613,0.1374237346435295
4.487000000000002,-0.0436768645311581,-0.1054650107102613,0.1491418752414194
4.490499999999997,-0.0724398906040246,-0.1033339636935762,0.1597953649955928
4.494,-0.0916158230956863,-0.0948115209560879,0.1715135055934827
4.497500000000002,-0.1203788491685529,-0.0873537290623161,0.1811005991746876
4.500999999999998,-0.1395530363309626,-0.0798976824977964,0.1874919948954908
4.5045,-0.1555332709622227,-0.0703088435873395,0.1970790884766957
4.508000000000003,-0.1672514115601126,-0.0756355884644262,0.1970790884766957
4.511499999999998,-0.1757738542976009,-0.0798976824977963,0.2013411825100658
4.515000000000001,-0.1725781564371993,-0.0926804739394028,0.1949497867892626
4.518500000000003,-0.1747092034538843,-0.1097253594143794,0.1821652500184041
4.521999999999999,-0.1683160624038291,-0.1257055940456395,0.1715135055934827
4.525500000000001,-0.1555332709622227,-0.1480754790684509,0.1576643179789077
4.528999999999996,-0.1470108282247344,-0.1725781564371993,0.1512729222581045
4.532499999999999,-0.1278348957330727,-0.2034722295267509,0.1491418752414194
4.536000000000001,-0.1150521042914662,-0.2290395577392158,0.152337573101821
4.539499999999997,-0.1043986145372928,-0.2620629325162006,0.1597953649955928
4.542999999999999,-0.0926804739394029,-0.286565609884949,0.1736428072809158
4.546500000000002,-0.0862890782185997,-0.3174579376452486,0.1928187397725775
4.549999999999997,-0.0862890782185997,-0.341960615013997,0.2087989744038376
4.5535,-0.0905494269227178,-0.3685925940701784,0.2301042085829324
4.557000000000002,-0.1012029166768912,-0.3952245731263599,0.2503447919183106
4.5604999999999976,-0.1107900102580961,-0.4154651564617382,0.2663250265495707
4.564,-0.1246391978726711,-0.4314453910929982,0.2801724688348938
4.567500000000003,-0.1384883854872461,-0.4452945787075733,0.2918906094327836
4.570999999999998,-0.1470108282247344,-0.4484902765679749,0.302544099186957
4.5745000000000005,-0.1619246666830259,-0.4516859744283765,0.3100018910807288
4.578000000000003,-0.1693824585767977,-0.4506213235846599,0.3153286359578155
4.581499999999998,-0.1683160624038292,-0.4463592295512898,0.3174579376452486
4.585000000000001,-0.1693824585767977,-0.4410324846742031,0.3206536355056502
4.588499999999996,-0.1704471094205142,-0.4346410889533998,0.3121311927681619
4.591999999999999,-0.1715135055934828,-0.4293143440763132,0.3078708440640437
4.595500000000001,-0.1693824585767977,-0.4207919013388249,0.3036087500306735
4.598999999999997,-0.1736428072809159,-0.4154651564617382,0.2950880526224372
4.602499999999999,-0.1789695521580026,-0.4080091098972184,0.2854992137119804
4.606000000000002,-0.1906876927558925,-0.4037470158638482,0.2737810731140905
4.609499999999997,-0.2034722295267509,-0.4005513180034466,0.2546051406224288
4.613,-0.2215817658454441,-0.3984202709867616,0.2396913021641372
4.616500000000002,-0.2418223491808223,-0.3888331774055567,0.2215817658454441
4.619999999999997,-0.2567361876391139,-0.3803107346680683,0.2162550209683574
4.6235,-0.2737810731140905,-0.3749839897909816,0.2024058333537824
4.627000000000002,-0.2833681666952954,-0.3664615470534933,0.1928187397725775
4.630499999999998,-0.2908259585890672,-0.3547434064556033,0.1853609478788057
4.634,-0.2844345628682639,-0.3462209637181151,0.1811005991746876
4.637500000000003,-0.272716422270374,-0.3366338701369102,0.1736428072809158
4.640999999999998,-0.2556715367953974,-0.3249157295390203,0.1651203645434275
4.644500000000001,-0.2247774637058457,-0.3174579376452486,0.1587289688226243
4.647999999999996,-0.191754088928861,-0.3121311927681619,0.1565979218059392
4.651499999999999,-0.1448797812080493,-0.3100018910807288,0.152337573101821
4.655000000000001,-0.1043986145372928,-0.3089354949077603,0.1544686201185061
4.6584999999999965,-0.0458079115478432,-0.3100018910807288,0.1672514115601126
4.661999999999999,-0.0031956978604016,-0.3100018910807288,0.1757738542976009
4.6655000000000015,0.0490036094082447,-0.3227846825223353,0.191754088928861
4.668999999999997,0.0798976824977963,-0.3345028231202252,0.2087989744038376
4.672499999999999,0.1225098961852379,-0.3579391043160051,0.2311688594266489
4.676000000000002,0.138488385487246,-0.3803107346680683,0.2450180470412239
4.679499999999997,0.1597953649955927,-0.4133358547743051,0.2663250265495707
4.683,0.1715135055934827,-0.4399678338304866,0.2769767709744921
4.686500000000002,0.1821652500184041,-0.4751222556241564,0.2929570056057522
4.689999999999998,0.1885583910684593,-0.5060163287137079,0.3014794483432405
4.6935,0.2002765316663492,-0.5454328445407479,0.3174579376452486
4.697000000000003,0.2056015312141839,-0.5741958706136145,0.3259803803827369
4.700499999999998,0.2119946722642391,-0.605088198373914,0.3398295679973119
4.704000000000001,0.2162550209683573,-0.6295908757426625,0.3483520107348002
4.707500000000003,0.221581765845444,-0.6583539018155291,0.3600701513326901
4.710999999999999,0.2194507188287589,-0.6753987872905056,0.3643322453660603
4.714500000000001,0.2226464166891605,-0.6956393706258839,0.369657244913895
4.717999999999996,0.2183860679850424,-0.7062911150508053,0.3685925940701784
4.721499999999999,0.2119946722642391,-0.7201403026653803,0.3600701513326901
4.725000000000001,0.2024058333537823,-0.7265316983861836,0.3536787556118869
4.728499999999997,0.1885583910684592,-0.7318584432632703,0.3387649171535954
4.731999999999999,0.1757738542976008,-0.7329248394362388,0.3259803803827369
4.735500000000002,0.1555332709622226,-0.7329248394362388,0.3057397970473587
4.738999999999997,0.1331616406101592,-0.7361205372966404,0.2854992137119804
4.7425,0.0980072188164895,-0.7350541411236718,0.2524758389349957
4.746000000000002,0.0543303542853313,-0.7307937924195538,0.2290395577392158
4.749499999999998,-0.0010646508437166,-0.7222713496820654,0.2024058333537824
4.753,-0.0447432607041267,-0.7169446048049787,0.1821652500184041
4.756500000000003,-0.1054650107102614,-0.7116178599278921,0.1608600158393093
4.759999999999998,-0.150206526085136,-0.7020307663466872,0.1438151303643327
4.7635000000000005,-0.2098636252475542,-0.6935083236091989,0.124639197872671
4.767000000000003,-0.2503447919183107,-0.6881815787321122,0.1075943123976944
4.770499999999998,-0.3014794483432405,-0.6785944851509074,0.0884201252352847
4.774000000000001,-0.3366338701369104,-0.6732677402738206,0.0809623333415129
4.777499999999996,-0.3824417816847535,-0.6658099483800488,0.069244192743623
4.780999999999999,-0.4133358547743052,-0.6626142505196473,0.0628527970228197
4.784500000000001,-0.4420988808471717,-0.6615495996759307,0.0649838440395048
4.787999999999997,-0.4634041150262665,-0.6626142505196472,0.0756355884644262
4.791499999999999,-0.4793843496575266,-0.6647452975363322,0.0894847760790012
4.795000000000002,-0.4836446983616447,-0.6700720424134189,0.1043986145372928
4.798499999999997,-0.4836446983616447,-0.6711366932571354,0.1203788491685528
4.802,-0.4804490005012431,-0.6743323911175371,0.1278348957330726
4.805500000000002,-0.464468765869983,-0.6711366932571354,0.1299659427497577
4.8089999999999975,-0.45062132358466,-0.6743323911175372,0.1257055940456395
4.8125,-0.4261186462159116,-0.6690056462404504,0.1203788491685528
4.8160000000000025,-0.4069427137242499,-0.6626142505196473,0.1054650107102613
4.819499999999998,-0.38350643252847,-0.6562228547988439,0.0873537290623162
4.823,-0.3622011983493753,-0.644504714200954,0.0756355884644262
4.826500000000003,-0.339829567997312,-0.6338512244467807,0.0500682602519613
4.829999999999998,-0.3227846825223353,-0.6200020368322057,0.029827676916583
4.833500000000001,-0.3089354949077603,-0.6072192453905992,0.0
4.836999999999996,-0.2982837504828389,-0.5965657556364258,-0.02769837522915
4.840499999999999,-0.2929570056057523,-0.5880433128989375,-0.0724398906040246
4.844000000000001,-0.2918906094327837,-0.5731294744406459,-0.1033339636935762
4.847499999999997,-0.2972173543098704,-0.5646070317031576,-0.1512729222581045
4.850999999999999,-0.3036087500306736,-0.5571509851386378,-0.1885583910684593
4.854500000000002,-0.3185243338182172,-0.5496931932448661,-0.2343645572870505
4.857999999999997,-0.3345028231202253,-0.5433017975240628,-0.2705853752536888
4.8615,-0.3685925940701785,-0.5390397034906926,-0.3174579376452486
4.865000000000002,-0.4005513180034467,-0.5401060996636612,-0.3451563128743986
4.868499999999997,-0.4442281825346048,-0.5443664483677794,-0.3845728287014385
4.872,-0.4815136513449596,-0.5486285424011494,-0.4048134120368167
4.875500000000002,-0.5273215628928029,-0.5592802868260709,-0.4239875991992265
4.878999999999998,-0.5560845889656695,-0.5646070317031575,-0.4293143440763132
4.8825,-0.5880433128989376,-0.579520870161449,-0.425053995372195
4.886000000000003,-0.6082838962343159,-0.593370057776024,-0.4165315526347067
4.889499999999998,-0.6210684330051743,-0.6114795940947173,-0.4058780628805333
4.893000000000001,-0.6200020368322058,-0.6274598287259774,-0.3930952714389268
4.896499999999996,-0.612545990267686,-0.6477004120613555,-0.3845728287014385
4.899999999999999,-0.5976321518093944,-0.6604849488322141,-0.3749839897909817
4.903500000000001,-0.5773915684740162,-0.6775280889779386,-0.3590055004889736
4.9069999999999965,-0.5560845889656695,-0.6849858808717104,-0.3494166615785167
4.910499999999999,-0.529452609909488,-0.6977686723133169,-0.3345028231202252
4.9140000000000015,-0.5113430735907948,-0.6977686723133169,-0.3217200316786187
4.917499999999997,-0.4815136513449597,-0.6935083236091988,-0.3046751462036421
4.920999999999999,-0.46233946418255,-0.6839212300279939,-0.2908259585890671
4.924500000000002,-0.4431635316908883,-0.6785944851509074,-0.2780431671474606
4.927999999999997,-0.4303807402492817,-0.6679409953967339,-0.2705853752536888
4.9315,-0.4133358547743052,-0.6551582039551274,-0.2716500260974054
4.935000000000002,-0.4133358547743052,-0.6455693650446706,-0.2705853752536888
4.938499999999998,-0.4037470158638483,-0.6295908757426625,-0.2663250265495707
4.942,-0.4005513180034467,-0.6200020368322057,-0.2716500260974054
4.945500000000003,-0.3888331774055568,-0.6061545945468827,-0.2737810731140905
4.948999999999998,-0.38350643252847,-0.5891097090719061,-0.274847469287059
4.952500000000001,-0.3717882919305801,-0.5720648235969293,-0.2812388650078622
4.956000000000003,-0.367527943226462,-0.561411333842756,-0.2823035158515788
4.959499999999999,-0.3504830577514853,-0.547562146228181,-0.2876302607286655
4.963000000000001,-0.3366338701369104,-0.5411707505073777,-0.288694911572382
4.966499999999996,-0.3206536355056503,-0.5294526099094878,-0.2908259585890671
4.969999999999999,-0.2993484013265555,-0.5219948180157161,-0.288694911572382
4.973500000000001,-0.2769767709744922,-0.5092120265741096,-0.2801724688348938
4.976999999999997,-0.2599318854995155,-0.4996249329929047,-0.2727164222703739
4.980499999999999,-0.2354309534600191,-0.4815136513449595,-0.2578025838120824
4.984000000000002,-0.2151903701246409,-0.4708619069200382,-0.2418223491808223
4.987499999999997,-0.1885583910684594,-0.4548816722887781,-0.2162550209683574
4.991,-0.1736428072809159,-0.4431635316908882,-0.1928187397725775
4.994500000000002,-0.1480754790684509,-0.4271832970596281,-0.1651203645434275
4.9979999999999976,-0.1320969897664428,-0.4154651564617382,-0.1395530363309626
5.0015,-0.108660708570663,-0.4048134120368167,-0.1043986145372928
5.005000000000003,-0.094811520956088,-0.3920288752659583,-0.0756355884644262
5.008499999999998,-0.0703088435873396,-0.3898978282492732,-0.041545817514473
5.0120000000000005,-0.0543303542853315,-0.3845728287014385,-0.0149138384582915
5.015500000000003,-0.0372854688103549,-0.3760503859639502,0.0170448854749766
5.018999999999998,-0.0330233747769847,-0.3664615470534934,0.0362208179666383
5.022500000000001,-0.0319587239332682,-0.3515477085952018,0.0596570991624181
5.025999999999996,-0.0383501196540714,-0.3408942188410284,0.0767019846373948
5.029499999999999,-0.055395005129048,-0.3227846825223353,0.1022693128498597
5.033000000000001,-0.069244192743623,-0.3078708440640437,0.1171831513081512
5.036499999999997,-0.0926804739394029,-0.2876302607286655,0.138488385487246
5.039999999999999,-0.110790010258096,-0.2759121201307756,0.150206526085136
5.043500000000002,-0.1331616406101594,-0.2546051406224288,0.1651203645434275
5.046999999999997,-0.1459461773810178,-0.2439533961975073,0.1757738542976009
5.0505,-0.1608600158393094,-0.2237128128621291,0.1874919948954908
5.054000000000002,-0.1693824585767977,-0.2119946722642392,0.1885583910684593
5.057499999999997,-0.1747092034538844,-0.1981454846496642,0.1896230419121759
5.061,-0.1747092034538844,-0.1853609478788057,0.1896230419121759
5.064500000000002,-0.1725781564371993,-0.1683160624038291,0.1938833906162941
5.067999999999998,-0.1672514115601126,-0.1555332709622226,0.1970790884766957
5.0715,-0.1544686201185061,-0.1374237346435295,0.2013411825100658
5.075000000000003,-0.1416840833476477,-0.1257055940456395,0.205601531214184
5.078499999999998,-0.1267702448893561,-0.1054650107102613,0.2130593231079557
5.082000000000001,-0.1129210572747811,-0.0937468701123714,0.2141239739516723
5.085499999999996,-0.0926804739394029,-0.0703088435873395,0.219450718828759
5.088999999999999,-0.0809623333415129,-0.0564614013020165,0.2173214171413259
5.092500000000001,-0.0681795418999064,-0.0308940730895516,0.2226464166891606
5.0959999999999965,-0.0511346564249298,-0.0149138384582915,0.2258421145495622
5.099499999999999,-0.0362208179666383,0.0053267448770866,0.2301042085829324
5.1030000000000015,-0.029827676916583,0.0234362811957798,0.2364956043037356
5.106499999999997,-0.0191759324916616,0.0383501196540714,0.2439533961975074
5.109999999999999,-0.0063913957208032,0.0521993072686464,0.2450180470412239
5.113500000000002,0.0074577918937717,0.0671131457269379,0.2514094427620272
5.116999999999997,0.0181095363186931,0.0767019846373948,0.2524758389349957
5.1205,0.0308940730895516,0.0873537290623162,0.2546051406224288
5.124000000000002,0.0500682602519613,0.0958761717998045,0.2567361876391139
5.127499999999998,0.0671131457269379,0.1054650107102613,0.2514094427620272
5.131,0.0724398906040246,0.1065296615539778,0.2450180470412239
5.134500000000003,0.0820287295144815,0.1033339636935762,0.2343645572870505
5.137999999999998,0.0862890782185996,0.1001382658331746,0.2237128128621291
5.141500000000001,0.0894847760790013,0.0926804739394028,0.2066679273871525
5.145000000000003,0.0862890782185996,0.0884201252352847,0.1928187397725775
5.148499999999999,0.0809623333415129,0.083093380358198,0.1736428072809158
5.152000000000001,0.0756355884644262,0.0777666354811113,0.152337573101821
5.155499999999996,0.0628527970228198,0.069244192743623,0.1352926876268444
5.158999999999999,0.0564614013020165,0.0607217500061347,0.124639197872671
5.162500000000001,0.0426122136874415,0.0511346564249298,0.1065296615539778
5.165999999999997,0.0234362811957798,0.0447432607041266,0.0948115209560879
5.169499999999999,0.0042603487041181,0.0436768645311581,0.0862890782185996
5.173000000000002,-0.0095870935812048,0.0436768645311581,0.0862890782185996
5.176499999999997,-0.0330233747769847,0.0511346564249298,0.0873537290623162
5.18,-0.0468725623915597,0.0511346564249298,0.0990718696602061
5.183500000000002,-0.0596570991624181,0.0596570991624181,0.1182478021518678
5.186999999999998,-0.0617864008498512,0.0596570991624181,0.1395530363309626
5.1905,-0.0543303542853314,0.0628527970228197,0.1693824585767977
5.194000000000003,-0.0458079115478431,0.0681795418999064,0.1885583910684593
5.197499999999998,-0.0234362811957798,0.0660484948832214,0.2162550209683574
5.2010000000000005,-0.002131047016685,0.0724398906040246,0.2343645572870505
5.204500000000003,0.0330233747769847,0.0756355884644262,0.2578025838120824
5.207999999999998,0.0660484948832214,0.0841580312019145,0.2791078179911772
5.211500000000001,0.1075943123976944,0.0916158230956863,0.300413052170272
5.214999999999996,0.1416840833476476,0.1001382658331746,0.3195889846619337
5.218499999999999,0.1853609478788057,0.1118564064310645,0.3462209637181151
5.222000000000001,0.2162550209683574,0.1182478021518678,0.3590055004889736
5.225499999999997,0.2556715367953973,0.1320969897664428,0.3707236410868635
5.228999999999999,0.2791078179911772,0.1438151303643327,0.3813771308410369
5.232500000000002,0.3131975889411305,0.1587289688226242,0.38350643252847
5.235999999999997,0.3291760782431385,0.1651203645434275,0.3781796876513833
5.2395,0.3494166615785167,0.1853609478788057,0.3749839897909817
5.243000000000002,0.3643322453660603,0.2002765316663492,0.3600701513326901
5.2464999999999975,0.3771150368076668,0.2247774637058456,0.3451563128743986
5.25,0.3824417816847535,0.2428870000245388,0.3291760782431385
5.2535000000000025,0.3898978282492733,0.2727164222703739,0.300413052170272
5.256999999999998,0.38350643252847,0.2961527034661537,0.2801724688348938
5.2605,0.3632658491930918,0.3334381722765086,0.2492801410745941
5.264000000000003,0.3494166615785168,0.357939104316005,0.233299906443334
5.267499999999998,0.3259803803827369,0.397355620143045,0.2045368803704674
5.271000000000001,0.2993484013265555,0.4239875991992264,0.1874919948954908
5.274499999999996,0.2684543282370039,0.4634041150262664,0.1683160624038291
5.277999999999999,0.2471490940579091,0.4974938859762196,0.1629910628559944
5.281500000000001,0.2173214171413259,0.5369104018032596,0.1544686201185061
5.284999999999997,0.2013411825100659,0.5635423808594411,0.1448797812080492
5.288499999999999,0.1842962970350893,0.5965657556364258,0.1480754790684509
5.292000000000002,0.1715135055934828,0.6136106411114024,0.1470108282247343
5.295499999999997,0.1672514115601127,0.6434400633572375,0.150206526085136
5.299,0.1736428072809159,0.6615495996759307,0.1534022239455376
5.302500000000002,0.189623041912176,0.6796591359946239,0.1619246666830259
5.305999999999997,0.2141239739516724,0.6998997193300021,0.1704471094205142
5.3095,0.2471490940579091,0.7201403026653803,0.1811005991746876
5.313000000000002,0.2759121201307757,0.7329248394362388,0.1928187397725775
5.316499999999998,0.3195889846619338,0.7489033287382468,0.2045368803704674
5.32,0.3558098026285721,0.7552947244590501,0.2119946722642392
5.323500000000003,0.3984202709867617,0.767014610386192,0.2162550209683574
5.326999999999998,0.4261186462159116,0.7680792612299085,0.2119946722642392
5.330500000000001,0.4676662090596367,0.7755353077944283,0.2077325782308691
5.333999999999996,0.490036094082448,0.7734060061069952,0.1885583910684593
5.337499999999999,0.5113430735907948,0.7797974018277983,0.1640557136997109
5.341000000000001,0.5198655163282832,0.7776663548111133,0.1427504795206162
5.3444999999999965,0.5230612141886848,0.7744706569507117,0.1033339636935762
5.347999999999999,0.5166698184678815,0.7712749590903101,0.0756355884644262
5.3515000000000015,0.4921671410991331,0.7702103082465935,0.0383501196540714
5.354999999999997,0.4740576047804399,0.7712749590903101,0.0085224427374883
5.358499999999999,0.4420988808471718,0.7723396099340267,-0.0223716303520633
5.362000000000002,0.4133358547743052,0.7744706569507118,-0.0447432607041266
5.365499999999997,0.3792460838243519,0.7691439120736251,-0.069244192743623
5.369,0.3590055004889737,0.7627525163528219,-0.0820287295144815
5.372500000000002,0.3355692192931939,0.7499697249112154,-0.0884201252352847
5.375999999999998,0.3163932868015321,0.7382515843133254,-0.0916158230956863
5.3795,0.312131192768162,0.7222713496820654,-0.0884201252352847
5.383000000000003,0.312131192768162,0.6988350684862855,-0.0777666354811113
5.386499999999998,0.3291760782431385,0.6764634381342222,-0.0681795418999064
5.390000000000001,0.3408942188410285,0.6594185526592456,-0.0596570991624181
5.393500000000003,0.3632658491930918,0.6338512244467807,-0.0490036094082447
5.396999999999999,0.3781796876513834,0.6082838962343158,-0.041545817514473
5.400500000000001,0.3930952714389269,0.5773915684740161,-0.0319587239332681
5.403999999999996,0.3973556201430451,0.5518242402615512,-0.0245026773687483
5.407499999999999,0.3941599222826434,0.5070809795574245,-0.0127827914416064
5.411000000000001,0.3867021303888717,0.4815136513449595,0.002131047016685
5.414499999999997,0.3739193389472652,0.4367721359700849,0.0181095363186931
5.417999999999999,0.3568744534722886,0.4090737607409349,0.0340897709499532
5.421500000000002,0.3323735214327922,0.3739193389472651,0.0500682602519613
5.424999999999997,0.302544099186957,0.3526141047681703,0.0628527970228197
5.4285,0.2737810731140905,0.3227846825223352,0.0671131457269379
5.432000000000002,0.2407576983371058,0.2993484013265554,0.0639174478665363
5.4354999999999976,0.2024058333537824,0.2620629325162006,0.0543303542853314
5.439,0.1725781564371993,0.2375620004767041,0.0436768645311581
5.442500000000003,0.1384883854872461,0.1981454846496642,0.0223716303520633
5.445999999999998,0.1193124529955843,0.1693824585767976,-0.002131047016685
5.4495000000000005,0.0926804739394029,0.1310323389227262,-0.0362208179666383
5.453000000000003,0.0873537290623162,0.1065296615539778,-0.0713752397603081
5.456499999999998,0.0777666354811113,0.0756355884644262,-0.1203788491685528
5.460000000000001,0.0703088435873395,0.055395005129048,-0.1651203645434275
5.463499999999996,0.0713752397603081,0.0372854688103548,-0.2215817658454441
5.466999999999999,0.0671131457269379,0.0351544217936697,-0.2684543282370038
5.470500000000001,0.0724398906040246,0.0362208179666383,-0.316393286801532
5.473999999999997,0.0777666354811113,0.043676864531158,-0.3483520107348002
5.477499999999999,0.0926804739394029,0.0596570991624181,-0.3760503859639502
5.481000000000002,0.1065296615539779,0.0777666354811113,-0.3941599222826434
5.484499999999997,0.1427504795206162,0.1033339636935762,-0.4069427137242498
5.488,0.1619246666830259,0.1161167551351827,-0.4090737607409349
5.491500000000002,0.1992101354933808,0.1363573384705609,-0.4080091098972184
5.494999999999997,0.2279731615662473,0.1480754790684509,-0.4026823650201317
5.4985,0.2684543282370038,0.1576643179789077,-0.3898978282492732
5.502000000000002,0.2940216564494687,0.1672514115601125,-0.3749839897909817
5.505499999999998,0.3302424744161071,0.1683160624038291,-0.3462209637181151
5.509,0.3515477085952018,0.1683160624038291,-0.3185243338182171
5.512500000000003,0.3739193389472651,0.1672514115601125,-0.2663250265495707
5.515999999999998,0.3856374795451551,0.166186760716396,-0.2311688594266489
5.519500000000001,0.3845728287014385,0.1619246666830258,-0.1821652500184041
5.522999999999996,0.3803107346680683,0.1640557136997109,-0.1416840833476476
5.526499999999999,0.3611348021764067,0.1640557136997109,-0.0980072188164895
5.530000000000001,0.3408942188410284,0.1672514115601125,-0.0724398906040246
5.5334999999999965,0.3057397970473587,0.1736428072809158,-0.0404811666707564
5.536999999999999,0.2769767709744921,0.1885583910684593,-0.0266319790561814
5.5405000000000015,0.2290395577392159,0.2151903701246408,-0.01598023463126
5.543999999999997,0.1928187397725775,0.2396913021641372,-0.0191759324916617
5.547499999999999,0.1395530363309626,0.2780431671474606,-0.0181095363186931
5.551000000000002,0.1001382658331747,0.3089354949077603,-0.0319587239332681
5.554499999999997,0.0521993072686464,0.3451563128743986,-0.0575260521457331
5.558,0.0159802346312601,0.3717882919305801,-0.0820287295144815
5.561500000000002,-0.0223716303520632,0.4005513180034466,-0.1225098961852379
5.564999999999998,-0.0543303542853314,0.4175962034784233,-0.1544686201185061
5.5685,-0.0788312863248278,0.4431635316908882,-0.2002765316663493
5.572000000000003,-0.1001382658331746,0.4602084171658648,-0.2343645572870505
5.575499999999998,-0.1214435000122693,0.4836446983616446,-0.2769767709744921
