time,Gyr_X,Gyr_Y,Gyr_Z
0.0,0.0,0.0,0.0106534897541733
0.0035000000000025,-0.002131047016685,-0.0031956978604016,0.0117181405978899
0.007000000000005,-0.0031956978604016,-0.002131047016685,0.0106534897541733
0.0105000000000075,0.0010646508437165,-0.002131047016685,0.0074577918937717
0.0139999999999815,-0.002131047016685,-0.002131047016685,0.0106534897541733
0.017499999999984,-0.0010646508437165,-0.0031956978604016,0.0085224427374883
0.0209999999999865,-0.0042603487041181,-0.0010646508437165,0.0095870935812048
0.024499999999989,-0.0010646508437165,-0.0031956978604016,0.0074577918937717
0.0279999999999915,-0.0010646508437165,-0.0010646508437165,0.0085224427374883
0.031499999999994,-0.0010646508437165,-0.002131047016685,0.0117181405978899
0.0349999999999965,-0.0010646508437165,-0.0010646508437165,0.0085224427374883
0.038499999999999,-0.002131047016685,-0.0010646508437165,0.0085224427374883
0.0420000000000015,-0.0053267448770866,-0.0031956978604016,0.0074577918937717
0.045500000000004,-0.0031956978604016,0.0,0.0085224427374883
0.0490000000000065,-0.002131047016685,-0.002131047016685,0.0042603487041181
0.052500000000009,0.0,-0.0010646508437165,0.0074577918937717
0.0559999999999831,-0.0010646508437165,-0.0010646508437165,0.0042603487041181
0.0594999999999856,-0.002131047016685,-0.002131047016685,0.002131047016685
0.0629999999999881,-0.0031956978604016,-0.0031956978604016,0.0095870935812048
0.0664999999999906,0.0,-0.0042603487041181,0.0085224427374883
0.0699999999999931,-0.0010646508437165,-0.002131047016685,0.0074577918937717
0.0734999999999956,-0.0053267448770866,0.0,0.0074577918937717
0.0769999999999981,0.0,-0.002131047016685,0.0085224427374883
0.0805000000000006,-0.0031956978604016,-0.0042603487041181,0.0095870935812048
0.0840000000000031,0.0,-0.0031956978604016,0.0063913957208032
0.0875000000000056,0.002131047016685,0.0,0.0085224427374883
0.0910000000000081,0.0,0.0,0.0074577918937717
0.0944999999999822,-0.002131047016685,-0.002131047016685,0.0074577918937717
0.0979999999999847,-0.0042603487041181,0.0,0.0063913957208032
0.1014999999999872,-0.0010646508437165,0.0,0.0095870935812048
0.1049999999999897,0.0,-0.002131047016685,0.0085224427374883
0.1084999999999922,-0.002131047016685,0.0,0.0117181405978899
0.1119999999999947,-0.002131047016685,-0.0053267448770866,0.0063913957208032
0.1154999999999972,-0.0042603487041181,-0.0031956978604016,0.0095870935812048
0.1189999999999997,-0.0010646508437165,0.0,0.0085224427374883
0.1225000000000022,-0.0031956978604016,-0.0010646508437165,0.0074577918937717
0.1260000000000047,-0.002131047016685,-0.002131047016685,0.0095870935812048
0.1295000000000072,-0.002131047016685,-0.0031956978604016,0.0063913957208032
0.1330000000000097,-0.0053267448770866,-0.0031956978604016,0.0074577918937717
0.1364999999999838,-0.0042603487041181,0.0,0.0074577918937717
0.1399999999999863,-0.0010646508437165,0.0,0.0063913957208032
0.1434999999999888,0.0,0.0,0.0095870935812048
0.1469999999999913,-0.0042603487041181,-0.0042603487041181,0.0063913957208032
0.1504999999999938,-0.0031956978604016,0.0,0.0117181405978899
0.1539999999999963,0.0,-0.0010646508437165,0.0085224427374883
0.1574999999999988,0.0010646508437165,-0.0042603487041181,0.0063913957208032
0.1610000000000013,0.0,-0.0010646508437165,0.0095870935812048
0.1645000000000038,0.0,-0.0010646508437165,0.0095870935812048
0.1680000000000063,-0.002131047016685,-0.0042603487041181,0.0095870935812048
0.1715000000000088,-0.0010646508437165,0.0,0.0074577918937717
0.1749999999999829,-0.002131047016685,0.0,0.0063913957208032
0.1784999999999854,0.0,0.0010646508437165,0.0095870935812048
0.1819999999999879,0.0,-0.0010646508437165,0.0063913957208032
0.1854999999999904,0.0,0.0,0.0063913957208032
0.1889999999999929,-0.0031956978604016,0.0010646508437165,0.0117181405978899
0.1924999999999954,-0.0042603487041181,-0.002131047016685,0.0074577918937717
0.1959999999999979,-0.002131047016685,0.0,0.0074577918937717
0.1995000000000004,0.0,-0.0010646508437165,0.0053267448770866
0.2030000000000029,-0.0031956978604016,-0.0010646508437165,0.0053267448770866
0.2065000000000054,-0.0031956978604016,-0.002131047016685,0.0074577918937717
0.2100000000000079,-0.0010646508437165,0.0,0.0085224427374883
0.213499999999982,-0.002131047016685,-0.0031956978604016,0.0042603487041181
0.2169999999999845,0.0,-0.0010646508437165,0.0106534897541733
0.220499999999987,-0.0042603487041181,-0.0010646508437165,0.0117181405978899
0.2239999999999895,-0.0053267448770866,-0.0010646508437165,0.0053267448770866
0.227499999999992,0.0,-0.002131047016685,0.0085224427374883
0.2309999999999945,-0.0031956978604016,-0.0010646508437165,0.0063913957208032
0.234499999999997,0.0,-0.002131047016685,0.0095870935812048
0.2379999999999995,-0.0031956978604016,-0.002131047016685,0.0074577918937717
0.241500000000002,-0.0010646508437165,-0.0010646508437165,0.0031956978604016
0.2450000000000045,-0.002131047016685,-0.0010646508437165,0.0063913957208032
0.248500000000007,-0.0031956978604016,-0.0010646508437165,0.0042603487041181
0.2520000000000095,-0.0031956978604016,0.0,0.0117181405978899
0.2554999999999836,0.0,-0.0031956978604016,0.0053267448770866
0.2589999999999861,-0.0053267448770866,-0.002131047016685,0.0074577918937717
0.2624999999999886,-0.002131047016685,-0.002131047016685,0.0085224427374883
0.2659999999999911,-0.0010646508437165,0.0,0.0053267448770866
0.2694999999999936,0.0,-0.0010646508437165,0.0085224427374883
0.2729999999999961,-0.002131047016685,0.0010646508437165,0.0085224427374883
0.2764999999999986,-0.0031956978604016,0.0,0.0106534897541733
0.2800000000000011,-0.002131047016685,-0.0010646508437165,0.0053267448770866
0.2835000000000036,-0.0031956978604016,-0.002131047016685,0.0085224427374883
0.2870000000000061,-0.002131047016685,0.0,0.0074577918937717
0.2905000000000086,-0.0010646508437165,-0.0010646508437165,0.0106534897541733
0.2939999999999827,-0.0031956978604016,0.0,0.0053267448770866
0.2974999999999852,0.002131047016685,-0.0010646508437165,0.0074577918937717
0.3009999999999877,-0.0010646508437165,-0.002131047016685,0.0085224427374883
0.3044999999999902,-0.0010646508437165,-0.0010646508437165,0.0063913957208032
0.3079999999999927,-0.0010646508437165,-0.0042603487041181,0.0053267448770866
0.3114999999999952,0.0,0.0,0.0053267448770866
0.3149999999999977,0.0,0.0,0.0095870935812048
0.3185000000000002,0.0,-0.0042603487041181,0.0074577918937717
0.3220000000000027,-0.0031956978604016,-0.0074577918937717,0.0095870935812048
0.3255000000000052,-0.0042603487041181,0.0340897709499532,-0.0010646508437165
0.3290000000000077,0.0117181405978899,0.0319587239332681,-0.0010646508437165
0.3324999999999818,0.0,-0.0181095363186931,0.0170448854749766
0.3359999999999843,0.0010646508437165,0.002131047016685,0.0117181405978899
0.3394999999999868,0.02769837522915,0.0010646508437165,0.0
0.3429999999999893,0.0106534897541733,-0.0117181405978899,0.0053267448770866
0.3464999999999918,-0.0127827914416064,0.01598023463126,0.013849187614575
0.3499999999999943,0.0010646508437165,0.0053267448770866,0.0117181405978899
0.3534999999999968,0.0063913957208032,-0.0170448854749766,0.0095870935812048
0.3569999999999993,-0.0106534897541733,-0.0170448854749766,0.0053267448770866
0.3605000000000018,-0.0319587239332681,-0.0095870935812048,0.0
0.3640000000000043,-0.0234362811957798,-0.0074577918937717,0.0063913957208032
0.3675000000000068,-0.02769837522915,-0.0117181405978899,0.013849187614575
0.3710000000000093,-0.0245026773687483,-0.0010646508437165,0.0053267448770866
0.3744999999999834,-0.0095870935812048,0.0031956978604016,0.0
0.3779999999999859,0.0,-0.0053267448770866,0.0063913957208032
0.3814999999999884,0.0,0.0,0.0095870935812048
0.3849999999999909,0.0095870935812048,0.0031956978604016,0.0117181405978899
0.3884999999999934,0.0213052341790947,-0.0010646508437165,0.0117181405978899
0.3919999999999959,0.0234362811957798,-0.0085224427374883,0.013849187614575
0.3954999999999984,0.0106534897541733,-0.0042603487041181,0.0095870935812048
0.3990000000000009,0.0095870935812048,-0.002131047016685,0.0085224427374883
0.4025000000000034,0.0,0.0031956978604016,0.013849187614575
0.4060000000000059,-0.0149138384582915,0.0,0.0053267448770866
0.4095000000000084,-0.0213052341790947,0.0,0.0031956978604016
0.4129999999999825,-0.0170448854749766,0.0042603487041181,0.0117181405978899
0.416499999999985,-0.0127827914416064,-0.0010646508437165,0.0117181405978899
0.4199999999999875,-0.0127827914416064,-0.0042603487041181,0.0117181405978899
0.42349999999999,-0.0117181405978899,0.0,0.0042603487041181
0.4269999999999925,-0.0010646508437165,0.0,0.0053267448770866
0.430499999999995,0.0042603487041181,-0.0063913957208032,0.0085224427374883
0.4339999999999975,0.0170448854749766,-0.0010646508437165,0.0149138384582915
0.4375,0.0181095363186931,-0.0010646508437165,0.0117181405978899
0.4410000000000025,0.0095870935812048,-0.0010646508437165,0.0117181405978899
0.444500000000005,-0.0063913957208032,0.0,0.0095870935812048
0.4480000000000075,-0.0053267448770866,0.0010646508437165,0.0074577918937717
0.4514999999999816,-0.0042603487041181,-0.0031956978604016,0.0095870935812048
0.4549999999999841,-0.0085224427374883,-0.002131047016685,0.0095870935812048
0.4584999999999866,-0.0202405833353782,-0.0010646508437165,0.0053267448770866
0.4619999999999891,-0.0213052341790947,-0.002131047016685,0.0074577918937717
0.4654999999999916,-0.0117181405978899,-0.0042603487041181,0.0031956978604016
0.4689999999999941,-0.0042603487041181,-0.0042603487041181,0.0117181405978899
0.4724999999999966,0.0053267448770866,-0.0053267448770866,0.0085224427374883
0.4759999999999991,0.0095870935812048,-0.002131047016685,0.0085224427374883
0.4795000000000016,0.0074577918937717,-0.0031956978604016,0.0095870935812048
0.4830000000000041,0.0085224427374883,-0.0042603487041181,0.0095870935812048
0.4865000000000066,0.0085224427374883,-0.0042603487041181,0.0106534897541733
0.4900000000000091,0.0053267448770866,-0.0031956978604016,0.0117181405978899
0.4934999999999832,0.0,0.0010646508437165,0.0063913957208032
0.4969999999999857,-0.0053267448770866,0.002131047016685,0.0095870935812048
0.5004999999999882,-0.0127827914416064,0.0,0.0063913957208032
0.5039999999999907,-0.0202405833353782,-0.0010646508437165,0.0085224427374883
0.5074999999999932,-0.0127827914416064,0.0,0.0053267448770866
0.5109999999999957,-0.0095870935812048,0.0,0.0074577918937717
0.5144999999999982,-0.0085224427374883,0.0010646508437165,0.0106534897541733
0.5180000000000007,0.0,-0.002131047016685,0.0074577918937717
0.5215000000000032,-0.0010646508437165,0.0010646508437165,0.0063913957208032
0.5250000000000057,0.0,0.002131047016685,0.0074577918937717
0.5285000000000082,0.0074577918937717,0.0010646508437165,0.0063913957208032
0.5319999999999823,0.0053267448770866,0.0031956978604016,0.0117181405978899
0.5354999999999848,0.0053267448770866,0.0,0.0095870935812048
0.5389999999999873,-0.0010646508437165,-0.0031956978604016,0.0095870935812048
0.5424999999999898,-0.0074577918937717,0.0010646508437165,0.0042603487041181
0.5459999999999923,-0.0127827914416064,0.0,0.002131047016685
0.5494999999999948,-0.0106534897541733,0.0,0.0063913957208032
0.5529999999999973,-0.0127827914416064,0.0,0.0106534897541733
0.5564999999999998,-0.0031956978604016,0.0042603487041181,0.0063913957208032
0.5600000000000023,0.0,0.0031956978604016,0.0053267448770866
0.5635000000000048,-0.002131047016685,0.0031956978604016,0.0095870935812048
0.5670000000000073,0.0106534897541733,0.0,0.0095870935812048
0.5705000000000098,0.0202405833353782,-0.0031956978604016,0.0106534897541733
0.5739999999999839,0.0127827914416064,-0.002131047016685,0.0074577918937717
0.5774999999999864,0.0106534897541733,0.0063913957208032,0.0053267448770866
0.5809999999999889,0.0074577918937717,0.0106534897541733,0.0063913957208032
0.5844999999999914,-0.0042603487041181,0.0106534897541733,0.0117181405978899
0.5879999999999939,0.0010646508437165,0.0074577918937717,0.013849187614575
0.5914999999999964,-0.0053267448770866,0.0181095363186931,0.0074577918937717
0.5949999999999989,-0.0095870935812048,0.0234362811957798,0.0053267448770866
0.5985000000000014,-0.0181095363186931,0.0287630260728665,0.0074577918937717
0.6020000000000039,-0.0223716303520633,0.0319587239332681,0.0063913957208032
0.6055000000000064,-0.0362208179666383,0.0340897709499532,0.0063913957208032
0.6090000000000089,-0.0266319790561814,0.0383501196540714,0.0010646508437165
0.612499999999983,-0.0063913957208032,0.02769837522915,0.0042603487041181
0.6159999999999854,-0.0063913957208032,0.0213052341790947,0.0117181405978899
0.619499999999988,-0.0490036094082447,0.0340897709499532,0.0
0.6229999999999905,-0.0394165158270399,0.0202405833353782,0.0053267448770866
0.626499999999993,-0.0319587239332681,0.0127827914416064,0.0127827914416064
0.6299999999999955,-0.041545817514473,0.0031956978604016,0.0095870935812048
0.633499999999998,-0.0490036094082447,0.013849187614575,0.0010646508437165
0.6370000000000005,-0.0447432607041266,0.0117181405978899,-0.002131047016685
0.640500000000003,-0.0372854688103548,-0.0063913957208032,0.0031956978604016
0.6440000000000055,-0.0351544217936697,-0.0127827914416064,0.0074577918937717
0.647500000000008,-0.0170448854749766,-0.0266319790561814,0.0042603487041181
0.650999999999982,-0.0191759324916617,-0.041545817514473,0.0085224427374883
0.6544999999999845,0.0127827914416064,-0.0213052341790947,0.0106534897541733
0.657999999999987,0.02769837522915,-0.0362208179666383,0.0095870935812048
0.6614999999999895,0.02769837522915,-0.0500682602519613,0.0149138384582915
0.664999999999992,0.0255673282124649,-0.0511346564249298,0.0117181405978899
0.6684999999999945,0.0191759324916617,-0.0436768645311581,0.0117181405978899
0.671999999999997,0.0181095363186931,-0.0351544217936697,0.0053267448770866
0.6754999999999995,0.0149138384582915,-0.0223716303520633,0.0127827914416064
0.679000000000002,0.0095870935812048,-0.013849187614575,0.0117181405978899
0.6825000000000045,0.0031956978604016,-0.0063913957208032,0.0063913957208032
0.686000000000007,0.0010646508437165,-0.002131047016685,0.0063913957208032
0.6895000000000095,0.002131047016685,-0.01598023463126,0.0095870935812048
0.6929999999999836,0.0063913957208032,-0.0202405833353782,0.0106534897541733
0.6964999999999861,0.0181095363186931,-0.0245026773687483,0.0095870935812048
0.6999999999999886,0.0245026773687483,-0.0223716303520633,0.0031956978604016
0.7034999999999911,0.0234362811957798,-0.0085224427374883,0.0085224427374883
0.7069999999999936,0.0202405833353782,-0.0063913957208032,0.0127827914416064
0.7104999999999961,0.0149138384582915,-0.0042603487041181,0.013849187614575
0.7139999999999986,0.0063913957208032,-0.0053267448770866,0.0127827914416064
0.7175000000000011,0.0010646508437165,-0.0053267448770866,0.0149138384582915
0.7210000000000036,-0.0063913957208032,-0.0010646508437165,0.0117181405978899
0.7245000000000061,-0.0202405833353782,0.0042603487041181,0.0074577918937717
0.7280000000000086,-0.0255673282124649,0.013849187614575,0.0085224427374883
0.7314999999999827,-0.0213052341790947,0.0181095363186931,0.0106534897541733
0.7349999999999852,-0.0117181405978899,0.0191759324916617,0.0106534897541733
0.7384999999999877,0.0010646508437165,0.0149138384582915,0.0095870935812048
0.7419999999999902,0.0031956978604016,0.01598023463126,0.0095870935812048
0.7454999999999927,0.0106534897541733,0.0042603487041181,0.0106534897541733
0.7489999999999952,0.0170448854749766,0.002131047016685,0.0181095363186931
0.7524999999999977,0.0287630260728665,0.0031956978604016,0.0074577918937717
0.7560000000000002,0.01598023463126,0.0063913957208032,0.0085224427374883
0.7595000000000027,0.0063913957208032,0.0223716303520633,0.0042603487041181
0.7630000000000052,0.0010646508437165,0.0287630260728665,0.0
0.7665000000000077,-0.0085224427374883,0.0330233747769847,0.0
0.7699999999999818,-0.0149138384582915,0.0308940730895516,-0.002131047016685
0.7734999999999843,-0.0223716303520633,0.0266319790561814,0.0042603487041181
0.7769999999999868,-0.0223716303520633,0.0191759324916617,0.0042603487041181
0.7804999999999893,-0.01598023463126,0.0106534897541733,0.0
0.7839999999999918,-0.0117181405978899,0.002131047016685,0.0010646508437165
0.7874999999999943,-0.0010646508437165,0.0,0.0031956978604016
0.7909999999999968,-0.0042603487041181,0.0063913957208032,0.0010646508437165
0.7944999999999993,-0.0010646508437165,0.0191759324916617,0.0
0.7980000000000018,-0.0127827914416064,0.0181095363186931,0.0010646508437165
0.8015000000000043,-0.0191759324916617,0.0106534897541733,0.0063913957208032
0.8050000000000068,-0.0042603487041181,0.0085224427374883,0.0127827914416064
0.8085000000000093,0.0031956978604016,0.0095870935812048,0.0202405833353782
0.8119999999999834,0.0010646508437165,0.0074577918937717,0.013849187614575
0.8154999999999859,-0.0106534897541733,0.0149138384582915,0.0095870935812048
0.8189999999999884,-0.0095870935812048,0.0245026773687483,0.0095870935812048
0.8224999999999909,0.002131047016685,0.029827676916583,0.0181095363186931
0.8259999999999934,0.0095870935812048,0.0330233747769847,0.0170448854749766
0.8294999999999959,0.0074577918937717,0.0287630260728665,0.0202405833353782
0.8329999999999984,0.0106534897541733,0.0404811666707564,0.0202405833353782
0.8365000000000009,0.0351544217936697,0.0532657034416149,0.0191759324916617
0.8400000000000034,0.0234362811957798,0.0543303542853314,0.0170448854749766
0.8435000000000059,0.0,0.0543303542853314,0.0181095363186931
0.8470000000000084,-0.0127827914416064,0.0543303542853314,0.0149138384582915
0.8504999999999825,-0.0255673282124649,0.0575260521457331,0.0191759324916617
0.853999999999985,-0.0447432607041266,0.0671131457269379,0.013849187614575
0.8574999999999875,-0.0660484948832214,0.0649838440395048,0.0063913957208032
0.86099999999999,-0.0820287295144815,0.0543303542853314,0.0085224427374883
0.8644999999999925,-0.0820287295144815,0.0532657034416149,0.0031956978604016
0.867999999999995,-0.0862890782185996,0.0585907029894496,0.0
0.8714999999999975,-0.0958761717998045,0.0607217500061347,-0.0031956978604016
0.875,-0.0948115209560879,0.069244192743623,-0.002131047016685
0.8785000000000025,-0.0777666354811113,0.083093380358198,-0.0010646508437165
0.882000000000005,-0.0649838440395048,0.0841580312019145,0.0010646508437165
0.8855000000000075,-0.0490036094082447,0.083093380358198,0.0095870935812048
0.8889999999999816,-0.0308940730895516,0.0820287295144815,0.0149138384582915
0.8924999999999841,-0.0010646508437165,0.0873537290623162,0.0170448854749766
0.8959999999999866,0.0319587239332681,0.0937468701123714,0.01598023463126
0.8994999999999891,0.0458079115478431,0.096942567972773,0.0191759324916617
0.9029999999999916,0.0447432607041266,0.1001382658331746,0.0117181405978899
0.906499999999994,0.0362208179666383,0.1097253594143795,0.0127827914416064
0.9099999999999966,0.0372854688103548,0.1161167551351827,0.0095870935812048
0.9134999999999992,0.0426122136874415,0.124639197872671,0.0042603487041181
0.9170000000000016,0.0383501196540714,0.1406194325039311,0.0031956978604016
0.920500000000004,0.0202405833353782,0.1544686201185061,-0.0042603487041181
0.9240000000000066,0.0245026773687483,0.1438151303643327,0.002131047016685
0.9275000000000092,0.0394165158270399,0.1448797812080492,-0.0010646508437165
0.9309999999999832,0.0245026773687483,0.1544686201185061,0.0
0.9344999999999856,0.01598023463126,0.1597953649955928,-0.002131047016685
0.9379999999999882,0.0245026773687483,0.1693824585767977,0.0
0.9414999999999908,0.02769837522915,0.1747092034538843,0.0031956978604016
0.9449999999999932,0.0074577918937717,0.1651203645434275,0.0127827914416064
0.9484999999999956,-0.0085224427374883,0.1619246666830259,0.0170448854749766
0.9519999999999982,-0.013849187614575,0.1672514115601126,0.0308940730895516
0.9555000000000008,-0.0170448854749766,0.1725781564371993,0.0340897709499532
0.9590000000000032,0.002131047016685,0.1757738542976009,0.0447432607041266
0.9625000000000056,-0.0042603487041181,0.1864273440517743,0.0575260521457331
0.9660000000000082,-0.0234362811957798,0.180035948330971,0.0543303542853314
0.9694999999999824,-0.0340897709499532,0.1811005991746876,0.0490036094082447
0.9729999999999848,-0.0308940730895516,0.1789695521580025,0.0543303542853314
0.9764999999999872,-0.0191759324916617,0.1789695521580025,0.0543303542853314
0.9799999999999898,-0.0255673282124649,0.1864273440517743,0.0585907029894496
0.9834999999999924,-0.0362208179666383,0.1885583910684593,0.0490036094082447
0.9869999999999948,-0.0234362811957798,0.1864273440517743,0.0490036094082447
0.9904999999999972,-0.0031956978604016,0.1853609478788057,0.0511346564249298
0.9939999999999998,-0.0010646508437165,0.1853609478788057,0.0426122136874415
0.9975000000000024,0.0010646508437165,0.1842962970350892,0.0394165158270399
1.0010000000000048,0.0095870935812048,0.1725781564371993,0.0447432607041266
1.0045000000000073,0.0042603487041181,0.1608600158393093,0.0458079115478431
1.0080000000000098,0.002131047016685,0.1608600158393093,0.0372854688103548
1.011499999999984,0.0074577918937717,0.1619246666830259,0.0266319790561814
1.0149999999999864,-0.0085224427374883,0.1608600158393093,0.01598023463126
1.0184999999999889,-0.0127827914416064,0.150206526085136,0.0106534897541733
1.0219999999999914,-0.0170448854749766,0.1448797812080492,0.0095870935812048
1.025499999999994,-0.013849187614575,0.1416840833476476,0.0170448854749766
1.0289999999999964,-0.0213052341790947,0.1352926876268444,0.0149138384582915
1.0324999999999989,-0.0202405833353782,0.1193124529955843,0.0223716303520633
1.0360000000000014,-0.0031956978604016,0.1193124529955843,0.0266319790561814
1.039500000000004,0.0223716303520633,0.1267702448893561,0.0426122136874415
1.0430000000000064,0.0202405833353782,0.124639197872671,0.0340897709499532
1.0465000000000089,0.0127827914416064,0.1097253594143795,0.0351544217936697
1.049999999999983,0.002131047016685,0.1097253594143795,0.0372854688103548
1.0534999999999854,0.0010646508437165,0.1139874534477496,0.0383501196540714
1.056999999999988,0.0042603487041181,0.1235745470289545,0.0468725623915597
1.0604999999999905,-0.0010646508437165,0.1374237346435295,0.0660484948832214
1.063999999999993,-0.0031956978604016,0.1470108282247343,0.0617864008498512
1.0674999999999957,0.0117181405978899,0.1544686201185061,0.0649838440395048
1.070999999999998,0.0117181405978899,0.1629910628559944,0.069244192743623
1.0745000000000005,0.0213052341790947,0.180035948330971,0.0756355884644262
1.078000000000003,0.0308940730895516,0.1928187397725775,0.0767019846373948
1.0815000000000057,0.0479389585645282,0.2034722295267509,0.0820287295144815
1.085000000000008,0.0543303542853314,0.2077325782308691,0.0788312863248278
1.088499999999982,0.0447432607041266,0.2034722295267509,0.0777666354811113
1.0919999999999843,0.0266319790561814,0.2130593231079557,0.0671131457269379
1.095499999999987,0.013849187614575,0.2279731615662473,0.055395005129048
1.0989999999999895,-0.0117181405978899,0.2418223491808223,0.0511346564249298
1.102499999999992,-0.0511346564249298,0.2482137449016255,0.0394165158270399
1.1059999999999943,-0.0703088435873395,0.2567361876391139,0.0362208179666383
1.109499999999997,-0.0756355884644262,0.2524758389349957,0.0351544217936697
1.1129999999999995,-0.0585907029894496,0.258867234655799,0.0362208179666383
1.116500000000002,-0.0617864008498512,0.247149094057909,0.0234362811957798
1.1200000000000043,-0.0564614013020165,0.2407576983371057,0.002131047016685
1.123500000000007,-0.0436768645311581,0.2428870000245388,-0.0106534897541733
1.1270000000000095,-0.0639174478665363,0.2439533961975074,-0.0245026773687483
1.1304999999999836,-0.055395005129048,0.2205171150017275,-0.0351544217936697
1.133999999999986,-0.0511346564249298,0.2151903701246408,-0.0223716303520633
1.1374999999999886,-0.0575260521457331,0.1949497867892626,-0.029827676916583
1.1409999999999911,-0.0436768645311581,0.1906876927558924,-0.0213052341790947
1.1444999999999936,-0.0085224427374883,0.205601531214184,-0.0106534897541733
1.147999999999996,0.0468725623915597,0.2173214171413259,-0.002131047016685
1.1514999999999986,0.0745709376207097,0.1992101354933808,0.0085224427374883
1.1550000000000011,0.0479389585645282,0.1768385051413174,0.0031956978604016
1.1585000000000036,-0.0394165158270399,0.1374237346435295,0.0010646508437165
1.162000000000006,-0.1416840833476476,0.1182478021518678,-0.0106534897541733
1.1655000000000086,-0.136357338470561,0.0681795418999064,-0.0479389585645282
1.1689999999999827,-0.0117181405978899,0.0479389585645282,-0.0202405833353782
1.1724999999999852,0.0202405833353782,0.0564614013020165,0.0287630260728665
1.1759999999999875,-0.1214435000122694,0.0404811666707564,0.0202405833353782
1.1794999999999902,-0.1150521042914662,-0.055395005129048,0.002131047016685
1.1829999999999927,0.0383501196540714,-0.0660484948832214,0.0404811666707564
1.1864999999999952,0.180035948330971,-0.0479389585645282,0.0894847760790012
1.1899999999999975,0.2034722295267509,-0.0713752397603081,0.1118564064310645
1.1935000000000002,0.1938833906162941,-0.1161167551351827,0.1299659427497577
1.1970000000000027,0.1651203645434275,-0.1597953649955928,0.138488385487246
1.2005000000000052,0.0607217500061347,-0.2045368803704674,0.1182478021518678
1.2040000000000075,-0.0213052341790947,-0.2407576983371057,0.083093380358198
1.2074999999999818,-0.0500682602519613,-0.2918906094327836,0.0500682602519613
1.2109999999999843,-0.0671131457269379,-0.3089354949077603,0.0394165158270399
1.2144999999999868,-0.1832316461913727,-0.3249157295390203,0.0149138384582915
1.217999999999989,-0.2673896773932873,-0.3547434064556034,-0.0031956978604016
1.2214999999999918,-0.3440916620306821,-0.4016177141764152,-0.0085224427374883
1.2249999999999943,-0.3792460838243518,-0.4346410889533998,-0.0223716303520633
1.2284999999999968,-0.4175962034784233,-0.4740576047804398,-0.0245026773687483
1.231999999999999,-0.4474238803950063,-0.5070809795574245,-0.0255673282124649
1.2355000000000018,-0.4506213235846599,-0.5347793547865746,-0.0223716303520633
1.2390000000000043,-0.4303807402492817,-0.547562146228181,-0.0234362811957798
1.2425000000000068,-0.4261186462159115,-0.5720648235969293,-0.0308940730895516
1.246000000000009,-0.4442281825346047,-0.605088198373914,-0.0426122136874415
1.2494999999999834,-0.4410324846742031,-0.6530271569384424,-0.0479389585645282
1.252999999999986,-0.4293143440763132,-0.6785944851509074,-0.0479389585645282
1.2564999999999884,-0.4197272504951083,-0.7126842561008605,-0.0564614013020165
1.259999999999991,-0.4048134120368167,-0.727598094559152,-0.0607217500061347
1.2634999999999934,-0.3909642244222418,-0.7382515843133254,-0.0649838440395048
1.266999999999996,-0.3685925940701784,-0.7414472821737271,-0.069244192743623
1.2704999999999984,-0.3387649171535954,-0.7286627454028686,-0.0713752397603081
1.274000000000001,-0.3131975889411305,-0.7212066988383489,-0.069244192743623
1.2775000000000034,-0.2769767709744921,-0.6913772765925138,-0.0681795418999064
1.281000000000006,-0.2524758389349957,-0.670072042413419,-0.0735062867769931
1.2845000000000084,-0.2215817658454441,-0.614677037284371,-0.0724398906040246
1.2879999999999825,-0.2002765316663493,-0.5646070317031576,-0.0809623333415129
1.291499999999985,-0.1587289688226243,-0.5049499325407395,-0.0873537290623162
1.2949999999999875,-0.1331616406101593,-0.4580773701491797,-0.0852244273748831
1.29849999999999,-0.0990718696602061,-0.3962909692993285,-0.1012029166768912
1.3019999999999925,-0.0937468701123714,-0.3430252658577135,-0.1150521042914662
1.305499999999995,-0.0809623333415129,-0.2578025838120824,-0.124639197872671
1.3089999999999975,-0.0703088435873395,-0.1864273440517743,-0.1342280367831279
1.3125,-0.0681795418999064,-0.0926804739394028,-0.138488385487246
1.3160000000000025,-0.0564614013020165,-0.0319587239332681,-0.1352926876268444
1.319500000000005,-0.0447432607041266,0.0330233747769847,-0.1257055940456395
1.3230000000000075,-0.0351544217936697,0.0905494269227178,-0.1214435000122694
1.3264999999999816,-0.0340897709499532,0.1640557136997109,-0.1171831513081512
1.329999999999984,-0.0394165158270399,0.2130593231079557,-0.1118564064310645
1.3334999999999866,-0.0394165158270399,0.2631275833599171,-0.1012029166768912
1.336999999999989,-0.029827676916583,0.2929570056057522,-0.0980072188164895
1.3404999999999916,-0.0170448854749766,0.3291760782431385,-0.0745709376207097
1.343999999999994,0.002131047016685,0.3472873598910836,-0.0628527970228197
1.3474999999999966,0.0404811666707564,0.3622011983493752,-0.0404811666707564
1.350999999999999,0.0660484948832214,0.3739193389472651,-0.0191759324916617
1.3545000000000016,0.1129210572747811,0.3920288752659583,-0.0010646508437165
1.358000000000004,0.152337573101821,0.4101401569139035,0.0202405833353782
1.3615000000000066,0.1981454846496642,0.4239875991992265,0.0468725623915597
1.365000000000009,0.2226464166891606,0.4367721359700849,0.0639174478665363
1.3684999999999832,0.2652586303766022,0.4495549274116914,0.0937468701123714
1.3719999999999857,0.286565609884949,0.4634041150262664,0.1118564064310645
1.3754999999999882,0.3153286359578155,0.4815136513449596,0.1352926876268444
1.378999999999991,0.3291760782431385,0.4857757453783297,0.1534022239455376
1.3824999999999932,0.3366338701369103,0.4889714432387313,0.1704471094205142
1.3859999999999957,0.3281114273994219,0.503885281697023,0.1789695521580025
1.3894999999999982,0.3046751462036421,0.5305172607532044,0.177904901314286
1.393000000000001,0.2759121201307756,0.5358440056302911,0.1832316461913727
1.3965000000000032,0.2386266513204207,0.5411707505073777,0.1885583910684593
1.4000000000000057,0.2151903701246408,0.5379750526469761,0.1906876927558924
1.4035000000000082,0.177904901314286,0.5294526099094878,0.1906876927558924
1.4069999999999825,0.1534022239455376,0.5283879590657713,0.1970790884766957
1.4104999999999848,0.1214435000122694,0.5283879590657713,0.1981454846496642
1.4139999999999873,0.1043986145372928,0.5156034222949128,0.2002765316663493
1.4174999999999898,0.0841580312019145,0.5017542346803379,0.2013411825100658
1.4209999999999925,0.0617864008498512,0.4942981881158181,0.1949497867892626
1.4244999999999948,0.0330233747769847,0.4580773701491797,0.1853609478788057
1.4279999999999973,0.0202405833353782,0.4325100419367148,0.177904901314286
1.4314999999999998,0.0063913957208032,0.3813771308410369,0.1725781564371993
1.4350000000000025,0.0031956978604016,0.3408942188410284,0.1693824585767977
1.4385000000000048,0.002131047016685,0.2769767709744921,0.1608600158393093
1.4420000000000073,0.0095870935812048,0.2396913021641372,0.1608600158393093
1.4455000000000098,0.0245026773687483,0.1906876927558924,0.1534022239455376
1.448999999999984,0.0458079115478431,0.1491418752414194,0.1491418752414194
1.4524999999999864,0.0809623333415129,0.0980072188164895,0.1534022239455376
1.4559999999999889,0.1075943123976944,0.0671131457269379,0.1544686201185061
1.4594999999999914,0.138488385487246,0.0245026773687483,0.152337573101821
1.462999999999994,0.1608600158393093,-0.002131047016685,0.1555332709622227
1.4664999999999964,0.1864273440517743,-0.0330233747769847,0.1619246666830259
1.4699999999999989,0.2013411825100658,-0.0490036094082447,0.1683160624038291
1.4735000000000014,0.2141239739516723,-0.0639174478665363,0.180035948330971
1.477000000000004,0.2151903701246408,-0.0596570991624181,0.1853609478788057
1.4805000000000064,0.2098636252475541,-0.0585907029894496,0.1938833906162941
1.4840000000000089,0.2119946722642392,-0.0724398906040246,0.2024058333537824
1.487499999999983,0.191754088928861,-0.0937468701123714,0.205601531214184
1.4909999999999854,0.1715135055934827,-0.1001382658331746,0.2002765316663493
1.494499999999988,0.1352926876268444,-0.1012029166768912,0.1832316461913727
1.4979999999999905,0.1043986145372928,-0.1097253594143795,0.1651203645434275
1.501499999999993,0.0543303542853314,-0.1150521042914662,0.138488385487246
1.5049999999999957,0.0191759324916617,-0.1203788491685528,0.1214435000122694
1.508499999999998,-0.0181095363186931,-0.1278348957330726,0.0948115209560879
1.5120000000000005,-0.0404811666707564,-0.1320969897664428,0.0809623333415129
1.515500000000003,-0.0617864008498512,-0.138488385487246,0.0596570991624181
1.5190000000000057,-0.0745709376207097,-0.138488385487246,0.0383501196540714
1.522500000000008,-0.0777666354811113,-0.1448797812080492,0.013849187614575
1.525999999999982,-0.0756355884644262,-0.1438151303643327,-0.0074577918937717
1.5294999999999843,-0.0681795418999064,-0.1299659427497577,-0.0330233747769847
1.532999999999987,-0.0575260521457331,-0.1267702448893561,-0.0511346564249298
1.5364999999999895,-0.0479389585645282,-0.1214435000122694,-0.0735062867769931
1.539999999999992,-0.0351544217936697,-0.1161167551351827,-0.0894847760790012
1.5434999999999943,-0.0149138384582915,-0.0916158230956863,-0.1086607085706629
1.546999999999997,-0.002131047016685,-0.0745709376207097,-0.124639197872671
1.5504999999999995,0.0234362811957798,-0.041545817514473,-0.1299659427497577
1.554000000000002,0.0383501196540714,-0.013849187614575,-0.136357338470561
1.5575000000000043,0.0713752397603081,0.0181095363186931,-0.1427504795206162
1.561000000000007,0.0948115209560879,0.0394165158270399,-0.136357338470561
1.5645000000000095,0.1129210572747811,0.0681795418999064,-0.1331616406101593
1.5679999999999836,0.1299659427497577,0.0958761717998045,-0.1342280367831279
1.571499999999986,0.1491418752414194,0.136357338470561,-0.1278348957330726
1.5749999999999886,0.1587289688226243,0.1683160624038291,-0.1214435000122694
1.5784999999999911,0.1715135055934827,0.2098636252475541,-0.110790010258096
1.5819999999999936,0.1874919948954908,0.2386266513204207,-0.0980072188164895
1.585499999999996,0.2098636252475541,0.2695207244099723,-0.083093380358198
1.5889999999999986,0.2247774637058457,0.2823035158515788,-0.0767019846373948
1.5925000000000011,0.2439533961975074,0.300413052170272,-0.0660484948832214
1.5960000000000036,0.258867234655799,0.3110665419244454,-0.0649838440395048
1.599500000000006,0.2631275833599171,0.316393286801532,-0.0660484948832214
1.6030000000000086,0.2578025838120824,0.3174579376452486,-0.0735062867769931
1.6064999999999827,0.2418223491808223,0.2982837504828389,-0.0703088435873395
1.6099999999999852,0.2322352555996175,0.2876302607286655,-0.0671131457269379
1.6134999999999875,0.2301042085829324,0.2684543282370038,-0.055395005129048
1.6169999999999902,0.2237128128621291,0.2482137449016255,-0.0479389585645282
1.6204999999999927,0.2205171150017275,0.2290395577392158,-0.0319587239332681
1.6239999999999952,0.2162550209683574,0.219450718828759,-0.0181095363186931
1.6274999999999975,0.219450718828759,0.2002765316663493,-0.0042603487041181
1.6310000000000002,0.2237128128621291,0.1906876927558924,0.0042603487041181
1.6345000000000027,0.2322352555996175,0.1747092034538843,0.013849187614575
1.6380000000000052,0.2364956043037356,0.1651203645434275,0.0213052341790947
1.6415000000000075,0.2375620004767041,0.1608600158393093,0.0319587239332681
1.6449999999999818,0.2354309534600191,0.1672514115601126,0.0319587239332681
1.6484999999999843,0.2247774637058457,0.1768385051413174,0.0436768645311581
1.6519999999999868,0.2215817658454441,0.1885583910684593,0.0479389585645282
1.655499999999989,0.2013411825100658,0.191754088928861,0.0521993072686464
1.6589999999999918,0.1832316461913727,0.2045368803704674,0.0521993072686464
1.6624999999999943,0.1555332709622227,0.2205171150017275,0.0564614013020165
1.6659999999999968,0.1278348957330726,0.2226464166891606,0.0532657034416149
1.669499999999999,0.0937468701123714,0.2183860679850424,0.0479389585645282
1.6730000000000018,0.0681795418999064,0.2109282760912707,0.0490036094082447
1.6765000000000043,0.0223716303520633,0.2034722295267509,0.0351544217936697
1.6800000000000068,-0.0095870935812048,0.2045368803704674,0.0245026773687483
1.683500000000009,-0.0404811666707564,0.205601531214184,0.013849187614575
1.6869999999999834,-0.0617864008498512,0.2034722295267509,0.0
1.690499999999986,-0.0862890782185996,0.2013411825100658,-0.002131047016685
1.6939999999999884,-0.0862890782185996,0.1960144376329791,-0.0117181405978899
1.697499999999991,-0.0809623333415129,0.1864273440517743,-0.0127827914416064
1.7009999999999934,-0.0681795418999064,0.1842962970350892,-0.0106534897541733
1.704499999999996,-0.0383501196540714,0.1821652500184041,-0.0149138384582915
1.7079999999999984,-0.0095870935812048,0.1757738542976009,-0.01598023463126
1.711500000000001,0.0223716303520633,0.1736428072809158,-0.0213052341790947
1.7150000000000034,0.0426122136874415,0.166186760716396,-0.0330233747769847
1.718500000000006,0.0671131457269379,0.1480754790684509,-0.0436768645311581
1.7220000000000084,0.0809623333415129,0.1374237346435295,-0.0500682602519613
1.7254999999999825,0.0980072188164895,0.1193124529955843,-0.0511346564249298
1.728999999999985,0.1065296615539778,0.1086607085706629,-0.0564614013020165
1.7324999999999875,0.1118564064310645,0.096942567972773,-0.055395005129048
1.73599999999999,0.1129210572747811,0.0948115209560879,-0.0521993072686464
1.7394999999999925,0.1150521042914662,0.0820287295144815,-0.0372854688103548
1.742999999999995,0.1150521042914662,0.0724398906040246,-0.0266319790561814
1.7464999999999975,0.1033339636935762,0.0788312863248278,-0.0202405833353782
1.75,0.083093380358198,0.0820287295144815,-0.0063913957208032
1.7535000000000025,0.0575260521457331,0.0681795418999064,0.002131047016685
1.757000000000005,0.0372854688103548,0.0585907029894496,0.0127827914416064
1.7605000000000075,0.0202405833353782,0.0500682602519613,0.0234362811957798
1.7639999999999816,0.0053267448770866,0.0436768645311581,0.0181095363186931
1.767499999999984,-0.0074577918937717,0.0287630260728665,0.0287630260728665
1.7709999999999866,-0.0085224427374883,0.0191759324916617,0.0308940730895516
1.774499999999989,-0.0042603487041181,0.0085224427374883,0.0319587239332681
1.7779999999999916,0.0085224427374883,-0.0106534897541733,0.0319587239332681
1.781499999999994,0.013849187614575,-0.0458079115478431,0.0266319790561814
1.7849999999999966,0.0149138384582915,-0.0649838440395048,0.0181095363186931
1.788499999999999,0.0,-0.1001382658331746,-0.0031956978604016
1.7920000000000016,-0.0127827914416064,-0.1225098961852379,-0.0127827914416064
1.795500000000004,-0.0149138384582915,-0.1534022239455376,-0.0319587239332681
1.7990000000000066,-0.0149138384582915,-0.1715135055934827,-0.0447432607041266
1.802500000000009,-0.0213052341790947,-0.1981454846496642,-0.0607217500061347
1.8059999999999832,-0.0287630260728665,-0.2205171150017275,-0.0767019846373948
1.8094999999999857,-0.0426122136874415,-0.2482137449016255,-0.0937468701123714
1.812999999999988,-0.0575260521457331,-0.258867234655799,-0.1043986145372928
1.816499999999991,-0.0703088435873395,-0.2705853752536888,-0.1075943123976944
1.8199999999999927,-0.0788312863248278,-0.2673896773932873,-0.1129210572747811
1.823499999999996,-0.0724398906040246,-0.2599318854995155,-0.1022693128498597
1.8269999999999984,-0.0745709376207097,-0.258867234655799,-0.0905494269227178
1.830500000000001,-0.0724398906040246,-0.2482137449016255,-0.0713752397603081
1.8340000000000032,-0.0681795418999064,-0.2428870000245388,-0.0585907029894496
1.8375000000000057,-0.0628527970228197,-0.2354309534600191,-0.0340897709499532
1.841000000000008,-0.055395005129048,-0.2290395577392158,-0.0255673282124649
1.8444999999999825,-0.055395005129048,-0.219450718828759,-0.0074577918937717
1.8479999999999848,-0.0532657034416149,-0.2162550209683574,0.0031956978604016
1.8514999999999875,-0.0468725623915597,-0.2087989744038376,0.0149138384582915
1.8549999999999895,-0.0468725623915597,-0.2002765316663493,0.0287630260728665
1.8584999999999925,-0.0404811666707564,-0.1853609478788057,0.0383501196540714
1.8619999999999948,-0.0340897709499532,-0.166186760716396,0.0447432607041266
1.8654999999999973,-0.0266319790561814,-0.1331616406101593,0.0564614013020165
1.869,-0.013849187614575,-0.1182478021518678,0.0607217500061347
1.8725000000000025,-0.0074577918937717,-0.1001382658331746,0.0639174478665363
1.8760000000000048,-0.0223716303520633,-0.0777666354811113,0.0543303542853314
1.8795000000000075,-0.041545817514473,-0.0564614013020165,0.0362208179666383
1.8830000000000096,-0.0596570991624181,-0.0426122136874415,0.0287630260728665
1.886499999999984,-0.0798976824977964,-0.0181095363186931,0.0117181405978899
1.8899999999999864,-0.0958761717998045,-0.0053267448770866,0.002131047016685
1.8934999999999889,-0.1086607085706629,0.0170448854749766,-0.013849187614575
1.8969999999999916,-0.1203788491685528,0.0319587239332681,-0.029827676916583
1.9004999999999936,-0.1352926876268444,0.0532657034416149,-0.0394165158270399
1.9039999999999964,-0.1395530363309626,0.0617864008498512,-0.0479389585645282
1.9074999999999989,-0.1406194325039311,0.0596570991624181,-0.0500682602519613
1.9110000000000011,-0.1470108282247343,0.0628527970228197,-0.0532657034416149
1.914500000000004,-0.1597953649955928,0.0628527970228197,-0.0543303542853314
1.9180000000000064,-0.1597953649955928,0.0585907029894496,-0.0543303542853314
1.9215000000000089,-0.1565979218059392,0.0394165158270399,-0.0521993072686464
1.924999999999983,-0.1470108282247343,0.0213052341790947,-0.0447432607041266
1.9284999999999852,-0.1395530363309626,-0.0063913957208032,-0.0479389585645282
1.931999999999988,-0.1289012919060412,-0.0362208179666383,-0.0458079115478431
1.9354999999999905,-0.1043986145372928,-0.0639174478665363,-0.0458079115478431
1.938999999999993,-0.0862890782185996,-0.0852244273748831,-0.0372854688103548
1.9424999999999957,-0.0511346564249298,-0.1129210572747811,-0.0362208179666383
1.945999999999998,-0.0213052341790947,-0.1331616406101593,-0.0245026773687483
1.9495000000000005,0.0191759324916617,-0.1576643179789077,-0.01598023463126
1.953000000000003,0.055395005129048,-0.1736428072809158,0.002131047016685
1.9565000000000052,0.0990718696602061,-0.1938833906162941,0.0149138384582915
1.960000000000008,0.1310323389227262,-0.2109282760912707,0.0340897709499532
1.963499999999982,0.1757738542976009,-0.2269085107225308,0.0479389585645282
1.9669999999999843,0.2045368803704674,-0.2396913021641372,0.0585907029894496
1.970499999999987,0.2343645572870505,-0.2514094427620272,0.0756355884644262
1.973999999999989,0.2546051406224288,-0.258867234655799,0.0798976824977964
1.977499999999992,0.2620629325162006,-0.260998281672484,0.0820287295144815
1.9809999999999943,0.2631275833599171,-0.2663250265495707,0.0894847760790012
1.984499999999997,0.2546051406224288,-0.2620629325162006,0.0862890782185996
1.9879999999999995,0.2450180470412239,-0.2514094427620272,0.0873537290623162
1.991500000000002,0.2258421145495622,-0.2396913021641372,0.0894847760790012
1.9950000000000043,0.2130593231079557,-0.2290395577392158,0.0873537290623162
1.998500000000007,0.1842962970350892,-0.2087989744038376,0.083093380358198
2.002000000000009,0.1576643179789077,-0.1981454846496642,0.0735062867769931
2.005499999999984,0.1310323389227262,-0.180035948330971,0.0617864008498512
2.008999999999986,0.1033339636935762,-0.1736428072809158,0.0490036094082447
2.0124999999999886,0.0649838440395048,-0.166186760716396,0.029827676916583
2.015999999999991,0.0330233747769847,-0.1597953649955928,0.0149138384582915
2.0194999999999936,-0.002131047016685,-0.1491418752414194,-0.0031956978604016
2.022999999999996,-0.02769837522915,-0.1406194325039311,-0.0223716303520633
2.026499999999998,-0.0649838440395048,-0.1310323389227262,-0.0521993072686464
2.030000000000001,-0.1012029166768912,-0.1289012919060412,-0.0756355884644262
2.033500000000004,-0.1565979218059392,-0.1278348957330726,-0.1022693128498597
2.037000000000006,-0.1874919948954908,-0.1278348957330726,-0.110790010258096
2.0405000000000086,-0.205601531214184,-0.1289012919060412,-0.1203788491685528
2.0439999999999827,-0.2013411825100658,-0.1320969897664428,-0.1193124529955843
2.047499999999985,-0.1789695521580025,-0.1267702448893561,-0.1182478021518678
2.050999999999988,-0.1576643179789077,-0.1299659427497577,-0.1182478021518678
2.0544999999999902,-0.1086607085706629,-0.1427504795206162,-0.1171831513081512
2.0579999999999927,-0.0671131457269379,-0.1576643179789077,-0.1075943123976944
2.0614999999999952,-0.0042603487041181,-0.1672514115601126,-0.1043986145372928
2.0649999999999977,0.0468725623915597,-0.1789695521580025,-0.1097253594143795
2.0685,0.1129210572747811,-0.1949497867892626,-0.1139874534477496
2.0720000000000027,0.1534022239455376,-0.2141239739516723,-0.1214435000122694
2.075500000000005,0.2045368803704674,-0.2439533961975074,-0.1289012919060412
2.079000000000008,0.2322352555996175,-0.2631275833599171,-0.1352926876268444
2.082499999999982,0.2663250265495707,-0.2854992137119804,-0.1427504795206162
2.0859999999999843,0.2791078179911772,-0.2993484013265554,-0.1534022239455376
2.089499999999987,0.288694911572382,-0.3174579376452486,-0.1597953649955928
2.0929999999999893,0.2844345628682639,-0.3270467765557054,-0.1672514115601126
2.096499999999992,0.2759121201307756,-0.3398295679973119,-0.1672514115601126
2.0999999999999943,0.2684543282370038,-0.3462209637181151,-0.1747092034538843
2.103499999999997,0.2386266513204207,-0.3568744534722885,-0.1747092034538843
2.1069999999999998,0.2247774637058457,-0.3579391043160051,-0.1747092034538843
2.110500000000002,0.2045368803704674,-0.3515477085952018,-0.1704471094205142
2.1140000000000043,0.1906876927558924,-0.3494166615785167,-0.1747092034538843
2.117500000000007,0.1715135055934827,-0.3398295679973119,-0.1651203645434275
2.1210000000000093,0.1565979218059392,-0.3334381722765087,-0.1693824585767977
2.1244999999999834,0.1448797812080492,-0.3249157295390203,-0.166186760716396
2.127999999999986,0.1193124529955843,-0.3131975889411305,-0.1672514115601126
2.1314999999999884,0.0543303542853314,-0.3036087500306735,-0.1832316461913727
2.134999999999991,0.0,-0.302544099186957,-0.1981454846496642
2.1384999999999934,-0.0735062867769931,-0.2972173543098703,-0.205601531214184
2.141999999999996,-0.1203788491685528,-0.2940216564494687,-0.2066679273871525
2.1454999999999984,-0.1842962970350892,-0.2961527034661538,-0.2098636252475541
2.149000000000001,-0.2173214171413259,-0.2982837504828389,-0.2045368803704674
2.1525000000000034,-0.2684543282370038,-0.2993484013265554,-0.2066679273871525
2.156000000000006,-0.2982837504828389,-0.2961527034661538,-0.2119946722642392
2.1595000000000084,-0.3195889846619337,-0.2908259585890671,-0.205601531214184
2.1629999999999825,-0.3259803803827369,-0.286565609884949,-0.2045368803704674
2.166499999999985,-0.3185243338182171,-0.2812388650078622,-0.1885583910684593
2.1699999999999875,-0.3014794483432405,-0.274847469287059,-0.1853609478788057
2.17349999999999,-0.2684543282370038,-0.2631275833599171,-0.1853609478788057
2.1769999999999925,-0.2407576983371057,-0.258867234655799,-0.1757738542976009
2.180499999999995,-0.191754088928861,-0.2514094427620272,-0.1704471094205142
2.183999999999997,-0.1597953649955928,-0.2396913021641372,-0.1672514115601126
2.1875,-0.1118564064310645,-0.2173214171413259,-0.166186760716396
2.1910000000000025,-0.0820287295144815,-0.2045368803704674,-0.1672514115601126
2.194500000000005,-0.0394165158270399,-0.1757738542976009,-0.1565979218059392
2.1980000000000075,-0.0351544217936697,-0.1480754790684509,-0.1597953649955928
2.2014999999999816,-0.0500682602519613,-0.1075943123976944,-0.1651203645434275
2.204999999999984,-0.0639174478665363,-0.0809623333415129,-0.166186760716396
2.2084999999999866,-0.0926804739394028,-0.0372854688103548,-0.1576643179789077
2.211999999999989,-0.124639197872671,-0.0042603487041181,-0.1534022239455376
2.215499999999992,-0.1608600158393093,0.0287630260728665,-0.1352926876268444
2.218999999999994,-0.1885583910684593,0.0543303542853314,-0.1150521042914662
2.2224999999999966,-0.2183860679850424,0.0873537290623162,-0.0894847760790012
2.225999999999999,-0.2311688594266489,0.1171831513081512,-0.0660484948832214
2.2295000000000016,-0.2386266513204207,0.1629910628559944,-0.0351544217936697
2.233000000000004,-0.233299906443334,0.1928187397725775,-0.0117181405978899
2.2365000000000066,-0.2290395577392158,0.219450718828759,0.01598023463126
2.240000000000009,-0.2247774637058457,0.2386266513204207,0.0383501196540714
2.243499999999983,-0.2130593231079557,0.2439533961975074,0.0639174478665363
2.2469999999999857,-0.2077325782308691,0.2183860679850424,0.0905494269227178
2.250499999999988,-0.1864273440517743,0.1970790884766957,0.1214435000122694
2.2539999999999907,-0.1693824585767977,0.2002765316663493,0.1416840833476476
2.257499999999993,-0.138488385487246,0.2034722295267509,0.1672514115601126
2.260999999999996,-0.1129210572747811,0.1928187397725775,0.1842962970350892
2.264499999999998,-0.0820287295144815,0.1683160624038291,0.2034722295267509
2.2680000000000007,-0.0532657034416149,0.1448797812080492,0.2162550209683574
2.271500000000003,-0.0095870935812048,0.1129210572747811,0.2269085107225308
2.2750000000000057,0.0287630260728665,0.083093380358198,0.2354309534600191
2.278500000000008,0.0841580312019145,0.0564614013020165,0.2354309534600191
2.2819999999999823,0.1320969897664428,0.0372854688103548,0.2418223491808223
2.2854999999999848,0.2013411825100658,0.0074577918937717,0.233299906443334
2.2889999999999877,0.2386266513204207,-0.013849187614575,0.2290395577392158
2.2924999999999898,0.286565609884949,-0.0308940730895516,0.2151903701246408
2.2959999999999923,0.3238510786953038,-0.0458079115478431,0.2024058333537824
2.2994999999999948,0.3590055004889736,-0.0532657034416149,0.1896230419121759
2.3029999999999973,0.3824417816847534,-0.0596570991624181,0.177904901314286
2.3065,0.3930952714389268,-0.0596570991624181,0.1629910628559944
2.3100000000000023,0.4048134120368167,-0.0490036094082447,0.1544686201185061
2.3135000000000048,0.4048134120368167,-0.0372854688103548,0.1427504795206162
2.3170000000000077,0.3984202709867616,-0.0234362811957798,0.1289012919060412
2.3205000000000098,0.369657244913895,-0.0063913957208032,0.1203788491685528
2.323999999999984,0.3408942188410284,0.0031956978604016,0.1171831513081512
2.3274999999999864,0.2993484013265554,0.0181095363186931,0.1118564064310645
2.330999999999989,0.2716500260974054,0.0383501196540714,0.1182478021518678
2.334499999999992,0.2396913021641372,0.0607217500061347,0.1267702448893561
2.337999999999994,0.2151903701246408,0.0788312863248278,0.1342280367831279
2.3414999999999964,0.1789695521580025,0.0990718696602061,0.1459461773810178
2.344999999999999,0.1512729222581045,0.1139874534477496,0.1480754790684509
2.3485000000000014,0.1043986145372928,0.1257055940456395,0.1555332709622227
2.352000000000004,0.0681795418999064,0.1225098961852379,0.1619246666830259
2.3555000000000064,0.0245026773687483,0.1406194325039311,0.1704471094205142
2.359000000000009,-0.0010646508437165,0.1587289688226243,0.1768385051413174
2.362499999999983,-0.0330233747769847,0.1651203645434275,0.1853609478788057
2.365999999999985,-0.0575260521457331,0.1725781564371993,0.1864273440517743
2.369499999999988,-0.0852244273748831,0.1821652500184041,0.1864273440517743
2.3729999999999905,-0.1065296615539778,0.191754088928861,0.1747092034538843
2.376499999999993,-0.1278348957330726,0.2130593231079557,0.1693824585767977
2.3799999999999955,-0.1352926876268444,0.2301042085829324,0.166186760716396
2.383499999999998,-0.124639197872671,0.2546051406224288,0.166186760716396
2.3870000000000005,-0.1139874534477496,0.2716500260974054,0.166186760716396
2.390500000000003,-0.0713752397603081,0.2908259585890671,0.1704471094205142
2.394000000000005,-0.0362208179666383,0.300413052170272,0.1725781564371993
2.397500000000008,0.0202405833353782,0.2982837504828389,0.1821652500184041
2.400999999999982,0.0660484948832214,0.2918906094327836,0.1906876927558924
2.4044999999999845,0.1150521042914662,0.2780431671474606,0.1960144376329791
2.407999999999987,0.1491418752414194,0.2727164222703739,0.2002765316663493
2.411499999999989,0.1992101354933808,0.2705853752536888,0.2151903701246408
2.414999999999992,0.2322352555996175,0.2641939795328856,0.2269085107225308
2.4184999999999945,0.2631275833599171,0.2386266513204207,0.2364956043037356
2.421999999999997,0.2844345628682639,0.2098636252475541,0.2535404897787122
2.4254999999999995,0.2950880526224372,0.1683160624038291,0.2673896773932873
2.429000000000002,0.2844345628682639,0.1438151303643327,0.2823035158515788
2.4325000000000045,0.2514094427620272,0.096942567972773,0.2908259585890671
2.436000000000007,0.2173214171413259,0.0532657034416149,0.3036087500306735
2.439500000000009,0.1725781564371993,-0.0074577918937717,0.3227846825223353
2.442999999999984,0.1374237346435295,-0.0521993072686464,0.3430252658577135
2.446499999999986,0.0916158230956863,-0.1075943123976944,0.3632658491930918
2.4499999999999886,0.0617864008498512,-0.1555332709622227,0.3792460838243518
2.453499999999991,0.029827676916583,-0.2087989744038376,0.3984202709867616
2.4569999999999936,0.0117181405978899,-0.2439533961975074,0.3994866671597301
2.460499999999996,-0.0095870935812048,-0.302544099186957,0.3994866671597301
2.463999999999998,-0.0191759324916617,-0.3291760782431385,0.3898978282492732
2.467500000000001,-0.0266319790561814,-0.3675279432264619,0.3707236410868635
2.471000000000004,-0.0308940730895516,-0.397355620143045,0.3611348021764067
2.474500000000006,-0.0266319790561814,-0.4282496932325966,0.3313071252598236
2.4780000000000086,-0.0191759324916617,-0.4378367868138015,0.3036087500306735
2.4814999999999827,-0.0106534897541733,-0.4580773701491797,0.2695207244099723
2.484999999999985,-0.002131047016685,-0.4740576047804398,0.2386266513204207
2.488499999999988,-0.0010646508437165,-0.4847093492053612,0.1885583910684593
2.4919999999999902,-0.0063913957208032,-0.4953628389595346,0.1534022239455376
2.4954999999999927,-0.0181095363186931,-0.503885281697023,0.1012029166768912
2.4989999999999952,-0.0340897709499532,-0.5060163287137079,0.0671131457269379
2.5024999999999977,-0.0543303542853314,-0.503885281697023,0.0181095363186931
2.506,-0.0735062867769931,-0.4974938859762197,-0.0170448854749766
2.5095000000000027,-0.0958761717998045,-0.4825800475179281,-0.055395005129048
2.513000000000005,-0.1150521042914662,-0.4719265577637547,-0.0767019846373948
2.516500000000008,-0.1406194325039311,-0.4538170214450616,-0.1033339636935762
2.519999999999982,-0.1448797812080492,-0.4399678338304866,-0.1054650107102613
2.5234999999999843,-0.1427504795206162,-0.4378367868138015,-0.1150521042914662
2.526999999999987,-0.1352926876268444,-0.4325100419367148,-0.1203788491685528
2.5304999999999893,-0.1342280367831279,-0.4282496932325966,-0.1278348957330726
2.533999999999992,-0.136357338470561,-0.4239875991992265,-0.1395530363309626
2.5374999999999943,-0.1491418752414194,-0.4144005056180216,-0.152337573101821
2.540999999999997,-0.152337573101821,-0.4133358547743051,-0.1534022239455376
2.5444999999999998,-0.1555332709622227,-0.4080091098972184,-0.1512729222581045
2.548000000000002,-0.152337573101821,-0.4101401569139035,-0.1448797812080492
2.5515000000000043,-0.1406194325039311,-0.4037470158638482,-0.1257055940456395
2.555000000000007,-0.124639197872671,-0.3941599222826434,-0.1182478021518678
2.5585000000000093,-0.1129210572747811,-0.3877685265618402,-0.1129210572747811
2.5619999999999834,-0.1065296615539778,-0.3803107346680683,-0.1012029166768912
2.565499999999986,-0.1012029166768912,-0.3760503859639502,-0.1097253594143795
2.5689999999999884,-0.0990718696602061,-0.3739193389472651,-0.1150521042914662
2.572499999999991,-0.1022693128498597,-0.3622011983493752,-0.1193124529955843
2.5759999999999934,-0.1033339636935762,-0.3483520107348002,-0.1289012919060412
2.579499999999996,-0.110790010258096,-0.3291760782431385,-0.1427504795206162
2.5829999999999984,-0.1150521042914662,-0.314262239784847,-0.1555332709622227
2.586500000000001,-0.1225098961852379,-0.286565609884949,-0.1704471094205142
2.5900000000000034,-0.1320969897664428,-0.2684543282370038,-0.1842962970350892
2.593500000000006,-0.1480754790684509,-0.247149094057909,-0.1992101354933808
2.5970000000000084,-0.1565979218059392,-0.2215817658454441,-0.2066679273871525
2.6004999999999825,-0.1597953649955928,-0.191754088928861,-0.2151903701246408
2.603999999999985,-0.1651203645434275,-0.1576643179789077,-0.2226464166891606
2.6074999999999875,-0.1651203645434275,-0.1267702448893561,-0.2269085107225308
2.61099999999999,-0.1651203645434275,-0.1001382658331746,-0.2343645572870505
2.6144999999999925,-0.1672514115601126,-0.0649838440395048,-0.2407576983371057
2.617999999999995,-0.1693824585767977,-0.0362208179666383,-0.2482137449016255
2.621499999999997,-0.166186760716396,0.0010646508437165,-0.260998281672484
2.625,-0.1587289688226243,0.029827676916583,-0.2705853752536888
2.6285000000000025,-0.1683160624038291,0.069244192743623,-0.2876302607286655
2.632000000000005,-0.1693824585767977,0.1001382658331746,-0.288694911572382
2.6355000000000075,-0.1736428072809158,0.1480754790684509,-0.2897613077453506
2.6389999999999816,-0.1651203645434275,0.1768385051413174,-0.2854992137119804
2.642499999999984,-0.1512729222581045,0.2215817658454441,-0.274847469287059
2.6459999999999866,-0.1448797812080492,0.2460844432141925,-0.2737810731140905
2.649499999999989,-0.1331616406101593,0.2716500260974054,-0.2641939795328856
2.652999999999992,-0.1235745470289545,0.288694911572382,-0.2546051406224288
2.656499999999994,-0.1043986145372928,0.3068061932203272,-0.2514094427620272
2.6599999999999966,-0.0916158230956863,0.3217200316786187,-0.2439533961975074
2.663499999999999,-0.0713752397603081,0.3302424744161071,-0.2418223491808223
2.6670000000000016,-0.0575260521457331,0.3302424744161071,-0.2418223491808223
2.670500000000004,-0.0330233747769847,0.3238510786953038,-0.2354309534600191
2.6740000000000066,-0.0319587239332681,0.3100018910807288,-0.2375620004767041
2.677500000000009,-0.0404811666707564,0.3089354949077603,-0.2418223491808223
2.680999999999983,-0.0564614013020165,0.3046751462036421,-0.2407576983371057
2.6844999999999857,-0.0788312863248278,0.302544099186957,-0.2524758389349957
2.687999999999988,-0.096942567972773,0.2993484013265554,-0.2567361876391139
2.6914999999999907,-0.1171831513081512,0.2950880526224372,-0.2641939795328856
2.694999999999993,-0.1331616406101593,0.2833681666952953,-0.2716500260974054
2.698499999999996,-0.1427504795206162,0.2673896773932873,-0.2759121201307756
2.701999999999998,-0.1597953649955928,0.2641939795328856,-0.2876302607286655
2.7055000000000007,-0.1629910628559944,0.2535404897787122,-0.2908259585890671
2.709000000000003,-0.1747092034538843,0.2524758389349957,-0.3036087500306735
2.7125000000000057,-0.1768385051413174,0.2482137449016255,-0.3057397970473587
2.716000000000008,-0.1736428072809158,0.2524758389349957,-0.3046751462036421
2.7194999999999823,-0.1619246666830259,0.2524758389349957,-0.2961527034661538
2.7229999999999848,-0.1544686201185061,0.2524758389349957,-0.2844345628682639
2.7264999999999877,-0.138488385487246,0.2460844432141925,-0.274847469287059
2.7299999999999898,-0.1257055940456395,0.247149094057909,-0.2641939795328856
2.7334999999999923,-0.0980072188164895,0.2439533961975074,-0.2407576983371057
2.7369999999999948,-0.0745709376207097,0.2439533961975074,-0.219450718828759
2.7404999999999973,-0.0458079115478431,0.2279731615662473,-0.1832316461913727
2.744,-0.0223716303520633,0.2141239739516723,-0.1587289688226243
2.7475000000000023,0.0213052341790947,0.191754088928861,-0.1097253594143795
2.7510000000000048,0.0585907029894496,0.1715135055934827,-0.0681795418999064
2.7545000000000077,0.110790010258096,0.1576643179789077,-0.0287630260728665
2.7579999999999814,0.1395530363309626,0.1534022239455376,0.0063913957208032
2.761499999999984,0.1736428072809158,0.1406194325039311,0.0383501196540714
2.7649999999999864,0.2024058333537824,0.1235745470289545,0.0703088435873395
2.768499999999989,0.2269085107225308,0.1075943123976944,0.0937468701123714
2.771999999999992,0.2354309534600191,0.0958761717998045,0.1150521042914662
2.775499999999994,0.2450180470412239,0.0894847760790012,0.1278348957330726
2.7789999999999964,0.2460844432141925,0.0873537290623162,0.138488385487246
2.782499999999999,0.2354309534600191,0.0862890782185996,0.138488385487246
2.7860000000000014,0.2226464166891606,0.0894847760790012,0.1395530363309626
2.789500000000004,0.2045368803704674,0.0884201252352847,0.1374237346435295
2.7930000000000064,0.191754088928861,0.0926804739394028,0.1299659427497577
2.796500000000009,0.1629910628559944,0.0990718696602061,0.1225098961852379
2.799999999999983,0.1352926876268444,0.1225098961852379,0.1150521042914662
2.803499999999985,0.0980072188164895,0.1448797812080492,0.1033339636935762
2.806999999999988,0.0607217500061347,0.1512729222581045,0.0958761717998045
2.8104999999999905,0.0170448854749766,0.1640557136997109,0.0948115209560879
2.813999999999993,-0.0213052341790947,0.1757738542976009,0.0884201252352847
2.8174999999999955,-0.0798976824977964,0.1874919948954908,0.0916158230956863
2.820999999999998,-0.1139874534477496,0.1906876927558924,0.0990718696602061
2.8245000000000005,-0.1672514115601126,0.1938833906162941,0.1203788491685528
2.828000000000003,-0.1885583910684593,0.1928187397725775,0.1278348957330726
2.831500000000005,-0.2130593231079557,0.2013411825100658,0.1565979218059392
2.835000000000008,-0.2162550209683574,0.1992101354933808,0.1747092034538843
2.838499999999982,-0.2024058333537824,0.1992101354933808,0.2077325782308691
2.8419999999999845,-0.177904901314286,0.1885583910684593,0.233299906443334
2.845499999999987,-0.1406194325039311,0.1853609478788057,0.2663250265495707
2.848999999999989,-0.1075943123976944,0.177904901314286,0.2844345628682639
2.852499999999992,-0.0490036094082447,0.1768385051413174,0.3121311927681619
2.8559999999999945,-0.0074577918937717,0.1789695521580025,0.3259803803827369
2.859499999999997,0.0436768645311581,0.1704471094205142,0.3462209637181151
2.8629999999999995,0.0809623333415129,0.1629910628559944,0.3590055004889736
2.866500000000002,0.1235745470289545,0.1512729222581045,0.3685925940701784
2.8700000000000045,0.1480754790684509,0.1427504795206162,0.3739193389472651
2.873500000000007,0.1619246666830259,0.1331616406101593,0.3739193389472651
2.877000000000009,0.1747092034538843,0.1257055940456395,0.3707236410868635
2.880499999999984,0.1715135055934827,0.1150521042914662,0.3685925940701784
2.883999999999986,0.1597953649955928,0.1075943123976944,0.3611348021764067
2.8874999999999886,0.1352926876268444,0.0852244273748831,0.3472873598910836
2.890999999999991,0.110790010258096,0.0756355884644262,0.3270467765557054
2.8944999999999936,0.0724398906040246,0.0617864008498512,0.314262239784847
2.897999999999996,0.0436768645311581,0.0564614013020165,0.2972173543098703
2.901499999999998,0.0053267448770866,0.055395005129048,0.2769767709744921
2.905000000000001,-0.0234362811957798,0.0479389585645282,0.2641939795328856
2.908500000000004,-0.0490036094082447,0.0458079115478431,0.2460844432141925
2.912000000000006,-0.0681795418999064,0.0490036094082447,0.2386266513204207
2.9155000000000086,-0.0948115209560879,0.0468725623915597,0.2173214171413259
2.9189999999999827,-0.110790010258096,0.0394165158270399,0.205601531214184
2.922499999999985,-0.1299659427497577,0.0351544217936697,0.1938833906162941
2.925999999999988,-0.1342280367831279,0.029827676916583,0.1864273440517743
2.9294999999999902,-0.1395530363309626,0.0351544217936697,0.177904901314286
2.9329999999999927,-0.1470108282247343,0.0447432607041266,0.1640557136997109
2.9364999999999952,-0.1534022239455376,0.0458079115478431,0.150206526085136
2.9399999999999977,-0.1555332709622227,0.0447432607041266,0.1459461773810178
2.9435,-0.1534022239455376,0.041545817514473,0.1438151303643327
2.9470000000000027,-0.1534022239455376,0.0383501196540714,0.1459461773810178
2.950500000000005,-0.136357338470561,0.0404811666707564,0.1534022239455376
2.954000000000008,-0.1150521042914662,0.0351544217936697,0.1597953649955928
2.957499999999982,-0.0809623333415129,0.0330233747769847,0.1608600158393093
2.9609999999999843,-0.0521993072686464,0.0266319790561814,0.1683160624038291
2.964499999999987,-0.0170448854749766,0.0255673282124649,0.1672514115601126
2.9679999999999893,0.0095870935812048,0.013849187614575,0.1587289688226243
2.971499999999992,0.0543303542853314,0.0063913957208032,0.1534022239455376
2.9749999999999943,0.083093380358198,-0.0010646508437165,0.1395530363309626
2.978499999999997,0.1171831513081512,-0.0085224427374883,0.1203788491685528
2.9819999999999998,0.1406194325039311,-0.01598023463126,0.1075943123976944
2.985500000000002,0.1544686201185061,-0.0319587239332681,0.0788312863248278
2.9890000000000043,0.1597953649955928,-0.0351544217936697,0.0585907029894496
2.992500000000007,0.1544686201185061,-0.0383501196540714,0.01598023463126
2.9960000000000093,0.1438151303643327,-0.041545817514473,-0.0085224427374883
2.9994999999999834,0.1139874534477496,-0.0383501196540714,-0.0511346564249298
3.002999999999986,0.0809623333415129,-0.0468725623915597,-0.0777666354811113
3.0064999999999884,0.0383501196540714,-0.0404811666707564,-0.1129210572747811
3.009999999999991,0.0,-0.0394165158270399,-0.138488385487246
3.0134999999999934,-0.0543303542853314,-0.0394165158270399,-0.1672514115601126
3.016999999999996,-0.096942567972773,-0.0394165158270399,-0.1906876927558924
3.0204999999999984,-0.1438151303643327,-0.041545817514473,-0.2130593231079557
3.024000000000001,-0.1832316461913727,-0.0436768645311581,-0.2269085107225308
3.0275000000000034,-0.219450718828759,-0.0585907029894496,-0.2386266513204207
3.031000000000006,-0.2428870000245388,-0.0735062867769931,-0.233299906443334
3.0345000000000084,-0.2556715367953973,-0.0756355884644262,-0.2290395577392158
3.0379999999999825,-0.2578025838120824,-0.0735062867769931,-0.2247774637058457
3.041499999999985,-0.2599318854995155,-0.0788312863248278,-0.2109282760912707
3.0449999999999875,-0.258867234655799,-0.0841580312019145,-0.2024058333537824
3.04849999999999,-0.2492801410745941,-0.0948115209560879,-0.1832316461913727
3.0519999999999925,-0.2386266513204207,-0.110790010258096,-0.166186760716396
3.055499999999995,-0.2258421145495622,-0.1320969897664428,-0.1438151303643327
3.058999999999997,-0.2119946722642392,-0.1448797812080492,-0.1299659427497577
3.0625,-0.1853609478788057,-0.150206526085136,-0.1139874534477496
3.0660000000000025,-0.1683160624038291,-0.150206526085136,-0.0958761717998045
3.069500000000005,-0.1427504795206162,-0.1534022239455376,-0.0724398906040246
3.0730000000000075,-0.1182478021518678,-0.1565979218059392,-0.0596570991624181
3.0764999999999816,-0.0905494269227178,-0.1544686201185061,-0.0394165158270399
3.079999999999984,-0.0660484948832214,-0.1480754790684509,-0.0308940730895516
3.0834999999999866,-0.041545817514473,-0.1416840833476476,-0.0223716303520633
3.086999999999989,-0.029827676916583,-0.138488385487246,-0.01598023463126
3.090499999999992,-0.0223716303520633,-0.1416840833476476,-0.0191759324916617
3.093999999999994,-0.0234362811957798,-0.1331616406101593,-0.0255673282124649
3.0974999999999966,-0.029827676916583,-0.1225098961852379,-0.0351544217936697
3.100999999999999,-0.041545817514473,-0.1150521042914662,-0.0458079115478431
3.1045000000000016,-0.0521993072686464,-0.110790010258096,-0.0532657034416149
3.108000000000004,-0.0649838440395048,-0.1118564064310645,-0.0660484948832214
3.1115000000000066,-0.0926804739394028,-0.1161167551351827,-0.0756355884644262
3.115000000000009,-0.1097253594143795,-0.1214435000122694,-0.0788312863248278
3.118499999999983,-0.136357338470561,-0.1203788491685528,-0.0862890782185996
3.1219999999999857,-0.1544686201185061,-0.1129210572747811,-0.0926804739394028
3.125499999999988,-0.180035948330971,-0.1086607085706629,-0.0990718696602061
3.1289999999999907,-0.1928187397725775,-0.1086607085706629,-0.0990718696602061
3.132499999999993,-0.2002765316663493,-0.1065296615539778,-0.0905494269227178
3.135999999999996,-0.1960144376329791,-0.1118564064310645,-0.0873537290623162
3.139499999999998,-0.1874919948954908,-0.110790010258096,-0.083093380358198
3.1430000000000007,-0.1811005991746876,-0.1086607085706629,-0.0745709376207097
3.146500000000003,-0.1747092034538843,-0.1022693128498597,-0.0649838440395048
3.1500000000000057,-0.1683160624038291,-0.0926804739394028,-0.0543303542853314
3.153500000000008,-0.1544686201185061,-0.0862890782185996,-0.0308940730895516
3.1569999999999823,-0.136357338470561,-0.0894847760790012,-0.0149138384582915
3.1604999999999848,-0.1086607085706629,-0.0841580312019145,0.0287630260728665
3.1639999999999877,-0.0852244273748831,-0.0894847760790012,0.0500682602519613
3.1674999999999898,-0.0617864008498512,-0.0990718696602061,0.0862890782185996
3.1709999999999923,-0.0490036094082447,-0.1086607085706629,0.1033339636935762
3.1744999999999948,-0.0340897709499532,-0.1235745470289545,0.1193124529955843
3.1779999999999973,-0.02769837522915,-0.1352926876268444,0.1310323389227262
3.1815,-0.01598023463126,-0.1416840833476476,0.1374237346435295
3.1850000000000023,-0.0106534897541733,-0.1491418752414194,0.1406194325039311
3.1885000000000048,-0.0117181405978899,-0.1544686201185061,0.1342280367831279
3.1920000000000077,-0.0106534897541733,-0.1534022239455376,0.1278348957330726
3.1954999999999814,-0.0106534897541733,-0.1555332709622227,0.1150521042914662
3.198999999999984,-0.0127827914416064,-0.1619246666830259,0.1022693128498597
3.2024999999999864,-0.0287630260728665,-0.1747092034538843,0.0884201252352847
3.205999999999989,-0.0351544217936697,-0.1683160624038291,0.0756355884644262
3.209499999999992,-0.041545817514473,-0.1576643179789077,0.0575260521457331
3.212999999999994,-0.0479389585645282,-0.1512729222581045,0.0447432607041266
3.2164999999999964,-0.0564614013020165,-0.1427504795206162,0.0287630260728665
3.219999999999999,-0.0575260521457331,-0.1352926876268444,0.0149138384582915
3.2235000000000014,-0.0532657034416149,-0.1320969897664428,-0.0042603487041181
3.227000000000004,-0.0490036094082447,-0.1310323389227262,-0.0181095363186931
3.2305000000000064,-0.0362208179666383,-0.124639197872671,-0.0319587239332681
3.234000000000009,-0.02769837522915,-0.1193124529955843,-0.0521993072686464
3.237499999999983,-0.01598023463126,-0.1129210572747811,-0.0681795418999064
3.240999999999985,-0.0042603487041181,-0.1097253594143795,-0.083093380358198
3.244499999999988,0.0074577918937717,-0.1012029166768912,-0.1043986145372928
3.2479999999999905,0.013849187614575,-0.096942567972773,-0.1150521042914662
3.251499999999993,0.0106534897541733,-0.0926804739394028,-0.1278348957330726
3.2549999999999955,0.0149138384582915,-0.0894847760790012,-0.1395530363309626
3.258499999999998,0.0074577918937717,-0.0788312863248278,-0.1427504795206162
3.2620000000000005,0.002131047016685,-0.0713752397603081,-0.1406194325039311
3.265500000000003,-0.0127827914416064,-0.0628527970228197,-0.1448797812080492
3.269000000000005,-0.0234362811957798,-0.0532657034416149,-0.1374237346435295
3.272500000000008,-0.0372854688103548,-0.0511346564249298,-0.1299659427497577
3.275999999999982,-0.0511346564249298,-0.0479389585645282,-0.1214435000122694
3.2794999999999845,-0.0681795418999064,-0.0404811666707564,-0.1150521042914662
3.282999999999987,-0.0820287295144815,-0.0383501196540714,-0.1129210572747811
3.286499999999989,-0.0937468701123714,-0.0394165158270399,-0.1075943123976944
3.289999999999992,-0.0937468701123714,-0.0330233747769847,-0.1022693128498597
3.2934999999999945,-0.0884201252352847,-0.0245026773687483,-0.1033339636935762
3.296999999999997,-0.0841580312019145,-0.01598023463126,-0.1033339636935762
3.3004999999999995,-0.0745709376207097,0.002131047016685,-0.1097253594143795
3.304000000000002,-0.0649838440395048,0.0085224427374883,-0.1161167551351827
3.3075000000000045,-0.055395005129048,0.0245026773687483,-0.1257055940456395
3.311000000000007,-0.0490036094082447,0.0372854688103548,-0.1352926876268444
3.314500000000009,-0.0394165158270399,0.0468725623915597,-0.1470108282247343
3.317999999999984,-0.0308940730895516,0.0628527970228197,-0.1555332709622227
3.321499999999986,-0.02769837522915,0.0862890782185996,-0.1629910628559944
3.3249999999999886,-0.0191759324916617,0.0948115209560879,-0.1672514115601126
3.328499999999991,-0.0085224427374883,0.1075943123976944,-0.1683160624038291
3.3319999999999936,-0.0010646508437165,0.1139874534477496,-0.1683160624038291
3.335499999999996,0.0031956978604016,0.124639197872671,-0.1747092034538843
3.338999999999998,0.0074577918937717,0.1214435000122694,-0.180035948330971
3.342500000000001,0.0106534897541733,0.1161167551351827,-0.1821652500184041
3.346000000000004,0.0085224427374883,0.1118564064310645,-0.1853609478788057
3.349500000000006,0.002131047016685,0.1129210572747811,-0.1906876927558924
3.3530000000000086,-0.0106534897541733,0.1043986145372928,-0.1960144376329791
3.3564999999999827,-0.0372854688103548,0.0926804739394028,-0.1928187397725775
3.359999999999985,-0.0585907029894496,0.0884201252352847,-0.1853609478788057
3.363499999999988,-0.069244192743623,0.0777666354811113,-0.166186760716396
3.3669999999999902,-0.0767019846373948,0.0745709376207097,-0.1480754790684509
3.3704999999999927,-0.0905494269227178,0.0617864008498512,-0.1289012919060412
3.3739999999999952,-0.1065296615539778,0.0458079115478431,-0.1139874534477496
3.3774999999999977,-0.1289012919060412,0.0202405833353782,-0.0926804739394028
3.381,-0.1427504795206162,0.0106534897541733,-0.0788312863248278
3.3845000000000027,-0.1587289688226243,-0.0127827914416064,-0.0617864008498512
3.388000000000005,-0.1693824585767977,-0.029827676916583,-0.0479389585645282
3.391500000000008,-0.1757738542976009,-0.0490036094082447,-0.0394165158270399
3.394999999999982,-0.1789695521580025,-0.0585907029894496,-0.0287630260728665
3.3984999999999843,-0.1811005991746876,-0.0713752397603081,-0.0234362811957798
3.401999999999987,-0.177904901314286,-0.0841580312019145,-0.0223716303520633
3.4054999999999893,-0.1789695521580025,-0.1054650107102613,-0.02769837522915
3.408999999999992,-0.1757738542976009,-0.1161167551351827,-0.0362208179666383
3.4124999999999943,-0.1874919948954908,-0.1352926876268444,-0.0479389585645282
3.415999999999997,-0.1992101354933808,-0.1352926876268444,-0.0724398906040246
3.4194999999999998,-0.2205171150017275,-0.1480754790684509,-0.0937468701123714
3.423000000000002,-0.2460844432141925,-0.1576643179789077,-0.110790010258096
3.4265000000000043,-0.2801724688348938,-0.152337573101821,-0.1310323389227262
3.430000000000007,-0.2982837504828389,-0.1565979218059392,-0.1406194325039311
3.4335000000000093,-0.3100018910807288,-0.152337573101821,-0.1544686201185061
3.4369999999999834,-0.3131975889411305,-0.150206526085136,-0.1629910628559944
3.440499999999986,-0.314262239784847,-0.1544686201185061,-0.1736428072809158
3.4439999999999884,-0.3078708440640437,-0.1565979218059392,-0.1747092034538843
3.447499999999991,-0.2812388650078622,-0.152337573101821,-0.1821652500184041
3.4509999999999934,-0.2514094427620272,-0.150206526085136,-0.1842962970350892
3.454499999999996,-0.2002765316663493,-0.1448797812080492,-0.1704471094205142
3.4579999999999984,-0.1512729222581045,-0.1395530363309626,-0.1651203645434275
3.461500000000001,-0.0788312863248278,-0.138488385487246,-0.1534022239455376
3.4650000000000034,-0.0170448854749766,-0.1342280367831279,-0.1438151303643327
3.468500000000006,0.055395005129048,-0.1352926876268444,-0.1299659427497577
3.4720000000000084,0.1086607085706629,-0.136357338470561,-0.124639197872671
3.4754999999999825,0.1576643179789077,-0.1352926876268444,-0.1193124529955843
3.478999999999985,0.1928187397725775,-0.1342280367831279,-0.1171831513081512
3.4824999999999875,0.2226464166891606,-0.1267702448893561,-0.1118564064310645
3.48599999999999,0.2364956043037356,-0.1257055940456395,-0.110790010258096
3.4894999999999925,0.2375620004767041,-0.1235745470289545,-0.1225098961852379
3.492999999999995,0.2290395577392158,-0.1182478021518678,-0.1289012919060412
3.496499999999997,0.2045368803704674,-0.1129210572747811,-0.1374237346435295
3.5,0.1821652500184041,-0.0990718696602061,-0.1480754790684509
3.5035000000000025,0.1395530363309626,-0.0894847760790012,-0.1629910628559944
3.507000000000005,0.1033339636935762,-0.0820287295144815,-0.180035948330971
3.5105000000000075,0.0575260521457331,-0.0681795418999064,-0.1960144376329791
3.5139999999999816,0.0234362811957798,-0.0596570991624181,-0.205601531214184
3.517499999999984,-0.013849187614575,-0.0458079115478431,-0.2162550209683574
3.5209999999999866,-0.0372854688103548,-0.0234362811957798,-0.2247774637058457
3.524499999999989,-0.069244192743623,-0.0042603487041181,-0.2354309534600191
3.527999999999992,-0.083093380358198,0.0063913957208032,-0.2364956043037356
3.531499999999994,-0.083093380358198,0.0117181405978899,-0.2343645572870505
3.5349999999999966,-0.0841580312019145,0.013849187614575,-0.233299906443334
3.538499999999999,-0.0777666354811113,0.0255673282124649,-0.233299906443334
3.5420000000000016,-0.0649838440395048,0.029827676916583,-0.2301042085829324
3.545500000000004,-0.0426122136874415,0.041545817514473,-0.219450718828759
3.5490000000000066,-0.0255673282124649,0.041545817514473,-0.2119946722642392
3.552500000000009,0.0170448854749766,0.0383501196540714,-0.1885583910684593
3.555999999999983,0.0564614013020165,0.0351544217936697,-0.1704471094205142
3.5594999999999857,0.1182478021518678,0.0287630260728665,-0.1374237346435295
3.562999999999988,0.1747092034538843,0.0223716303520633,-0.1129210572747811
3.5664999999999907,0.2503447919183106,0.0234362811957798,-0.0745709376207097
3.569999999999993,0.2993484013265554,0.013849187614575,-0.0511346564249298
3.573499999999996,0.3675279432264619,0.0010646508437165,-0.0085224427374883
3.576999999999998,0.4154651564617382,-0.0074577918937717,0.0170448854749766
3.5805000000000007,0.4836446983616446,-0.0202405833353782,0.0564614013020165
3.584000000000003,0.5241258650324012,-0.0255673282124649,0.0809623333415129
3.5875000000000057,0.5795208701614492,-0.041545817514473,0.1161167551351827
3.591000000000008,0.6210684330051742,-0.0585907029894496,0.138488385487246
3.5944999999999823,0.6626142505196473,-0.0767019846373948,0.1640557136997109
3.5979999999999848,0.6956393706258839,-0.0862890782185996,0.1789695521580025
3.6014999999999877,0.7339894902799553,-0.0894847760790012,0.1981454846496642
3.6049999999999898,0.7595568184924202,-0.0926804739394028,0.2119946722642392
3.608499999999992,0.7936465894423735,-0.1075943123976944,0.2258421145495622
3.6119999999999943,0.8160182197944368,-0.1033339636935762,0.2364956043037356
3.615499999999997,0.84584589671102,-0.0958761717998045,0.2503447919183106
3.619,0.8692821779067997,-0.0905494269227178,0.2578025838120824
3.6225000000000014,0.8948495061192646,-0.0841580312019145,0.2599318854995155
3.6260000000000048,0.903371948856753,-0.0809623333415129,0.2652586303766022
3.6295000000000073,0.912959042437958,-0.0745709376207097,0.2769767709744921
3.632999999999981,0.9257435792088164,-0.0660484948832214,0.2908259585890671
3.636499999999984,0.9491798604045962,-0.0394165158270399,0.3174579376452486
3.6399999999999855,0.968355792896258,-0.0149138384582915,0.3376985209806268
3.643499999999989,0.9811385843378644,0.013849187614575,0.3664615470534934
3.646999999999992,0.9907256779190692,0.0383501196540714,0.3920288752659583
3.650499999999994,1.007770563394046,0.0639174478665363,0.4207919013388249
3.653999999999997,1.0194887039919358,0.083093380358198,0.4463592295512898
3.657499999999999,1.0312068445898257,0.1086607085706629,0.4761869064678729
3.661000000000002,1.037599985639881,0.1299659427497577,0.4996249329929048
3.664500000000004,1.0503827770814873,0.1555332709622227,0.5369104018032596
3.6680000000000064,1.0567741728022906,0.166186760716396,0.5678027295635593
3.671500000000009,1.0642319646960623,0.177904901314286,0.6018925005135125
3.674999999999983,1.0589052198189757,0.1885583910684593,0.6242641308655758
3.6784999999999854,1.0365335894669123,0.2034722295267509,0.6434400633572375
3.681999999999988,1.0109662612544474,0.2109282760912707,0.6519625060947258
3.6854999999999913,0.9534402091087144,0.2247774637058457,0.6572875056425604
3.688999999999993,0.903371948856753,0.2247774637058457,0.6508961099217573
3.692499999999996,0.8170828706381533,0.2226464166891606,0.6295908757426625
3.695999999999998,0.7414472821737271,0.2205171150017275,0.6104149432510009
3.699500000000001,0.6253287817092923,0.2173214171413259,0.5805872663344177
3.703000000000003,0.5262569120490862,0.2162550209683574,0.5571509851386378
3.7065000000000055,0.3898978282492732,0.2258421145495622,0.5134723752782278
3.710000000000008,0.2780431671474606,0.2290395577392158,0.4676662090596366
3.713499999999982,0.1310323389227262,0.2386266513204207,0.4133358547743051
3.716999999999985,0.0234362811957798,0.2514094427620272,0.3749839897909817
3.720499999999987,-0.1129210572747811,0.2641939795328856,0.3185243338182171
3.7239999999999895,-0.2077325782308691,0.2737810731140905,0.2801724688348938
3.727499999999992,-0.3100018910807288,0.2908259585890671,0.2311688594266489
3.7309999999999945,-0.369657244913895,0.302544099186957,0.2002765316663493
3.734499999999997,-0.4282496932325966,0.3227846825223353,0.1683160624038291
3.738,-0.452750625272093,0.3313071252598236,0.150206526085136
3.741500000000002,-0.4623394641825499,0.3462209637181151,0.1299659427497577
3.745000000000005,-0.4559463231324946,0.3462209637181151,0.1171831513081512
3.748500000000007,-0.4378367868138015,0.3472873598910836,0.1075943123976944
3.7520000000000095,-0.4165315526347067,0.3515477085952018,0.1043986145372928
3.755499999999984,-0.3781796876513833,0.3526141047681703,0.0948115209560879
3.758999999999986,-0.3430252658577135,0.3494166615785167,0.0958761717998045
3.7624999999999886,-0.288694911572382,0.341960615013997,0.1086607085706629
3.765999999999991,-0.2386266513204207,0.3366338701369103,0.1150521042914662
3.7694999999999936,-0.1597953649955928,0.3195889846619337,0.1299659427497577
3.772999999999996,-0.0990718696602061,0.3089354949077603,0.1342280367831279
3.776499999999999,-0.0308940730895516,0.288694911572382,0.1352926876268444
3.780000000000001,0.0170448854749766,0.2705853752536888,0.1310323389227262
3.783500000000004,0.0703088435873395,0.2407576983371057,0.1193124529955843
3.787000000000006,0.1065296615539778,0.2290395577392158,0.1075943123976944
3.7905000000000086,0.1448797812080492,0.2087989744038376,0.0948115209560879
3.793999999999983,0.1683160624038291,0.2034722295267509,0.0767019846373948
3.797499999999985,0.1906876927558924,0.1874919948954908,0.0468725623915597
3.800999999999988,0.2034722295267509,0.180035948330971,0.0266319790561814
3.8044999999999902,0.2141239739516723,0.1491418752414194,-0.0074577918937717
3.8079999999999927,0.2173214171413259,0.1331616406101593,-0.0394165158270399
3.8114999999999952,0.2087989744038376,0.1203788491685528,-0.0788312863248278
3.8149999999999977,0.2024058333537824,0.1150521042914662,-0.1075943123976944
3.8185,0.191754088928861,0.1171831513081512,-0.1491418752414194
3.8220000000000023,0.1981454846496642,0.1267702448893561,-0.1757738542976009
3.825500000000005,0.2034722295267509,0.138488385487246,-0.1992101354933808
3.829000000000008,0.2205171150017275,0.1374237346435295,-0.2215817658454441
3.832499999999982,0.2311688594266489,0.1438151303643327,-0.2450180470412239
3.835999999999984,0.2396913021641372,0.1427504795206162,-0.2620629325162006
3.839499999999987,0.2524758389349957,0.152337573101821,-0.2727164222703739
3.842999999999989,0.2535404897787122,0.1608600158393093,-0.2791078179911772
3.846499999999992,0.2620629325162006,0.177904901314286,-0.2727164222703739
3.8499999999999934,0.2641939795328856,0.1970790884766957,-0.260998281672484
3.853499999999997,0.2620629325162006,0.2151903701246408,-0.2503447919183106
3.8569999999999993,0.2599318854995155,0.2279731615662473,-0.2354309534600191
3.860500000000002,0.2439533961975074,0.2407576983371057,-0.2205171150017275
3.864000000000004,0.2237128128621291,0.247149094057909,-0.2119946722642392
3.867500000000007,0.180035948330971,0.2524758389349957,-0.2002765316663493
3.871000000000009,0.136357338470561,0.2663250265495707,-0.2013411825100658
3.874499999999984,0.0756355884644262,0.2780431671474606,-0.2024058333537824
3.877999999999986,0.0234362811957798,0.2759121201307756,-0.2024058333537824
3.881499999999989,-0.0543303542853314,0.2641939795328856,-0.2173214171413259
3.884999999999991,-0.1193124529955843,0.2567361876391139,-0.2301042085829324
3.8884999999999934,-0.205601531214184,0.2396913021641372,-0.2439533961975074
3.891999999999996,-0.2716500260974054,0.2226464166891606,-0.260998281672484
3.8954999999999984,-0.3483520107348002,0.1938833906162941,-0.2876302607286655
3.899000000000001,-0.4037470158638482,0.1683160624038291,-0.3014794483432405
3.9025000000000034,-0.4602084171658648,0.1320969897664428,-0.3238510786953038
3.906000000000006,-0.4868403962220463,0.1012029166768912,-0.3408942188410284
3.909500000000008,-0.5113430735907947,0.0660484948832214,-0.3600701513326901
3.9129999999999834,-0.5166698184678814,0.0362208179666383,-0.3824417816847534
3.916499999999985,-0.508147375730393,-0.0031956978604016,-0.397355620143045
3.919999999999988,-0.4911024902554164,-0.0319587239332681,-0.4144005056180216
3.92349999999999,-0.4495549274116914,-0.0628527970228197,-0.4367721359700849
3.926999999999993,-0.4186608543221398,-0.0745709376207097,-0.452750625272093
3.930499999999995,-0.3664615470534934,-0.0937468701123714,-0.4623394641825499
3.9339999999999975,-0.3227846825223353,-0.1012029166768912,-0.4729912086074713
3.9375,-0.2780431671474606,-0.1065296615539778,-0.4815136513449596
3.9410000000000025,-0.2546051406224288,-0.1033339636935762,-0.4825800475179281
3.944500000000005,-0.2205171150017275,-0.0809623333415129,-0.4793843496575265
3.948000000000008,-0.1928187397725775,-0.0617864008498512,-0.4708619069200382
3.9514999999999816,-0.1459461773810178,-0.029827676916583,-0.4570127193054631
3.954999999999984,-0.1182478021518678,-0.0181095363186931,-0.4431635316908882
3.9584999999999866,-0.083093380358198,0.0053267448770866,-0.4271832970596281
3.961999999999989,-0.0628527970228197,0.0063913957208032,-0.42292294835551
3.965499999999992,-0.0404811666707564,0.0117181405978899,-0.4154651564617382
3.968999999999994,-0.0245026773687483,0.0223716303520633,-0.4058780628805333
3.9724999999999966,-0.0074577918937717,0.0372854688103548,-0.4026823650201317
3.975999999999999,0.0063913957208032,0.0362208179666383,-0.3952245731263599
3.9795000000000016,0.0191759324916617,0.0308940730895516,-0.3845728287014385
3.983000000000004,0.0266319790561814,0.02769837522915,-0.3749839897909817
3.986500000000007,0.0181095363186931,0.0213052341790947,-0.3717882919305801
3.990000000000009,-0.0010646508437165,0.0149138384582915,-0.3781796876513833
3.993499999999983,-0.0426122136874415,0.0095870935812048,-0.38350643252847
3.9969999999999857,-0.0873537290623162,0.0031956978604016,-0.3888331774055567
4.000499999999988,-0.1480754790684509,-0.0063913957208032,-0.397355620143045
4.003999999999991,-0.1938833906162941,-0.0149138384582915,-0.4026823650201317
4.007499999999993,-0.2663250265495707,-0.0170448854749766,-0.4218582975117934
4.010999999999996,-0.3068061932203272,-0.0202405833353782,-0.4282496932325966
4.014499999999998,-0.3685925940701784,-0.0181095363186931,-0.4506213235846599
4.018000000000001,-0.4101401569139035,-0.0266319790561814,-0.4665998128866681
4.021500000000003,-0.4420988808471717,-0.0340897709499532,-0.4815136513449596
4.025000000000006,-0.4538170214450616,-0.0394165158270399,-0.4964292351325031
4.028500000000008,-0.4516859744283765,-0.0372854688103548,-0.5134723752782278
4.031999999999982,-0.4452945787075733,-0.029827676916583,-0.5230612141886847
4.035499999999985,-0.4154651564617382,-0.0223716303520633,-0.5315836569261729
4.038999999999987,-0.3898978282492732,-0.01598023463126,-0.5390397034906926
4.04249999999999,-0.3387649171535954,-0.0063913957208032,-0.5454328445407479
4.045999999999992,-0.2993484013265554,0.0010646508437165,-0.5454328445407479
4.049499999999995,-0.2428870000245388,0.0170448854749766,-0.5369104018032596
4.052999999999997,-0.1992101354933808,0.0319587239332681,-0.5305172607532044
4.0565,-0.1459461773810178,0.0479389585645282,-0.5134723752782278
4.060000000000002,-0.110790010258096,0.0639174478665363,-0.4953628389595346
4.063500000000005,-0.0756355884644262,0.0735062867769931,-0.4783179534845579
4.067000000000007,-0.0585907029894496,0.0894847760790012,-0.4602084171658648
4.070499999999981,-0.0404811666707564,0.1054650107102613,-0.4378367868138015
4.073999999999984,-0.0383501196540714,0.1235745470289545,-0.42292294835551
4.077499999999986,-0.0521993072686464,0.1480754790684509,-0.4069427137242498
4.080999999999989,-0.0820287295144815,0.1672514115601126,-0.3994866671597301
4.084499999999991,-0.1193124529955843,0.1864273440517743,-0.3952245731263599
4.087999999999994,-0.1629910628559944,0.2024058333537824,-0.3941599222826434
4.091499999999996,-0.2237128128621291,0.2151903701246408,-0.3952245731263599
4.094999999999999,-0.2727164222703739,0.2205171150017275,-0.3994866671597301
4.098500000000001,-0.3323735214327921,0.2173214171413259,-0.4037470158638482
4.102000000000004,-0.3685925940701784,0.2151903701246408,-0.4058780628805333
4.105500000000006,-0.4122694586013365,0.219450718828759,-0.4090737607409349
4.109000000000009,-0.4325100419367148,0.2183860679850424,-0.4186608543221398
4.112499999999983,-0.4346410889533998,0.2151903701246408,-0.4122694586013365
4.1159999999999854,-0.4186608543221398,0.1981454846496642,-0.4101401569139035
4.119499999999988,-0.3771150368076668,0.1747092034538843,-0.4048134120368167
4.122999999999991,-0.3376985209806268,0.150206526085136,-0.4016177141764152
4.126499999999993,-0.2812388650078622,0.1097253594143795,-0.3952245731263599
4.129999999999996,-0.2407576983371057,0.0809623333415129,-0.4005513180034466
4.133499999999998,-0.180035948330971,0.0372854688103548,-0.3994866671597301
4.1370000000000005,-0.138488385487246,0.0106534897541733,-0.3984202709867616
4.140500000000003,-0.0841580312019145,-0.0255673282124649,-0.3909642244222418
4.1440000000000055,-0.0458079115478431,-0.0479389585645282,-0.3941599222826434
4.147500000000008,-0.0085224427374883,-0.0777666354811113,-0.3877685265618402
4.150999999999982,0.0063913957208032,-0.0894847760790012,-0.3867021303888716
4.1544999999999845,0.0095870935812048,-0.1139874534477496,-0.3781796876513833
4.157999999999987,0.0063913957208032,-0.1214435000122694,-0.3717882919305801
4.1614999999999895,-0.0042603487041181,-0.1352926876268444,-0.3536787556118869
4.164999999999992,-0.0127827914416064,-0.138488385487246,-0.3355692192931938
4.1684999999999945,-0.0095870935812048,-0.1406194325039311,-0.3089354949077603
4.171999999999997,-0.0074577918937717,-0.1406194325039311,-0.2780431671474606
4.1755,0.0053267448770866,-0.1459461773810178,-0.2450180470412239
4.179000000000002,0.0191759324916617,-0.150206526085136,-0.219450718828759
4.1825000000000045,0.055395005129048,-0.1512729222581045,-0.177904901314286
4.186000000000007,0.0948115209560879,-0.1438151303643327,-0.150206526085136
4.1895000000000095,0.1619246666830259,-0.1459461773810178,-0.1139874534477496
4.192999999999984,0.219450718828759,-0.1544686201185061,-0.0905494269227178
4.196499999999986,0.3121311927681619,-0.166186760716396,-0.0575260521457331
4.199999999999989,0.3803107346680683,-0.1715135055934827,-0.0404811666707564
4.203499999999991,0.4815136513449596,-0.1736428072809158,-0.0117181405978899
4.206999999999994,0.561411333842756,-0.1715135055934827,0.0
4.210499999999996,0.6658099483800488,-0.166186760716396,0.01598023463126
4.213999999999999,0.7403808860007585,-0.1576643179789077,0.0319587239332681
4.217500000000001,0.8501062454151381,-0.1416840833476476,0.0372854688103548
4.221000000000004,0.9236125321921312,-0.1225098961852379,0.0468725623915597
4.224500000000006,1.0152283552878176,-0.0894847760790012,0.0575260521457331
4.228000000000009,1.0695587095731491,-0.0628527970228197,0.0564614013020165
4.231499999999983,1.132411506595969,-0.0213052341790947,0.0532657034416149
4.234999999999985,1.157977089479182,0.0095870935812048,0.0436768645311581
4.238499999999988,1.1771530219708437,0.0564614013020165,0.0287630260728665
4.24199999999999,1.1771530219708437,0.0916158230956863,0.0031956978604016
4.245499999999993,1.1419986001771738,0.1480754790684509,-0.0351544217936697
4.248999999999995,1.095126037785614,0.1821652500184041,-0.0596570991624181
4.252499999999998,1.0088369595670144,0.2279731615662473,-0.1075943123976944
4.256,0.9257435792088164,0.2599318854995155,-0.1459461773810178
4.259500000000003,0.7904508915819718,0.300413052170272,-0.1928187397725775
4.263000000000005,0.6764634381342222,0.3408942188410284,-0.2290395577392158
4.266500000000008,0.5283879590657713,0.3909642244222418,-0.2620629325162006
4.269999999999982,0.4325100419367148,0.4197272504951083,-0.2812388650078622
4.273499999999984,0.3068061932203272,0.4442281825346047,-0.2918906094327836
4.276999999999987,0.2087989744038376,0.4495549274116914,-0.3036087500306735
4.280499999999989,0.0745709376207097,0.4634041150262664,-0.3249157295390203
4.283999999999992,-0.0170448854749766,0.4719265577637547,-0.3323735214327921
4.287499999999994,-0.1278348957330726,0.4857757453783297,-0.3355692192931938
4.290999999999997,-0.1874919948954908,0.492167141099133,-0.3313071252598236
4.294499999999999,-0.233299906443334,0.5006895838366213,-0.316393286801532
4.298000000000002,-0.2514094427620272,0.5049499325407395,-0.3014794483432405
4.301500000000004,-0.2673896773932873,0.5028206308533064,-0.2908259585890671
4.305000000000007,-0.2737810731140905,0.4996249329929048,-0.2684543282370038
4.308500000000009,-0.260998281672484,0.4911024902554164,-0.2492801410745941
4.311999999999983,-0.2439533961975074,0.492167141099133,-0.2354309534600191
4.315499999999986,-0.2141239739516723,0.4868403962220463,-0.2087989744038376
4.318999999999988,-0.1928187397725775,0.4761869064678729,-0.1938833906162941
4.322499999999991,-0.1587289688226243,0.4495549274116914,-0.1715135055934827
4.325999999999993,-0.1331616406101593,0.4271832970596281,-0.1565979218059392
4.329499999999996,-0.1129210572747811,0.3984202709867616,-0.1470108282247343
4.332999999999998,-0.1043986145372928,0.3803107346680683,-0.1416840833476476
4.336500000000001,-0.0990718696602061,0.3504830577514853,-0.1320969897664428
4.340000000000003,-0.096942567972773,0.3217200316786187,-0.124639197872671
4.343500000000006,-0.0798976824977964,0.2620629325162006,-0.1139874534477496
4.347000000000008,-0.0745709376207097,0.205601531214184,-0.1118564064310645
4.350499999999983,-0.0521993072686464,0.136357338470561,-0.1043986145372928
4.353999999999985,-0.0362208179666383,0.0873537290623162,-0.1001382658331746
4.357499999999988,-0.0074577918937717,0.0362208179666383,-0.0884201252352847
4.36099999999999,0.0191759324916617,-0.0095870935812048,-0.0852244273748831
4.3644999999999925,0.0617864008498512,-0.0607217500061347,-0.0798976824977964
4.367999999999995,0.0926804739394028,-0.0937468701123714,-0.0671131457269379
4.3714999999999975,0.1491418752414194,-0.1565979218059392,-0.0564614013020165
4.375,0.1832316461913727,-0.1938833906162941,-0.0447432607041266
4.3785000000000025,0.2322352555996175,-0.2460844432141925,-0.0351544217936697
4.382000000000005,0.2641939795328856,-0.2833681666952953,-0.0266319790561814
4.385500000000008,0.2812388650078622,-0.3366338701369103,-0.0170448854749766
4.388999999999982,0.2854992137119804,-0.369657244913895,-0.0106534897541733
4.392499999999984,0.2759121201307756,-0.4048134120368167,-0.002131047016685
4.395999999999987,0.2695207244099723,-0.4207919013388249,0.002131047016685
4.399499999999989,0.2407576983371057,-0.4282496932325966,0.02769837522915
4.402999999999992,0.2066679273871525,-0.4282496932325966,0.0330233747769847
4.406499999999994,0.1576643179789077,-0.4186608543221398,0.0585907029894496
4.409999999999997,0.1065296615539778,-0.4069427137242498,0.0713752397603081
4.413499999999999,0.02769837522915,-0.3941599222826434,0.083093380358198
4.417000000000002,-0.0351544217936697,-0.3771150368076668,0.0926804739394028
4.420500000000004,-0.124639197872671,-0.3483520107348002,0.0916158230956863
4.424000000000007,-0.1896230419121759,-0.3238510786953038,0.1022693128498597
4.427500000000009,-0.2641939795328856,-0.2897613077453506,0.1065296615539778
4.430999999999983,-0.3100018910807288,-0.2663250265495707,0.1129210572747811
4.434499999999986,-0.3483520107348002,-0.2364956043037356,0.1097253594143795
4.437999999999988,-0.369657244913895,-0.2141239739516723,0.1161167551351827
4.441499999999991,-0.3867021303888716,-0.1832316461913727,0.1065296615539778
4.444999999999993,-0.3962909692993285,-0.1651203645434275,0.0905494269227178
4.448499999999996,-0.4005513180034466,-0.1352926876268444,0.0756355884644262
4.451999999999998,-0.3909642244222418,-0.1097253594143795,0.0607217500061347
4.455500000000001,-0.3632658491930918,-0.0777666354811113,0.0500682602519613
4.459000000000003,-0.3430252658577135,-0.0575260521457331,0.0404811666707564
4.462500000000006,-0.302544099186957,-0.0362208179666383,0.0266319790561814
4.466000000000008,-0.2716500260974054,-0.0213052341790947,0.0063913957208032
4.469499999999982,-0.2269085107225308,0.0031956978604016,-0.0149138384582915
4.472999999999985,-0.1896230419121759,0.013849187614575,-0.0340897709499532
4.476499999999987,-0.1459461773810178,0.0319587239332681,-0.0617864008498512
4.47999999999999,-0.1075943123976944,0.0372854688103548,-0.0809623333415129
4.483499999999992,-0.069244192743623,0.0500682602519613,-0.1161167551351827
4.486999999999995,-0.0468725623915597,0.0703088435873395,-0.1406194325039311
4.490499999999997,-0.0245026773687483,0.0980072188164895,-0.1821652500184041
4.494,-0.0031956978604016,0.1182478021518678,-0.2024058333537824
4.497500000000002,0.0245026773687483,0.1448797812080492,-0.2290395577392158
4.501000000000005,0.0447432607041266,0.166186760716396,-0.2428870000245388
4.504500000000007,0.0788312863248278,0.1768385051413174,-0.2599318854995155
4.507999999999981,0.1075943123976944,0.1832316461913727,-0.2705853752536888
4.511499999999984,0.1374237346435295,0.1885583910684593,-0.2929570056057522
4.514999999999986,0.1608600158393093,0.1874919948954908,-0.3057397970473587
4.518499999999989,0.1832316461913727,0.191754088928861,-0.3121311927681619
4.521999999999991,0.2024058333537824,0.1938833906162941,-0.314262239784847
4.525499999999994,0.2215817658454441,0.1949497867892626,-0.3068061932203272
4.528999999999996,0.233299906443334,0.1981454846496642,-0.3036087500306735
4.532499999999999,0.2407576983371057,0.1864273440517743,-0.300413052170272
4.536000000000001,0.2396913021641372,0.1704471094205142,-0.2961527034661538
4.539500000000004,0.2183860679850424,0.1544686201185061,-0.2961527034661538
4.543000000000006,0.191754088928861,0.1438151303643327,-0.2908259585890671
4.546500000000009,0.1544686201185061,0.1459461773810178,-0.2950880526224372
4.549999999999983,0.1150521042914662,0.1480754790684509,-0.2950880526224372
4.5534999999999854,0.0660484948832214,0.1544686201185061,-0.2950880526224372
4.556999999999988,0.0308940730895516,0.1672514115601126,-0.2972173543098703
4.560499999999991,-0.0149138384582915,0.1725781564371993,-0.2950880526224372
4.563999999999993,-0.0490036094082447,0.1789695521580025,-0.2993484013265554
4.567499999999996,-0.0937468701123714,0.177904901314286,-0.3014794483432405
4.570999999999998,-0.1203788491685528,0.1832316461913727,-0.3121311927681619
4.5745000000000005,-0.1534022239455376,0.1885583910684593,-0.3185243338182171
4.578000000000003,-0.166186760716396,0.1938833906162941,-0.3195889846619337
4.5815000000000055,-0.1789695521580025,0.2045368803704674,-0.3238510786953038
4.585000000000008,-0.1768385051413174,0.2119946722642392,-0.3259803803827369
4.588499999999982,-0.1651203645434275,0.2109282760912707,-0.3238510786953038
4.5919999999999845,-0.1470108282247343,0.205601531214184,-0.3206536355056502
4.595499999999987,-0.1139874534477496,0.1789695521580025,-0.3046751462036421
4.5989999999999895,-0.0852244273748831,0.1608600158393093,-0.2918906094327836
4.602499999999992,-0.0490036094082447,0.1438151303643327,-0.2823035158515788
4.6059999999999945,-0.0245026773687483,0.1374237346435295,-0.274847469287059
4.609499999999997,0.0010646508437165,0.1342280367831279,-0.258867234655799
4.613,0.0223716303520633,0.1267702448893561,-0.2439533961975074
4.616500000000002,0.0490036094082447,0.1161167551351827,-0.2258421145495622
4.6200000000000045,0.069244192743623,0.1043986145372928,-0.2119946722642392
4.623500000000007,0.0926804739394028,0.0948115209560879,-0.1938833906162941
4.6270000000000095,0.0990718696602061,0.0894847760790012,-0.1864273440517743
4.630499999999984,0.1129210572747811,0.083093380358198,-0.1757738542976009
4.633999999999986,0.1118564064310645,0.0873537290623162,-0.166186760716396
4.637499999999989,0.1129210572747811,0.1001382658331746,-0.1672514115601126
4.640999999999991,0.1065296615539778,0.1097253594143795,-0.1629910628559944
4.644499999999994,0.0958761717998045,0.1289012919060412,-0.1704471094205142
4.647999999999996,0.0841580312019145,0.1480754790684509,-0.166186760716396
4.651499999999999,0.0628527970228197,0.1874919948954908,-0.177904901314286
4.655000000000001,0.0490036094082447,0.2215817658454441,-0.1874919948954908
4.658500000000004,0.0308940730895516,0.2705853752536888,-0.2066679273871525
4.662000000000006,0.0213052341790947,0.2918906094327836,-0.2279731615662473
4.665500000000009,0.0117181405978899,0.2908259585890671,-0.2535404897787122
4.668999999999983,-0.0063913957208032,0.2940216564494687,-0.2780431671474606
4.672499999999985,-0.041545817514473,0.3121311927681619,-0.3249157295390203
4.675999999999988,-0.0649838440395048,0.3206536355056502,-0.3685925940701784
4.67949999999999,-0.096942567972773,0.3334381722765087,-0.4101401569139035
4.682999999999993,-0.1150521042914662,0.3355692192931938,-0.4484902765679749
4.686499999999995,-0.1374237346435295,0.3281114273994219,-0.4847093492053612
4.689999999999998,-0.1512729222581045,0.316393286801532,-0.5070809795574245
4.6935,-0.1619246666830259,0.2876302607286655,-0.5433017975240628
4.697000000000003,-0.1725781564371993,0.2684543282370038,-0.5667380787198427
4.700500000000005,-0.1938833906162941,0.2279731615662473,-0.5901743599156226
4.704000000000008,-0.2098636252475541,0.2013411825100658,-0.6082838962343158
4.707499999999982,-0.2151903701246408,0.1576643179789077,-0.6189373859884891
4.710999999999984,-0.2173214171413259,0.1225098961852379,-0.616806338971804
4.714499999999987,-0.2173214171413259,0.0660484948832214,-0.6114795940947174
4.717999999999989,-0.2098636252475541,0.0202405833353782,-0.6040235475301975
4.721499999999992,-0.1992101354933808,-0.029827676916583,-0.5859140112115044
4.724999999999994,-0.1874919948954908,-0.0745709376207097,-0.5667380787198427
4.728499999999997,-0.1736428072809158,-0.1203788491685528,-0.5411707505073777
4.731999999999999,-0.152337573101821,-0.1534022239455376,-0.5145387714511963
4.735500000000002,-0.1257055940456395,-0.1928187397725775,-0.4825800475179281
4.739000000000004,-0.1001382658331746,-0.2183860679850424,-0.4548816722887781
4.742500000000007,-0.0671131457269379,-0.2492801410745941,-0.4175962034784233
4.746000000000009,-0.0468725623915597,-0.2673896773932873,-0.3962909692993285
4.749499999999983,-0.0117181405978899,-0.2993484013265554,-0.3515477085952018
4.752999999999986,0.0095870935812048,-0.3185243338182171,-0.3259803803827369
4.756499999999988,0.0490036094082447,-0.3376985209806268,-0.2972173543098703
4.759999999999991,0.0724398906040246,-0.3504830577514853,-0.2737810731140905
4.763499999999993,0.0862890782185996,-0.3579391043160051,-0.2620629325162006
4.766999999999996,0.0905494269227178,-0.3547434064556034,-0.247149094057909
4.770499999999998,0.1022693128498597,-0.3483520107348002,-0.2407576983371057
4.774000000000001,0.1065296615539778,-0.3462209637181151,-0.2450180470412239
4.777500000000003,0.1022693128498597,-0.3440916620306821,-0.2396913021641372
4.781000000000006,0.1086607085706629,-0.3430252658577135,-0.2492801410745941
4.784500000000008,0.1118564064310645,-0.341960615013997,-0.2535404897787122
4.787999999999983,0.1182478021518678,-0.3440916620306821,-0.2641939795328856
4.791499999999985,0.1225098961852379,-0.3387649171535954,-0.2780431671474606
4.794999999999988,0.1310323389227262,-0.3291760782431385,-0.2844345628682639
4.79849999999999,0.1459461773810178,-0.3206536355056502,-0.300413052170272
4.8019999999999925,0.1608600158393093,-0.3217200316786187,-0.2940216564494687
4.805499999999995,0.1789695521580025,-0.314262239784847,-0.300413052170272
4.8089999999999975,0.1906876927558924,-0.3131975889411305,-0.2982837504828389
4.8125,0.1992101354933808,-0.3121311927681619,-0.2972173543098703
4.8160000000000025,0.1960144376329791,-0.3036087500306735,-0.3014794483432405
4.819500000000005,0.1715135055934827,-0.2897613077453506,-0.2982837504828389
4.823000000000008,0.1534022239455376,-0.2801724688348938,-0.2993484013265554
4.826499999999982,0.1203788491685528,-0.2663250265495707,-0.302544099186957
4.829999999999984,0.083093380358198,-0.258867234655799,-0.2982837504828389
4.833499999999987,0.0287630260728665,-0.2396913021641372,-0.3014794483432405
4.836999999999989,-0.0085224427374883,-0.2269085107225308,-0.3046751462036421
4.840499999999992,-0.0703088435873395,-0.2087989744038376,-0.3110665419244454
4.843999999999994,-0.1150521042914662,-0.1970790884766957,-0.3217200316786187
4.847499999999997,-0.177904901314286,-0.166186760716396,-0.3376985209806268
4.850999999999999,-0.2258421145495622,-0.150206526085136,-0.3430252658577135
4.854500000000002,-0.2780431671474606,-0.1278348957330726,-0.3504830577514853
4.858000000000004,-0.3302424744161071,-0.1001382658331746,-0.3590055004889736
4.861500000000007,-0.3760503859639502,-0.0521993072686464,-0.3643322453660603
4.865000000000009,-0.4026823650201317,-0.0149138384582915,-0.3653968962097769
4.868499999999983,-0.42292294835551,0.0351544217936697,-0.3653968962097769
4.871999999999986,-0.4357057397971164,0.0649838440395048,-0.3632658491930918
4.875499999999988,-0.4367721359700849,0.1001382658331746,-0.3568744534722885
4.878999999999991,-0.4239875991992265,0.1299659427497577,-0.3515477085952018
4.882499999999993,-0.397355620143045,0.1640557136997109,-0.3430252658577135
4.885999999999996,-0.3451563128743986,0.2077325782308691,-0.3302424744161071
4.889499999999998,-0.2950880526224372,0.2386266513204207,-0.3227846825223353
4.893000000000001,-0.205601531214184,0.2780431671474606,-0.3036087500306735
4.896500000000003,-0.1278348957330726,0.2961527034661538,-0.288694911572382
4.900000000000006,-0.013849187614575,0.3249157295390203,-0.2652586303766022
4.903500000000008,0.110790010258096,0.341960615013997,-0.2364956043037356
4.906999999999982,0.2013411825100658,0.3472873598910836,-0.219450718828759
4.910499999999985,0.2982837504828389,0.3515477085952018,-0.2024058333537824
4.913999999999987,0.4197272504951083,0.355809802628572,-0.1704471094205142
4.91749999999999,0.5443664483677794,0.3632658491930918,-0.1534022239455376
4.920999999999992,0.6189373859884891,0.3643322453660603,-0.136357338470561
4.924499999999995,0.6828548338550254,0.3685925940701784,-0.1257055940456395
4.927999999999997,0.7499697249112154,0.3813771308410369,-0.1065296615539778
4.9315,0.7840577505319166,0.3803107346680683,-0.0948115209560879
4.935000000000002,0.8074957770569485,0.3781796876513833,-0.0798976824977964
4.938500000000005,0.8021690321798618,0.3685925940701784,-0.0713752397603081
4.942000000000007,0.7648835633695069,0.3590055004889736,-0.0628527970228197
4.945499999999981,0.713748906944577,0.3526141047681703,-0.0628527970228197
4.948999999999984,0.6136106411114024,0.3451563128743986,-0.0745709376207097
4.952499999999986,0.517734469311598,0.3313071252598236,-0.0809623333415129
4.955999999999989,0.3547434064556034,0.3057397970473587,-0.0948115209560879
4.959499999999991,0.2183860679850424,0.2823035158515788,-0.1001382658331746
4.962999999999994,0.0383501196540714,0.2503447919183106,-0.1097253594143795
4.966499999999996,-0.0905494269227178,0.2279731615662473,-0.1097253594143795
4.969999999999999,-0.2556715367953973,0.1811005991746876,-0.1043986145372928
4.973500000000001,-0.4069427137242498,0.1331616406101593,-0.0916158230956863
4.977000000000004,-0.4964292351325031,0.0980072188164895,-0.0841580312019145
4.980500000000006,-0.6040235475301975,0.0372854688103548,-0.0767019846373948
4.984000000000009,-0.6647452975363323,0.0,-0.0777666354811113
4.987499999999983,-0.723336000525782,-0.0521993072686464,-0.0862890782185996
4.9909999999999854,-0.7457076308778453,-0.0809623333415129,-0.0905494269227178
4.994499999999988,-0.753165422771617,-0.110790010258096,-0.0958761717998045
4.997999999999991,-0.7382515843133254,-0.1512729222581045,-0.0980072188164895
5.001499999999993,-0.6945729744529154,-0.1768385051413174,-0.096942567972773
5.004999999999996,-0.6178727351447726,-0.2077325782308691,-0.0937468701123714
5.008499999999998,-0.5443664483677794,-0.2535404897787122,-0.0948115209560879
5.0120000000000005,-0.4442281825346047,-0.3313071252598236,-0.0980072188164895
5.015500000000003,-0.3526141047681703,-0.4080091098972184,-0.1065296615539778
5.0190000000000055,-0.2993484013265554,-0.452750625272093,-0.1214435000122694
5.022500000000008,-0.247149094057909,-0.4889714432387313,-0.1299659427497577
5.025999999999982,-0.1906876927558924,-0.5241258650324012,-0.1438151303643327
5.0294999999999845,-0.1512729222581045,-0.5486285424011496,-0.1438151303643327
5.032999999999987,-0.0948115209560879,-0.5720648235969293,-0.1342280367831279
5.0364999999999895,-0.0532657034416149,-0.5923054069323076,-0.1214435000122694
5.039999999999992,0.0149138384582915,-0.6104149432510009,-0.1022693128498597
5.0434999999999945,0.0543303542853314,-0.6231994800218592,-0.0873537290623162
5.046999999999997,0.1065296615539778,-0.6455693650446706,-0.0777666354811113
5.0505,0.1352926876268444,-0.6636806466926157,-0.0756355884644262
5.054000000000002,0.1619246666830259,-0.6785944851509074,-0.083093380358198
5.0575000000000045,0.1672514115601126,-0.6903126257487973,-0.0926804739394028
5.061000000000007,0.1534022239455376,-0.6998997193300021,-0.1161167551351827
5.0645000000000095,0.1374237346435295,-0.7020307663466872,-0.1278348957330726
5.067999999999984,0.1097253594143795,-0.7030954171904037,-0.1342280367831279
5.071499999999986,0.0948115209560879,-0.6956393706258839,-0.1374237346435295
5.074999999999989,0.0809623333415129,-0.6913772765925138,-0.1320969897664428
5.078499999999991,0.0756355884644262,-0.6828548338550254,-0.1278348957330726
5.081999999999994,0.0724398906040246,-0.6647452975363323,-0.1257055940456395
5.085499999999996,0.0713752397603081,-0.6508961099217573,-0.1257055940456395
5.088999999999999,0.0649838440395048,-0.630655526586379,-0.1310323389227262
5.092500000000001,0.0532657034416149,-0.6136106411114024,-0.1470108282247343
5.096000000000004,0.0308940730895516,-0.5965657556364258,-0.166186760716396
5.099500000000006,0.0213052341790947,-0.5827165680218508,-0.180035948330971
5.103000000000009,-0.002131047016685,-0.5656734278761262,-0.1981454846496642
5.106499999999983,-0.0191759324916617,-0.5401060996636612,-0.2141239739516723
5.109999999999985,-0.0308940730895516,-0.5145387714511963,-0.233299906443334
5.113499999999988,-0.0426122136874415,-0.5102766774178261,-0.2460844432141925
5.11699999999999,-0.0607217500061347,-0.5113430735907947,-0.2631275833599171
5.120499999999993,-0.0820287295144815,-0.5060163287137079,-0.2812388650078622
5.123999999999995,-0.1129210572747811,-0.4836446983616446,-0.2982837504828389
5.127499999999998,-0.1299659427497577,-0.4580773701491797,-0.3014794483432405
5.131,-0.1438151303643327,-0.4367721359700849,-0.2982837504828389
5.134500000000003,-0.1544686201185061,-0.4175962034784233,-0.2929570056057522
5.138000000000005,-0.1565979218059392,-0.397355620143045,-0.2823035158515788
5.141500000000008,-0.1544686201185061,-0.3888331774055567,-0.2684543282370038
5.144999999999982,-0.1534022239455376,-0.3717882919305801,-0.2556715367953973
5.148499999999984,-0.1480754790684509,-0.3643322453660603,-0.247149094057909
5.151999999999987,-0.1459461773810178,-0.3462209637181151,-0.2301042085829324
5.155499999999989,-0.1480754790684509,-0.3366338701369103,-0.2151903701246408
5.158999999999992,-0.1512729222581045,-0.3238510786953038,-0.1938833906162941
5.162499999999994,-0.1448797812080492,-0.3121311927681619,-0.1715135055934827
5.165999999999997,-0.1320969897664428,-0.2908259585890671,-0.1331616406101593
5.169499999999999,-0.1129210572747811,-0.2727164222703739,-0.0980072188164895
5.173000000000002,-0.0841580312019145,-0.247149094057909,-0.0607217500061347
5.176500000000004,-0.0671131457269379,-0.2311688594266489,-0.0287630260728665
5.180000000000007,-0.0585907029894496,-0.2002765316663493,0.0042603487041181
5.183500000000009,-0.0468725623915597,-0.1747092034538843,0.0234362811957798
5.186999999999983,-0.02769837522915,-0.1395530363309626,0.0447432607041266
5.190499999999986,-0.0085224427374883,-0.1342280367831279,0.069244192743623
5.193999999999988,0.0117181405978899,-0.1587289688226243,0.0980072188164895
5.197499999999991,0.0351544217936697,-0.1576643179789077,0.1054650107102613
5.200999999999993,0.0671131457269379,-0.1470108282247343,0.1097253594143795
5.204499999999996,0.0894847760790012,-0.1320969897664428,0.0926804739394028
5.207999999999998,0.1161167551351827,-0.0937468701123714,0.0671131457269379
5.211500000000001,0.1395530363309626,-0.0681795418999064,0.0479389585645282
5.215000000000003,0.1715135055934827,-0.0436768645311581,0.0223716303520633
5.218500000000006,0.2098636252475541,-0.0234362811957798,0.0053267448770866
5.222000000000008,0.260998281672484,0.0053267448770866,-0.0042603487041181
5.225499999999983,0.3046751462036421,0.0202405833353782,-0.0149138384582915
5.228999999999985,0.3536787556118869,0.0447432607041266,-0.0255673282124649
5.232499999999988,0.3739193389472651,0.0596570991624181,-0.0340897709499532
5.23599999999999,0.3962909692993285,0.0756355884644262,-0.0447432607041266
5.2394999999999925,0.4016177141764152,0.0841580312019145,-0.0447432607041266
5.242999999999995,0.3920288752659583,0.0862890782185996,-0.0447432607041266
5.2464999999999975,0.3653968962097769,0.083093380358198,-0.0383501196540714
5.25,0.3100018910807288,0.0809623333415129,-0.0351544217936697
5.2535000000000025,0.2631275833599171,0.0905494269227178,-0.0202405833353782
5.257000000000005,0.1970790884766957,0.0948115209560879,0.0127827914416064
5.260500000000008,0.1470108282247343,0.0820287295144815,0.0362208179666383
5.263999999999982,0.0798976824977964,0.0447432607041266,0.0756355884644262
5.267499999999984,0.0127827914416064,0.0095870935812048,0.0980072188164895
5.270999999999987,-0.0980072188164895,-0.0308940730895516,0.1161167551351827
5.274499999999989,-0.1853609478788057,-0.0575260521457331,0.1289012919060412
5.277999999999992,-0.3057397970473587,-0.1065296615539778,0.1512729222581045
5.281499999999994,-0.3792460838243518,-0.1427504795206162,0.1736428072809158
5.284999999999997,-0.4420988808471717,-0.1885583910684593,0.2162550209683574
5.288499999999999,-0.4676662090596366,-0.2301042085829324,0.2460844432141925
5.292000000000002,-0.4751222556241564,-0.2801724688348938,0.2844345628682639
5.295500000000004,-0.4665998128866681,-0.3153286359578155,0.3131975889411305
5.299000000000007,-0.4442281825346047,-0.3728546881035486,0.3526141047681703
5.302500000000009,-0.4101401569139035,-0.4197272504951083,0.3685925940701784
5.305999999999983,-0.3622011983493752,-0.4665998128866681,0.3930952714389268
5.309499999999986,-0.3217200316786187,-0.4953628389595346,0.4005513180034466
5.312999999999988,-0.2673896773932873,-0.5283879590657713,0.4069427137242498
5.316499999999991,-0.2258421145495622,-0.5443664483677794,0.4207919013388249
5.319999999999993,-0.1747092034538843,-0.547562146228181,0.4314453910929982
5.323499999999996,-0.1342280367831279,-0.5401060996636612,0.4325100419367148
5.326999999999998,-0.0788312863248278,-0.5209301671719996,0.4506213235846599
5.330500000000001,-0.02769837522915,-0.5028206308533064,0.4697955107470696
5.334000000000003,0.0490036094082447,-0.4974938859762197,0.4889714432387313
5.337500000000006,0.1022693128498597,-0.4953628389595346,0.5070809795574245
5.341000000000008,0.1640557136997109,-0.4889714432387313,0.5124077244345112
5.344499999999982,0.2002765316663493,-0.4761869064678729,0.5049499325407395
5.347999999999985,0.2354309534600191,-0.4516859744283765,0.5028206308533064
5.351499999999987,0.258867234655799,-0.4303807402492817,0.4964292351325031
5.35499999999999,0.286565609884949,-0.3962909692993285,0.4857757453783297
5.358499999999992,0.2993484013265554,-0.369657244913895,0.4847093492053612
5.361999999999995,0.3078708440640437,-0.3345028231202252,0.4772533026408414
5.365499999999997,0.3078708440640437,-0.3068061932203272,0.4697955107470696
5.369,0.2918906094327836,-0.2716500260974054,0.4591437663221482
5.372500000000002,0.2663250265495707,-0.2514094427620272,0.4495549274116914
5.376000000000005,0.233299906443334,-0.2183860679850424,0.4314453910929982
5.379500000000007,0.1970790884766957,-0.1949497867892626,0.41120480775762
5.382999999999981,0.1406194325039311,-0.1608600158393093,0.3930952714389268
5.386499999999984,0.0905494269227178,-0.1438151303643327,0.369657244913895
5.389999999999986,0.0181095363186931,-0.1214435000122694,0.3494166615785167
5.393499999999989,-0.0362208179666383,-0.1065296615539778,0.3313071252598236
5.396999999999991,-0.1001382658331746,-0.0873537290623162,0.3195889846619337
5.400499999999994,-0.1352926876268444,-0.0703088435873395,0.3100018910807288
5.403999999999996,-0.191754088928861,-0.0500682602519613,0.300413052170272
5.407499999999999,-0.2226464166891606,-0.0319587239332681,0.2918906094327836
5.411000000000001,-0.2663250265495707,-0.0191759324916617,0.2727164222703739
5.414500000000004,-0.2918906094327836,-0.002131047016685,0.2652586303766022
5.418000000000006,-0.3217200316786187,0.0181095363186931,0.2492801410745941
5.421500000000009,-0.3238510786953038,0.0308940730895516,0.2364956043037356
5.424999999999983,-0.3281114273994219,0.0468725623915597,0.2247774637058457
5.4284999999999854,-0.3281114273994219,0.0511346564249298,0.2173214171413259
5.431999999999988,-0.3281114273994219,0.0703088435873395,0.1928187397725775
5.435499999999991,-0.3366338701369103,0.0841580312019145,0.1757738542976009
5.438999999999993,-0.3472873598910836,0.1012029166768912,0.1576643179789077
5.442499999999996,-0.3462209637181151,0.1182478021518678,0.1534022239455376
5.445999999999998,-0.3281114273994219,0.1406194325039311,0.1491418752414194
5.4495000000000005,-0.2993484013265554,0.1534022239455376,0.1597953649955928
5.453000000000003,-0.2641939795328856,0.1757738542976009,0.1619246666830259
5.4565000000000055,-0.2290395577392158,0.1874919948954908,0.166186760716396
5.460000000000008,-0.177904901314286,0.2024058333537824,0.1757738542976009
5.463499999999982,-0.1331616406101593,0.2141239739516723,0.1832316461913727
5.4669999999999845,-0.0639174478665363,0.2226464166891606,0.1992101354933808
5.470499999999987,0.0,0.2258421145495622,0.2119946722642392
5.4739999999999895,0.0862890782185996,0.2311688594266489,0.2354309534600191
5.477499999999992,0.1576643179789077,0.2269085107225308,0.2460844432141925
5.4809999999999945,0.2311688594266489,0.2215817658454441,0.2567361876391139
5.484499999999997,0.2727164222703739,0.2109282760912707,0.2567361876391139
5.488,0.3100018910807288,0.1960144376329791,0.258867234655799
5.491500000000002,0.3302424744161071,0.1757738542976009,0.2556715367953973
5.4950000000000045,0.3451563128743986,0.1512729222581045,0.2631275833599171
5.498500000000007,0.3408942188410284,0.1267702448893561,0.2663250265495707
5.5020000000000095,0.3206536355056502,0.1033339636935762,0.2663250265495707
5.505499999999984,0.2940216564494687,0.0820287295144815,0.2663250265495707
5.508999999999986,0.2460844432141925,0.0585907029894496,0.2737810731140905
5.512499999999989,0.2077325782308691,0.0426122136874415,0.274847469287059
5.515999999999991,0.1470108282247343,0.0245026773687483,0.2769767709744921
5.519499999999994,0.0948115209560879,0.0053267448770866,0.2833681666952953
5.522999999999996,0.0149138384582915,-0.0149138384582915,0.2791078179911772
5.526499999999999,-0.0404811666707564,-0.029827676916583,0.2854992137119804
5.530000000000001,-0.0990718696602061,-0.0479389585645282,0.2950880526224372
5.533500000000004,-0.1416840833476476,-0.0500682602519613,0.3036087500306735
5.537000000000006,-0.1896230419121759,-0.0532657034416149,0.3110665419244454
5.540500000000009,-0.219450718828759,-0.0628527970228197,0.3238510786953038
5.543999999999983,-0.247149094057909,-0.0660484948832214,0.3302424744161071
5.547499999999985,-0.2546051406224288,-0.0660484948832214,0.3302424744161071
5.550999999999988,-0.2641939795328856,-0.055395005129048,0.3259803803827369
5.55449999999999,-0.2652586303766022,-0.041545817514473,0.3270467765557054
