time,Gyr_X,Gyr_Y,Gyr_Z
0.0,-0.044894,-0.027641,-0.010302
0.0100000000000051,-0.036589,-0.023068,-0.01014
0.019999999999996,-0.039443,-0.032092,-0.007551
0.0300000000000011,-0.022726,-0.022085,0.006486
0.0400000000000062,-0.019179,-0.016603,-0.019891
0.0499999999999971,-0.017232,-0.016627,-0.003426
0.0600000000000022,-0.013573,-0.016606,-0.003373
0.0700000000000073,-0.007965,-0.014804,0.010421
0.0799999999999983,-0.018818,-0.007664,0.011273
0.0900000000000034,-0.027984,-0.004094,0.00115
0.0999999999999943,-0.015245,-0.009429,0.003994
0.1099999999999994,-0.017725,0.003151,0.014166
0.1200000000000045,-0.025126,-0.002291,0.014926
0.1299999999999954,-0.015159,-0.004899,0.006808
0.1400000000000005,-0.027939,-0.004069,0.006643
0.1500000000000056,-0.014217,-0.00037,-0.000446
0.1599999999999966,-0.020788,-0.011247,-0.000668
0.1700000000000017,-0.016146,-0.00945,0.006724
0.1800000000000068,-0.032601,-0.011385,0.011961
0.1899999999999977,-0.037254,-0.015904,0.010931
0.2000000000000028,-0.045154,-0.004251,0.031061
0.2100000000000079,-0.062818,-0.017828,0.018794
0.2199999999999988,-0.052011,-0.020402,0.000637
0.2300000000000039,-0.036302,-0.011287,0.002784
0.2399999999999948,-0.040868,-0.014948,0.011811
0.25,-0.032739,-0.018504,0.006391
0.2600000000000051,-0.025339,-0.011256,0.003832
0.269999999999996,-0.026461,-0.022081,-0.000882
0.2800000000000011,-0.024789,-0.034705,0.004471
0.2900000000000062,-0.030179,-0.027499,0.002665
0.2999999999999971,-0.008264,-0.029139,0.001107
0.3100000000000023,-0.006219,-0.012887,-0.00598
0.3200000000000074,0.013698,-0.022653,-0.012225
0.3299999999999983,0.022873,-0.019919,-0.013908
0.3400000000000034,0.01577,-0.012828,0.001599
0.3499999999999943,0.010824,-0.032709,-0.005093
0.3599999999999994,-0.004462,-0.023837,0.012169
0.3700000000000045,-0.024848,-0.037465,0.003515
0.3799999999999954,-0.022803,-0.027544,0.010048
0.3900000000000005,-0.043029,-0.033059,0.006061
0.4000000000000057,-0.043029,-0.03305,0.006062
0.4099999999999966,-0.032698,-0.025804,0.02821
0.4200000000000017,-0.026275,-0.017618,0.013784
0.4300000000000068,-0.019156,-0.031085,0.01555
0.4399999999999977,-0.016349,-0.02746,0.017464
0.4500000000000028,-0.007142,-0.018364,0.006731
0.4600000000000079,-0.018135,-0.022037,0.012016
0.4699999999999988,0.000153,-0.021895,0.012263
0.480000000000004,0.001217,-0.00925,0.004203
0.4899999999999949,0.007352,-0.026339,0.003166
0.5,0.008532,-0.0047,-0.006611
0.5100000000000051,0.032422,-0.00366,0.007422
0.519999999999996,0.015943,-0.001972,0.001748
0.5300000000000011,0.033328,-0.001863,0.003818
0.5400000000000063,0.019649,-0.004677,0.015481
0.5499999999999972,0.006848,-0.000225,0.007148
0.5600000000000023,-0.000549,-0.00568,0.007903
0.5700000000000074,-0.008217,-0.022831,-0.004276
0.5799999999999983,-0.017317,-0.017478,-0.009813
0.5900000000000034,-0.026482,-0.027479,0.008207
0.5999999999999943,-0.026305,-0.022098,0.021055
0.6099999999999994,-0.041051,-0.019439,-0.001036
0.6200000000000045,-0.048361,-0.019492,-0.001143
0.6299999999999955,-0.052188,-0.027621,-0.008611
0.6400000000000006,-0.033623,-0.005874,-0.017244
0.6500000000000057,-0.018679,0.009518,-0.007732
0.6599999999999966,-0.00869,0.005964,-0.009475
0.6700000000000017,0.003283,0.012343,-0.011069
0.6800000000000068,0.010923,0.032201,-0.008911
0.6899999999999977,0.027553,0.043096,-0.009482
0.7000000000000028,0.046123,0.063916,-0.015382
0.710000000000008,0.055832,0.095443,-0.005763
0.7199999999999989,0.082068,0.136052,-0.008624
0.730000000000004,0.082983,0.183585,0.011093
0.7399999999999949,0.099105,0.266256,0.035078
0.75,0.086267,0.380291,0.036226
0.7600000000000051,0.083618,0.541232,0.0801
0.769999999999996,0.054406,0.747994,0.140637
0.7800000000000011,0.076135,1.045311,0.215714
0.7900000000000063,0.119636,1.453928,0.285154
0.7999999999999972,0.188506,1.954673,0.370626
0.8100000000000023,0.254009,2.584313,0.475902
0.8200000000000074,0.312432,3.239131,0.574072
0.8299999999999983,0.288323,3.983436,0.69419
0.8400000000000034,0.16144,4.803622,0.853224
0.8499999999999943,-0.070497,5.664547,1.072624
0.8599999999999994,-0.447546,6.520967,1.355894
0.8700000000000045,-0.942825,7.283671,1.69122
0.8799999999999955,-1.625365,7.907,2.105451
0.8900000000000006,-2.463736,8.335642,2.517106
0.9000000000000057,-3.428897,8.599682,2.945272
0.9099999999999966,-4.440918,8.719186,3.373791
0.9200000000000016,-5.379037,8.758043,3.79674
0.9300000000000068,-6.219207,8.754309,4.185641
0.9399999999999976,-6.911068,8.731758,4.512282
0.9500000000000028,-7.472843,8.656219,4.74138
0.960000000000008,-7.889536,8.564815,4.840563
0.9699999999999988,-8.152145,8.433997,4.831548
0.980000000000004,-8.25943,8.199041,4.657918
0.9899999999999948,-8.202863,7.873113,4.320062
1.0,-8.037926,7.510844,3.863726
1.0100000000000051,-7.762978,7.137928,3.338529
1.019999999999996,-7.347764,6.757054,2.769489
1.0300000000000011,-6.866669,6.394692,2.192387
1.0400000000000065,-6.409261,5.97388,1.59598
1.0499999999999972,-5.855283,5.588895,1.019464
1.0600000000000025,-5.283152,5.235233,0.450929
1.0700000000000074,-4.641894,4.961241,-0.082902
1.0799999999999983,-3.896381,4.694855,-0.629959
1.0900000000000034,-3.078969,4.434709,-1.113011
1.0999999999999943,-2.177323,4.16593,-1.558457
1.1099999999999994,-1.213055,3.878651,-1.892688
1.1200000000000043,-0.208118,3.595237,-2.176995
1.1299999999999957,0.846997,3.340949,-2.412723
1.1400000000000006,1.957179,3.095278,-2.627368
1.1500000000000057,3.159666,2.832277,-2.802489
1.1599999999999966,4.409434,2.56908,-3.011606
1.1700000000000017,5.734462,2.324262,-3.231434
1.1800000000000068,7.126795,1.963657,-3.504758
1.1899999999999975,8.530019,1.565336,-3.815892
1.2000000000000028,9.840018,1.048227,-4.115134
1.210000000000008,10.96446,0.457546,-4.375734
1.2199999999999989,11.830649,-0.191963,-4.565649
1.230000000000004,12.382671,-0.856213,-4.664926
1.2399999999999949,12.616472,-1.543584,-4.715819
1.25,12.536907,-2.192945,-4.7076
1.2600000000000051,12.230906,-2.797716,-4.638778
1.269999999999996,11.814729,-3.340855,-4.516749
1.2800000000000011,11.309978,-3.763326,-4.364247
1.2900000000000065,10.749632,-4.117512,-4.188714
1.2999999999999972,10.157309,-4.410138,-4.034802
1.3100000000000025,9.586083,-4.641597,-3.88429
1.3200000000000074,9.072629,-4.792375,-3.750194
1.3299999999999983,8.598921,-4.897553,-3.647881
1.3400000000000034,8.179112,-4.942081,-3.56057
1.3499999999999943,7.832845,-4.907043,-3.473176
1.3599999999999994,7.541053,-4.801484,-3.367913
1.3700000000000043,7.361268,-4.579302,-3.208702
1.3799999999999957,7.255532,-4.308341,-3.001339
1.3900000000000006,7.183568,-4.131746,-2.685053
1.4000000000000057,7.1079,-4.066339,-2.36923
1.4099999999999966,6.9701,-4.060339,-2.041208
1.4200000000000017,6.895016,-4.111658,-1.816293
1.4300000000000068,6.732003,-4.055758,-1.636236
1.4399999999999975,6.511571,-3.816576,-1.46112
1.4500000000000028,6.19278,-3.435666,-1.25807
1.460000000000008,5.774292,-3.01195,-0.984457
1.4699999999999989,5.280286,-2.702399,-0.655659
1.480000000000004,4.730909,-2.379155,-0.327548
1.4899999999999949,4.186425,-2.026907,-0.029194
1.5,3.682194,-1.612786,0.265
1.5100000000000051,3.296808,-1.153677,0.582486
1.519999999999996,3.01451,-0.568808,0.967033
1.5300000000000011,2.898254,0.180421,1.467332
1.5400000000000065,2.867828,1.01947,2.048303
1.5499999999999972,2.839199,1.84543,2.655419
1.5600000000000025,2.744672,2.672714,3.2423
1.5700000000000074,2.561254,3.432744,3.799608
1.5799999999999983,2.271239,4.183336,4.299714
1.5900000000000034,1.929947,4.908655,4.720327
1.5999999999999943,1.523126,5.579638,5.052606
1.6099999999999994,1.082465,6.155882,5.34032
1.6200000000000043,0.618786,6.710548,5.535229
1.6299999999999957,0.126626,7.194078,5.622119
1.6400000000000006,-0.409488,7.593092,5.663774
1.6500000000000057,-0.969647,7.827899,5.644637
1.6599999999999966,-1.518776,7.939071,5.612167
1.6700000000000017,-2.065262,7.997994,5.541577
1.6800000000000068,-2.620311,7.997448,5.440086
1.6899999999999975,-3.199335,7.956096,5.391742
1.7000000000000028,-3.746748,7.923181,5.393254
1.710000000000008,-4.257421,7.878941,5.433447
1.7199999999999989,-4.667034,7.862565,5.48261
1.730000000000004,-4.969151,7.828797,5.527562
1.7399999999999949,-5.222538,7.737391,5.585121
1.75,-5.394692,7.697062,5.630688
1.7600000000000051,-5.53548,7.622946,5.668125
1.769999999999996,-5.60487,7.543807,5.735801
1.7800000000000011,-5.649757,7.438581,5.828231
1.7900000000000065,-5.578929,7.332288,5.975199
1.7999999999999972,-5.523639,7.238394,6.14388
1.8100000000000025,-5.58603,7.12546,6.252933
1.8200000000000076,-5.742103,6.970734,6.235969
1.8299999999999983,-5.865229,6.750945,6.101802
1.8400000000000036,-5.914144,6.530624,5.878247
1.8499999999999943,-5.937199,6.282977,5.601821
1.8599999999999997,-5.888144,6.034864,5.242173
1.8700000000000043,-5.810948,5.754722,4.855176
1.8799999999999957,-5.597046,5.488559,4.412753
1.8900000000000008,-5.335047,5.253016,3.965757
1.9000000000000057,-4.970192,5.009323,3.479878
1.9099999999999968,-4.559658,4.779357,2.956405
1.9200000000000017,-4.098425,4.591242,2.399414
1.9300000000000068,-3.629585,4.424222,1.84096
1.9399999999999975,-3.130328,4.268088,1.304987
1.9500000000000028,-2.556975,4.059967,0.749213
1.960000000000008,-1.90153,3.855827,0.273194
1.9699999999999989,-1.162946,3.645875,-0.203568
1.980000000000004,-0.341301,3.438914,-0.580538
1.9899999999999949,0.583823,3.207249,-0.89255
2.0,1.585835,2.955315,-1.152622
2.010000000000005,2.652436,2.728135,-1.378614
2.019999999999996,3.684674,2.459486,-1.583607
2.030000000000001,4.690033,2.217875,-1.777731
2.0400000000000063,5.66755,1.999304,-1.955531
2.049999999999997,6.571647,1.766546,-2.1364
2.0600000000000023,7.439409,1.506401,-2.345578
2.0700000000000074,8.201705,1.180774,-2.56146
2.0799999999999983,8.825222,0.82205,-2.795972
2.0900000000000034,9.305803,0.434436,-3.007935
2.0999999999999943,9.652867,0.024242,-3.170633
2.1099999999999994,9.892569,-0.381322,-3.269011
2.1200000000000045,10.010298,-0.775058,-3.319642
2.1299999999999955,10.045698,-1.171061,-3.365867
2.140000000000001,10.028022,-1.576377,-3.391826
2.1500000000000057,9.922868,-1.97761,-3.391468
2.1599999999999966,9.810907,-2.362661,-3.368197
2.1700000000000017,9.714028,-2.734307,-3.314388
2.180000000000007,9.623886,-3.055983,-3.196079
2.1899999999999977,9.468342,-3.358702,-3.063183
2.200000000000003,9.274702,-3.631175,-2.958028
2.210000000000008,9.021429,-3.900262,-2.885484
2.219999999999999,8.773996,-4.138397,-2.825022
2.230000000000004,8.557992,-4.417613,-2.752568
2.239999999999995,8.341086,-4.653621,-2.648548
2.25,8.190964,-4.851313,-2.52857
2.260000000000005,8.111399,-4.988238,-2.355731
2.269999999999996,7.923905,-4.974255,-2.140346
2.280000000000001,7.722561,-4.920703,-1.88822
2.2900000000000063,7.42536,-4.842423,-1.679389
2.299999999999997,7.094798,-4.786117,-1.502537
2.3100000000000023,6.714604,-4.748377,-1.317348
2.3200000000000074,6.260916,-4.757034,-1.067778
2.3299999999999983,5.717604,-4.782052,-0.77375
2.3400000000000034,5.096434,-4.806443,-0.508142
2.3499999999999943,4.44966,-4.809314,-0.304873
2.3599999999999994,3.781688,-4.789537,-0.172848
2.3700000000000045,3.086603,-4.714695,-0.117221
2.3799999999999955,2.389025,-4.640584,-0.147487
2.390000000000001,1.751476,-4.57589,-0.198978
2.4000000000000057,1.133497,-4.518209,-0.306917
2.4099999999999966,0.599495,-4.465617,-0.443153
2.4200000000000017,0.139845,-4.396524,-0.59109
2.430000000000007,-0.198652,-4.315948,-0.697033
2.4399999999999977,-0.417536,-4.159935,-0.726449
2.450000000000003,-0.55362,-4.016236,-0.64433
2.460000000000008,-0.613677,-3.84873,-0.461275
2.469999999999999,-0.579805,-3.666314,-0.233933
2.480000000000004,-0.443443,-3.474929,-0.021729
2.489999999999995,-0.210351,-3.280977,0.156939
2.5,0.019987,-3.123081,0.295907
2.510000000000005,0.235637,-2.950792,0.403944
2.519999999999996,0.387587,-2.762558,0.526959
2.530000000000001,0.527945,-2.514929,0.678885
2.5400000000000063,0.672209,-2.198645,0.83722
2.549999999999997,0.843566,-1.795726,1.019794
2.5600000000000023,0.992875,-1.356941,1.249061
2.5700000000000074,1.090711,-0.830026,1.513449
2.5799999999999983,1.215075,-0.23785,1.780167
2.5900000000000034,1.380994,0.465735,2.098142
2.5999999999999943,1.552786,1.161574,2.525582
2.6099999999999994,1.632965,1.861701,2.987272
2.6200000000000045,1.66792,2.561826,3.537973
2.6299999999999955,1.62462,3.274033,4.114204
2.640000000000001,1.480652,3.962981,4.732512
2.6500000000000057,1.185851,4.638353,5.268084
2.6599999999999966,0.684063,5.234131,5.683
2.6700000000000017,0.022631,5.728185,5.9905
2.680000000000007,-0.746644,6.146047,6.213412
2.6899999999999977,-1.54138,6.461153,6.422028
2.700000000000003,-2.321204,6.694552,6.595258
2.710000000000008,-3.046644,6.898905,6.767073
2.719999999999999,-3.714921,7.032751,6.899531
2.730000000000004,-4.288568,7.146537,7.003795
2.739999999999995,-4.818226,7.211869,7.114549
2.75,-5.388777,7.228407,7.245142
2.760000000000005,-6.002021,7.270398,7.338803
2.769999999999996,-6.538289,7.341253,7.368906
2.780000000000001,-6.957769,7.380482,7.308856
2.7900000000000063,-7.287337,7.404813,7.214348
2.799999999999997,-7.512134,7.349591,7.114909
2.8100000000000023,-7.602956,7.201573,7.026254
2.8200000000000074,-7.57989,7.008105,6.966769
2.8299999999999983,-7.459602,6.818708,6.819828
2.8400000000000034,-7.305689,6.573218,6.589545
2.8499999999999943,-7.076129,6.292707,6.181494
2.8599999999999994,-6.781662,6.089581,5.687689
2.8700000000000045,-6.430016,5.915666,5.10755
2.8799999999999955,-6.00046,5.81291,4.514737
2.890000000000001,-5.516066,5.707056,3.94374
2.9000000000000057,-4.983758,5.585711,3.349395
2.9099999999999966,-4.392225,5.411756,2.674402
2.9200000000000017,-3.689954,5.191922,1.971545
2.930000000000007,-2.968191,4.886378,1.174166
2.9399999999999977,-2.281348,4.50319,0.382191
2.950000000000003,-1.663232,4.09404,-0.238833
2.960000000000008,-1.1573,3.694227,-0.72234
2.969999999999999,-0.716012,3.32226,-1.101385
2.980000000000004,-0.3043,2.986871,-1.358046
2.989999999999995,0.057045,2.665921,-1.539669
3.0,0.424133,2.33461,-1.675927
3.010000000000005,0.847461,1.971108,-1.80834
3.019999999999996,1.342293,1.606123,-1.917873
3.030000000000001,1.933477,1.239974,-1.967535
3.0400000000000063,2.559833,0.896846,-1.999889
3.049999999999997,3.231936,0.61527,-2.043753
3.0600000000000023,3.967072,0.363384,-2.172694
3.0700000000000074,4.767836,0.139091,-2.387028
3.0799999999999983,5.625896,-0.091643,-2.614954
3.0900000000000034,6.553669,-0.299847,-2.842514
3.0999999999999943,7.497607,-0.547179,-3.020978
3.1099999999999994,8.464044,-0.772562,-3.197315
3.1200000000000045,9.428781,-0.974337,-3.409941
3.1299999999999955,10.387831,-1.131931,-3.603609
3.140000000000001,11.263212,-1.261274,-3.788765
3.1500000000000057,12.027308,-1.354072,-3.876158
3.1599999999999966,12.663118,-1.450257,-3.855743
3.1700000000000017,13.137494,-1.624409,-3.716111
3.180000000000007,13.421525,-1.886351,-3.542181
3.1899999999999977,13.492938,-2.246291,-3.478408
3.200000000000003,13.358995,-2.625636,-3.459399
3.210000000000008,13.093616,-3.050634,-3.398427
3.219999999999999,12.65042,-3.531147,-3.286383
3.230000000000004,12.13866,-3.97923,-3.046226
3.239999999999995,11.607038,-4.296446,-2.690678
3.25,11.061049,-4.510686,-2.249061
3.260000000000005,10.56031,-4.58502,-1.790534
3.269999999999996,9.955256,-4.566477,-1.372425
3.280000000000001,9.300996,-4.530369,-0.955626
3.2900000000000063,8.576769,-4.478904,-0.576355
3.299999999999997,7.835126,-4.355736,-0.241237
3.3100000000000023,7.144528,-4.178996,0.069532
3.3200000000000074,6.507134,-3.981148,0.361015
3.3299999999999983,5.928413,-3.815095,0.640113
3.3400000000000034,5.319654,-3.679028,0.893001
3.3499999999999943,4.694771,-3.513329,1.082052
3.3599999999999994,4.127352,-3.264008,1.196219
3.3700000000000045,3.584926,-3.02336,1.277897
3.3799999999999955,3.055543,-2.750989,1.318007
3.390000000000001,2.537262,-2.447823,1.303743
3.4000000000000057,2.038567,-2.0744,1.179136
3.4099999999999966,1.618713,-1.570738,1.059058
3.4200000000000017,1.277119,-0.971084,0.939317
3.430000000000007,0.986751,-0.25029,0.819868
3.4399999999999977,0.73593,0.537525,0.741054
3.450000000000003,0.448641,1.373419,0.692327
3.460000000000008,0.151933,2.24431,0.664971
3.469999999999999,-0.178297,3.113315,0.675699
3.480000000000004,-0.459411,4.05651,0.750189
3.489999999999995,-0.663634,4.996199,0.848577
3.5,-0.770765,5.95292,0.943806
3.510000000000005,-0.90654,6.846961,1.002926
3.519999999999996,-1.083844,7.626356,1.007142
3.530000000000001,-1.321529,8.316454,0.945661
3.5400000000000063,-1.547021,8.928261,0.858796
3.549999999999997,-1.832313,9.484783,0.717511
3.5600000000000023,-2.129648,9.988473,0.528796
3.5700000000000074,-2.439384,10.465268,0.308427
3.5799999999999983,-2.66781,10.904835,0.035751
3.5900000000000034,-2.839109,11.306939,-0.207201
3.5999999999999943,-2.909185,11.617949,-0.399515
3.61,-2.881333,11.848958,-0.545943
3.620000000000005,-2.834486,11.896467,-0.69257
3.629999999999996,-2.727804,11.78657,-0.847786
3.640000000000001,-2.549071,11.500229,-1.040765
3.6500000000000057,-2.295251,11.093692,-1.213951
3.6599999999999966,-1.968083,10.555993,-1.340125
3.6700000000000017,-1.608835,9.933586,-1.417428
3.680000000000007,-1.267326,9.264553,-1.416631
3.6899999999999977,-1.009271,8.585606,-1.312185
3.700000000000003,-0.875746,7.945615,-1.205724
3.710000000000008,-0.929274,7.281599,-1.125097
3.719999999999999,-1.106277,6.621132,-1.066207
3.730000000000004,-1.338418,6.019069,-1.062068
3.739999999999995,-1.657073,5.545756,-1.053652
3.75,-2.039117,5.167406,-1.003813
3.760000000000005,-2.541035,4.776237,-0.888171
3.769999999999996,-3.111166,4.273,-0.846897
3.780000000000001,-3.691229,3.706999,-0.795371
3.7900000000000063,-4.217652,3.136034,-0.796145
3.799999999999997,-4.658983,2.626998,-0.796832
3.8100000000000014,-5.064136,2.170292,-0.853284
3.820000000000008,-5.399762,1.809635,-0.99554
3.8299999999999983,-5.630335,1.529209,-1.205783
3.8400000000000034,-5.69542,1.341904,-1.48943
3.8499999999999934,-5.653556,1.229008,-1.800987
3.86,-5.497874,1.164448,-2.144372
3.870000000000005,-5.24704,1.113133,-2.515753
3.879999999999996,-4.920134,1.042592,-2.936527
3.890000000000001,-4.573657,0.948682,-3.379086
3.9000000000000057,-4.13629,0.805698,-3.797187
3.9099999999999966,-3.660842,0.610493,-4.170732
3.9200000000000017,-3.07635,0.386674,-4.470198
3.930000000000007,-2.401934,0.141481,-4.656282
3.9399999999999977,-1.65143,-0.13169,-4.761258
3.950000000000003,-0.744501,-0.416814,-4.838782
3.960000000000008,0.289148,-0.776551,-4.911895
3.969999999999999,1.402294,-1.236347,-5.02908
3.980000000000004,2.562293,-1.724212,-5.193604
3.989999999999995,3.816774,-2.205412,-5.457056
4.0,5.092128,-2.642386,-5.676965
4.010000000000005,6.302975,-3.057719,-5.738196
4.019999999999996,7.44213,-3.434489,-5.69433
4.030000000000001,8.410171,-3.800628,-5.572447
4.040000000000006,9.185758,-4.113116,-5.388641
4.049999999999997,9.753291,-4.414566,-5.150978
4.060000000000002,10.093287,-4.697014,-4.901519
4.070000000000007,10.205822,-5.038489,-4.741723
4.079999999999998,10.195072,-5.48913,-4.590144
4.090000000000003,10.074893,-6.020321,-4.371466
4.099999999999994,9.855946,-6.462382,-4.099214
4.109999999999999,9.485048,-6.811747,-3.809681
4.1200000000000045,9.067492,-7.108832,-3.510025
4.129999999999996,8.652025,-7.285287,-3.212602
4.140000000000001,8.237521,-7.281847,-2.901898
4.150000000000006,7.827299,-7.144392,-2.540153
4.159999999999997,7.253718,-7.048185,-2.115586
4.170000000000002,6.490874,-6.988436,-1.728524
4.180000000000007,5.66523,-6.968789,-1.326089
4.189999999999998,4.882451,-6.915833,-0.91542
4.200000000000003,4.25057,-6.802503,-0.56824
4.210000000000008,3.777575,-6.534768,-0.356243
4.219999999999999,3.448698,-6.219957,-0.279626
4.230000000000004,3.283736,-5.906021,-0.266348
4.239999999999995,3.212482,-5.572032,-0.22858
4.25,3.239346,-5.251972,-0.133009
4.260000000000005,3.311078,-4.906463,0.038307
4.269999999999996,3.395234,-4.513095,0.197571
4.280000000000001,3.349342,-4.064885,0.353941
4.290000000000006,3.168088,-3.56802,0.53288
4.299999999999997,2.864327,-3.015857,0.716393
4.310000000000002,2.537524,-2.373502,0.922659
4.320000000000007,2.209337,-1.645337,1.140938
4.329999999999998,1.857053,-0.833758,1.392687
4.340000000000003,1.449447,-0.00552,1.675848
4.349999999999994,0.984017,0.824293,2.051517
4.359999999999999,0.541694,1.685249,2.416116
4.3700000000000045,0.072032,2.528694,2.79081
4.379999999999996,-0.353965,3.42028,3.150252
4.390000000000001,-0.715244,4.243983,3.542632
4.400000000000006,-1.10958,4.943869,3.915525
4.409999999999997,-1.482635,5.495236,4.253947
4.420000000000002,-1.851956,5.855469,4.636743
4.430000000000007,-2.194183,6.078031,5.011004
4.439999999999998,-2.472355,6.211921,5.456401
4.450000000000003,-2.620291,6.303599,5.919507
4.460000000000008,-2.663512,6.336876,6.345981
4.469999999999999,-2.626698,6.293199,6.765342
4.480000000000004,-2.604266,6.183636,7.119765
4.489999999999995,-2.646898,6.020315,7.434196
4.5,-2.762822,5.808803,7.682145
4.510000000000005,-2.87274,5.527946,7.880072
4.519999999999996,-2.974532,5.186664,8.07299
4.530000000000001,-3.024023,4.773719,8.318818
4.540000000000006,-3.019948,4.354318,8.530449
4.549999999999997,-2.971915,3.964015,8.69078
4.560000000000002,-2.876686,3.580934,8.771414
4.570000000000007,-2.679291,3.198636,8.784919
4.579999999999998,-2.397732,2.8495,8.749749
4.590000000000003,-2.091722,2.542594,8.722651
4.599999999999994,-1.821667,2.280587,8.68466
4.609999999999999,-1.605125,2.06603,8.62105
4.6200000000000045,-1.473799,1.910267,8.529618
4.629999999999996,-1.405893,1.759661,8.377104
4.640000000000001,-1.394505,1.661155,8.144123
4.650000000000006,-1.418592,1.546281,7.842906
4.659999999999997,-1.444623,1.487609,7.404389
4.670000000000002,-1.457861,1.471851,6.877011
4.680000000000007,-1.45055,1.512318,6.166009
4.689999999999998,-1.437165,1.544598,5.307043
4.700000000000003,-1.358853,1.625744,4.346491
4.710000000000008,-1.229792,1.737812,3.378741
4.719999999999999,-1.074364,1.917052,2.378259
4.730000000000004,-0.920127,2.190976,1.390727
4.739999999999995,-0.782167,2.460231,0.426608
4.75,-0.574733,2.717984,-0.529509
4.760000000000005,-0.361491,2.965611,-1.426376
4.769999999999996,-0.081965,3.134763,-2.339563
4.780000000000001,0.245018,3.266128,-3.203394
4.790000000000006,0.680698,3.308221,-4.014727
4.799999999999997,1.265976,3.290623,-4.76818
4.810000000000002,1.993082,3.214294,-5.510454
4.820000000000007,2.800673,3.072625,-6.210325
4.829999999999998,3.652154,2.831956,-6.801095
4.840000000000003,4.514378,2.470218,-7.294479
4.849999999999994,5.360322,2.009278,-7.655766
4.859999999999999,6.151514,1.54135,-7.897206
4.8700000000000045,6.898659,1.11264,-7.972392
4.879999999999996,7.547051,0.67165,-7.884533
4.890000000000001,8.093504,0.269666,-7.689867
4.900000000000006,8.530844,-0.121999,-7.42071
4.909999999999997,8.847253,-0.528493,-7.142456
4.920000000000002,9.06029,-0.958548,-6.943486
4.930000000000007,9.173702,-1.421645,-6.79278
4.939999999999998,9.17175,-1.897799,-6.642073
4.950000000000003,9.006307,-2.37118,-6.503
4.960000000000008,8.743149,-2.759869,-6.426529
4.969999999999999,8.459459,-3.10822,-6.365298
4.980000000000004,8.12304,-3.446153,-6.279067
4.989999999999995,7.792481,-3.765106,-6.181545
5.0,7.449821,-4.061041,-6.049244
5.010000000000005,7.114419,-4.327467,-5.872568
5.019999999999996,6.807726,-4.534424,-5.643683
5.030000000000001,6.532269,-4.741137,-5.38326
5.040000000000006,6.205271,-4.872464,-5.063148
5.049999999999997,5.907284,-5.023472,-4.730028
5.060000000000002,5.622767,-5.120346,-4.430888
5.070000000000007,5.366303,-5.164432,-4.161763
5.079999999999998,5.09877,-5.196085,-3.922766
5.090000000000003,4.869443,-5.234164,-3.70432
5.099999999999994,4.622417,-5.211065,-3.512758
5.109999999999999,4.269911,-5.138111,-3.375064
5.1200000000000045,3.913111,-4.985948,-3.245647
5.129999999999996,3.514345,-4.796174,-3.162857
5.140000000000001,3.034605,-4.61941,-3.103156
5.150000000000006,2.542411,-4.430477,-3.032479
5.159999999999997,1.996949,-4.281687,-2.900899
5.170000000000002,1.38689,-4.196383,-2.710658
5.180000000000007,0.771034,-4.047935,-2.459372
5.189999999999998,0.19382,-3.794662,-2.158716
5.200000000000003,-0.270463,-3.43168,-1.763828
5.210000000000008,-0.689697,-3.028558,-1.265627
5.219999999999999,-1.010645,-2.641604,-0.70712
5.230000000000004,-1.237653,-2.247087,-0.083446
5.239999999999995,-1.416478,-1.861468,0.662308
5.25,-1.613168,-1.471524,1.46636
5.260000000000005,-1.870252,-1.04508,2.311089
5.269999999999996,-2.165089,-0.574648,3.141156
5.280000000000001,-2.42434,-0.176826,3.986334
5.290000000000006,-2.62107,0.18378,4.831934
5.299999999999997,-2.726565,0.494068,5.634308
5.310000000000002,-2.79509,0.797544,6.373172
5.320000000000007,-2.790489,1.12667,7.046667
5.329999999999998,-2.707245,1.479922,7.671315
5.340000000000003,-2.565253,1.887685,8.210524
5.349999999999994,-2.329514,2.303529,8.682543
5.359999999999999,-2.027498,2.694973,9.016268
5.3700000000000045,-1.597116,3.101772,9.234862
5.379999999999996,-1.117265,3.519133,9.3191
5.390000000000001,-0.640937,4.004406,9.278133
5.400000000000006,-0.224405,4.535633,9.100948
5.409999999999997,0.108206,5.128595,8.829432
5.420000000000002,0.318364,5.704175,8.487565
5.430000000000007,0.321039,6.238526,8.135197
5.439999999999998,0.118445,6.621879,7.805734
5.450000000000003,-0.249845,6.840681,7.53694
5.460000000000008,-0.733,6.934296,7.308929
5.469999999999999,-1.261333,6.990124,7.107302
5.480000000000004,-1.778711,6.979465,6.919456
5.489999999999995,-2.271871,6.897772,6.679704
5.5,-2.720554,6.749603,6.412353
5.510000000000005,-3.088023,6.519835,6.168983
5.519999999999996,-3.388448,6.253632,5.924381
5.530000000000001,-3.634142,5.96188,5.709442
5.540000000000006,-3.757843,5.695421,5.492692
5.549999999999997,-3.797878,5.4149,5.247564
5.560000000000002,-3.726454,5.074476,4.972058
5.570000000000007,-3.544493,4.68805,4.639983
5.579999999999998,-3.252785,4.303472,4.314116
5.590000000000003,-2.904243,3.929269,3.993708
5.599999999999994,-2.595165,3.549082,3.674376
5.609999999999999,-2.21857,3.080232,3.280017
5.6200000000000045,-1.904725,2.540147,2.835407
5.629999999999996,-1.684954,1.952583,2.35632
5.640000000000001,-1.506825,1.40132,1.912163
5.650000000000006,-1.38915,0.92087,1.506314
5.659999999999997,-1.288445,0.516026,1.123088
5.670000000000002,-1.161353,0.265115,0.773042
5.680000000000007,-1.04016,0.113311,0.41303
5.689999999999998,-0.906465,0.077868,0.021684
5.700000000000003,-0.750484,0.15626,-0.447498
5.710000000000008,-0.553061,0.334963,-0.966039
5.719999999999999,-0.324625,0.58038,-1.519016
5.730000000000004,-0.050935,0.860176,-2.092062
5.739999999999995,0.255945,1.150986,-2.66277
5.75,0.594306,1.402501,-3.224424
5.760000000000005,0.947016,1.637869,-3.786067
5.769999999999996,1.317721,1.838906,-4.315879
5.780000000000001,1.649226,1.961854,-4.796046
5.790000000000006,2.005775,2.010819,-5.190834
5.799999999999997,2.333718,1.922295,-5.439662
5.810000000000002,2.662365,1.723902,-5.601218
5.820000000000007,2.997262,1.428374,-5.698121
5.829999999999998,3.303602,1.033568,-5.744602
5.840000000000003,3.619459,0.647969,-5.779844
5.849999999999994,3.979941,0.304279,-5.797515
5.859999999999999,4.376988,-0.033498,-5.829239
5.8700000000000045,4.828856,-0.309347,-5.867701
5.879999999999996,5.351109,-0.584638,-5.902322
5.890000000000001,5.911492,-0.836469,-5.898656
5.900000000000006,6.527558,-1.123813,-5.832614
5.909999999999997,7.112801,-1.420943,-5.70143
5.920000000000002,7.623329,-1.717365,-5.524784
5.930000000000007,8.013208,-1.95969,-5.4552
5.939999999999998,8.280728,-2.150207,-5.463276
5.950000000000003,8.465302,-2.344814,-5.541636
5.960000000000008,8.565113,-2.588891,-5.601432
5.969999999999999,8.569964,-2.871956,-5.575293
5.980000000000004,8.536993,-3.162964,-5.468571
5.989999999999995,8.500624,-3.425504,-5.278473
6.0,8.449581,-3.625362,-4.986422
6.010000000000005,8.428843,-3.751476,-4.569789
6.019999999999996,8.31219,-3.861253,-4.017327
6.030000000000001,8.067208,-4.001399,-3.432331
6.040000000000006,7.698258,-4.160035,-2.860228
6.049999999999997,7.180225,-4.332611,-2.388833
6.060000000000002,6.5517,-4.468932,-1.993259
6.070000000000007,5.880745,-4.513839,-1.655724
6.079999999999998,5.292247,-4.423063,-1.353895
6.090000000000003,4.741075,-4.194883,-1.078179
6.099999999999994,4.19123,-3.963054,-0.846271
6.109999999999999,3.580508,-3.747859,-0.629023
6.1200000000000045,3.010878,-3.595403,-0.424654
6.129999999999996,2.551824,-3.463626,-0.215262
6.140000000000001,2.28854,-3.253852,0.054268
6.150000000000006,2.215385,-2.845038,0.417493
6.159999999999997,2.275447,-2.381222,0.912858
6.170000000000002,2.394777,-1.891213,1.465842
6.180000000000007,2.550585,-1.404533,2.013765
6.189999999999998,2.700421,-0.895361,2.557277
6.200000000000003,2.823021,-0.310687,3.066579
6.210000000000008,2.904321,0.372042,3.596624
6.219999999999999,2.841198,1.140435,4.092801
6.230000000000004,2.592468,1.88328,4.525753
6.239999999999995,2.176248,2.598224,4.867519
6.25,1.697012,3.283416,5.149644
6.260000000000005,1.200825,3.918211,5.327676
6.269999999999996,0.755305,4.563313,5.416893
6.280000000000001,0.295479,5.158971,5.439646
6.290000000000006,-0.204322,5.679478,5.412679
6.299999999999997,-0.709994,6.136172,5.339207
6.310000000000002,-1.156992,6.497879,5.233349
6.320000000000007,-1.493861,6.782984,5.079584
6.329999999999998,-1.687484,7.007905,4.881368
6.340000000000003,-1.763371,7.228091,4.674762
6.349999999999994,-1.788177,7.423192,4.513348
6.359999999999999,-1.826934,7.581968,4.399764
6.3700000000000045,-1.925156,7.733202,4.300895
6.379999999999996,-1.970361,7.861322,4.260047
6.390000000000001,-2.015869,7.911904,4.217233
6.400000000000006,-2.046467,7.900368,4.186553
6.409999999999997,-2.088597,7.770055,4.142519
6.420000000000002,-2.157372,7.592741,4.075337
6.430000000000007,-2.255869,7.412339,4.044776
6.439999999999998,-2.393614,7.164094,4.012615
6.450000000000003,-2.55933,6.896008,3.933942
6.460000000000008,-2.738441,6.610828,3.808339
6.469999999999999,-2.88696,6.326954,3.6093
6.480000000000004,-2.980247,6.131711,3.395759
6.489999999999995,-3.02905,5.971767,3.191538
6.5,-3.065109,5.855115,3.018156
6.510000000000005,-3.132251,5.727429,2.864253
6.519999999999996,-3.248788,5.595789,2.716885
6.530000000000001,-3.378855,5.415651,2.577911
6.540000000000006,-3.551087,5.240503,2.42287
6.549999999999997,-3.784517,5.044815,2.19449
6.560000000000002,-4.058685,4.726833,1.882847
6.570000000000007,-4.287719,4.423028,1.4687
6.579999999999998,-4.501205,4.174538,1.06014
6.590000000000003,-4.659398,3.902902,0.628232
6.599999999999994,-4.724677,3.712862,0.215875
6.609999999999999,-4.664759,3.613622,-0.157165
6.6200000000000045,-4.447712,3.609867,-0.503262
6.629999999999996,-4.030333,3.648704,-0.822642
6.640000000000001,-3.472073,3.695716,-1.164801
6.650000000000006,-2.777747,3.803293,-1.54644
6.659999999999997,-1.89279,3.904919,-1.979457
6.670000000000002,-0.911508,3.989007,-2.42959
6.680000000000007,0.116936,3.988686,-2.878303
6.689999999999998,1.108715,3.91776,-3.31736
6.700000000000003,2.047561,3.776038,-3.71406
6.710000000000008,2.900096,3.478723,-4.062539
6.719999999999999,3.747327,3.09205,-4.302433
6.730000000000004,4.499444,2.594721,-4.431649
6.739999999999995,5.189873,2.029412,-4.48039
6.75,5.804387,1.393339,-4.509265
6.760000000000005,6.366298,0.728131,-4.549484
6.769999999999996,6.874203,0.020126,-4.631273
6.780000000000001,7.325383,-0.695375,-4.697126
6.790000000000006,7.756161,-1.348285,-4.676222
6.799999999999997,8.171961,-1.883821,-4.568935
6.810000000000002,8.644024,-2.367868,-4.378058
6.820000000000007,9.187831,-2.796876,-4.12448
6.829999999999998,9.711909,-3.209158,-3.851182
6.840000000000003,10.180258,-3.658618,-3.598353
6.849999999999994,10.506159,-4.090148,-3.346241
6.859999999999999,10.651436,-4.523052,-3.041723
6.8700000000000045,10.665812,-4.919735,-2.715736
6.879999999999996,10.667134,-5.323618,-2.40546
6.890000000000001,10.604907,-5.719542,-2.066665
6.900000000000006,10.488339,-6.010272,-1.658794
6.909999999999997,10.359997,-6.15805,-1.177257
6.920000000000002,10.160961,-6.075608,-0.587931
6.930000000000007,9.868176,-5.78254,0.007224
6.939999999999998,9.388796,-5.468526,0.603832
6.950000000000003,8.68716,-5.304572,1.197823
6.960000000000008,7.785159,-5.429981,1.833485
6.969999999999999,6.808725,-5.68136,2.42787
6.980000000000004,6.017912,-5.609193,2.766381
6.989999999999995,5.467513,-5.147787,2.783931
7.0,4.948609,-4.609603,2.615421
7.010000000000005,4.252766,-4.263368,2.470985
7.019999999999996,3.503517,-3.992092,2.357687
7.030000000000001,2.851281,-3.664863,2.210617
7.040000000000006,2.320012,-3.199588,2.040135
7.049999999999997,1.9516,-2.57233,1.80527
7.060000000000002,1.71763,-1.773424,1.59895
7.070000000000007,1.632745,-0.91524,1.409074
7.079999999999998,1.646216,-0.009036,1.312456
7.090000000000003,1.733751,0.956841,1.347295
7.099999999999994,1.81696,1.966622,1.45744
7.109999999999999,1.807972,2.968547,1.604515
7.1200000000000045,1.728066,3.93597,1.770272
7.129999999999996,1.45646,4.812147,1.921357
7.140000000000001,1.1071,5.571974,2.057363
7.150000000000006,0.744094,6.252589,2.238916
7.159999999999997,0.429156,6.855365,2.414786
7.170000000000002,0.127938,7.394464,2.611073
7.180000000000007,-0.132819,7.861928,2.746609
7.189999999999998,-0.389363,8.224228,2.818688
7.200000000000003,-0.699982,8.454682,2.771418
7.210000000000008,-1.019228,8.565038,2.669843
7.219999999999999,-1.261913,8.548044,2.560955
7.230000000000004,-1.377688,8.531982,2.548978
7.239999999999995,-1.383187,8.543701,2.571726
7.25,-1.299346,8.517944,2.632596
7.260000000000005,-1.228812,8.47035,2.670784
7.269999999999996,-1.268136,8.310778,2.693929
7.280000000000001,-1.521978,8.025338,2.643092
7.290000000000006,-1.941869,7.652462,2.548798
7.299999999999997,-2.420907,7.259465,2.513861
7.310000000000002,-2.819626,6.880635,2.533186
7.320000000000007,-3.117475,6.554639,2.603782
7.329999999999998,-3.287143,6.280695,2.727884
7.340000000000003,-3.439171,6.071559,2.891284
7.349999999999994,-3.592728,5.924593,3.075438
7.359999999999999,-3.737156,5.764956,3.278844
7.370000000000003,-3.798829,5.575281,3.489493
7.3799999999999955,-3.822323,5.375314,3.699654
7.390000000000001,-3.913316,5.160118,3.874912
7.400000000000006,-4.099018,4.888608,3.953084
7.409999999999997,-4.40989,4.548105,3.922592
7.420000000000002,-4.670595,4.129161,3.775106
7.430000000000007,-4.80428,3.724777,3.59692
7.439999999999998,-4.752879,3.402761,3.420441
7.450000000000003,-4.531954,3.124303,3.197199
7.460000000000008,-4.142572,2.892052,2.907175
7.469999999999999,-3.610176,2.727638,2.513887
7.480000000000004,-2.920551,2.602466,2.028248
7.489999999999995,-2.114186,2.511792,1.441393
7.5,-1.314088,2.421046,0.755716
7.510000000000005,-0.549806,2.28323,0.022464
7.519999999999996,0.209128,2.060499,-0.761183
7.530000000000001,0.917072,1.700325,-1.60479
7.540000000000006,1.566249,1.203609,-2.461956
7.549999999999997,2.16152,0.6059,-3.358448
7.560000000000002,2.766438,-0.032209,-4.235074
7.570000000000007,3.448755,-0.675299,-5.027503
7.579999999999998,4.174106,-1.339783,-5.752013
7.590000000000003,4.89622,-1.998094,-6.413398
7.599999999999994,5.541785,-2.682463,-6.981237
7.609999999999999,6.069324,-3.35087,-7.484842
7.620000000000003,6.459829,-3.93532,-7.877561
7.6299999999999955,6.758725,-4.44743,-8.192948
7.640000000000001,6.946249,-4.869966,-8.408094
7.650000000000006,7.085785,-5.196552,-8.513844
7.659999999999997,7.208099,-5.388378,-8.510433
7.670000000000002,7.335236,-5.488495,-8.401671
7.680000000000007,7.476621,-5.530806,-8.197013
7.689999999999998,7.60732,-5.582298,-7.923291
7.700000000000003,7.719485,-5.704599,-7.539363
7.710000000000008,7.778636,-5.835475,-7.143609
7.719999999999999,7.743386,-6.024624,-6.777304
7.730000000000004,7.565131,-6.218493,-6.458684
7.739999999999995,7.228191,-6.357445,-6.208291
7.75,6.760219,-6.434941,-6.002621
7.760000000000005,6.215435,-6.40131,-5.806604
7.769999999999996,5.743258,-6.304507,-5.592522
7.780000000000001,5.355939,-6.198502,-5.307023
7.790000000000006,5.049503,-6.06239,-5.023916
7.799999999999997,4.783929,-5.899131,-4.719992
7.810000000000002,4.53858,-5.695228,-4.460944
7.820000000000007,4.188939,-5.579321,-4.228871
7.829999999999998,3.693916,-5.501497,-4.021742
7.840000000000003,3.143435,-5.482167,-3.797586
7.849999999999994,2.684864,-5.407926,-3.541447
7.859999999999999,2.283264,-5.203836,-3.296053
7.870000000000003,1.898998,-4.904499,-3.108786
7.8799999999999955,1.477262,-4.600158,-2.890774
7.890000000000001,0.950068,-4.339842,-2.611413
7.900000000000006,0.452243,-4.056803,-2.261028
7.909999999999997,0.008785,-3.734557,-1.803578
7.920000000000002,-0.382588,-3.391848,-1.282282
7.930000000000007,-0.769798,-2.947569,-0.657355
7.939999999999998,-1.154854,-2.398393,0.049248
7.950000000000003,-1.520894,-1.843566,0.842006
7.960000000000008,-1.802637,-1.304304,1.697948
7.969999999999999,-2.119311,-0.783011,2.588068
7.980000000000004,-2.495651,-0.260539,3.548515
7.989999999999995,-2.876929,0.283709,4.51723
8.0,-3.241287,0.859081,5.473666
8.010000000000005,-3.514227,1.453116,6.381222
8.019999999999996,-3.705938,2.058045,7.249861
8.030000000000001,-3.705833,2.682617,8.045568
8.040000000000006,-3.521576,3.377829,8.73676
8.049999999999997,-3.153181,4.124887,9.254604
8.060000000000002,-2.709576,4.843592,9.61964
8.070000000000007,-2.241418,5.579728,9.82268
8.079999999999998,-1.890407,6.226347,9.873451
8.090000000000003,-1.695987,6.75054,9.778129
8.099999999999994,-1.633113,7.179356,9.488023
8.11,-1.668266,7.587867,9.079682
8.120000000000005,-1.778219,7.918141,8.651479
8.129999999999995,-2.039417,8.251266,8.295398
8.14,-2.481085,8.472085,8.002865
8.150000000000006,-3.063847,8.536738,7.781368
8.159999999999997,-3.646812,8.303491,7.51571
8.170000000000002,-4.082519,7.862361,7.151742
8.180000000000007,-4.309827,7.34555,6.679268
8.189999999999998,-4.283507,6.718523,6.120299
8.200000000000003,-4.121801,6.057958,5.512516
8.210000000000008,-3.867727,5.39314,4.890675
8.219999999999999,-3.552639,4.754534,4.331173
8.230000000000004,-3.184993,4.084502,3.790223
8.239999999999995,-2.816557,3.244125,3.092196
8.25,-2.527454,2.21735,2.188072
8.260000000000005,-2.282974,1.212808,1.229463
8.269999999999996,-1.970994,0.338587,0.359597
8.280000000000001,-1.501763,-0.360038,-0.41306
8.290000000000006,-0.872822,-0.884993,-1.10417
8.299999999999997,-0.158532,-1.207641,-1.837755
8.310000000000002,0.545471,-1.355374,-2.610491
8.320000000000007,1.236437,-1.352023,-3.366826
8.329999999999998,1.883919,-1.230307,-4.0656
8.340000000000003,2.489706,-1.073487,-4.668562
8.349999999999994,3.097593,-0.842273,-5.138905
8.36,3.633786,-0.687132,-5.447522
8.370000000000005,4.10666,-0.577148,-5.604227
8.379999999999995,4.59381,-0.544389,-5.633883
8.39,5.038653,-0.609042,-5.578591
8.400000000000006,5.409438,-0.764844,-5.440382
8.409999999999997,5.771368,-0.989892,-5.23727
8.420000000000002,6.144953,-1.251805,-4.987886
8.430000000000007,6.537697,-1.581356,-4.729111
8.439999999999998,6.957059,-1.924739,-4.432846
8.450000000000003,7.328645,-2.305021,-4.112343
8.460000000000008,7.726206,-2.684308,-3.743188
8.469999999999999,8.097647,-3.077519,-3.392533
8.480000000000004,8.399082,-3.489071,-3.042812
8.489999999999995,8.598315,-3.865208,-2.730429
8.5,8.670492,-4.132933,-2.513184
8.510000000000005,8.626101,-4.231312,-2.362946
8.519999999999996,8.531578,-4.14186,-2.224004
8.530000000000001,8.333356,-3.918996,-2.048356
8.540000000000006,8.081458,-3.650037,-1.820054
8.549999999999997,7.895762,-3.387326,-1.532862
8.560000000000002,7.706306,-3.242232,-1.223379
8.570000000000007,7.391652,-3.3051,-0.808187
8.579999999999998,6.940031,-3.404166,-0.300206
8.590000000000003,6.408775,-3.474898,0.234341
8.599999999999994,5.783277,-3.419567,0.820281
8.61,5.179115,-3.149372,1.367293
8.620000000000005,4.542805,-2.679686,1.880007
8.629999999999995,3.830699,-2.115001,2.347161
8.64,3.119732,-1.59199,2.822843
8.650000000000006,2.392179,-1.083573,3.309044
8.659999999999997,1.694611,-0.562302,3.727307
8.670000000000002,1.07365,-0.035318,4.103725
8.680000000000007,0.532971,0.563868,4.418113
8.689999999999998,-0.001553,1.226114,4.70507
8.700000000000003,-0.634432,1.942057,4.959373
8.710000000000008,-1.362251,2.6414,5.133422
8.719999999999999,-2.090172,3.276265,5.173091
8.730000000000004,-2.745211,3.758744,5.118669
8.739999999999995,-3.340158,4.14264,4.970854
8.75,-3.858524,4.517044,4.833328
8.760000000000005,-4.3928,4.880733,4.680038
8.769999999999996,-4.970898,5.250607,4.520512
8.780000000000001,-5.608444,5.595901,4.301251
8.790000000000006,-6.305575,5.879579,4.054973
8.799999999999997,-6.897296,6.135103,3.885818
8.810000000000002,-7.384061,6.393292,3.824204
8.820000000000007,-7.768376,6.615074,3.851177
8.829999999999998,-8.063016,6.799387,3.96094
8.840000000000003,-8.290443,6.938864,4.098265
8.849999999999994,-8.467037,7.002917,4.240845
8.86,-8.583361,6.960242,4.350057
8.870000000000005,-8.522801,6.88466,4.417314
8.879999999999995,-8.263377,6.753853,4.404319
8.89,-7.815161,6.610682,4.328695
8.900000000000006,-7.29848,6.486288,4.181245
8.909999999999997,-6.681782,6.369945,4.0015
8.920000000000002,-5.892028,6.213897,3.794537
8.930000000000007,-4.956587,6.021941,3.424435
8.939999999999998,-3.943675,5.820139,2.929262
8.950000000000003,-2.963587,5.615532,2.333158
8.960000000000008,-2.049922,5.408633,1.661308
8.969999999999999,-1.181518,5.172303,0.860672
8.980000000000004,-0.349362,4.849022,0.023884
8.989999999999995,0.497786,4.513463,-0.862086
9.0,1.378624,4.082201,-1.788171
9.010000000000003,2.235543,3.594124,-2.761099
9.019999999999996,3.117097,3.064981,-3.673722
9.03,4.040172,2.50194,-4.461872
9.040000000000006,4.924853,1.874163,-5.089591
9.049999999999995,5.75999,1.184579,-5.48828
9.060000000000002,6.540041,0.504192,-5.683802
9.070000000000007,7.185445,-0.114299,-5.657566
9.079999999999998,7.726558,-0.679716,-5.488879
9.090000000000003,8.098988,-1.202227,-5.225337
9.099999999999994,8.384487,-1.680063,-4.947913
9.11,8.610829,-2.102007,-4.629458
9.120000000000005,8.810144,-2.442689,-4.301251
9.129999999999995,9.028506,-2.727124,-3.98211
9.14,9.261841,-2.958916,-3.728055
9.150000000000006,9.54436,-3.180283,-3.511515
9.159999999999997,9.824015,-3.39117,-3.324043
9.170000000000002,10.083762,-3.607117,-3.104873
9.180000000000009,10.356064,-3.760324,-2.806144
9.189999999999998,10.59017,-3.852344,-2.358252
9.200000000000005,10.762018,-3.842249,-1.750975
9.210000000000008,10.785895,-3.741436,-1.0479
9.22,10.67409,-3.549952,-0.350422
9.230000000000004,10.38616,-3.2654,0.314869
9.239999999999997,9.962361,-2.932401,0.976792
9.25,9.39955,-2.633528,1.68194
9.260000000000003,8.677589,-2.31171,2.335658
9.269999999999996,7.801012,-2.111143,2.835675
9.28,6.877797,-1.928716,3.211439
9.290000000000006,5.884089,-1.813069,3.470576
9.299999999999995,4.880603,-1.684507,3.629532
9.310000000000002,3.913189,-1.617549,3.737357
9.320000000000007,3.082215,-1.515298,3.80096
9.329999999999998,2.452269,-1.403626,3.813501
9.340000000000003,2.014124,-1.238386,3.806292
9.349999999999994,1.742771,-0.963976,3.726609
9.36,1.585329,-0.609425,3.553442
9.370000000000005,1.514125,-0.18207,3.274333
9.379999999999995,1.505731,0.30736,2.927359
9.39,1.537695,0.878446,2.571201
9.400000000000006,1.610107,1.514029,2.256828
9.409999999999997,1.632276,2.20775,1.958974
9.420000000000002,1.577415,2.933277,1.682189
9.430000000000009,1.412825,3.664229,1.391929
9.439999999999998,1.094195,4.379835,1.074698
9.450000000000005,0.672452,5.03159,0.791818
9.460000000000008,0.222068,5.603209,0.510342
9.47,-0.196343,6.134795,0.185976
9.480000000000004,-0.498166,6.588765,-0.159527
9.489999999999997,-0.687404,7.044513,-0.479567
9.5,-0.771373,7.446941,-0.80069
9.510000000000003,-0.755442,7.855418,-1.096748
9.519999999999996,-0.721106,8.20796,-1.382258
9.53,-0.64783,8.528502,-1.645753
9.540000000000006,-0.608444,8.782151,-1.881364
9.549999999999995,-0.610355,8.98986,-2.074524
9.560000000000002,-0.584469,9.093156,-2.236584
9.570000000000007,-0.506702,9.058426,-2.372106
9.579999999999998,-0.38234,8.898765,-2.507648
9.590000000000003,-0.221634,8.667061,-2.670966
9.599999999999994,-0.052031,8.411166,-2.806842
9.61,0.082299,8.151361,-2.877285
9.620000000000005,0.161614,7.915412,-2.898886
9.629999999999995,0.202596,7.707239,-2.886994
9.64,0.21976,7.515759,-2.893554
9.650000000000006,0.159425,7.292282,-2.90607
9.659999999999997,-0.072923,6.959367,-2.934953
9.670000000000002,-0.489572,6.533064,-2.967449
9.680000000000009,-1.011594,6.081197,-3.005243
9.689999999999998,-1.537764,5.637624,-3.042078
9.700000000000005,-1.966275,5.281313,-3.041732
9.710000000000008,-2.322939,4.95855,-3.004414
9.72,-2.716332,4.548953,-2.99802
9.730000000000004,-3.305627,3.957613,-2.990158
9.739999999999997,-3.986226,3.239694,-2.97205
9.75,-4.684793,2.513466,-2.922302
9.760000000000003,-5.309603,1.818279,-2.88149
9.769999999999996,-5.805979,1.183808,-2.920486
9.78,-6.099983,0.646163,-3.001298
9.790000000000006,-6.224686,0.208643,-3.148103
9.799999999999995,-6.180224,-0.161076,-3.311949
9.810000000000002,-5.993792,-0.444165,-3.509519
9.820000000000007,-5.561346,-0.657486,-3.716861
9.829999999999998,-5.002188,-0.882862,-3.948285
9.840000000000003,-4.281912,-1.105768,-4.173968
9.849999999999994,-3.473931,-1.378501,-4.417489
9.86,-2.597106,-1.67862,-4.688747
9.870000000000005,-1.682862,-2.02698,-4.996187
9.879999999999995,-0.648687,-2.379113,-5.247798
9.89,0.438368,-2.779691,-5.420915
9.900000000000006,1.551148,-3.225184,-5.612768
9.909999999999997,2.692161,-3.735108,-5.813977
9.920000000000002,3.872224,-4.228269,-5.963173
9.930000000000009,5.06099,-4.674277,-6.016581
9.939999999999998,6.213657,-5.056996,-6.008513
9.950000000000005,7.298062,-5.384084,-5.927401
9.960000000000008,8.219851,-5.69346,-5.708213
9.97,8.979172,-6.042691,-5.371336
9.980000000000004,9.585751,-6.396933,-4.958375
9.989999999999997,10.054675,-6.701987,-4.466292
10.0,10.32374,-6.991939,-3.905247
10.010000000000003,10.313303,-7.276127,-3.298628
10.019999999999996,10.093246,-7.572697,-2.722538
10.03,9.696619,-7.834538,-2.15574
10.040000000000006,9.317256,-7.952252,-1.568584
10.049999999999995,8.975632,-7.875652,-0.967533
10.060000000000002,8.51214,-7.761797,-0.290062
10.070000000000007,7.804466,-7.745736,0.37856
10.079999999999998,7.036986,-7.800368,0.999955
10.090000000000003,6.243464,-7.817224,1.558333
10.099999999999994,5.578488,-7.663943,2.020607
10.11,5.036087,-7.268094,2.335672
10.120000000000005,4.527504,-6.749347,2.556854
10.129999999999995,3.891269,-6.285664,2.72919
10.14,3.08311,-5.900075,2.838994
10.150000000000006,2.133205,-5.592484,2.838129
10.159999999999997,1.258729,-5.311089,2.689179
10.170000000000002,0.546488,-5.072261,2.435111
10.180000000000009,-0.017293,-4.811152,2.171508
10.189999999999998,-0.40483,-4.453358,1.909578
10.200000000000005,-0.587761,-4.01139,1.6713
10.210000000000008,-0.538745,-3.481714,1.457142
10.22,-0.364159,-2.87927,1.283834
10.230000000000004,-0.161988,-2.273035,1.136553
10.239999999999997,0.064441,-1.664691,1.042698
10.25,0.340367,-0.992807,0.955813
10.260000000000003,0.690845,-0.298957,0.894834
10.269999999999996,1.046803,0.430942,0.881787
10.28,1.358747,1.209263,0.873246
10.290000000000006,1.6506,1.975826,0.891692
10.299999999999995,1.887506,2.726783,0.928358
10.310000000000002,2.039963,3.487343,0.911111
10.320000000000007,2.084448,4.258171,0.866105
10.329999999999998,2.045485,5.024095,0.798019
10.340000000000003,1.969553,5.776438,0.702755
10.349999999999994,1.927263,6.514851,0.607813
10.36,1.968594,7.24417,0.458258
10.370000000000005,2.135854,7.960827,0.308491
10.379999999999995,2.391662,8.64676,0.102093
10.39,2.659776,9.307796,-0.232293
10.400000000000006,2.930394,9.927504,-0.642956
10.409999999999997,3.140914,10.429905,-1.156309
10.420000000000002,3.387954,10.821065,-1.701646
10.430000000000009,3.698454,11.115691,-2.366001
10.439999999999998,4.028451,11.269807,-3.051766
10.450000000000005,4.375697,11.243586,-3.745939
10.460000000000008,4.691846,11.092506,-4.433031
10.47,5.010298,10.831208,-5.082151
10.480000000000004,5.336492,10.446653,-5.66678
10.489999999999997,5.619714,9.923573,-6.180408
10.5,5.651474,9.283579,-6.570924
10.510000000000003,5.471436,8.547478,-6.861419
10.519999999999996,5.016653,7.72855,-7.033344
10.53,4.228611,6.844089,-7.113765
10.540000000000006,3.072568,5.95976,-7.037611
10.549999999999995,1.576059,5.130783,-6.773647
10.560000000000002,-0.167722,4.423782,-6.317737
10.570000000000007,-1.959206,3.835005,-5.76222
10.579999999999998,-3.672598,3.350303,-5.12306
10.590000000000003,-5.209993,2.898094,-4.477481
10.599999999999994,-6.446096,2.496983,-3.893051
10.61,-7.285285,2.127686,-3.373261
10.620000000000005,-7.768371,1.816864,-2.92749
10.629999999999995,-7.900185,1.542481,-2.517729
10.64,-7.774999,1.258995,-2.152138
10.650000000000006,-7.473591,0.928586,-1.821363
10.659999999999997,-7.034691,0.519907,-1.538967
10.670000000000002,-6.463856,0.146604,-1.31497
10.680000000000009,-5.874702,-0.263286,-1.149896
10.689999999999998,-5.308504,-0.711251,-1.067189
10.700000000000005,-4.692043,-1.161664,-1.117136
10.710000000000008,-4.006705,-1.591204,-1.303529
10.72,-3.156088,-1.932563,-1.57041
10.730000000000004,-2.199405,-2.217352,-1.942945
10.739999999999997,-1.204408,-2.486025,-2.355977
10.75,-0.195475,-2.775969,-2.81105
10.760000000000003,0.777994,-3.100877,-3.269584
10.769999999999996,1.653796,-3.505824,-3.656238
10.78,2.40354,-3.939792,-3.983796
10.790000000000006,3.009191,-4.385746,-4.232177
10.799999999999995,3.456122,-4.827498,-4.443622
10.810000000000002,3.792969,-5.284244,-4.673122
10.820000000000007,4.044767,-5.698201,-4.884849
10.829999999999998,4.30395,-6.02037,-5.023841
10.840000000000003,4.598322,-6.299664,-5.055964
10.849999999999994,4.900534,-6.499903,-4.974864
10.86,5.187906,-6.655293,-4.848743
10.870000000000005,5.396738,-6.827524,-4.683785
10.879999999999995,5.56216,-7.005181,-4.54776
10.89,5.682492,-7.169731,-4.370948
10.900000000000006,5.720069,-7.360271,-4.186394
10.909999999999997,5.772674,-7.463818,-3.929321
10.920000000000002,5.805654,-7.441563,-3.611617
10.930000000000009,5.845981,-7.331218,-3.239931
10.939999999999998,5.82347,-7.145754,-2.825271
10.950000000000005,5.630444,-7.097607,-2.381642
10.960000000000008,5.262024,-7.225191,-1.92046
10.97,4.813479,-7.454847,-1.458761
10.980000000000004,4.380301,-7.64635,-1.044836
10.989999999999997,4.102156,-7.628374,-0.676656
11.0,3.978381,-7.383647,-0.41332
11.010000000000003,3.915761,-7.044074,-0.206581
11.019999999999996,3.823513,-6.715984,-0.019644
11.03,3.701341,-6.41669,0.143712
11.040000000000006,3.538211,-6.148047,0.260531
11.049999999999995,3.387157,-5.827155,0.406512
11.060000000000002,3.2273,-5.475631,0.53814
11.070000000000007,2.961988,-5.073494,0.680103
11.079999999999998,2.571442,-4.661466,0.815124
11.090000000000003,2.080326,-4.238157,0.924336
11.099999999999994,1.65943,-3.698754,0.986531
11.11,1.348847,-3.104577,0.995073
11.120000000000005,1.224023,-2.468031,1.061333
11.129999999999995,1.209811,-1.821783,1.117296
11.14,1.287112,-1.045156,1.168752
11.150000000000006,1.397289,-0.174664,1.259246
11.159999999999997,1.581493,0.752226,1.349647
11.170000000000002,1.828132,1.719391,1.51082
11.180000000000009,2.104285,2.688758,1.684226
11.189999999999998,2.356707,3.669019,1.870222
11.200000000000005,2.508929,4.568223,2.021696
11.210000000000008,2.515848,5.42964,2.139653
11.22,2.369538,6.208164,2.232711
11.230000000000004,2.166501,6.940568,2.305399
11.239999999999997,1.923727,7.60991,2.329373
11.25,1.721618,8.209409,2.309252
11.260000000000003,1.577868,8.724825,2.203068
11.269999999999996,1.489609,9.136291,2.042571
11.28,1.418031,9.486911,1.801304
11.290000000000006,1.379957,9.79804,1.466797
11.299999999999995,1.404406,10.040188,1.075663
11.310000000000002,1.455619,10.280987,0.601875
11.320000000000007,1.497488,10.450583,0.125278
11.329999999999998,1.538361,10.566125,-0.376658
11.340000000000003,1.573858,10.620122,-0.872198
11.349999999999994,1.592565,10.643106,-1.353814
11.36,1.559499,10.613288,-1.80208
11.370000000000005,1.445207,10.508109,-2.173791
11.379999999999995,1.188502,10.275572,-2.510698
11.39,0.812376,9.968843,-2.780688
11.400000000000006,0.332786,9.557606,-2.972851
11.409999999999997,-0.251966,9.116036,-3.109186
11.420000000000002,-0.873529,8.620187,-3.168133
11.430000000000009,-1.493272,8.058696,-3.197604
11.439999999999998,-2.157706,7.422975,-3.181098
11.450000000000005,-2.819155,6.722084,-3.117866
11.460000000000008,-3.471755,6.025458,-2.984066
11.47,-4.092809,5.314595,-2.767824
11.480000000000004,-4.665697,4.575383,-2.532059
11.489999999999997,-5.117981,3.88044,-2.283174
11.5,-5.460729,3.24069,-2.059511
11.510000000000003,-5.646504,2.689057,-1.925826
11.519999999999996,-5.710173,2.1978,-1.830105
11.53,-5.670326,1.692263,-1.78637
11.540000000000006,-5.549777,1.105507,-1.776528
11.549999999999995,-5.367931,0.493739,-1.855773
11.560000000000002,-5.111106,-0.102992,-2.000542
11.570000000000007,-4.726424,-0.64272,-2.164715
11.579999999999998,-4.220209,-1.111398,-2.373932
11.590000000000003,-3.623621,-1.527506,-2.602464
11.599999999999994,-2.96505,-1.891144,-2.857088
11.61,-2.281453,-2.208468,-3.146314
11.620000000000005,-1.559557,-2.510845,-3.458396
11.629999999999995,-0.812945,-2.772563,-3.728519
11.64,-0.076284,-3.02176,-4.011417
11.650000000000006,0.702961,-3.245365,-4.266936
11.659999999999997,1.463217,-3.484133,-4.584236
11.670000000000002,2.179497,-3.717435,-4.907167
11.680000000000009,2.852961,-3.960582,-5.174765
11.689999999999998,3.454216,-4.197201,-5.333781
11.700000000000005,4.020263,-4.430718,-5.425635
11.710000000000008,4.454826,-4.682569,-5.475649
11.72,4.859596,-4.892023,-5.46172
11.730000000000004,5.17786,-5.041912,-5.387125
11.739999999999997,5.403233,-5.170789,-5.304472
11.75,5.540714,-5.310165,-5.215013
11.760000000000003,5.606977,-5.427128,-5.131621
11.769999999999996,5.554736,-5.53876,-5.013107
11.78,5.441413,-5.608661,-4.838165
11.790000000000006,5.307398,-5.62273,-4.648294
11.799999999999995,5.284739,-5.553431,-4.423052
11.810000000000002,5.319679,-5.434594,-4.163624
11.820000000000007,5.302701,-5.356043,-3.887214
11.829999999999998,5.131312,-5.316994,-3.616941
11.840000000000003,4.925512,-5.330197,-3.338549
11.849999999999994,4.764197,-5.33433,-3.015638
11.86,4.652027,-5.305672,-2.682569
11.870000000000005,4.622898,-5.220112,-2.36695
11.879999999999995,4.648832,-5.087124,-2.126801
11.89,4.720956,-4.898048,-1.939289
11.900000000000006,4.800194,-4.701733,-1.784397
11.909999999999997,4.838203,-4.445399,-1.63473
11.920000000000002,4.880363,-4.174797,-1.453779
11.930000000000009,4.901484,-3.856621,-1.248743
11.939999999999998,4.858831,-3.531524,-1.018824
11.950000000000005,4.743969,-3.139991,-0.795497
11.960000000000008,4.557681,-2.743428,-0.600463
11.97,4.291533,-2.291454,-0.445038
11.980000000000004,3.994731,-1.808943,-0.29412
11.989999999999997,3.70061,-1.274052,-0.135198
12.0,3.376815,-0.661112,0.047045
12.010000000000003,3.030232,0.013047,0.256267
12.019999999999996,2.600536,0.694765,0.458047
12.03,2.106393,1.384901,0.693713
12.040000000000006,1.632698,2.138113,0.952457
12.049999999999995,1.226261,2.924582,1.229903
12.060000000000002,0.89912,3.73312,1.533202
12.070000000000007,0.626774,4.544012,1.842543
12.079999999999998,0.312247,5.277279,2.051506
12.090000000000003,-0.027148,5.916582,2.16759
12.099999999999994,-0.323086,6.495031,2.23156
12.11,-0.557457,7.002014,2.242616
12.120000000000005,-0.716809,7.471022,2.224189
12.129999999999995,-0.78956,7.886693,2.158761
12.14,-0.789631,8.255174,2.007849
12.150000000000006,-0.757474,8.585913,1.843193
12.159999999999997,-0.742445,8.830029,1.649903
12.170000000000002,-0.765156,9.017259,1.421735
12.180000000000009,-0.840448,9.12868,1.173786
12.189999999999998,-0.972087,9.154352,0.905854
12.200000000000005,-1.127874,9.148981,0.631708
12.210000000000008,-1.304536,9.088524,0.365878
12.22,-1.506958,9.004499,0.137912
12.230000000000004,-1.710051,8.905815,-0.026242
12.239999999999997,-1.92254,8.771015,-0.142523
12.25,-2.182014,8.606091,-0.241577
12.260000000000003,-2.441785,8.406071,-0.307326
12.269999999999996,-2.722788,8.156447,-0.423419
12.28,-3.029752,7.884791,-0.554989
12.290000000000006,-3.355689,7.579411,-0.712912
12.299999999999995,-3.731003,7.282815,-0.88598
12.310000000000002,-4.109242,6.916763,-1.06816
12.320000000000007,-4.451321,6.512057,-1.228393
12.329999999999998,-4.734198,6.075997,-1.365341
12.340000000000003,-4.968091,5.597175,-1.461048
12.349999999999994,-5.108865,5.10555,-1.541102
12.36,-5.213451,4.596941,-1.644606
12.370000000000005,-5.227461,4.150924,-1.757147
12.379999999999995,-5.161328,3.681838,-1.872603
12.39,-5.002802,3.222795,-1.984793
12.400000000000006,-4.744511,2.71482,-2.093522
12.409999999999997,-4.395321,2.173862,-2.208789
12.420000000000002,-3.972279,1.56481,-2.344105
12.430000000000009,-3.496568,0.947247,-2.518977
12.439999999999998,-2.992628,0.317236,-2.684369
12.450000000000005,-2.419171,-0.311617,-2.857961
12.460000000000008,-1.798683,-0.936776,-2.988866
12.47,-1.171833,-1.515099,-3.095348
12.480000000000004,-0.494733,-2.060746,-3.151563
12.489999999999997,0.214023,-2.573021,-3.203405
12.5,0.943342,-3.052805,-3.261986
12.510000000000003,1.668922,-3.511663,-3.369656
12.519999999999996,2.411013,-3.964793,-3.474182
12.53,3.111178,-4.390853,-3.616374
12.540000000000006,3.800875,-4.787923,-3.7501
12.549999999999995,4.431561,-5.138286,-3.914022
12.560000000000002,5.062932,-5.474446,-4.022848
12.570000000000007,5.6665,-5.697562,-4.067669
12.579999999999998,6.284287,-5.850279,-4.027386
12.590000000000003,6.820107,-5.993545,-3.95424
12.599999999999994,7.292431,-6.090812,-3.795534
12.61,7.691723,-6.1373,-3.582317
12.620000000000005,7.997108,-6.192895,-3.328505
12.629999999999995,8.265068,-6.163437,-3.006639
12.64,8.484279,-6.109783,-2.64763
12.650000000000006,8.641969,-6.03406,-2.22886
12.659999999999997,8.750774,-5.949859,-1.773299
12.670000000000002,8.799013,-5.779807,-1.301272
12.680000000000009,8.755774,-5.610415,-0.828667
12.689999999999998,8.588163,-5.441698,-0.348554
12.700000000000005,8.296474,-5.255764,0.136509
12.710000000000008,7.781898,-5.051501,0.61525
12.72,7.020835,-4.80328,1.073928
12.730000000000004,6.022199,-4.558216,1.428959
12.739999999999997,4.840088,-4.319481,1.701146
12.75,3.643346,-4.082133,1.853507
12.760000000000003,2.464315,-3.846436,1.905542
12.769999999999996,1.438847,-3.593652,1.899606
12.78,0.664753,-3.317528,1.846262
12.790000000000006,0.046602,-2.985432,1.760072
12.799999999999995,-0.421877,-2.607527,1.670937
12.810000000000002,-0.815112,-2.158107,1.60194
12.820000000000007,-1.16571,-1.657892,1.515912
12.829999999999998,-1.441568,-1.119436,1.43497
12.840000000000003,-1.638552,-0.56124,1.337898
12.849999999999994,-1.678043,0.000695,1.249108
12.86,-1.641045,0.529617,1.181792
12.870000000000005,-1.566546,1.01378,1.098919
12.879999999999995,-1.542592,1.479701,1.029837
12.89,-1.559728,1.904081,0.934183
12.900000000000006,-1.599913,2.245467,0.855458
12.909999999999997,-1.642214,2.490439,0.811117
12.920000000000002,-1.6649,2.645423,0.764074
12.930000000000009,-1.716868,2.722572,0.751284
12.939999999999998,-1.79649,2.736519,0.709932
12.950000000000005,-1.909475,2.728708,0.653257
12.960000000000008,-2.017401,2.704827,0.573679
12.97,-2.153459,2.637561,0.487788
12.980000000000004,-2.236642,2.547191,0.4289
12.989999999999997,-2.273521,2.491317,0.377475
13.0,-2.272984,2.4285,0.326466
13.010000000000003,-2.25143,2.410856,0.300012
13.019999999999996,-2.193235,2.411573,0.241382
13.03,-2.092483,2.426942,0.224582
13.040000000000006,-1.998209,2.441371,0.202181
13.049999999999995,-1.872662,2.474048,0.176798
13.060000000000002,-1.746663,2.487786,0.136662
13.070000000000007,-1.6005,2.488869,0.127705
13.079999999999998,-1.496205,2.50413,0.107386
13.090000000000003,-1.386448,2.50409,0.112515
13.099999999999994,-1.269527,2.490613,0.128545
13.11,-1.192207,2.506647,0.171815
13.120000000000005,-1.130942,2.441538,0.193815
13.129999999999995,-1.113551,2.36347,0.245218
13.14,-1.078336,2.250336,0.301898
13.150000000000006,-1.056098,2.124494,0.357324
13.159999999999997,-0.96975,1.999965,0.42274
13.170000000000002,-0.847717,1.882893,0.476845
13.180000000000009,-0.706098,1.729052,0.538114
13.189999999999998,-0.52545,1.569182,0.573349
13.200000000000005,-0.337457,1.418313,0.590505
13.210000000000008,-0.124551,1.223383,0.605626
13.22,0.082567,1.02028,0.599564
13.230000000000004,0.280611,0.826093,0.582524
13.239999999999997,0.440443,0.641523,0.569657
13.25,0.565981,0.497303,0.533057
13.260000000000003,0.685811,0.346744,0.481689
13.269999999999996,0.776576,0.207668,0.432819
13.28,0.852178,0.092779,0.383127
13.290000000000006,0.905964,-0.015047,0.335079
13.299999999999995,0.940529,-0.122044,0.284079
13.310000000000002,0.980897,-0.220011,0.25977
13.320000000000007,0.996021,-0.292909,0.231767
13.329999999999998,0.98777,-0.338021,0.200127
13.340000000000003,0.948135,-0.405869,0.176928
13.349999999999994,0.890708,-0.445947,0.162946
13.36,0.816765,-0.493351,0.154125
13.370000000000005,0.721046,-0.526454,0.136946
13.379999999999995,0.630506,-0.579313,0.12508
13.39,0.531335,-0.595302,0.101675
13.400000000000006,0.421296,-0.613177,0.101887
13.409999999999997,0.295917,-0.617624,0.100215
13.420000000000002,0.183256,-0.620177,0.080434
13.430000000000009,0.060582,-0.626404,0.075091
13.439999999999998,-0.045223,-0.605453,0.072144
13.450000000000005,-0.169849,-0.60987,0.047614
13.460000000000008,-0.286418,-0.582788,0.056438
13.47,-0.4087,-0.564705,0.051379
13.480000000000004,-0.509539,-0.516704,0.039637
13.489999999999997,-0.591544,-0.49927,0.040559
13.5,-0.644809,-0.454619,0.036692
13.510000000000003,-0.705295,-0.411838,0.050064
13.519999999999996,-0.721927,-0.372364,0.065798
13.53,-0.739862,-0.352738,0.071231
13.540000000000006,-0.746558,-0.31501,0.075193
13.549999999999995,-0.741974,-0.266405,0.099547
13.560000000000002,-0.719618,-0.24468,0.110121
13.570000000000007,-0.696677,-0.190528,0.133892
13.579999999999998,-0.667161,-0.166897,0.119018
13.590000000000003,-0.628057,-0.128844,0.133658
13.599999999999994,-0.600214,-0.10346,0.136119
13.61,-0.572292,-0.076299,0.145898
13.620000000000005,-0.526592,-0.070574,0.131925
13.629999999999995,-0.484231,-0.054097,0.139982
13.64,-0.423893,-0.055564,0.142557
13.650000000000006,-0.388983,-0.044557,0.141285
13.659999999999997,-0.350613,-0.037069,0.121768
13.670000000000002,-0.319741,-0.040438,0.100198
13.680000000000009,-0.290847,-0.054608,0.080308
13.689999999999998,-0.259942,-0.05705,0.059677
13.700000000000005,-0.212514,-0.061225,0.052033
13.710000000000008,-0.176142,-0.064547,0.03146
13.72,-0.130676,-0.073231,0.014594
13.730000000000004,-0.082692,-0.098114,0.002145
13.739999999999997,-0.059745,-0.087134,-0.008379
13.75,-0.058115,-0.096108,-0.017604
13.760000000000003,-0.040049,-0.103144,-0.033878
13.769999999999996,-0.042972,-0.106701,-0.052226
13.78,-0.021892,-0.102926,-0.055557
13.790000000000006,-0.013865,-0.110042,-0.070156
13.799999999999995,-0.009079,-0.095574,-0.071753
13.810000000000002,0.020055,-0.104376,-0.070562
13.820000000000007,0.02936,-0.095285,-0.068496
13.829999999999998,0.014837,-0.086335,-0.073141
13.840000000000003,0.008414,-0.091771,-0.065068
13.849999999999994,0.02425,-0.072722,-0.065531
13.86,0.015286,-0.073711,-0.039161
13.870000000000005,0.024661,-0.050191,-0.057932
13.879999999999995,0.012159,-0.034086,-0.050594
13.89,0.005704,-0.043161,-0.038924
13.900000000000006,-0.014979,-0.030718,-0.018049
13.909999999999997,-0.038424,-0.016501,-0.003583
13.920000000000002,-0.065947,-0.020292,-0.007651
13.930000000000009,-0.091384,-0.012353,-0.002415
13.939999999999998,-0.126001,-0.008087,0.007229
13.950000000000005,-0.138511,0.006221,0.015444
13.960000000000008,-0.174868,0.018597,0.017831
13.97,-0.169199,0.022243,0.0353
13.980000000000004,-0.19851,0.022062,0.028512
13.989999999999997,-0.20208,0.03106,0.022189
14.0,-0.198046,0.047258,0.039796
14.010000000000003,-0.173196,0.054598,0.046608
14.019999999999996,-0.161314,0.052847,0.050393
14.03,-0.159236,0.069062,0.0506
14.040000000000006,-0.173854,0.072604,0.044964
14.049999999999995,-0.164997,0.060091,0.033055
14.060000000000002,-0.152101,0.071009,0.023313
14.070000000000007,-0.13567,0.063918,0.034414
14.079999999999998,-0.115679,0.062282,0.020045
14.090000000000003,-0.103149,0.056997,-0.006349
14.099999999999994,-0.098553,0.055201,7.5e-05
14.11,-0.075776,0.052655,-0.00514
14.120000000000005,-0.083033,0.056207,-0.003367
14.129999999999995,-0.083198,0.049917,-0.012573
14.14,-0.057683,0.046487,-0.016836
14.150000000000006,-0.052402,0.032122,-0.014191
14.159999999999997,-0.041251,0.045744,-0.020274
14.170000000000002,-0.030519,0.028703,-0.017595
14.180000000000009,-0.006666,0.032479,-0.01357
14.189999999999998,0.009903,0.039803,-0.013259
14.200000000000005,0.005961,0.019951,-0.009892
14.210000000000008,0.004223,0.024446,-0.006205
14.22,0.007803,0.021782,-0.009841
14.230000000000004,0.000218,0.005535,-0.011955
14.239999999999997,-0.007052,0.0073,-0.011117
14.25,-0.019948,0.003649,-0.0168
14.260000000000003,-0.027307,7e-06,-0.01602
14.269999999999996,-0.02911,0.001794,-0.017854
14.28,-0.036056,0.019755,-0.004944
14.290000000000006,-0.029077,-0.00181,-0.00328
14.299999999999995,-0.043876,-0.009084,-0.010865
14.310000000000002,-0.055678,-0.003749,-0.010037
14.320000000000007,-0.047389,0.003542,-0.017144
14.329999999999998,-0.047558,-2.6e-05,-0.032712
14.340000000000003,-0.059437,-0.000103,-0.031958
14.349999999999994,-0.07131,0.005231,-0.042108
14.36,-0.074669,0.017782,-0.027401
14.370000000000005,-0.077775,0.005178,-0.049525
14.379999999999995,-0.099031,-0.004864,-0.059072
14.39,-0.102883,-0.020226,-0.052005
14.400000000000006,-0.09917,-0.017496,-0.050097
14.409999999999997,-0.09013,-0.02193,-0.055512
14.420000000000002,-0.110327,-0.023859,-0.063118
14.430000000000009,-0.090101,-0.020128,-0.057334
14.439999999999998,-0.106578,-0.01842,-0.064849
14.450000000000005,-0.095474,-0.016571,-0.050982
14.460000000000008,-0.086348,-0.01471,-0.057235
14.47,-0.075283,-0.018297,-0.037039
14.480000000000004,-0.06423,-0.016458,-0.02957
14.489999999999997,-0.058797,-0.021845,-0.025001
14.5,-0.053191,-0.018216,-0.01667
14.510000000000003,-0.034009,-0.02259,-0.010073
14.519999999999996,-0.024792,-0.018023,-0.010811
14.53,-0.032901,-0.017194,0.003705
14.540000000000006,-0.022018,-0.021617,0.000135
14.549999999999995,-0.018413,-0.027925,0.007409
14.560000000000002,-0.019477,-0.034253,0.00184
14.570000000000007,-0.029317,-0.021731,0.005509
14.579999999999998,-0.031175,-0.027172,0.012724
14.590000000000003,-0.044063,-0.034442,0.016125
14.599999999999994,-0.044228,-0.043426,0.011444
14.61,-0.042257,-0.033483,0.008839
14.620000000000005,-0.034957,-0.036135,0.012557
14.629999999999995,-0.02785,-0.048698,0.010673
14.64,-0.037119,-0.055078,0.006813
14.650000000000006,-0.026014,-0.045112,0.00434
14.659999999999997,-0.042575,-0.05697,0.015848
14.670000000000002,-0.028045,-0.056856,0.001423
14.680000000000009,-0.032439,-0.052403,0.01603
14.689999999999998,-0.025936,-0.05057,0.027103
14.700000000000005,-0.02235,-0.05234,0.021648
14.710000000000008,-0.026993,-0.054162,0.016077
14.72,-0.055157,-0.04353,0.017652
14.730000000000004,-0.040826,-0.061453,0.013971
14.739999999999997,-0.053332,-0.041716,0.012217
14.75,-0.029569,-0.044282,0.016159
14.760000000000003,-0.020473,-0.042401,0.005346
14.769999999999996,-0.022159,-0.037941,0.014503
14.78,-0.004784,-0.034214,0.007471
14.790000000000006,-0.016664,-0.036104,0.012773
14.799999999999995,-2.3e-05,-0.019762,0.002221
14.810000000000002,0.005261,-0.034148,0.005774
14.820000000000007,0.003832,-0.013454,0.016964
14.829999999999998,0.006404,-0.019724,0.006878
14.840000000000003,-0.00012,-0.025163,0.002164
14.849999999999994,-0.000383,-0.037781,-0.007122
14.86,-0.011356,-0.03424,-0.014532
14.870000000000005,-0.009628,-0.041436,-0.01276
14.879999999999995,-0.00966,-0.04324,-0.013687
14.89,0.015781,-0.057506,-0.005289
14.900000000000006,0.010271,-0.055728,-0.013569
14.909999999999997,0.015676,-0.055679,-0.025376
14.920000000000002,0.028378,-0.060992,-0.027098
14.930000000000009,0.046656,-0.059058,-0.032312
14.939999999999998,0.045729,-0.062678,-0.026886
14.950000000000005,0.06696,-0.046306,-0.033714
14.960000000000008,0.054021,-0.05541,-0.032164
14.97,0.057689,-0.054487,-0.032096
14.980000000000004,0.050259,-0.060849,-0.034091
14.989999999999997,0.046478,-0.073503,-0.023318
15.0,0.053887,-0.064437,-0.030414
15.010000000000003,0.039003,-0.07353,-0.047165
15.019999999999996,0.046794,-0.050079,-0.031252
15.03,0.04939,-0.057256,-0.035869
15.040000000000006,0.055764,-0.057203,-0.039434
15.049999999999995,0.030209,-0.059206,-0.028839
15.060000000000002,0.019196,-0.059262,-0.034468
15.070000000000007,0.021205,-0.052049,-0.025226
15.079999999999998,0.010258,-0.042183,-0.043525
15.090000000000003,0.006614,-0.04492,-0.036291
15.099999999999994,0.008463,-0.0431,-0.038066
15.11,-0.002678,-0.052169,-0.04197
15.120000000000005,-0.000761,-0.047658,-0.038231
15.129999999999995,-0.007728,-0.026993,-0.034419
15.14,-0.001605,-0.041363,-0.041815
15.150000000000006,0.004091,-0.030518,-0.036132
15.159999999999997,-0.011444,-0.034228,-0.027248
15.170000000000002,0.001421,-0.030541,-0.027038
15.180000000000009,-0.000462,-0.037765,-0.018925
15.189999999999998,-0.015195,-0.042364,-0.022828
15.200000000000005,-0.009637,-0.041448,-0.013605
15.210000000000008,-0.015288,-0.048682,-0.02016
15.22,-0.011442,-0.041465,-0.00906
15.230000000000004,-0.032595,-0.046982,-0.013051
15.239999999999997,-0.044588,-0.059694,-0.000574
15.25,-0.044537,-0.048853,-0.017806
15.260000000000003,-0.041644,-0.047972,0.000507
15.269999999999996,-0.05194,-0.052519,-0.022524
15.28,-0.04807,-0.043518,-0.013246
15.290000000000006,-0.051759,-0.048964,-0.006055
15.299999999999995,-0.046374,-0.047084,-0.024229
15.310000000000002,-0.034658,-0.059621,-0.02148
15.320000000000007,-0.019869,-0.047806,-0.025712
15.329999999999998,-0.011654,-0.055879,-0.011085
15.340000000000003,-0.017058,-0.050516,-0.011096
15.349999999999994,-0.000296,-0.036008,0.000258
15.36,-0.006173,-0.05043,-0.021916
15.370000000000005,-0.022591,-0.055062,-0.005748
15.379999999999995,-0.041703,-0.045258,-0.015019
15.39,-0.030096,-0.063196,-0.015077
15.400000000000006,-0.043552,-0.041633,-0.025958
15.409999999999997,-0.045712,-0.057858,-0.037145
15.420000000000002,-0.032613,-0.047002,-0.019489
15.430000000000009,-0.050135,-0.054316,-0.024375
15.439999999999998,-0.035507,-0.048798,-0.03599
15.450000000000005,-0.048193,-0.051624,-0.013351
15.460000000000008,-0.044701,-0.059695,-0.01888
15.47,-0.047393,-0.056092,-0.019788
15.480000000000004,-0.06472,-0.056223,-0.013634
15.489999999999997,-0.070111,-0.05265,-0.008186
15.5,-0.053662,-0.047122,-0.021605
15.510000000000003,-0.059265,-0.061621,-0.006332
15.519999999999996,-0.055268,-0.034545,-0.016921
15.53,-0.068203,-0.050875,-0.000851
15.540000000000006,-0.066358,-0.048127,-0.004437
15.549999999999995,-0.078032,-0.038305,0.002824
15.560000000000002,-0.05881,-0.03637,0.001273
15.570000000000007,-0.060738,-0.043602,0.00298
15.579999999999998,-0.05515,-0.032751,-0.005958
15.590000000000003,-0.056325,-0.047188,-0.01071
15.599999999999994,-0.055113,-0.035501,0.004975
15.61,-0.05513,-0.036402,0.00496
15.620000000000005,-0.04584,-0.032753,0.017916
15.629999999999995,-0.045767,-0.025528,0.01252
15.64,-0.047637,-0.030961,0.017912
15.650000000000006,-0.045989,-0.043567,0.019608
15.659999999999997,-0.044853,-0.02733,0.014332
15.670000000000002,-0.023645,-0.021811,0.026546
15.680000000000009,-0.040321,-0.030926,0.01616
15.689999999999998,-0.036578,-0.025486,0.016277
15.700000000000005,-0.037484,-0.02368,0.014471
15.710000000000008,-0.033852,-0.025457,0.014501
15.72,-0.029229,-0.026334,0.023686
15.730000000000004,-0.030338,-0.036222,0.018075
15.739999999999997,-0.007435,-0.036995,0.025679
15.75,-0.004818,-0.040565,0.016545
15.760000000000003,-0.022047,-0.033492,0.021875
15.769999999999996,-0.011101,-0.034322,0.020182
15.78,-0.032976,-0.033592,0.0272
15.790000000000006,-0.022127,-0.040736,0.025432
15.799999999999995,-0.026043,-0.057887,0.027002
15.810000000000002,-0.038675,-0.047153,0.026962
15.820000000000007,-0.029482,-0.050709,0.04074
15.829999999999998,-0.019633,-0.061423,0.034358
15.840000000000003,-0.031408,-0.043432,0.010673
15.849999999999994,-0.002009,-0.037842,0.018446
15.86,0.014322,-0.054903,0.037639
15.870000000000005,0.029004,-0.041268,0.016983
15.879999999999995,0.016281,-0.037771,0.020497
15.89,0.002721,-0.028858,0.023157
15.900000000000006,0.003461,-0.037855,0.018493
15.909999999999997,-0.015025,-0.043352,0.00174
15.920000000000002,-0.022109,-0.037121,0.019988
15.930000000000009,-0.031321,-0.037165,0.01074
15.939999999999998,-0.020507,-0.045206,0.005307
15.950000000000005,-0.016557,-0.030771,0.014666
15.960000000000008,-0.025655,-0.038078,0.03638
15.97,-0.016656,-0.03798,0.016408
15.980000000000004,-0.016851,-0.048789,0.012625
15.989999999999997,-0.004867,-0.045125,0.018307
16.0,0.002656,-0.036087,0.02765
16.010000000000005,0.001797,-0.033387,0.029495
16.019999999999996,0.009155,-0.028814,0.025993
16.03,0.013849,-0.026982,0.038869
16.040000000000006,0.016267,-0.04316,0.028658
16.049999999999997,0.034686,-0.04307,0.046254
16.060000000000002,0.01447,-0.0477,0.042271
16.070000000000007,0.014533,-0.043191,0.041411
16.08,0.018239,-0.041379,0.044225
16.090000000000003,0.035784,-0.034057,0.05185
16.099999999999994,0.010885,-0.044111,0.044094
16.11,0.009874,-0.04861,0.040379
16.120000000000005,0.012798,-0.047718,0.06327
16.129999999999995,0.003601,-0.04866,0.058578
16.14,0.002702,-0.052275,0.069497
16.150000000000006,-0.014507,-0.037038,0.059411
16.159999999999997,0.004008,-0.03334,0.082534
16.17,0.004152,-0.022509,0.079012
16.180000000000007,-0.018642,-0.029005,0.100551
16.189999999999998,-0.006481,-0.014516,0.108193
16.200000000000003,-0.006336,-0.012737,0.124644
16.210000000000008,0.000893,-0.012661,0.111941
16.22,-0.008108,-0.013628,0.133731
16.230000000000004,0.0069,0.005401,0.145122
16.239999999999995,0.029017,0.014568,0.148263
16.25,0.040287,0.025445,0.164074
16.260000000000005,0.087017,0.02938,0.167483
16.269999999999996,0.122927,0.038615,0.181769
16.28,0.143191,0.039626,0.200312
16.290000000000006,0.183439,0.033541,0.215376
16.299999999999997,0.199939,0.033613,0.221068
16.310000000000002,0.223786,0.030125,0.239622
16.320000000000007,0.222187,0.040922,0.247053
16.33,0.242671,0.059068,0.258504
16.340000000000003,0.258263,0.05373,0.275079
16.349999999999994,0.255789,0.064499,0.287063
16.36,0.278592,0.048388,0.313677
16.370000000000005,0.285254,0.053806,0.337575
16.379999999999995,0.305475,0.057538,0.343345
16.39,0.333349,0.075717,0.365851
16.400000000000006,0.343788,0.086544,0.397187
16.409999999999997,0.348653,0.103659,0.402947
16.42,0.341564,0.104437,0.434838
16.430000000000007,0.312292,0.093388,0.458974
16.439999999999998,0.281539,0.102178,0.487908
16.450000000000003,0.241531,0.101896,0.520268
16.460000000000008,0.206898,0.100774,0.540823
16.47,0.188413,0.07176,0.574021
16.480000000000004,0.172091,0.068904,0.599347
16.489999999999995,0.166526,0.057987,0.612837
16.5,0.140229,0.061348,0.63719
16.510000000000005,0.126845,0.070178,0.666339
16.519999999999996,0.116394,0.084406,0.710221
16.53,0.059639,0.067729,0.736672
16.540000000000006,0.045451,0.076527,0.77676
16.549999999999997,0.036501,0.074603,0.805851
16.560000000000002,0.047908,0.087239,0.837206
16.570000000000007,0.050109,0.096214,0.869321
16.58,0.090592,0.092754,0.909088
16.590000000000003,0.114602,0.09914,0.928654
16.599999999999994,0.123967,0.100883,0.957101
16.61,0.141004,0.115277,1.008635
16.620000000000005,0.126437,0.100656,1.050262
16.629999999999995,0.134273,0.114104,1.092531
16.64,0.154368,0.097935,1.124585
16.650000000000006,0.158162,0.085251,1.17108
16.659999999999997,0.149322,0.083306,1.217525
16.67,0.155596,0.054438,1.262005
16.680000000000007,0.149265,0.043508,1.294648
16.689999999999998,0.144576,0.023584,1.321744
16.700000000000003,0.128965,0.00087,1.361463
16.710000000000008,0.106901,-0.02728,1.405592
16.72,0.090457,-0.038229,1.429898
16.730000000000004,0.07851,-0.052746,1.451503
16.739999999999995,0.063583,-0.087108,1.481057
16.75,0.068621,-0.075392,1.517813
16.760000000000005,0.086512,-0.105026,1.524089
16.769999999999996,0.104113,-0.106764,1.557182
16.78,0.112315,-0.117588,1.577259
16.790000000000006,0.126879,-0.135606,1.604649
16.799999999999997,0.126068,-0.141082,1.632003
16.810000000000002,0.125224,-0.15193,1.666589
16.820000000000007,0.136331,-0.151859,1.685025
16.83,0.139433,-0.136498,1.703556
16.840000000000003,0.135104,-0.13025,1.726463
16.849999999999994,0.14228,-0.137404,1.729275
16.86,0.102799,-0.094426,1.747569
16.870000000000005,0.026533,-0.06789,1.770632
16.879999999999995,-0.046324,-0.050313,1.775357
16.89,-0.132568,-0.009368,1.774716
16.900000000000006,-0.233365,0.0369,1.772129
16.909999999999997,-0.306311,0.054532,1.758579
16.92,-0.34776,0.099405,1.743944
16.930000000000007,-0.39009,0.148776,1.72388
16.939999999999998,-0.413315,0.187423,1.714902
16.950000000000003,-0.431639,0.203595,1.674655
16.960000000000008,-0.415724,0.236154,1.655157
16.97,-0.417266,0.257729,1.648072
16.980000000000004,-0.416835,0.29375,1.631133
16.989999999999995,-0.424191,0.306355,1.599195
17.0,-0.435448,0.300922,1.572482
17.010000000000005,-0.424567,0.306441,1.548027
17.019999999999996,-0.414156,0.286771,1.513217
17.03,-0.391028,0.257322,1.485769
17.040000000000006,-0.374833,0.24761,1.46943
17.049999999999997,-0.35141,0.235202,1.445849
17.060000000000002,-0.318721,0.226403,1.432478
17.070000000000007,-0.28084,0.196901,1.425331
17.08,-0.230038,0.171068,1.426612
17.090000000000003,-0.212034,0.155855,1.422099
17.099999999999994,-0.205165,0.131582,1.413673
17.11,-0.216386,0.113485,1.418791
17.120000000000005,-0.209378,0.10278,1.398663
17.129999999999995,-0.215169,0.08656,1.389253
17.14,-0.208902,0.083028,1.376511
17.150000000000006,-0.218637,0.096497,1.391162
17.159999999999997,-0.20597,0.093022,1.378498
17.17,-0.18736,0.113875,1.37533
17.180000000000007,-0.13583,0.132228,1.379888
17.189999999999998,-0.092828,0.145192,1.35688
17.200000000000003,-0.060656,0.157136,1.355636
17.210000000000008,-0.045879,0.165364,1.361437
17.22,-0.016649,0.166461,1.356364
17.230000000000004,-0.020348,0.169149,1.345381
17.239999999999995,-0.018867,0.152058,1.334232
17.25,-0.027213,0.147522,1.328593
17.260000000000005,-0.032285,0.124094,1.309976
17.269999999999996,-0.047383,0.09337,1.311243
17.28,-0.078652,0.085983,1.301611
17.290000000000006,-0.092864,0.053483,1.302875
17.299999999999997,-0.088696,0.031916,1.293552
17.310000000000002,-0.114619,0.011021,1.293874
17.320000000000007,-0.118557,-0.000699,1.279063
17.33,-0.136896,-0.008971,1.288759
17.340000000000003,-0.159115,-0.020842,1.275526
17.349999999999994,-0.175697,-0.030011,1.277017
17.36,-0.188729,-0.044546,1.276672
17.370000000000005,-0.197694,-0.033843,1.278497
17.379999999999995,-0.194212,-0.039228,1.265677
17.39,-0.226025,-0.0196,1.249013
17.400000000000006,-0.243074,0.00733,1.235403
17.409999999999997,-0.255825,0.012685,1.233496
17.42,-0.248032,0.048781,1.222158
17.430000000000007,-0.249362,0.081188,1.222524
17.439999999999998,-0.278485,0.109865,1.179562
17.450000000000003,-0.269641,0.154955,1.166511
17.460000000000008,-0.270346,0.175679,1.150299
17.47,-0.274511,0.20447,1.14325
17.480000000000004,-0.288078,0.226966,1.114101
17.489999999999995,-0.269353,0.261348,1.100144
17.5,-0.244618,0.275961,1.075069
17.510000000000005,-0.232028,0.327441,1.063072
17.519999999999996,-0.220915,0.342867,1.048783
17.53,-0.19499,0.378232,1.01667
17.540000000000006,-0.198545,0.391708,1.00033
17.549999999999997,-0.162879,0.408194,0.964451
17.560000000000002,-0.132956,0.397562,0.953754
17.570000000000007,-0.122118,0.401285,0.930208
17.58,-0.104292,0.376191,0.924683
17.590000000000003,-0.106723,0.349169,0.903329
17.599999999999994,-0.124301,0.328268,0.922026
17.61,-0.153083,0.305547,0.912231
17.620000000000005,-0.201317,0.267377,0.900159
17.629999999999995,-0.263336,0.272342,0.911245
17.64,-0.318615,0.24678,0.907443
17.650000000000006,-0.351831,0.224938,0.910355
17.659999999999997,-0.34073,0.237682,0.899673
17.67,-0.359395,0.213245,0.900955
17.680000000000007,-0.363033,0.210507,0.911835
17.689999999999998,-0.361408,0.200576,0.904408
17.700000000000003,-0.350117,0.206858,0.931992
17.710000000000008,-0.341034,0.199658,0.936563
17.72,-0.311802,0.193488,0.943243
17.730000000000004,-0.277456,0.162072,0.956093
17.739999999999995,-0.258133,0.169362,0.961009
17.75,-0.221941,0.149805,0.949386
17.760000000000005,-0.182946,0.128435,0.947805
17.769999999999996,-0.159515,0.112415,0.933301
17.78,-0.123426,0.08202,0.929764
17.790000000000006,-0.099358,0.050654,0.909617
17.799999999999997,-0.038934,0.007783,0.884326
17.810000000000002,-0.013967,-0.039886,0.898703
17.820000000000007,0.001853,-0.083072,0.903892
17.83,0.019691,-0.106382,0.89108
17.840000000000003,0.011935,-0.129823,0.880686
17.849999999999994,-0.003087,-0.164149,0.901115
17.86,-0.02528,-0.176873,0.893365
17.870000000000005,-0.051145,-0.197782,0.900093
17.879999999999995,-0.051397,-0.218513,0.907178
17.89,-0.030666,-0.238185,0.907219
17.900000000000006,-0.016235,-0.256146,0.919084
17.909999999999997,-0.020576,-0.243543,0.927424
17.92,-0.027715,-0.237269,0.942048
17.930000000000007,-0.062283,-0.225752,0.944501
17.939999999999998,-0.086129,-0.227672,0.938701
17.950000000000003,-0.129443,-0.197301,0.948535
17.960000000000008,-0.109343,-0.193492,0.934226
17.97,-0.120099,-0.177279,0.929721
17.980000000000004,-0.103821,-0.177136,0.905283
17.989999999999995,-0.107213,-0.162793,0.912715
18.0,-0.120526,-0.141291,0.925601
18.010000000000005,-0.148775,-0.127022,0.909883
18.02,-0.167944,-0.112667,0.88333
18.03,-0.174927,-0.086532,0.872603
18.040000000000006,-0.189575,-0.076693,0.846927
18.05,-0.182535,-0.085631,0.824042
18.06,-0.156159,-0.089034,0.808782
18.070000000000007,-0.137888,-0.083468,0.796279
18.08,-0.130821,-0.090592,0.779845
18.090000000000003,-0.136134,-0.070784,0.764499
18.099999999999994,-0.127047,-0.067059,0.750087
18.11,-0.109403,-0.047092,0.746938
18.120000000000005,-0.084894,-0.038701,0.706287
18.129999999999995,-0.059264,-0.024965,0.681218
18.14,-0.057478,-0.010514,0.643023
18.15000000000001,-0.063376,-0.032199,0.63168
18.16,-0.070549,-0.006999,0.597147
18.17,-0.06857,0.001962,0.59908
18.180000000000007,-0.08514,0.008182,0.569698
18.19,-0.069334,0.011827,0.594604
18.200000000000003,-0.055672,0.011057,0.58655
18.210000000000008,-0.008112,0.018602,0.572651
18.22,0.004873,0.029518,0.576612
18.230000000000004,0.032388,0.045944,0.554325
18.239999999999995,0.048392,0.076695,0.552156
18.25,0.070722,0.049869,0.535689
18.260000000000005,0.125815,0.066512,0.531146
18.27,0.157867,0.066709,0.537043
18.28,0.189955,0.074983,0.532071
18.290000000000006,0.212072,0.077756,0.552482
18.3,0.18491,0.088352,0.568675
18.31,0.159316,0.088261,0.572007
18.320000000000007,0.155576,0.077449,0.586487
18.33,0.113335,0.074563,0.573175
18.340000000000003,0.088602,0.077138,0.567458
18.349999999999994,0.019856,0.07309,0.557396
18.36,-0.04038,0.083517,0.553075
18.370000000000005,-0.122554,0.099201,0.534806
18.379999999999995,-0.197622,0.095072,0.530078
18.39,-0.278171,0.094538,0.518925
18.40000000000001,-0.364903,0.102968,0.516021
18.41,-0.4315,0.104345,0.527918
18.42,-0.47336,0.118538,0.518366
18.430000000000007,-0.485457,0.102279,0.516151
18.44,-0.471742,0.097884,0.516233
18.450000000000003,-0.413191,0.095553,0.52059
18.460000000000008,-0.338392,0.081626,0.52322
18.47,-0.265276,0.069452,0.544122
18.480000000000004,-0.219397,0.071514,0.561173
18.489999999999995,-0.161247,0.041205,0.574343
18.5,-0.133886,0.026017,0.598256
18.510000000000005,-0.105918,0.001884,0.600177
18.52,-0.099862,-0.026884,0.617297
18.53,-0.109088,-0.035979,0.627143
18.540000000000006,-0.111399,-0.062953,0.617689
18.55,-0.109952,-0.080894,0.606558
18.56,-0.122879,-0.079095,0.591824
18.570000000000007,-0.161779,-0.097334,0.564617
18.58,-0.183762,-0.088432,0.539771
18.590000000000003,-0.20952,-0.087671,0.515678
18.599999999999994,-0.239951,-0.092346,0.488717
18.61,-0.244537,-0.077897,0.455041
18.620000000000005,-0.241216,-0.088677,0.429368
18.629999999999995,-0.222707,-0.065108,0.40797
18.64,-0.209814,-0.052389,0.391852
18.65000000000001,-0.175065,-0.044922,0.375959
18.66,-0.151366,-0.048353,0.370729
18.67,-0.120666,-0.057089,0.330802
18.680000000000007,-0.089283,-0.034306,0.317753
18.69,-0.0257,-0.043689,0.277372
18.700000000000003,0.056869,-0.064667,0.231633
18.710000000000008,0.139957,-0.070453,0.225355
18.72,0.218352,-0.074427,0.201692
18.730000000000004,0.283682,-0.084794,0.156766
18.739999999999995,0.319059,-0.089073,0.129798
18.75,0.324261,-0.095352,0.106062
18.760000000000005,0.350482,-0.103286,0.08258
18.77,0.349492,-0.096959,0.058906
18.78,0.348473,-0.099635,0.049741
18.790000000000006,0.360891,-0.118412,0.035078
18.8,0.37881,-0.136224,0.022336
18.81,0.385754,-0.143262,-0.013249
18.820000000000007,0.380019,-0.15044,-0.030745
18.83,0.366994,-0.159513,-0.040141
18.840000000000003,0.365301,-0.141523,-0.056368
18.849999999999994,0.322922,-0.150815,-0.075277
18.86,0.278316,-0.125879,-0.098393
18.870000000000005,0.230219,-0.099177,-0.105109
18.879999999999995,0.186538,-0.081415,-0.116435
18.89,0.161237,-0.050893,-0.143817
18.90000000000001,0.135576,-0.050121,-0.155117
18.91,0.137562,-0.032926,-0.17225
18.92,0.146459,-0.043637,-0.184136
18.930000000000007,0.159171,-0.033575,-0.216722
18.94,0.162759,-0.028147,-0.234882
18.950000000000003,0.173504,-0.023511,-0.273946
18.960000000000008,0.169,-0.010907,-0.2912
18.97,0.191816,-0.00264,-0.314542
18.980000000000004,0.193637,0.015424,-0.352663
18.989999999999995,0.19154,0.015413,-0.389244
19.0,0.19152,0.028927,-0.420149
19.010000000000005,0.192863,0.014549,-0.455931
19.02,0.182858,0.028939,-0.478711
19.03,0.15489,0.013497,-0.518537
19.040000000000006,0.126302,0.008835,-0.543638
19.05,0.11716,0.013259,-0.556513
19.06,0.086394,-0.013032,-0.579149
19.070000000000007,0.052222,-0.029467,-0.587094
19.08,0.016993,-0.054922,-0.598818
19.090000000000003,-0.019585,-0.058763,-0.592037
19.099999999999994,-0.04701,-0.051701,-0.605093
19.11,-0.070977,-0.061787,-0.609172
19.120000000000005,-0.113496,-0.082771,-0.628234
19.129999999999995,-0.124242,-0.062997,-0.640924
19.14,-0.133783,-0.079232,-0.66225
19.15000000000001,-0.157832,-0.090182,-0.676399
19.16,-0.179833,-0.075863,-0.711215
19.17,-0.22035,-0.090527,-0.71555
19.180000000000007,-0.251436,-0.078073,-0.739545
19.19,-0.28519,-0.077386,-0.727157
19.200000000000003,-0.311683,-0.073903,-0.729248
19.210000000000008,-0.344183,-0.044322,-0.732944
19.22,-0.34952,-0.034406,-0.731056
19.230000000000004,-0.372879,-0.000256,-0.74558
19.239999999999995,-0.368554,-0.005533,-0.765692
19.25,-0.372838,0.01521,-0.768255
19.260000000000005,-0.376554,0.031524,-0.811053
19.27,-0.375118,0.023506,-0.849512
19.28,-0.342303,0.030087,-0.878239
19.290000000000006,-0.318892,0.022142,-0.915507
19.3,-0.264423,0.005386,-0.933259
19.31,-0.259688,-0.012511,-0.995526
19.320000000000007,-0.236694,-0.046553,-1.025776
19.33,-0.24971,-0.044806,-1.053323
19.340000000000003,-0.268785,-0.073725,-1.097752
19.349999999999994,-0.270794,-0.07192,-1.128805
19.36,-0.265911,-0.093472,-1.168268
19.370000000000005,-0.241337,-0.093277,-1.187111
19.379999999999995,-0.200696,-0.1182,-1.205129
19.39,-0.15711,-0.12144,-1.24113
19.40000000000001,-0.128127,-0.133832,-1.253696
19.41,-0.089376,-0.160551,-1.27636
19.42,-0.057626,-0.176538,-1.279806
19.430000000000007,-0.028585,-0.178073,-1.309594
19.44,0.028141,-0.174987,-1.314309
19.450000000000003,0.071415,-0.206218,-1.334213
19.460000000000008,0.116148,-0.19599,-1.366397
19.47,0.13361,-0.196827,-1.351577
19.480000000000004,0.139242,-0.184228,-1.355025
19.489999999999995,0.141584,-0.157226,-1.33915
19.5,0.11824,-0.128527,-1.341867
19.510000000000005,0.100159,-0.114187,-1.345589
19.52,0.104365,-0.083464,-1.339693
19.53,0.126573,-0.070662,-1.33563
19.540000000000006,0.1506,-0.065071,-1.311506
19.55,0.186737,-0.040516,-1.297947
19.56,0.210297,-0.003434,-1.278902
19.570000000000007,0.225252,0.013775,-1.269335
19.58,0.236967,0.050764,-1.244968
19.590000000000003,0.252204,0.081463,-1.227959
19.599999999999994,0.267423,0.112218,-1.214605
19.61,0.266186,0.146515,-1.206906
19.620000000000005,0.283987,0.164657,-1.186354
19.629999999999995,0.303376,0.164755,-1.161439
19.64,0.293436,0.213287,-1.122631
19.65000000000001,0.301216,0.231338,-1.095819
19.66,0.321657,0.247696,-1.086216
19.67,0.340254,0.264057,-1.079364
19.680000000000007,0.362817,0.30393,-1.077634
19.69,0.384562,0.30058,-1.095612
19.700000000000003,0.40574,0.311633,-1.095161
19.710000000000008,0.406997,0.332404,-1.089402
19.72,0.388936,0.338567,-1.066717
19.730000000000004,0.332375,0.346252,-1.060984
19.739999999999995,0.282412,0.36116,-1.043208
19.75,0.202449,0.335357,-1.040922
19.760000000000005,0.089292,0.345337,-1.029536
19.77,-0.005646,0.359091,-1.037971
19.78,-0.08308,0.369375,-1.023382
19.790000000000006,-0.119332,0.378175,-1.002772
19.8,-0.126406,0.37542,-0.971865
19.81,-0.099693,0.372917,-0.941388
19.820000000000007,-0.051866,0.371381,-0.899654
19.83,-0.015072,0.376969,-0.878965
19.840000000000003,0.02729,0.373498,-0.827262
19.849999999999994,0.05865,0.384425,-0.812079
19.86,0.115733,0.393712,-0.77833
19.870000000000005,0.164024,0.373271,-0.759686
19.879999999999995,0.204927,0.356483,-0.75936
19.89,0.250479,0.346058,-0.762575
19.90000000000001,0.297542,0.321236,-0.776903
19.91,0.313292,0.283543,-0.793612
19.92,0.319938,0.254798,-0.824922
19.930000000000007,0.34484,0.219844,-0.848749
19.94,0.390066,0.194009,-0.86305
19.950000000000003,0.423252,0.169054,-0.90033
19.960000000000008,0.440287,0.149357,-0.907631
19.97,0.481788,0.119929,-0.924774
19.980000000000004,0.510985,0.113847,-0.925386
19.989999999999995,0.538163,0.099621,-0.935268
20.0,0.54324,0.072617,-0.937353
20.010000000000005,0.572498,0.06918,-0.933347
20.02,0.568911,0.067323,-0.920607
20.03,0.589972,0.056609,-0.894857
20.040000000000006,0.589342,0.067386,-0.881028
20.05,0.590038,0.048401,-0.872114
20.06,0.582049,0.050945,-0.845712
20.070000000000007,0.58047,0.063466,-0.840127
20.08,0.551547,0.080352,-0.831181
20.090000000000003,0.529466,0.073941,-0.837023
20.099999999999994,0.518416,0.070341,-0.840857
20.11,0.505455,0.059518,-0.841147
20.120000000000005,0.524506,0.0543,-0.849143
20.129999999999995,0.489046,0.061316,-0.833032
20.14,0.474089,0.045061,-0.839777
20.15000000000001,0.450241,0.053953,-0.863709
20.16,0.398917,0.064417,-0.900804
20.17,0.358316,0.053302,-0.928905
20.180000000000007,0.329668,0.044108,-0.951329
20.19,0.275172,0.025792,-0.986985
20.200000000000003,0.2457,0.020201,-1.003887
20.210000000000008,0.199572,0.005472,-1.032081
20.22,0.168352,0.008829,-1.059858
20.230000000000004,0.163681,0.008735,-1.074517
20.239999999999995,0.168219,0.013224,-1.089005
20.25,0.186444,0.019682,-1.109668
20.260000000000005,0.202828,0.019845,-1.116722
20.27,0.219084,0.010056,-1.121163
20.28,0.223545,-0.00074,-1.110238
20.290000000000006,0.224335,-0.010654,-1.099345
20.3,0.185932,-0.001834,-1.110668
20.31,0.159873,-0.021748,-1.125844
20.320000000000007,0.105562,-0.04459,-1.122263
20.33,0.041915,-0.056607,-1.168
20.340000000000003,-0.048223,-0.082385,-1.182289
20.349999999999994,-0.134471,-0.091926,-1.201828
20.36,-0.205978,-0.101353,-1.207455
20.370000000000005,-0.28831,-0.109075,-1.196757
20.379999999999995,-0.323331,-0.138126,-1.173811
20.39,-0.340034,-0.169796,-1.14061
20.40000000000001,-0.33836,-0.186919,-1.126194
20.41,-0.320029,-0.194062,-1.106887
20.42,-0.270704,-0.206391,-1.089963
20.430000000000007,-0.227077,-0.231373,-1.075088
20.44,-0.153632,-0.227359,-1.046676
20.450000000000003,-0.091358,-0.234226,-1.020352
20.460000000000008,0.006509,-0.237248,-1.009956
20.47,0.086439,-0.22506,-0.985021
20.480000000000004,0.156997,-0.226414,-0.963122
20.489999999999995,0.215861,-0.218831,-0.935812
20.5,0.260805,-0.224858,-0.906096
20.510000000000005,0.282583,-0.253584,-0.868722
20.52,0.309515,-0.235409,-0.8508
20.53,0.295801,-0.246371,-0.827368
20.540000000000006,0.310476,-0.246313,-0.8217
20.55,0.292159,-0.245538,-0.825577
20.56,0.299795,-0.235635,-0.799773
20.570000000000007,0.274414,-0.234103,-0.776377
20.58,0.263598,-0.221499,-0.778186
20.590000000000003,0.250369,-0.20353,-0.752569
20.599999999999994,0.244473,-0.181913,-0.732301
20.61,0.26584,-0.160092,-0.733589
20.620000000000005,0.262749,-0.136679,-0.705948
20.629999999999995,0.26942,-0.125827,-0.69203
20.64,0.268821,-0.120517,-0.660013
20.65000000000001,0.279653,-0.082679,-0.63202
20.66,0.280189,-0.061081,-0.600673
20.67,0.295054,-0.057461,-0.576671
20.680000000000007,0.320732,-0.007822,-0.546503
20.69,0.340621,0.016569,-0.503923
20.700000000000003,0.34847,0.032833,-0.46434
20.710000000000008,0.375771,0.057296,-0.407953
20.72,0.405218,0.054781,-0.374692
20.730000000000004,0.410118,0.060276,-0.336152
20.739999999999995,0.400859,0.040397,-0.307243
20.75,0.404733,0.051252,-0.297866
20.760000000000005,0.379131,0.047489,-0.284477
20.77,0.353661,0.05636,-0.276414
20.78,0.296877,0.059622,-0.289882
20.790000000000006,0.202209,0.091446,-0.298083
20.8,0.07247,0.091461,-0.287086
20.81,-0.061044,0.082499,-0.271682
20.820000000000007,-0.177876,0.079816,-0.245057
20.83,-0.311729,0.094994,-0.209287
20.840000000000003,-0.410911,0.109506,-0.180335
20.849999999999994,-0.46481,0.090071,-0.135616
20.86,-0.500361,0.097011,-0.135971
20.870000000000005,-0.474287,0.124207,-0.126122
20.879999999999995,-0.428706,0.119124,-0.131034
20.89,-0.392334,0.116711,-0.152504
20.90000000000001,-0.329888,0.085659,-0.174897
20.91,-0.258191,0.052853,-0.178914
20.92,-0.196914,0.0074,-0.204216
20.930000000000007,-0.144516,-0.021023,-0.229427
20.94,-0.087861,-0.074677,-0.242085
20.950000000000003,-0.080794,-0.126806,-0.288275
20.960000000000008,-0.034147,-0.165169,-0.328299
20.97,-0.020679,-0.208214,-0.394386
20.980000000000004,0.002744,-0.265676,-0.445901
20.989999999999995,0.009219,-0.304372,-0.480982
21.0,0.021974,-0.352911,-0.51244
21.010000000000005,0.037743,-0.390622,-0.529115
21.02,0.054227,-0.435523,-0.558668
21.03,0.063752,-0.477842,-0.544433
21.040000000000006,0.096293,-0.494756,-0.56431
21.05,0.122221,-0.519811,-0.595335
21.06,0.132012,-0.532401,-0.609075
21.070000000000007,0.166716,-0.521374,-0.642311
21.08,0.183104,-0.521328,-0.65675
21.090000000000003,0.201985,-0.528412,-0.6895
21.099999999999994,0.230554,-0.513838,-0.692626
21.11,0.251153,-0.476763,-0.706529
21.120000000000005,0.273044,-0.468492,-0.73171
21.129999999999995,0.286046,-0.443174,-0.758646
21.14,0.300029,-0.414274,-0.783707
21.15000000000001,0.302194,-0.385477,-0.797961
21.16,0.294335,-0.351372,-0.820525
21.17,0.285827,-0.30828,-0.826556
21.180000000000007,0.280598,-0.290379,-0.830102
21.19,0.258886,-0.270759,-0.840238
21.200000000000003,0.223947,-0.22511,-0.838348
21.210000000000008,0.212381,-0.208157,-0.830085
21.22,0.194552,-0.181293,-0.822672
21.230000000000004,0.163603,-0.168004,-0.828389
21.239999999999995,0.134547,-0.151102,-0.832225
21.25,0.111119,-0.12244,-0.843173
21.260000000000005,0.068771,-0.135347,-0.854884
21.27,0.024827,-0.139244,-0.855547
21.28,-0.033775,-0.150455,-0.843702
21.290000000000006,-0.100403,-0.161785,-0.80183
21.3,-0.169616,-0.158743,-0.768936
21.31,-0.248535,-0.139662,-0.72593
21.320000000000007,-0.281686,-0.105795,-0.705845
21.33,-0.285861,-0.102425,-0.661986
21.340000000000003,-0.267072,-0.08262,-0.637724
21.349999999999994,-0.192558,-0.057848,-0.629106
21.36,-0.123499,-0.031209,-0.617795
21.370000000000005,-0.053924,-0.032432,-0.601339
21.379999999999995,0.022552,-0.053411,-0.59873
21.39,0.091819,-0.063668,-0.605249
21.40000000000001,0.11871,-0.097676,-0.603464
21.41,0.151744,-0.1371,-0.625417
21.42,0.178557,-0.161307,-0.654597
21.430000000000007,0.173407,-0.180323,-0.689632
21.44,0.182032,-0.187534,-0.74445
21.450000000000003,0.162554,-0.189525,-0.779468
21.460000000000008,0.143308,-0.177038,-0.814311
21.47,0.135595,-0.184201,-0.856547
21.480000000000004,0.130067,-0.175096,-0.883923
21.489999999999995,0.113773,-0.158842,-0.900376
21.5,0.119622,-0.146133,-0.881861
21.510000000000005,0.163318,-0.152926,-0.897766
21.52,0.216485,-0.136248,-0.916904
21.53,0.27706,-0.115938,-0.926756
21.540000000000006,0.337753,-0.147921,-0.931745
21.55,0.404233,-0.156412,-0.947339
21.56,0.478974,-0.158487,-0.9737
21.570000000000007,0.528043,-0.175208,-0.979577
21.58,0.566384,-0.18037,-0.979114
21.590000000000003,0.593979,-0.180225,-0.960485
21.599999999999994,0.608773,-0.175635,-0.950211
21.61,0.613658,-0.174774,-0.909973
21.620000000000005,0.607187,-0.189289,-0.888336
21.629999999999995,0.581226,-0.211108,-0.890802
21.64,0.55545,-0.229373,-0.876784
21.65000000000001,0.532843,-0.274603,-0.87399
21.66,0.507298,-0.280208,-0.856122
21.67,0.463357,-0.28406,-0.85491
21.680000000000007,0.416951,-0.278925,-0.833527
21.69,0.368233,-0.296274,-0.828885
21.700000000000003,0.320466,-0.313661,-0.818781
21.710000000000008,0.255801,-0.351886,-0.824689
21.72,0.191583,-0.358587,-0.837517
21.730000000000004,0.103485,-0.374501,-0.846222
21.739999999999995,0.020435,-0.409282,-0.875188
21.75,-0.083041,-0.421722,-0.869443
21.760000000000005,-0.180628,-0.401679,-0.876016
21.77,-0.283592,-0.384424,-0.8626
21.78,-0.37942,-0.385115,-0.839255
21.790000000000006,-0.446463,-0.354032,-0.824273
21.8,-0.496412,-0.347172,-0.79382
21.81,-0.519687,-0.324827,-0.773801
21.820000000000007,-0.564193,-0.298057,-0.790547
21.83,-0.572929,-0.270185,-0.794029
21.840000000000003,-0.539542,-0.229414,-0.817802
21.849999999999994,-0.531954,-0.205955,-0.833882
21.86,-0.488486,-0.167838,-0.852041
21.870000000000005,-0.406612,-0.132135,-0.865136
21.879999999999995,-0.30493,-0.116056,-0.87725
21.89,-0.188631,-0.089867,-0.909117
21.90000000000001,-0.068461,-0.051055,-0.934392
21.91,0.036819,-0.015926,-0.983677
21.92,0.126254,-0.002582,-1.02616
21.930000000000007,0.202936,0.010629,-1.065185
21.94,0.23375,0.021767,-1.124032
21.950000000000003,0.253101,0.043579,-1.150004
21.960000000000008,0.254052,0.071635,-1.204436
21.97,0.241517,0.103187,-1.233415
21.980000000000004,0.226156,0.135629,-1.275207
21.989999999999995,0.214503,0.166217,-1.306025
22.0,0.183448,0.176761,-1.320925
22.010000000000005,0.141577,0.192634,-1.324941
22.02,0.109428,0.186977,-1.33274
22.03,0.057299,0.186611,-1.337099
22.039999999999992,0.046248,0.181122,-1.342803
22.05000000000001,0.027538,0.156669,-1.354317
22.06,0.018249,0.152968,-1.370023
22.069999999999997,0.023468,0.127664,-1.354732
22.080000000000013,0.030923,0.139331,-1.363633
22.090000000000003,0.056252,0.120498,-1.361703
22.099999999999994,0.064839,0.084505,-1.358364
22.110000000000014,0.048372,0.081734,-1.349482
22.120000000000005,0.031204,0.040258,-1.356603
22.129999999999995,-0.002474,-0.00677,-1.36493
22.14000000000001,-0.02502,-0.042922,-1.375712
22.15000000000001,-0.02178,-0.069935,-1.38056
22.16,-0.021909,-0.073529,-1.394302
22.169999999999987,-0.029316,-0.092523,-1.367221
22.180000000000007,-0.022063,-0.098711,-1.36353
22.19,0.001016,-0.134518,-1.385568
22.19999999999999,0.057304,-0.160222,-1.38878
22.210000000000008,0.104271,-0.1986,-1.386786
22.22,0.155312,-0.213559,-1.376232
22.22999999999999,0.209852,-0.226681,-1.390271
22.24000000000001,0.23138,-0.24545,-1.403911
22.25,0.247545,-0.258857,-1.41299
22.25999999999999,0.252523,-0.280444,-1.433279
22.27000000000001,0.257742,-0.293052,-1.438831
22.28,0.20346,-0.310534,-1.44614
22.289999999999992,0.174473,-0.295424,-1.441761
22.30000000000001,0.141447,-0.300125,-1.446813
22.31,0.091342,-0.285993,-1.450049
22.319999999999997,0.043409,-0.264709,-1.421206
22.330000000000013,-0.015716,-0.248006,-1.414486
22.340000000000003,-0.053616,-0.228494,-1.387367
22.349999999999994,-0.089455,-0.193646,-1.360037
22.360000000000014,-0.10173,-0.172125,-1.332553
22.370000000000005,-0.115943,-0.149684,-1.323351
22.379999999999995,-0.131954,-0.135459,-1.295105
22.39000000000001,-0.135037,-0.108569,-1.276587
22.40000000000001,-0.121966,-0.101355,-1.257166
22.41,-0.105092,-0.07967,-1.249388
22.419999999999987,-0.053276,-0.041522,-1.248251
22.430000000000007,-2e-06,-0.030367,-1.238273
22.44,0.003748,-0.019469,-1.24721
22.44999999999999,0.051329,-0.006469,-1.26832
22.460000000000008,0.089015,0.011844,-1.278544
22.47,0.086203,0.010016,-1.282259
22.47999999999999,0.073697,0.042389,-1.307601
22.49000000000001,0.0318,0.051064,-1.301647
22.5,-0.01543,0.075949,-1.30927
22.50999999999999,-0.054487,0.089118,-1.299585
22.52000000000001,-0.137662,0.100216,-1.318859
22.53,-0.190709,0.112419,-1.350536
22.539999999999992,-0.246976,0.147986,-1.372864
22.55000000000001,-0.299832,0.15474,-1.36807
22.56,-0.369345,0.165091,-1.396303
22.569999999999997,-0.394989,0.163074,-1.401246
22.580000000000013,-0.409805,0.145829,-1.389755
22.590000000000003,-0.398961,0.137749,-1.39153
22.599999999999994,-0.369807,0.131628,-1.393041
22.610000000000014,-0.310213,0.089734,-1.407349
22.620000000000005,-0.257599,0.055867,-1.394244
22.629999999999995,-0.174324,-0.001192,-1.390137
22.64000000000001,-0.090683,-0.027588,-1.400276
22.65000000000001,-0.025155,-0.05779,-1.376922
22.66,0.002873,-0.074702,-1.383161
22.669999999999987,0.034385,-0.107853,-1.379514
22.680000000000007,0.030633,-0.11876,-1.370612
22.69,0.008476,-0.137015,-1.362953
22.69999999999999,-0.022667,-0.14724,-1.351656
22.710000000000008,-0.038899,-0.141121,-1.337214
22.72,-0.04294,-0.166389,-1.339408
22.72999999999999,-0.050153,-0.170981,-1.317649
22.74000000000001,-0.041676,-0.164674,-1.299228
22.75,-0.039645,-0.166545,-1.270022
22.75999999999999,-0.025382,-0.144861,-1.242183
22.77000000000001,0.00391,-0.150036,-1.227239
22.78,0.039965,-0.139841,-1.193745
22.789999999999992,0.079543,-0.129612,-1.178469
22.80000000000001,0.12005,-0.122106,-1.154071
22.81,0.148105,-0.09311,-1.127766
22.819999999999997,0.168407,-0.094835,-1.096445
22.830000000000013,0.196624,-0.055995,-1.073687
22.840000000000003,0.233843,-0.024233,-1.051786
22.849999999999994,0.251792,-0.000701,-1.02111
22.860000000000014,0.271412,0.015653,-0.99689
22.870000000000005,0.275317,0.026527,-0.984811
22.879999999999995,0.271225,0.051761,-0.970845
22.89000000000001,0.265436,0.084172,-0.954085
22.90000000000001,0.243862,0.096597,-0.928646
22.91,0.220403,0.114396,-0.923264
22.919999999999987,0.196793,0.115967,-0.903454
22.930000000000007,0.187768,0.126745,-0.906162
22.94,0.171306,0.120392,-0.887226
22.94999999999999,0.15545,0.094213,-0.871258
22.960000000000008,0.169239,0.096131,-0.863701
22.97,0.166384,0.079884,-0.843792
22.97999999999999,0.19098,0.060215,-0.812607
22.99000000000001,0.191137,0.055699,-0.779747
23.0,0.176142,0.033999,-0.782037
23.00999999999999,0.170427,0.011359,-0.762318
23.02000000000001,0.126439,0.000138,-0.750299
23.03,0.060527,-0.01305,-0.732187
23.039999999999992,0.013021,-0.020701,-0.711014
23.05000000000001,-0.027324,-0.031851,-0.705295
23.06,-0.071371,-0.049283,-0.691455
23.069999999999997,-0.106138,-0.06305,-0.666491
23.080000000000013,-0.117381,-0.082882,-0.661374
23.090000000000003,-0.128354,-0.101013,-0.62612
23.099999999999994,-0.124429,-0.090178,-0.615899
23.110000000000014,-0.115996,-0.095567,-0.579306
23.120000000000005,-0.082031,-0.099842,-0.552397
23.129999999999995,-0.034278,-0.102201,-0.517975
23.14000000000001,-0.027519,-0.094923,-0.484917
23.15000000000001,0.004751,-0.085655,-0.469767
23.16,0.036198,-0.080097,-0.434587
23.169999999999987,0.0602,-0.0873,-0.388694
23.180000000000007,0.10235,-0.097115,-0.353557
23.19,0.122276,-0.107941,-0.352519
23.19999999999999,0.113255,-0.103629,-0.341637
23.210000000000008,0.103957,-0.116407,-0.335519
23.22,0.098856,-0.094873,-0.328001
23.22999999999999,0.087718,-0.112091,-0.311873
23.24000000000001,0.080704,-0.091371,-0.312582
23.25,0.079131,-0.082379,-0.296947
23.25999999999999,0.03786,-0.037612,-0.286937
23.27000000000001,0.012831,-0.004458,-0.282364
23.28,-0.001583,0.0008,-0.266124
23.289999999999992,-0.024043,0.023148,-0.258908
23.30000000000001,-0.054011,0.0265,-0.23738
23.31,-0.06681,0.031763,-0.248482
23.319999999999997,-0.0906,0.027908,-0.243358
23.330000000000013,-0.10065,0.016024,-0.219872
23.340000000000003,-0.094101,0.018707,-0.210613
23.349999999999994,-0.089985,0.040383,-0.193838
23.360000000000014,-0.086411,0.031464,-0.184758
23.370000000000005,-0.084565,0.038775,-0.195612
23.379999999999995,-0.091801,0.03513,-0.175676
23.39000000000001,-0.100895,0.037797,-0.17487
23.40000000000001,-0.114074,0.020631,-0.188956
23.41,-0.125102,0.027797,-0.210929
23.419999999999987,-0.122673,0.013419,-0.22475
23.430000000000007,-0.129212,0.015207,-0.248542
23.44,-0.154929,0.015031,-0.263487
23.44999999999999,-0.154915,0.018594,-0.268922
23.460000000000008,-0.183994,0.0364,-0.280985
23.47,-0.21335,0.029825,-0.277834
23.47999999999999,-0.237335,0.012538,-0.271083
23.49000000000001,-0.248089,0.021521,-0.262
23.5,-0.249978,0.015267,-0.258442
23.50999999999999,-0.264853,-0.001948,-0.258855
23.52000000000001,-0.264961,-0.001946,-0.275319
23.53,-0.256013,-0.025348,-0.250838
23.539999999999992,-0.253313,-0.027154,-0.249932
23.55000000000001,-0.247655,-0.072159,-0.252237
23.56,-0.261414,-0.119066,-0.276787
23.569999999999997,-0.271761,-0.182171,-0.30694
23.580000000000013,-0.278286,-0.245259,-0.322403
23.590000000000003,-0.282055,-0.259659,-0.313432
23.599999999999994,-0.164357,-0.327277,-0.325476
23.610000000000014,-0.117571,-0.276504,-0.29951
23.620000000000005,-0.097499,-0.234982,-0.275894
23.629999999999995,-0.017903,-0.238095,-0.26212
23.64000000000001,0.011987,-0.194553,-0.261195
23.65000000000001,0.035508,-0.213369,-0.251997
23.66,0.021162,-0.194648,-0.25201
23.669999999999987,0.034718,-0.201851,-0.26018
23.680000000000007,0.024591,-0.209201,-0.257686
23.69,0.005781,-0.189498,-0.248549
23.69999999999999,0.008613,-0.185778,-0.245673
23.710000000000008,-0.00441,-0.194886,-0.254174
23.72,0.26742,-0.115705,-0.249767
23.72999999999999,0.310624,-0.102603,-0.245172
23.74000000000001,0.331792,-0.102685,-0.234005
23.75,0.3009,-0.090279,-0.233321
23.75999999999999,0.272042,-0.070593,-0.216021
23.77000000000001,0.198891,-0.078371,-0.197923
23.78,0.307002,-0.066792,-0.189898
23.789999999999992,0.248858,-0.058299,-0.167771
23.80000000000001,0.215066,-0.062223,-0.141784
23.81,0.199687,-0.05047,-0.150928
23.819999999999997,0.234383,-0.062035,-0.126931
23.830000000000013,0.24576,-0.042146,-0.115587
23.840000000000003,0.233972,-0.087287,-0.130912
23.849999999999994,0.217017,-0.114432,-0.140586
23.860000000000014,0.22299,-0.135943,-0.159015
23.870000000000005,0.264684,-0.148233,-0.184163
23.879999999999995,0.285543,-0.164383,-0.173107
23.89000000000001,0.281971,-0.154486,-0.183972
23.90000000000001,0.288915,-0.173351,-0.193248
23.91,0.298774,-0.180478,-0.206004
23.919999999999987,0.316409,-0.173193,-0.185584
23.930000000000007,0.301909,-0.167922,-0.176561
23.94,0.281798,-0.166286,-0.178626
23.94999999999999,0.28535,-0.168071,-0.187736
23.960000000000008,0.289817,-0.177062,-0.180501
23.97,0.290852,-0.168013,-0.179467
23.97999999999999,0.265536,-0.1574,-0.164139
23.99000000000001,0.22813,-0.152272,-0.166404
24.0,0.214798,-0.132509,-0.155372
24.00999999999999,0.223933,-0.130593,-0.157044
24.02000000000001,0.192833,-0.133503,-0.15198
24.03,0.178423,-0.130947,-0.128369
24.039999999999992,0.173166,-0.116575,-0.130098
24.05000000000001,0.155037,-0.112213,-0.118432
24.06,0.156975,-0.100462,-0.130149
24.069999999999997,0.136922,-0.095186,-0.134014
24.080000000000013,0.144161,-0.093327,-0.147606
24.090000000000003,0.13483,-0.098786,-0.163328
24.099999999999994,0.140402,-0.093353,-0.165014
24.110000000000014,0.144161,-0.077254,-0.169434
24.120000000000005,-0.001853,-0.076492,-0.143056
24.129999999999995,0.005907,-0.053115,-0.119843
24.14000000000001,0.021357,-0.009657,-0.110891
24.15000000000001,-0.055388,-0.017307,-0.090023
24.16,-0.005616,0.001141,-0.079919
24.169999999999987,-0.01952,-0.002456,-0.100236
24.180000000000007,-0.008134,-0.020362,-0.124039
24.19,0.015655,-0.031097,-0.104666
24.19999999999999,-0.004289,-0.015091,-0.102038
24.210000000000008,-0.004142,-0.016915,-0.081971
24.22,-0.004821,-0.002478,-0.081825
24.22999999999999,-0.016776,-0.012519,-0.067502
24.24000000000001,-0.00179,-0.000772,-0.050705
24.25,-0.003577,-0.001727,-0.039782
24.25999999999999,-0.015571,-0.004469,-0.046348
24.27000000000001,-0.000252,-0.020575,-0.045422
24.28,-0.007641,-0.027829,-0.041948
24.289999999999992,-6.7e-05,-0.015219,-0.036216
24.30000000000001,0.009177,-0.012509,-0.025124
24.31,0.007333,-0.014319,-0.021543
24.319999999999997,0.010098,-0.015171,-0.01423
24.330000000000013,-0.018378,-0.01888,-0.021961
24.340000000000003,-0.012857,-0.016996,-0.025479
24.349999999999994,-0.008132,-0.013304,-0.01434
24.360000000000014,-0.011387,0.009214,-0.004925
24.370000000000005,-0.010517,0.002833,0.005062
24.379999999999995,-0.009111,0.021573,0.036327
24.39000000000001,0.003807,0.024281,0.046532
24.40000000000001,-0.01356,0.020582,0.053549
24.41,-0.017427,0.00805,0.048781
24.419999999999987,-0.013928,-0.008062,0.056857
24.430000000000007,-0.006812,-0.0124,0.038639
24.44,-0.006753,-0.004254,0.031441
24.44999999999999,0.01008,0.02646,0.019255
24.460000000000008,-0.00963,0.047795,0.033859
24.47,-0.020555,0.051242,0.037396
24.47999999999999,-0.017232,0.03867,0.019954
24.49000000000001,-0.034126,0.011616,0.018526
24.5,-0.021699,-0.008001,0.005681
24.50999999999999,-0.016688,-0.033096,-0.012823
24.52000000000001,-0.016842,-0.047516,-0.010275
24.53,-0.004437,-0.015062,-0.011574
24.539999999999992,0.017003,0.019265,-0.024612
24.55000000000001,0.000919,0.037049,-0.004553
24.56,-0.01629,0.051283,-0.009194
24.569999999999997,-0.014455,0.047647,0.002674
24.580000000000013,-0.034108,0.015108,0.009386
24.590000000000003,-0.015795,0.012612,0.01604
24.599999999999994,-0.014063,-0.000857,0.027792
24.610000000000014,-0.014827,0.00451,0.029659
24.620000000000005,0.004242,-0.006218,0.035234
24.629999999999995,0.006062,-0.002636,0.0298
24.64000000000001,0.018984,-0.002589,0.051867
24.65000000000001,-0.014002,-0.004626,0.049558
24.66,-0.012175,-0.008236,0.055037
24.669999999999987,-0.002991,-0.008151,0.056123
24.680000000000007,-0.017493,-0.004625,0.066044
24.69,-0.00764,-0.008102,0.046033
24.69999999999999,-0.012366,-0.014391,0.039489
24.710000000000008,-0.007076,-0.018843,0.023044
24.72,0.00201,-0.024275,0.023982
24.72999999999999,-0.007013,-0.015309,0.019401
24.74000000000001,0.002106,-0.018852,0.023135
24.75,0.00238,0.001021,0.020677
24.75999999999999,-0.014128,-0.000863,0.01863
24.77000000000001,-0.00664,0.006448,0.031619
24.78,0.002374,0.002943,0.02257
24.789999999999992,-0.008913,-0.008803,0.004006
24.80000000000001,-0.008826,-0.000653,-0.001384
24.81,-0.011007,-0.015998,-0.018045
24.819999999999997,-0.021919,-0.009807,-0.023602
24.830000000000013,-9.4e-05,-0.013245,-0.036147
24.840000000000003,-0.004965,-0.027644,-0.048264
24.849999999999994,-0.00552,-0.009617,-0.038022
24.860000000000014,0.001371,-0.027572,-0.056414
24.870000000000005,0.010497,-0.023886,-0.061721
24.879999999999995,0.001518,-0.016766,-0.054423
24.89000000000001,-0.005721,-0.020456,-0.036287
