time,Gyr_X,Gyr_Y,Gyr_Z
0.0,-0.0068809312794484,-0.0014645056252361,-0.0012337889590128
0.0100000000000051,-0.002175651326429,-0.0005266682054689,0.0042624179216218
0.0200000000000031,0.0004179370608439,0.0025083394397909,0.0044404221904174
0.0300000000000011,0.0033760608809553,-0.0019762684675963,0.0025400798327631
0.0399999999999991,0.0026774165512881,-0.0027128235137084,0.004004106978559
0.0500000000000042,-0.0013701042129742,0.0001855191762923,0.0026378334476376
0.0600000000000022,0.0009602929945873,0.0002076757081042,0.0008037874639312
0.0700000000000002,0.0009739566245388,-0.0009067338526002,0.0020487616120244
0.0800000000000054,0.0007038642148146,-0.0023995640414577,-0.0017173282420515
0.0900000000000034,-0.0001059462261165,0.000659085890051,-0.0007597624766603
0.1000000000000014,-0.0005328169519895,-0.0015856774612532,0.0007779528305703
0.1099999999999994,-0.001572304759191,-0.0013289060480609,-0.001538554863183
0.1200000000000045,-0.0014183083745371,-0.0028397293423804,-0.0008113309917571
0.1300000000000025,-0.0007984698046725,-0.0023481580530957,-0.0009363127398851
0.1400000000000005,-0.0008918525278692,-0.0007196508482742,-0.0013753123253566
0.1500000000000056,0.0005811185568712,-0.0015146451580063,0.0003915597463914
0.1600000000000037,-5.137988169362676e-05,0.0011142814817281,-0.0003588880780773
0.1700000000000017,0.0028744920419741,0.0009665840602723,-0.0021763430172293
0.1799999999999997,0.0021533604869174,0.0003364294176822,0.0036693637702505
0.1900000000000048,0.0010617893996736,-0.0011132928348174,0.0037651191333029
0.2000000000000028,0.0002500084235976,-0.0008083995431106,0.0027935795265504
0.2100000000000008,-0.001024335670723,0.0012537954033261,0.0029897141768549
0.2200000000000059,0.0008174360311964,0.0003858680099503,0.004391734093274
0.2300000000000039,-0.0019309018423973,-0.0016635166899294,-0.0016463841760884
0.240000000000002,-0.0049319637700953,-0.0011923548147472,-0.0016556423326565
0.25,-0.0024765818249043,-0.0001258603868789,-0.0026492272104796
0.2600000000000051,-0.0033074608461324,-0.0030641438675797,-0.0059983240618228
0.2700000000000031,-0.0016969676976157,-0.0001748426963478,-0.0029991008640235
0.2800000000000011,0.0006758928482103,-0.0017524042339827,3.8799282030044174e-05
0.2899999999999991,-0.0043370443896017,0.001614695107635,-0.0001646127661522
0.3000000000000042,-0.0008076592349192,-0.0001721417546732,-0.0024171963699629
0.3100000000000023,-0.0009010610466087,-0.0022947843650615,-0.0027911526377572
0.3200000000000003,-0.0019171287543027,-0.0016445857616436,-0.0060093701794709
0.3300000000000054,-0.0014650608421688,-0.0005468995237767,-0.0078244264961232
0.3400000000000034,-0.0016018415070558,-0.0020306859372857,-0.0091060815218785
0.3500000000000014,-0.0054498141464008,-0.0022189648994902,-0.0126269894771119
0.3599999999999994,-0.0060774491855379,-0.0025891420091642,-0.0088666140146606
0.3700000000000045,-0.0113717935674292,0.002083450197239,-0.0036536824382817
0.3800000000000025,-0.0079521907665836,0.0017616394473135,0.0007382208309049
0.3900000000000005,0.0034275471782984,0.0007247914434846,0.0075484769124676
0.4000000000000057,0.0075122274801734,-5.109772324374943e-05,0.0088398057480676
0.4100000000000037,0.0029368149723488,-0.0025738899055172,0.0123070020269354
0.4200000000000017,-0.0065364360577015,-0.000138331689407,0.0113545628129357
0.4299999999999997,-0.0089418682341302,0.0064828510413039,0.0162812185703981
0.4400000000000048,-0.003861015380231,0.0067031974038236,0.0155545383017957
0.4500000000000028,-0.0006437707595009,0.0035853871529758,0.0127306459843944
0.4600000000000008,0.0023817237962602,0.0013669790093229,0.0170214084537319
0.4700000000000059,7.681851139128078e-05,-0.0011281291303084,0.0137531998626938
0.480000000000004,-0.0035825377239916,0.0012244313240705,0.0123069395518025
0.490000000000002,-0.0057550040934791,0.0021313750555326,0.0077205132051933
0.5,-0.0101755704233296,0.0018582067732637,0.0074364362983287
0.5100000000000051,-0.0132989479082847,0.0036012287723194,0.0138809888650319
0.5200000000000031,-0.0099203647264571,0.0050665254609285,0.0192576319520889
0.5300000000000011,-0.0137396162329427,0.0112555962247334,0.0257040435230406
0.5399999999999991,-0.0147709741334927,0.0115450657699169,0.0403856099955483
0.5500000000000043,-0.0075064994533304,0.0066924040192208,0.0616163284083313
0.5600000000000023,3.443774446745307e-05,-0.0004011196240133,0.0843141893757891
0.5700000000000003,0.0029742685832624,-0.0035647359822399,0.0954468190805249
0.5800000000000054,-0.0007142434466028,-0.0090222051570757,0.1104178077401331
0.5900000000000034,-0.0075811108439825,-0.0006609677111121,0.1084798151486927
0.6000000000000014,-0.0101705471612852,0.0067722647212984,0.1111783267178619
0.6099999999999994,-0.0053424982215018,0.0129673142837733,0.1174144528017807
0.6200000000000045,-0.0011636365524006,0.0111926311052821,0.1095743864998311
0.6300000000000026,-0.0029808992730751,0.007675317423585,0.1041213898715171
0.6400000000000006,-0.0038941491129991,0.005034287174797,0.1040266413092846
0.6500000000000057,0.0009813201233791,0.0062787280047323,0.1021773464729424
0.6600000000000037,0.0024457457215748,0.0054016171767888,0.0936804210399689
0.6700000000000017,-0.0031039959760568,0.001299942864016,0.0835075073655105
0.6799999999999997,-0.0210571920789551,0.0005568330943819,0.0923420881619047
0.6900000000000048,-0.0254565248493339,0.0007786592451129,0.1112529861509656
0.7000000000000028,-0.0095682913270784,0.0114689449160834,0.1225902080804537
0.7100000000000009,0.0021330911723267,0.0142013522423133,0.1209146253529251
0.720000000000006,-0.0014612698303411,0.004496361739391,0.1237480960466598
0.730000000000004,-0.0077226714421462,-0.001776721042161,0.1279086089834551
0.740000000000002,-0.0065065343313081,0.0030954513264836,0.1300578793105879
0.75,-0.0017853263208139,0.0060390447679407,0.1280572108181587
0.7600000000000051,-0.0038385797682736,0.0107753290827596,0.1280351559285619
0.7700000000000031,-0.0121113917804745,0.0025673163605086,0.1330255452870599
0.7800000000000011,-0.0169359616853168,-0.003091910662602,0.1287682079662322
0.7899999999999991,-0.0306109597407467,0.0004822054241047,0.1281545202140822
0.8000000000000043,-0.0357214856161047,0.0076256928320769,0.1329023429830826
0.8100000000000023,-0.050903616945874,0.015063198681604,0.1381622225880067
0.8200000000000003,-0.0652444420259024,0.0066585736835429,0.1375464099794363
0.8300000000000054,-0.0727943668593183,0.001052951919633,0.1262507943352904
0.8400000000000034,-0.0772518858831854,-0.0001459155941502,0.1096347995718575
0.8500000000000014,-0.0830417752326475,0.0053709924162746,0.0881812052081616
0.8599999999999994,-0.0939094285741166,0.0122157943037355,0.0797049211482389
0.8700000000000045,-0.1127850247201635,0.0134781406480451,0.0816690168822486
0.8800000000000026,-0.12676917209608,0.0123723797587301,0.0894292688993103
0.8900000000000006,-0.1337525301101153,0.0107104674650675,0.0971700722959026
0.9000000000000057,-0.1269625092180307,0.0064198502955888,0.1032507397476012
0.9100000000000036,-0.1221447488053059,0.0071714576397368,0.0972707415906668
0.9200000000000016,-0.1218803550051653,0.0020961742286598,0.090770233279152
0.9299999999999996,-0.1273275972545898,0.0018085615011862,0.0804258095395687
0.9400000000000048,-0.1300425673913727,0.0032816746293027,0.0718707567020646
0.9500000000000028,-0.1306290867228594,0.0037209778472302,0.0707596118322032
0.9600000000000009,-0.142619214802578,0.0053199167242361,0.0717732073081042
0.970000000000006,-0.1601457449086852,0.0065043406114821,0.0726417332006787
0.980000000000004,-0.1657837377757557,0.0109612539639317,0.0687777184794223
0.990000000000002,-0.1639837304171328,0.0184985159251934,0.0562440935689439
1.0,-0.1683013123893549,0.0239129881847073,0.0447267934651221
1.0100000000000051,-0.1844588548425217,0.0175257214140775,0.0370302848923925
1.0200000000000031,-0.1986476961315827,0.019355703455997,0.0393261560406534
1.0300000000000011,-0.2032829704483197,0.0186028510759235,0.0336792765997829
1.0399999999999991,-0.2033171640157528,0.0180080266612173,0.023963129985272
1.0500000000000045,-0.1959878103468523,0.0229017268605254,0.0181609942373181
1.0600000000000025,-0.1903782346053372,0.022180985665421,0.0168052120018823
1.0700000000000005,-0.1758764983315056,0.0245041703746782,0.0146393408870078
1.0800000000000054,-0.1445307788377831,0.0266706047072728,0.0144989065875419
1.0900000000000034,-0.103863481971291,0.0304372720541133,0.0195611135383007
1.1000000000000014,-0.0775841156491253,0.0400929109863109,0.026280886358795
1.1099999999999994,-0.0706907445777461,0.0449563032214956,0.0331107823338541
1.1200000000000043,-0.0613456972060942,0.0547079170322268,0.0343042254592016
1.1300000000000026,-0.059149301352411,0.0607576073275307,0.0193432101956579
1.1400000000000006,-0.0614800839367426,0.066736726324691,0.0099302116886924
1.1500000000000057,-0.053976959499219,0.0836151033824157,0.001328517775692
1.1600000000000037,-0.0310876168384601,0.1102561521590852,-0.01066204985366
1.1700000000000017,-0.0188549157525559,0.1435227744218629,-0.0079709155323184
1.1799999999999995,-0.0215027512731968,0.1741877374979166,-0.0111075469867808
1.1900000000000048,-0.0424489594548084,0.1957870168660197,0.0029829681268115
1.2000000000000028,-0.0677264538614318,0.2086795246823984,0.0246091780174511
1.2100000000000009,-0.0769345063436188,0.2434293186781712,0.0505383639755037
1.220000000000006,0.039406462086418,0.226937784811564,0.070779416874015
1.230000000000004,0.0228399654645163,0.2412577493782115,0.0912239972005165
1.240000000000002,0.0472331452097763,0.2898866250998539,0.1124994794337434
1.25,0.1208115897678657,0.2939366401864704,0.1174202686822451
1.2600000000000051,0.0732869334029457,0.3175916796927919,0.1187093105472317
1.2700000000000031,0.0634867866480828,0.3262724187900548,0.1241262843163902
1.2800000000000011,0.0745570610778765,0.3481367800417498,0.1220946520048851
1.2899999999999991,0.1377343024955214,0.3782851715141776,0.108262390748577
1.3000000000000045,0.1908548408500907,0.4118814720001768,0.0947800443463078
1.3100000000000025,0.2261987261933017,0.4437716652556883,0.0899479838459656
1.3200000000000005,0.2504380787017388,0.4455286210525535,0.0938139143751157
1.3300000000000054,0.2277570074563287,0.4250340672845866,0.1009294354813187
1.3400000000000034,0.1799150453477633,0.3845258054237641,0.1096120305750937
1.3500000000000014,0.1079352361650779,0.3410154650711474,0.1201801248730179
1.3599999999999994,0.0401355874985275,0.2883123147689174,0.1174364447824753
1.3700000000000043,-0.0100477559491864,0.2457086536879476,0.1134045843101541
1.3800000000000026,-0.0408273999711513,0.1988236690653968,0.0997572500183734
1.3900000000000006,-0.0647923034705623,0.1554612812016214,0.0881295569649777
1.4000000000000057,-0.0879461460375756,0.112989031964642,0.0735462365755612
1.4100000000000037,-0.1072659621948766,0.0667323673583862,0.062177841256194
1.4200000000000017,-0.1318092909835897,0.0093627513598667,0.0479355142605079
1.4299999999999995,-0.1510280021263328,-0.0439725338308241,0.0349298725543247
1.4400000000000048,-0.1458238539544136,-0.0904969397142484,0.0197321380272471
1.4500000000000028,-0.1120497423722772,-0.1245400055971388,0.0013394314160042
1.4600000000000009,-0.0543330022725348,-0.1473863381291807,-0.0199111520611208
1.470000000000006,0.0106922979755371,-0.1644874130371833,-0.0386873573476938
1.480000000000004,0.0694194005027114,-0.1854943347096912,-0.0444819075647186
1.490000000000002,0.1232333928497165,-0.2133827019370253,-0.037156281650209
1.5,0.1656241859879779,-0.2473366082051548,-0.0193914603583645
1.5100000000000051,0.2018458183548348,-0.2770588381665416,0.0025516071093321
1.5200000000000031,0.2331601746434138,-0.2959391851480772,0.0247728337976835
1.5300000000000011,0.2712459079489987,-0.3034307623590728,0.0506517415801575
1.5399999999999991,0.310578714012877,-0.3027973121281355,0.0675530136686779
1.5500000000000045,0.3328543816549397,-0.2962913757495677,0.0754479542808118
1.5600000000000025,0.3441463268314986,-0.2931839455307912,0.0740140388100707
1.5700000000000005,0.3529236161616113,-0.2921638885452759,0.0708460856337557
1.5800000000000054,0.3536501866332436,-0.2927975556378663,0.0795459291227179
1.5900000000000034,0.3359260930743827,-0.2969525363607306,0.0992887573394227
1.6000000000000014,0.3233435417561932,-0.2947839843528335,0.1263173280467734
1.6099999999999994,0.3143775445464708,-0.2897388258014183,0.1557069021770002
1.6200000000000043,0.3063775320976002,-0.2703707713125418,0.1751665171315744
1.6300000000000026,0.293068679742328,-0.2441817780005896,0.18573661472888
1.6400000000000006,0.263440723716531,-0.2128393039411793,0.1878755253460236
1.6500000000000057,0.2375734505429514,-0.1762030304122658,0.1718905578838903
1.6600000000000037,0.2273170173092343,-0.1430927774068448,0.1662029588553907
1.6700000000000017,0.2212940749043392,-0.1165213820373296,0.1570498683488805
1.6799999999999995,0.2040399906478644,-0.0972374628031061,0.1574501024621152
1.6900000000000048,0.1864779789158504,-0.0833012745657094,0.164199704343644
1.7000000000000028,0.1734208615705804,-0.0675830136573332,0.1762883831899352
1.7100000000000009,0.1783411929938214,-0.0391214105869032,0.1867140327045061
1.720000000000006,0.188910063047273,-0.0062846773151923,0.1967160499789985
1.730000000000004,0.1877531652598661,0.0276047950147868,0.199709655383004
1.740000000000002,0.1813430781843482,0.058341901624556,0.1952505444239448
1.75,0.1683604033786863,0.0864280028442932,0.1909900039469549
1.7600000000000051,0.1547909952824505,0.1031305580268178,0.1876101725269398
1.7700000000000031,0.131180587081405,0.1034042659370772,0.1770368204369166
1.7800000000000011,0.1006439392321187,0.0965961398360961,0.1751474919505388
1.7899999999999991,0.0840450811017098,0.0843072546249834,0.1882399124426834
1.8000000000000045,0.0630926731021489,0.0750281172022656,0.1988954097239618
1.8100000000000025,0.0464652749362419,0.0745868320067819,0.2093222411102966
1.8200000000000005,0.0310228450163823,0.0742061514606916,0.2168115480268309
1.8300000000000052,0.01915600784893,0.0836732824889798,0.2170592389549918
1.8400000000000036,0.0035321159105163,0.0963809411677626,0.2087658438221862
1.8500000000000012,-0.0191149383889183,0.1035237001216266,0.199387576923887
1.8599999999999997,-0.061059089176324,0.1043446110406009,0.1835425832844261
1.8700000000000043,-0.0978962117805072,0.1080786034833494,0.1678119188124812
1.8800000000000023,-0.1190516350432571,0.1117474074378429,0.15858605817498
1.8900000000000008,-0.1237908684299751,0.1203296645751728,0.1494705392119384
1.9000000000000057,-0.1119486059766549,0.1402007985307872,0.1394488634152755
1.910000000000004,-0.097112136997264,0.1555440536631895,0.1338883364136829
1.9200000000000017,-0.0924294769224834,0.1770703736611767,0.1208927794417595
1.93,-0.1031081338876943,0.1923538312086251,0.1071527945378544
1.9400000000000048,-0.1170571320973856,0.2068571430905073,0.0997796973144869
1.9500000000000028,-0.1314452626343844,0.2159714873565293,0.0857865592802636
1.9600000000000009,-0.1461495950340287,0.2229886720727025,0.0805905887133738
1.970000000000006,-0.1535064381234836,0.2149294951727106,0.0790711699757646
1.980000000000004,-0.138461676722692,0.2069383838918183,0.0770713844332814
1.990000000000002,-0.1129377793051359,0.1965955751211367,0.0770697627979685
2.0,-0.093323348457092,0.1826183748112628,0.0751550296086388
2.010000000000005,-0.0752562930231206,0.1686820237033319,0.0778621079944583
2.020000000000003,-0.0668563994001541,0.1567539948401535,0.080163702730099
2.030000000000001,-0.0511693291900948,0.1423767835332812,0.084373105600348
2.039999999999999,-0.036176888257031,0.1283682734668043,0.0908587358777139
2.0500000000000043,-0.0160113303152147,0.1122168990658757,0.093387966325663
2.0600000000000023,0.0046346001877022,0.0883084802525603,0.0914304858523972
2.0700000000000003,0.0190279352427318,0.0657715613042048,0.088807903085125
2.0800000000000054,0.0266442074179023,0.0489901692324761,0.0842806520223056
2.0900000000000034,0.0198129339414406,0.0421565099698197,0.0750570907634573
2.1000000000000014,0.0090036214152807,0.0376482736944259,0.0621002087856637
2.1099999999999994,0.021528934227356,0.0262221629430649,0.0342129891629082
2.1200000000000045,0.0451012164236966,0.014087012051253,0.0002664374538061
2.1300000000000026,0.0694313475673955,-0.0059634866355388,-0.0208733564407366
2.140000000000001,0.0842309876172298,-0.0265464108976113,-0.0361305825855364
2.1500000000000057,0.0752584303878886,-0.0452604484455166,-0.0484967695366901
2.160000000000004,0.0741499594453942,-0.0597006153809298,-0.0540609006759508
2.1700000000000017,0.0795959294295083,-0.0785180048813334,-0.0633434856639407
2.18,0.0777131403293055,-0.0958746353785725,-0.0708163359419634
2.190000000000005,0.071860178690169,-0.1210969850999919,-0.0739675571976442
2.200000000000003,0.0429926781518788,-0.1419221206917247,-0.0694427876256683
2.210000000000001,0.0096005962460645,-0.1604127897899681,-0.0636401336788704
2.220000000000006,-0.0303363224551182,-0.1791225637636234,-0.057672125932488
2.230000000000004,-0.0788511590369959,-0.190693425791696,-0.0540290493353794
2.240000000000002,-0.1209957954200197,-0.202079626707257,-0.0523997487433493
2.25,-0.1535101472841784,-0.2045649006410399,-0.0577327028711979
2.260000000000005,-0.1883581301771135,-0.2089871752371765,-0.0711115538746019
2.270000000000003,-0.2187551759078636,-0.2094047864606804,-0.0815645438523824
2.280000000000001,-0.2540405246683319,-0.2171275434128567,-0.080874057353621
2.289999999999999,-0.2684317211246395,-0.2169199377309141,-0.0883476709705422
2.3000000000000043,-0.2532879809491681,-0.2119181696013154,-0.1052375428000723
2.3100000000000023,-0.2262147885031757,-0.2112255050301014,-0.1149607434492525
2.3200000000000003,-0.1926568422388536,-0.2071745845280448,-0.1278084252206796
2.3300000000000054,-0.1628001901439698,-0.2023254199463046,-0.145730357029407
2.3400000000000034,-0.1295880954737074,-0.1853436840151869,-0.1573003636813725
2.3500000000000014,-0.0882850221674677,-0.159012845813478,-0.1759993336117268
2.3599999999999994,-0.0464590295888452,-0.1356194777462267,-0.1875533277789575
2.3700000000000045,-0.0056016485720808,-0.1066601045927479,-0.1859695790614682
2.3800000000000026,0.0252841164507382,-0.0799416797569942,-0.1699572360988354
2.390000000000001,0.0549980795200806,-0.0566670286831588,-0.1354623824787888
2.4000000000000057,0.069503396545966,-0.0388740551039306,-0.0870891853531495
2.410000000000004,0.0637338938791104,-0.0251330858732693,-0.0334254308770005
2.4200000000000017,0.0600486050843679,-0.0237554780537613,0.0176496758567799
2.43,0.0485029569728337,-0.0207555270172382,0.0720219375429702
2.440000000000005,0.0453272161055414,-0.0189950273464639,0.1301228518143362
2.450000000000003,0.0506390325646179,-0.0185985804458426,0.1927446136849958
2.460000000000001,0.0636922423222437,-0.0199720127406662,0.2409724878006877
2.470000000000006,0.0760610461920029,-0.0130417935970155,0.2918721407178688
2.480000000000004,0.0985619733404919,-0.001142576243856,0.3436182217615565
2.490000000000002,0.1167184692763869,0.0147756831375378,0.393121362292505
2.5,0.1241216099247675,0.0348922446466547,0.4462201073228962
2.510000000000005,0.1529308884803995,0.0432409148473655,0.4804454434128717
2.520000000000003,0.1556952278586132,0.0582238262721526,0.5028917021778794
2.530000000000001,0.1216261100702702,0.0773195859289977,0.5269551185332385
2.539999999999999,0.0856902865907371,0.0936480746773053,0.5613996122872945
2.5500000000000043,0.0323169831436175,0.1052852216088822,0.5917401140273494
2.5600000000000023,-0.0060599180556161,0.1235232399237324,0.6221069377156944
2.5700000000000003,-0.0295330329797098,0.1369966321750812,0.6509122879794241
2.5800000000000054,-0.0387153860884182,0.1456513172948242,0.6681217211823439
2.5900000000000034,-0.0438032019770419,0.1532588826403302,0.6860801411363829
2.6000000000000014,-0.0517969112395933,0.1616171666795573,0.6929720174151798
2.6099999999999994,-0.0656274105542938,0.176298118499301,0.6950322153056888
2.6200000000000045,-0.0786561377310705,0.1866216353864993,0.6998121640410114
2.6300000000000026,-0.0895964345677526,0.200303457677635,0.7109851888029389
2.640000000000001,-0.0950253768126983,0.2119386201075473,0.7271033838116664
2.6500000000000057,-0.094442337891316,0.2233493256267422,0.7539967262774042
2.660000000000004,-0.0913016226123849,0.2303851631061875,0.7803755147492423
2.6700000000000017,-0.0867662301747761,0.2382501981064765,0.8081133564025517
2.68,-0.082569995570312,0.2457975769185651,0.8418862078972202
2.690000000000005,-0.0840508794459007,0.2485113104891924,0.8725798697588728
2.700000000000003,-0.0919409326087301,0.2498298900907093,0.9061094443435236
2.710000000000001,-0.1065960539808755,0.2492045230132228,0.9333491197595778
2.720000000000006,-0.1258218467753998,0.2487949943234448,0.9492169580870914
2.730000000000004,-0.1318396688254327,0.2492579038445992,0.9643177296273228
2.740000000000002,-0.1370222939378808,0.239954491797152,0.9727618936959654
2.75,-0.1321493217592583,0.2326184600326611,0.975232138253878
2.760000000000005,-0.1182692323240402,0.2170271532128505,0.9745854949192332
2.770000000000003,-0.1129124109310304,0.1984971924115541,0.9722791332560828
2.780000000000001,-0.0926662451821357,0.1780999148958065,0.9734392087747604
2.789999999999999,-0.0754792578463083,0.1533529262417831,0.9751853807083976
2.8000000000000043,-0.0568829430014927,0.1281160768335806,0.9778272862051252
2.8100000000000023,-0.0464407101466673,0.0978648989264143,0.9808360878638508
2.8200000000000003,-0.0433452391418373,0.0745870447320177,0.9705852469171136
2.8300000000000054,-0.0449457639804708,0.0441857215402939,0.950160342090589
2.8400000000000034,-0.0406346645751852,0.0179675419346577,0.9347809656182728
2.8500000000000014,-0.0197361410068317,0.0009653893536462,0.9255305044873086
2.8599999999999994,0.001954123889452,-0.020171192899959,0.9156189280502256
2.8700000000000045,0.0267406873290709,-0.0331343613611622,0.9051778125854036
2.8800000000000026,0.0669500227958556,-0.0547494183138859,0.9030652581151396
2.890000000000001,0.1113142019099643,-0.0737043725008984,0.8983300792258686
2.9000000000000057,0.1507571250194298,-0.086916631149627,0.893014826035992
2.910000000000004,0.1756888936174586,-0.0992015755837787,0.8851001634824132
2.9200000000000017,0.1875054367867031,-0.1074323933718199,0.8841977720209196
2.93,0.1934185647616099,-0.1194143865139231,0.8896168908731649
2.940000000000005,0.200196704839015,-0.1207721056600814,0.8955652878245224
2.950000000000003,0.2066355910997286,-0.1203836805887936,0.9014957654072424
2.960000000000001,0.2234298727631603,-0.1195893391949543,0.9122428423216108
2.970000000000006,0.2434575362140672,-0.1177964741493787,0.910843248990136
2.980000000000004,0.2512342637678224,-0.1190168844158534,0.9165230973499416
2.990000000000002,0.2714421941759018,-0.1173356046741928,0.9106312716864025
3.0,0.3008293186856077,-0.12451143421589,0.908403161044584
3.010000000000005,0.3396882180643106,-0.1301319122000286,0.9064820526729132
3.020000000000003,0.3685413177190638,-0.1387067812541577,0.9121281562043524
3.030000000000001,0.3747663487835441,-0.1486289071563836,0.925107334282102
3.039999999999999,0.3542458163127562,-0.1601930293080985,0.93837358277393
3.0500000000000043,0.3232114556903859,-0.1697443256929917,0.9508052750891404
3.0600000000000023,0.2810522387560589,-0.1714543821350899,0.9613392277741736
3.0700000000000003,0.2397132990597212,-0.1682114464579052,0.967291567690708
3.0800000000000054,0.218800869002067,-0.153925772000879,0.9705335377774952
3.0900000000000034,0.2171136909070884,-0.1276624413320849,0.9778334781893118
3.1000000000000014,0.2183979201681857,-0.1011168266098819,0.984164316331013
3.1099999999999994,0.2248305199365131,-0.0651051441260905,0.9803797453405214
3.1200000000000045,0.2312911093169634,-0.0313512595012381,0.9770961685408708
3.1300000000000026,0.2334082617480424,0.0024938121018576,0.9777846909292366
3.140000000000001,0.2461713034030871,0.0383337104675078,0.9779728572086008
3.1500000000000057,0.2547657649484819,0.07802980640554,0.9748802542177952
3.160000000000004,0.2567840857080004,0.1110652200018699,0.99137110449473
3.1700000000000017,0.2381189244015376,0.1409297006262037,1.010515178374011
3.18,0.210181547260127,0.1750619218684093,1.0300104335717506
3.190000000000005,0.1746819784103216,0.207824356725288,1.0615461007635605
3.200000000000003,0.147595245743225,0.2368035187648408,1.089472077637648
3.210000000000001,0.1305977632574051,0.2594658741102947,1.1166225528805642
3.220000000000006,0.137279108137439,0.284362613041951,1.1389075405083997
3.230000000000004,0.1537803766522373,0.3052103867398918,1.1537672990654924
3.240000000000002,0.1658824555840674,0.3223625755125127,1.1717650126093109
3.25,0.1733038343258286,0.3258513875170631,1.1816200435143351
3.260000000000005,0.1726987192099343,0.3292910512224801,1.1881447419476698
3.270000000000003,0.1685569001077534,0.326107440610714,1.1909384115667494
3.280000000000001,0.1493710328722204,0.3178468245019739,1.1814743213034014
3.289999999999999,0.1189246084850607,0.3028233277790335,1.18460118846225
3.3000000000000043,0.0947086577259838,0.2917901433022655,1.1855509386326846
3.3100000000000023,0.0606366007707311,0.2785198590396241,1.1870206119032127
3.3200000000000003,0.0225105369996897,0.2683873025069401,1.1892101077410426
3.3300000000000054,-0.0056329213640977,0.2581597715097206,1.188985003744056
3.3400000000000034,-0.0210426943396362,0.244524656990847,1.193887923323478
3.3500000000000014,-0.0239795588209509,0.2244899356137127,1.2018800107011711
3.3599999999999994,-0.0365689232655113,0.210639785127145,1.2187514440731506
3.3700000000000045,-0.0518805272241165,0.1956336473437689,1.2405427860204117
3.3800000000000026,-0.0400715238868226,0.1738880165505273,1.2664342866669027
3.390000000000001,-0.0303827674819729,0.1482497657729008,1.2795941380622289
3.4000000000000057,-0.0483278695929779,0.1037337394722838,1.2675992248988843
3.410000000000004,-0.0771296538992207,0.0547014340848775,1.238483137578138
3.4200000000000017,-0.1070487961220701,0.0098885037120203,1.2128160076141312
3.43,-0.1306635783058821,-0.0377972171406791,1.206703660657641
3.440000000000005,-0.1812586670060873,-0.0881783237326477,1.2133956435605002
3.450000000000003,-0.2756487382269668,-0.1392085697945662,1.2450806044776574
3.460000000000001,-0.3802825766863464,-0.1925434469882189,1.29423767147673
3.470000000000006,-0.4529289368985233,-0.2439749805438223,1.343378694498203
3.480000000000004,-0.4772818642390727,-0.2884486324715046,1.3751088093826327
3.490000000000002,-0.442813199775808,-0.3185339314903532,1.3825891877534922
3.5,-0.3570671681853289,-0.3242304955499328,1.3563868794078613
3.510000000000005,-0.2298345412213847,-0.3043389890753181,1.3042139733029443
3.520000000000003,-0.0922030115839144,-0.2669355669419479,1.2306359279216723
3.530000000000001,0.0158150929459262,-0.2253172426878342,1.149600743514812
3.539999999999999,0.0565737834717432,-0.1975429679052358,1.077648395651692
3.5500000000000043,0.0316518580334073,-0.1903218876280081,1.0194173153820472
3.5600000000000023,-0.0357384483848453,-0.1990631346725058,0.9830480270803642
3.5700000000000003,-0.099718648036435,-0.2131436966028012,0.958881428249952
3.5800000000000054,-0.1392403017594601,-0.2198521183620103,0.94328291652787
3.5900000000000034,-0.1408426342507542,-0.2196101495479235,0.9185597626244988
3.6000000000000014,-0.1151633996916167,-0.2085421323613619,0.8808207605423971
3.61,-0.0783197462419115,-0.1911018899908031,0.8419707788574492
3.620000000000005,-0.0516079945062414,-0.1681847023909924,0.796791613911623
3.6300000000000026,-0.0356215415915209,-0.146246166775167,0.75081550707387
3.640000000000001,-0.0216329329292233,-0.1238358010582988,0.7034242338903408
3.6500000000000057,0.0002523212286983,-0.0984449365948823,0.6572854742382535
3.660000000000004,0.0071160749434623,-0.0708478124708314,0.6224475009598379
3.6700000000000017,0.0052510479404761,-0.04199947492777,0.5905229780198554
3.68,0.0045562242055164,-0.013112247137779,0.56332330064556
3.690000000000005,-0.001268006231314,0.0137233947567104,0.5353445911239777
3.700000000000003,-0.0037919221311786,0.0392766040666962,0.5096932623649337
3.710000000000001,-0.0084781036016983,0.0611136173247767,0.4950201240754512
3.720000000000006,-0.0117191113758601,0.0743563755284133,0.4883496069895034
3.730000000000004,-0.0005603138562043,0.0931965960115723,0.49647786459532
3.740000000000002,0.009953681450194,0.1063171241099863,0.5141442371112287
3.75,0.0067776160804674,0.1220430797211863,0.5288819360040459
3.760000000000005,0.0006502089888292,0.1336811520353805,0.5474424761054895
3.770000000000003,-0.0166269944904402,0.1461508245635649,0.5652213928173755
3.780000000000001,-0.0436582656859189,0.1512223151361126,0.5722518075884914
3.789999999999999,-0.0769508914095809,0.1610867242650809,0.5709354286690779
3.800000000000004,-0.1014415383266136,0.1737511567928629,0.5554539363151096
3.8100000000000014,-0.1030071826624922,0.1938291988656391,0.535217679319965
3.82,-0.0913080088600029,0.2140055798779798,0.5147398891793297
3.830000000000005,-0.0654543107623236,0.2410462848414126,0.4873694282936608
3.8400000000000034,-0.0373337570105608,0.2671076112913718,0.4623231128235746
3.8500000000000014,-0.0236486734731987,0.2870658677318901,0.4467496304671484
3.86,-0.0236861380985735,0.3067985967920694,0.4398343314190944
3.870000000000005,-0.0322170499636955,0.320625019216017,0.4378720051695837
3.8800000000000026,-0.0502876388222954,0.3317622306881764,0.4317898826917338
3.890000000000001,-0.0716016088321453,0.336038903613448,0.430580125130934
3.9000000000000057,-0.0884074281311288,0.3360335159899725,0.4211735130742489
3.910000000000004,-0.102013398211995,0.3267627097461766,0.4090844272159666
3.9200000000000017,-0.1013926535631102,0.3160865769199463,0.4022706308617752
3.93,-0.1037046611742566,0.2996355698557962,0.3989490809490259
3.940000000000005,-0.1057971671478563,0.2811202048731118,0.3963064315511437
3.950000000000003,-0.104681279327394,0.2628331099069475,0.3958268254115874
3.960000000000001,-0.0942394190968461,0.2470845342453999,0.3911602853037094
3.970000000000006,-0.0714002421945222,0.2361268562298778,0.3812494858011531
3.980000000000004,-0.0501703691715264,0.2205061849922313,0.3702313449397365
3.990000000000002,-0.0383193161390937,0.1990579390826199,0.3553172559286435
4.0,-0.0379649871036801,0.1753257445328595,0.3514732693998426
4.010000000000005,-0.0481395459848833,0.1482851605216396,0.34666636520492
4.020000000000003,-0.0577455975366445,0.1326034154100638,0.3492210470799656
4.030000000000001,-0.0622883367558976,0.1210717991689233,0.3396295294121079
4.039999999999999,-0.053832129669151,0.1157803406868713,0.3355680353305814
4.050000000000004,-0.024096227718638,0.1186868902180739,0.3288917834534939
4.060000000000002,0.0158325710450311,0.1259046907023534,0.3172104005905242
4.07,0.0640736187228464,0.1336323437386207,0.3137407146541319
4.080000000000005,0.1134952245846585,0.1412699841889415,0.3081131774037676
4.090000000000003,0.1517708950352167,0.1524082785411439,0.3074594885758464
4.100000000000001,0.1848177201685064,0.1644496261634284,0.3045851300807023
4.109999999999999,0.2074302129071184,0.1773950511436271,0.2991251837940579
4.1200000000000045,0.2226924293347899,0.1853028004943542,0.2856469671432954
4.130000000000003,0.2292238260554026,0.1939379680157347,0.2783965041752704
4.140000000000001,0.2271377091465668,0.2007823152844844,0.2767691063246292
4.150000000000006,0.2122816359423914,0.2080290553611474,0.276950632465045
4.160000000000004,0.1904152984930416,0.2165306136326314,0.2693447173009776
4.170000000000002,0.1642300191829972,0.2201443055384561,0.2549095127153857
4.18,0.1337386823128258,0.2239505893025601,0.2340795917011813
4.190000000000005,0.1144019368001852,0.2335475058810774,0.210113567941524
4.200000000000003,0.1058957989485714,0.2376176240027609,0.1926619226890668
4.210000000000001,0.1085220667183518,0.2353900933872183,0.1879932436874894
4.220000000000006,0.1128835581877149,0.234908788552484,0.1997763918978383
4.230000000000004,0.1090152830610324,0.2235707846189424,0.2155535026701499
4.240000000000002,0.0930138201533516,0.2049156976041157,0.2330452586525903
4.25,0.0622807923977755,0.1830754105891732,0.257115421847477
4.260000000000005,0.0420189183141165,0.1622978620509794,0.2769473008284167
4.270000000000003,0.0201006253691,0.1418951398362906,0.2943731281458052
4.280000000000001,-0.0027239855793252,0.1227792861851007,0.3141402488479461
4.289999999999999,-0.0180250692241765,0.1048665009353114,0.3310167532718725
4.300000000000004,-0.0348145393798422,0.0859601816714102,0.3543333693745517
4.310000000000002,-0.0514152188989582,0.0699430341499154,0.3809960229800038
4.32,-0.073198703266414,0.057497861533716,0.4025614330938602
4.330000000000005,-0.0928869526903656,0.0490320666237505,0.4093805975332043
4.340000000000003,-0.0979974466650943,0.0464049201786876,0.4169660760285608
4.350000000000001,-0.0829301177678151,0.0513715478004693,0.4155336600587765
4.359999999999999,-0.0424039379440957,0.0587170807604279,0.407662966841886
4.3700000000000045,-0.002684360147839,0.0647888507052228,0.3924606234274216
4.380000000000003,0.0280014391557451,0.0621495263589605,0.3727190874510219
4.390000000000001,0.0525295662568033,0.0583869979265169,0.352714703023874
4.400000000000006,0.0697730253794589,0.0488107200412687,0.3371574493152532
4.410000000000004,0.0839131791377408,0.0339038164195614,0.3235297842607191
4.420000000000002,0.0940186534545175,0.021344485436806,0.3026167401700452
4.43,0.1023389808827042,0.0091363198851556,0.2818952208427601
4.440000000000005,0.1111579205066333,-0.0011063778696097,0.2550083197762792
4.450000000000003,0.1105838421884473,-0.0163589957808028,0.232263938706663
4.460000000000001,0.1050571840975404,-0.0292343848114916,0.2059559345424604
4.470000000000006,0.1014833993317041,-0.0387564668379571,0.1772473374748903
4.480000000000004,0.087234690915972,-0.0496139817405499,0.1469786425920753
4.490000000000002,0.0491270897404245,-0.0593985620906954,0.136854754661894
4.5,0.0034530552606982,-0.0706075090510606,0.1239013652681265
4.510000000000005,-0.0530551418971404,-0.0799600698856771,0.1188491643140822
4.520000000000003,-0.1112224881375576,-0.0847917153165621,0.1114271999194039
4.530000000000001,-0.1599477170682595,-0.0860342895496695,0.1001862018892006
4.539999999999999,-0.1951921819645869,-0.0772428910381559,0.0928064872767529
4.550000000000004,-0.2053513962026603,-0.0606869499725265,0.0893632307061979
4.560000000000002,-0.201284703750079,-0.0412306213286524,0.0927147239627652
4.57,-0.1827351395999571,-0.0117867414618975,0.10007440857836
4.580000000000005,-0.1638491274980669,0.0141352393117078,0.1101144624035457
4.590000000000003,-0.1527300789399656,0.0356055670646336,0.1146550148645573
4.600000000000001,-0.1603615236077175,0.0478169594491844,0.1235500507102059
4.609999999999999,-0.18663935254559,0.0551136211673828,0.1287397794140407
4.6200000000000045,-0.2045421870410358,0.064867596264968,0.1337885343669352
4.630000000000003,-0.2022334580077393,0.0706500711055957,0.1410320329460378
4.640000000000001,-0.1924236095912834,0.0859667818895565,0.1565484293703654
4.650000000000006,-0.1837576364766973,0.0987916387557197,0.1739744364023705
4.660000000000004,-0.1691989680455152,0.111159371186404,0.1974479014109086
4.670000000000002,-0.1547374764213527,0.1179252670472991,0.2174125775267587
4.68,-0.1542216203859562,0.1199688766753262,0.2345816063700656
4.690000000000005,-0.1658952733321649,0.1231291540178347,0.2601549934994634
4.700000000000003,-0.1737679348396073,0.1246574075963902,0.2789765611989396
4.710000000000001,-0.1683531930286155,0.1328293615753029,0.2961439656519394
4.720000000000006,-0.1649315952838249,0.1337995916449049,0.3135786145544541
4.730000000000004,-0.1707307322406422,0.1284900923131554,0.3273200240289102
4.740000000000002,-0.179000682855144,0.1168808835099213,0.3509857779421464
4.75,-0.1858551639202167,0.0951090650809545,0.3755950578602611
4.760000000000005,-0.1928043585176687,0.0744584021328571,0.4057763093549872
4.770000000000003,-0.192786316659774,0.0511975031984184,0.4397354756981458
4.780000000000001,-0.1764957952940266,0.0305504928537947,0.4694596030245185
4.789999999999999,-0.14281183821597,0.0221515545549109,0.4951693685969157
4.800000000000004,-0.1104759794762795,0.0172139684104682,0.5122266211546184
4.810000000000002,-0.0742529001728875,0.0109393202335637,0.5242303657160318
4.82,-0.0403387415822453,-0.0008897115264521,0.5260088026586964
4.830000000000005,-0.0075503466889106,-0.0126437058920156,0.5189423199004218
4.840000000000003,0.0242039610486768,-0.0237733454964968,0.5112864325272194
4.850000000000001,0.0513199351976175,-0.0424087823592428,0.501976864037816
4.859999999999999,0.0582887775532106,-0.061158580050132,0.4961376890251477
4.8700000000000045,0.0503660415883315,-0.0853712559424787,0.4980621321416536
4.880000000000003,0.0449166202959218,-0.1124501703396197,0.4995228409635362
4.890000000000008,0.0341543563200641,-0.1377786507062327,0.5024896240532392
4.899999999999999,0.0177057067854072,-0.1578031347590641,0.5092031787288228
4.910000000000004,0.0253463965953616,-0.1710857153188915,0.5177322273097377
4.920000000000009,0.0526377255767234,-0.1798344246379585,0.5248903188841566
4.93,0.0928891329381857,-0.1900168061579524,0.5327664848784425
4.940000000000005,0.1268093215777109,-0.2028130734742771,0.5329166196874388
4.949999999999996,0.1401349071523323,-0.2242439444427501,0.536025288097208
4.960000000000001,0.1295718826303195,-0.2529288479951485,0.5258533819300983
4.970000000000006,0.0845522420850998,-0.2893659424536943,0.5021801636623381
4.979999999999997,0.0255311597632822,-0.3274519233786477,0.4800559754763897
4.990000000000002,-0.0476371896613137,-0.3655128102805889,0.4551335091698172
5.000000000000007,-0.1202990972354468,-0.3992632229060768,0.4346791978609482
5.009999999999998,-0.173682413059101,-0.4278340220047222,0.4153081280253066
5.020000000000003,-0.2072005540958349,-0.4419048719959157,0.3948193228565669
5.030000000000008,-0.219012146912042,-0.4500741044448679,0.3735265336119066
5.039999999999999,-0.2135463086167686,-0.4490069905356356,0.3566812294444493
5.050000000000004,-0.2059015840203284,-0.4461932728886129,0.3488660745119418
5.060000000000009,-0.1946497640980966,-0.4374798716128156,0.3528986156516265
5.07,-0.1803401503585966,-0.4342046861392072,0.3638065400908312
5.080000000000005,-0.1570323794656355,-0.4188265229627976,0.3636768322471457
5.089999999999996,-0.1108651977809713,-0.3947193028264629,0.3593792784018387
5.100000000000001,-0.0575734494314256,-0.3620749849715833,0.3543269257534619
5.110000000000007,-0.0072455688145123,-0.3203300610170264,0.3465967637507061
5.119999999999997,0.0299402485362342,-0.2804483563262869,0.3476237509911426
5.130000000000003,0.0506694870311073,-0.2471514455016932,0.3548723885496021
5.140000000000008,0.0711819454127826,-0.2187818966863775,0.3577848941362472
5.149999999999999,0.0876606788599168,-0.1940780372553713,0.3627266241143503
5.160000000000004,0.0978846333342288,-0.1752951229450994,0.3610889551298081
5.170000000000009,0.1030859820405456,-0.1556118095871019,0.3576884401406734
5.18,0.1080675115108938,-0.1409163527549645,0.3512298670398427
5.190000000000005,0.0956693126046763,-0.1160249386952455,0.3507636392940254
5.199999999999996,0.0759311395289503,-0.0968031368840298,0.3489236761219705
5.210000000000001,0.0397439841966917,-0.081525241013564,0.3386208383101141
5.220000000000006,-0.0085178020683016,-0.0642321132011514,0.3349169751111767
5.229999999999997,-0.0280375550190363,-0.0436399430593219,0.3359437516741924
5.240000000000002,-0.0369977099312864,-0.0192610409671992,0.3342056372862635
5.250000000000007,-0.0439419363593199,0.0063840125650616,0.3363588521719477
5.259999999999998,-0.0487015793478445,0.0318908557768936,0.3353288985750571
5.270000000000003,-0.0545249923142947,0.0564615615018192,0.3308207581469434
5.280000000000008,-0.0658321468945364,0.0759683174907031,0.3265856460774212
5.289999999999999,-0.0899630259909583,0.0911620783061031,0.3152287754786808
5.300000000000004,-0.113369372542045,0.1034253716753396,0.3043211879167458
5.310000000000009,-0.1339429197805554,0.1023013190202562,0.2940285290954772
5.32,-0.1432308330259155,0.1091865003885753,0.2818324157015532
5.330000000000005,-0.1380822641426432,0.1156416924171159,0.2632180338372895
5.339999999999996,-0.133321655696233,0.1170102954330013,0.2476107058108353
5.350000000000001,-0.1278888886077758,0.1216102235553337,0.2314795203912947
5.360000000000007,-0.1292703260333611,0.1211056397775301,0.2139084687972852
5.369999999999997,-0.1242126208436415,0.1210234374722624,0.2021202161001626
5.380000000000003,-0.1082284037429252,0.1125092618891952,0.1889054728533664
5.390000000000008,-0.0981042736769027,0.1052181355835986,0.18863013318047
5.399999999999999,-0.0891550496517809,0.0961658640071009,0.1957596932708991
5.410000000000004,-0.0870298071587637,0.0811791397904035,0.2062054980658335
5.420000000000009,-0.0839359040486879,0.0685777217901782,0.2193210520025451
5.43,-0.0790938597554483,0.0590300344194761,0.2313739212111192
5.440000000000005,-0.0728087662160377,0.0496564802745981,0.2422757062390996
5.449999999999996,-0.0528027687604017,0.0383412828983787,0.2537149885931321
5.460000000000001,-0.0248761413621936,0.0342492306207398,0.2592360634819761
5.470000000000006,0.0089253304136967,0.0271676597595912,0.2659217335925806
5.479999999999997,0.0468755713037672,0.027376891189731,0.2749178738222791
5.490000000000002,0.0837228518312521,0.0291169750153039,0.2815646638173461
5.500000000000007,0.1106937801689472,0.0283905288293473,0.2868888702980945
5.509999999999998,0.1186739133044282,0.0249865829272864,0.2899408909380122
5.520000000000003,0.1105966959404514,0.0230093404528383,0.2871500715823543
5.530000000000008,0.0995500066449344,0.0160502796851465,0.2818087209232442
5.539999999999999,0.0812697360806081,0.0070346631822795,0.2809823581496602
5.550000000000004,0.0642605261438927,0.0052796108951469,0.2757783882704072
5.560000000000009,0.0564646309152933,0.0006792509791693,0.2784615810333704
5.57,0.0397397696085,-0.0015543504163385,0.2767649949389864
5.580000000000005,0.0334290892575079,0.0002457373659176,0.2825017298372609
5.589999999999996,0.0317896881389047,0.0051293402893648,0.2844875067259256
5.600000000000001,0.0402801244599331,0.0122026979650408,0.2886829967742156
5.610000000000007,0.0446265640838404,0.0223989968173403,0.2894794544273294
5.619999999999997,0.0508441589180059,0.0346516625589688,0.2937514189230702
5.630000000000003,0.0596473298072505,0.0469304485852611,0.2956538053710687
5.640000000000008,0.0688681923497402,0.0640266598280817,0.2918959043323123
5.649999999999999,0.0809093645366896,0.0737015740539863,0.2968099546635563
5.660000000000004,0.0908301130733059,0.0829907662827697,0.3023940820065161
5.670000000000009,0.0956211089453141,0.0929221536279648,0.3129942967719081
5.68,0.0903618487302536,0.0903194232694268,0.3302610658198001
5.690000000000005,0.0779179970041331,0.0884948029241096,0.3469369900359775
5.699999999999996,0.0596174750053212,0.0748194324575765,0.3713852905261648
5.710000000000001,0.0457068921583793,0.0541379809355984,0.4047409023740076
5.720000000000006,0.0437486933045385,0.0262761878196671,0.4406312953146082
5.729999999999997,0.0460169157398378,-0.000411952225346,0.481136437011038
5.740000000000002,0.0366284875750849,-0.0261489004260161,0.5169784247453433
5.750000000000007,0.018417303462635,-0.0432800507725424,0.5434639660377437
5.759999999999998,0.0060633476406782,-0.0620219701474606,0.5575338616698446
5.770000000000003,-0.0065578340144399,-0.0700629349722078,0.5634658149038869
5.780000000000008,-0.0095864555755065,-0.0710927260758568,0.5705586626598705
5.789999999999999,-0.0109737955943449,-0.0699284007323646,0.570408725161289
5.800000000000004,-0.0086633036734703,-0.0582266976807512,0.5661100644883748
5.810000000000009,-0.0006295681857856,-0.047132839195172,0.5566120646972841
5.82,0.0205973843360185,-0.0366583780770713,0.5425530472899673
5.830000000000005,0.0566782116888366,-0.0217557608353784,0.531967415130429
5.839999999999996,0.089064766444507,-0.0062097529719954,0.513050383031936
5.850000000000001,0.1086049035847801,0.008518723321476,0.498998825568778
5.860000000000007,0.1187330941536524,0.0229290815546972,0.4866612718166472
5.869999999999997,0.126170107380043,0.0388039708952506,0.4794315171522242
5.880000000000003,0.1154541891049819,0.0510490360328818,0.4779998376541471
5.890000000000008,0.0957776400748365,0.0612775086036608,0.4724310437502495
5.899999999999999,0.0797704323813715,0.0766642943618721,0.4738600367749778
5.910000000000004,0.0631006351611207,0.0900341093291382,0.4735718197889875
5.920000000000009,0.0440853567506475,0.1054965458858462,0.4744143251543988
5.93,0.024209649747242,0.122026268366893,0.4763349730897078
5.940000000000005,0.0095989960776282,0.1372296918654187,0.4746010800268999
5.949999999999996,-0.010932023071013,0.1534230638724674,0.4654421499516196
5.960000000000001,-0.0346018044385425,0.1618249780114279,0.4574510745901891
5.970000000000006,-0.0554145533284481,0.1707053854249399,0.4453964997472864
5.979999999999997,-0.0684952779790006,0.1798964240760596,0.4274472522830482
5.990000000000002,-0.0761088681222551,0.1896843218444852,0.4037425186822862
6.000000000000007,-0.0803488236263476,0.2060101756568474,0.3776113183581645
6.009999999999998,-0.080486838720171,0.213809774013928,0.3542226094710896
6.020000000000003,-0.0766840272917791,0.2257406260066014,0.3296248695744828
6.030000000000008,-0.0692562088980644,0.2396768236490372,0.3104520145143969
6.039999999999999,-0.0770592399663939,0.2472905261878425,0.2905644516434222
6.050000000000004,-0.1007210158293302,0.251493760530201,0.2743202825512318
6.060000000000009,-0.1328836180866856,0.2520798335637322,0.2626434793822594
6.07,-0.1708094557960542,0.2511291897539806,0.2527367294920261
6.080000000000005,-0.1997558111849745,0.2467240633285481,0.248167959398843
6.089999999999996,-0.2231495757952733,0.2452950125600405,0.2416691005681401
6.100000000000001,-0.2453648489937687,0.2355095843214474,0.2277708985860409
6.110000000000007,-0.2688783825635429,0.2224363385121648,0.207463614161156
6.119999999999997,-0.2865607811973656,0.2132983096394874,0.1864216788265343
6.130000000000003,-0.3011306822736744,0.2064547097876573,0.1742067917518254
6.140000000000008,-0.3142056263832856,0.2042298719489493,0.1647073019701055
6.149999999999999,-0.3203220899035144,0.204469910573147,0.1615696766616417
6.160000000000004,-0.3196009144763007,0.214587459552375,0.1567063207187105
6.170000000000009,-0.3129177690984209,0.2200057390337461,0.1520006205365059
6.18,-0.296451599986588,0.2253856814377287,0.1460300776533649
6.190000000000005,-0.2810096323159374,0.2292204231112563,0.1429355698915264
6.199999999999996,-0.2624348920614281,0.2303614098040783,0.1410130890181544
6.210000000000001,-0.2428959115676144,0.224719493780165,0.1350035318079729
6.220000000000006,-0.2198796565842721,0.2213497045496701,0.1281294713903817
6.229999999999997,-0.1921531863802535,0.2146980246444124,0.11737506513868
6.240000000000002,-0.1736391531281811,0.2016355511826768,0.1062346994600835
6.250000000000007,-0.165510079242165,0.1896189851204396,0.0990286933765109
6.259999999999998,-0.171071789904242,0.1656319157500597,0.0891836976269793
6.270000000000003,-0.1799683947084395,0.1405195395349525,0.0764683968663691
6.280000000000008,-0.1853880505210859,0.1189648050522287,0.0712388427736413
6.289999999999999,-0.180094315378322,0.0941478610234191,0.0669658235698225
6.300000000000004,-0.1660546800669219,0.076899897007814,0.0634319132031664
6.310000000000009,-0.1412129640533369,0.0618745349137903,0.0613155013154434
6.32,-0.1154895358509639,0.0513168229619861,0.0628072815094996
6.330000000000005,-0.0933670850186144,0.03604047581743,0.0623207869104394
6.339999999999996,-0.0734074117011422,0.01829277959782,0.0577075964715665
6.350000000000001,-0.0732766618638055,0.0049524632184349,0.0526641392527481
6.360000000000007,-0.0669887048148438,-0.0097106158007612,0.0543878597316195
6.369999999999997,-0.0756321577210746,-0.0243900560951167,0.0483852223220615
6.380000000000003,-0.0814172762113675,-0.0414685371887334,0.0448859192560571
6.390000000000008,-0.0900717923898141,-0.0580791135760306,0.0416908588730933
6.399999999999999,-0.0939617512126689,-0.0712267515300609,0.0462335214233496
6.410000000000004,-0.0921734179559287,-0.0766073126174073,0.0578654578540761
6.420000000000009,-0.0883046639762551,-0.0839372654927495,0.0612628343057216
6.43,-0.0857481339411419,-0.0852037845752444,0.073419397604781
6.440000000000005,-0.0892624048203171,-0.0917206682897727,0.0881496337805915
6.449999999999996,-0.0910780206074799,-0.0949739499933766,0.1011263016983726
6.460000000000001,-0.0942704142480208,-0.0939350031793636,0.1174500767067319
6.470000000000006,-0.0960191398270521,-0.0928234324129701,0.1259284518314529
6.479999999999997,-0.0912744169635435,-0.0876239941428415,0.1340402421019076
6.490000000000002,-0.070971620347675,-0.0843597982630625,0.1374059110022452
6.500000000000007,-0.0431231142481901,-0.0810612174910025,0.1387341793518726
6.509999999999998,-0.0326157501595104,-0.0811736506833557,0.1403901437331485
6.520000000000003,-0.0309826117009127,-0.0876192679000174,0.1349024210003165
6.530000000000008,-0.0378444771722561,-0.0971621817759449,0.1290036026880562
6.539999999999999,-0.0460698805294643,-0.1068730288951273,0.1288146061325027
6.550000000000004,-0.044063559368883,-0.1155968521231003,0.1299031414958134
6.560000000000009,-0.0473591935078577,-0.1177822298350408,0.1280165748914919
6.57,-0.047642115697155,-0.1201028459085577,0.1296011704156127
6.580000000000005,-0.0420458648461486,-0.1195059660954849,0.1295414666989126
6.589999999999996,-0.0399398002548488,-0.1181518922596536,0.1336278548216874
6.600000000000001,-0.0486964683680236,-0.115769106999231,0.135751290658089
6.610000000000007,-0.0558616777960504,-0.1092927540326312,0.143239990855935
6.619999999999997,-0.0472658451897334,-0.0985579442776951,0.1482460060404499
6.630000000000003,-0.0272325377213027,-0.0835303641950632,0.1497698662796719
6.640000000000008,-0.0061067749056208,-0.074215220683746,0.1582654173093804
6.649999999999999,0.0241057820584032,-0.0612585790247685,0.1634638310072681
6.660000000000004,0.0373360052657602,-0.0625349052985795,0.1677250338289777
6.670000000000009,0.0467351980679297,-0.0569538815545105,0.175680679089497
6.68,0.0707197821435364,-0.0602474112416015,0.1873976296295356
6.690000000000005,0.0974183545909015,-0.0649239226347043,0.2048350914399348
6.699999999999996,0.1114081310762548,-0.0677255472122225,0.2145894508638266
6.710000000000001,0.1164369062739878,-0.0717723022606878,0.223641206083179
6.720000000000006,0.1076427866562118,-0.076141647129946,0.2237679821995153
6.729999999999997,0.0973696906200889,-0.0804685044425728,0.2153819025458096
6.740000000000002,0.0929953355162589,-0.0881349532164857,0.2071648186249431
6.750000000000007,0.0875758681202417,-0.0909720627383641,0.1957964951412736
6.759999999999998,0.080401773678645,-0.0943004422771258,0.1870502989465229
6.770000000000003,0.0716327737496331,-0.0949057363033841,0.174589084562736
6.780000000000008,0.0595498332689204,-0.0973685121266185,0.1646026777981871
6.789999999999999,0.0524086974497437,-0.0994279068534668,0.1550916003313047
6.800000000000004,0.0479810304805121,-0.093334350198792,0.147110183205022
6.810000000000009,0.0525491742148589,-0.0959997425289494,0.1362383727440153
6.82,0.0485059203561168,-0.0963729241624757,0.1232250209943961
6.830000000000005,0.0389616954125797,-0.0944170857818945,0.1087634001485308
6.839999999999996,0.0417953003918122,-0.0907379185618803,0.0878429617198444
6.850000000000001,0.0476843199854778,-0.0881808536401638,0.0744235469239353
6.860000000000007,0.0606844525097491,-0.0860150593464315,0.0618924606777127
6.869999999999997,0.0706137653333496,-0.0890798183580786,0.0514655743514366
6.880000000000003,0.0776299499579816,-0.0913802949516291,0.045040843706766
6.890000000000008,0.0837736990411795,-0.0936014888963742,0.0376857812687675
6.899999999999999,0.0838640383315167,-0.0954418490423973,0.0309239807142416
6.910000000000004,0.0848166994359354,-0.0950778889397805,0.0259353506752256
6.920000000000009,0.0897567026608483,-0.1022818361981377,0.0181042949443606
6.93,0.0978267658744646,-0.1052934565896179,0.0053090939011941
6.940000000000005,0.1234536446209311,-0.1106437006313559,-0.0194174919074071
6.949999999999996,0.151010181770355,-0.1145957034240514,-0.0528891444920194
6.960000000000001,0.1772872006324523,-0.1152954653864208,-0.0928933890291122
6.970000000000006,0.2026534496830612,-0.1223940638699969,-0.1299272439801265
6.979999999999997,0.2271134122043084,-0.1288043371350069,-0.1726667602229337
6.990000000000002,0.2505470692893448,-0.1406115062898981,-0.2079288863835154
7.000000000000007,0.2708892075770021,-0.1545727332118606,-0.2434957960626942
7.009999999999998,0.2819187644613821,-0.17116643100738,-0.2740819693575482
7.020000000000003,0.2924704608942289,-0.1881979450326146,-0.3065444700873082
7.030000000000008,0.2919420675024701,-0.2011965910300133,-0.3323700466631881
7.039999999999999,0.2761818202798142,-0.2143911036673308,-0.3539935098488175
7.050000000000004,0.2552832443933733,-0.2291071725149018,-0.367931186006855
7.060000000000009,0.2392514149281593,-0.242447784150887,-0.377134788467995
7.07,0.2238595348402389,-0.254071420600088,-0.3909507288198242
7.080000000000005,0.2139241469156163,-0.259559178305052,-0.4061605534951691
7.089999999999996,0.1979195223277188,-0.2637588958345797,-0.4229493276370607
7.100000000000001,0.1848058875402071,-0.2580948686566049,-0.4349126419161234
7.110000000000007,0.1737606230031485,-0.2495846161065309,-0.445741830010264
7.119999999999997,0.1559787875361448,-0.2415120879569094,-0.4542801691527051
7.130000000000003,0.1336987830091058,-0.23262397523682,-0.4665245760198084
7.140000000000008,0.1100192661741244,-0.2262786026677967,-0.4666231738383525
7.149999999999999,0.0784966473996212,-0.2204315126826088,-0.4668874026523156
7.160000000000004,0.0471130719174924,-0.2126204016887541,-0.4567614270392879
7.170000000000009,0.009547611440046,-0.1963354317817563,-0.4447607613752986
7.18,-0.0287453859580955,-0.1781911067527705,-0.4378983202436211
7.190000000000005,-0.0463358828044582,-0.1577776824399273,-0.4310900790989945
7.199999999999996,-0.058591373910404,-0.1331590763112581,-0.4273146317060554
7.210000000000001,-0.0650696754635873,-0.109738358029262,-0.4218609998044265
7.220000000000006,-0.0739490257624101,-0.0918968590584984,-0.4183531068424753
7.229999999999997,-0.081979918763366,-0.0750278983803424,-0.4202258403131628
7.240000000000002,-0.0846463273504398,-0.0590451844090182,-0.4271273017505615
7.250000000000007,-0.0900546698864211,-0.0361128600353825,-0.4232813198422257
7.259999999999998,-0.0812156937127097,-0.0079249442144309,-0.4249469254497066
7.270000000000003,-0.0703750524634192,0.0212154336463331,-0.4226706394462668
7.280000000000008,-0.0525546334396215,0.0537551716653912,-0.4248272390596475
7.289999999999999,-0.0410808681438504,0.085381225817499,-0.4259663799888986
7.300000000000004,-0.0363024009859591,0.1114218297003095,-0.4229832250441087
7.310000000000009,-0.0431488031040887,0.133791928758483,-0.4240503092062896
7.32,-0.0571555453810006,0.1504189843287396,-0.4251348053297205
7.330000000000005,-0.0742970621962845,0.167843150030496,-0.4328745225650669
7.339999999999996,-0.0840365048312796,0.1836404354481508,-0.4430379143571348
7.350000000000001,-0.0663627743578141,0.2015181290186811,-0.4601884336092841
7.3600000000000065,-0.037494979754839,0.2257200173285297,-0.4709029154338003
7.369999999999997,-0.0107778935635601,0.2412699702247699,-0.4793616686009415
7.380000000000003,0.0127128455348832,0.2605617524140278,-0.4904582138343104
7.390000000000008,0.0257186798498064,0.2676777501766205,-0.5059753860129838
7.399999999999999,0.020388736195679,0.2641293744091831,-0.5210461137589733
7.410000000000004,-0.0020828182490866,0.2537858285409624,-0.5314892280593274
7.420000000000009,-0.041665146788375,0.2420062183207324,-0.5355159663524847
7.43,-0.0880670302079607,0.2319092598643112,-0.5396513764512049
7.440000000000005,-0.1323166403542917,0.224217792854426,-0.5492513554483985
7.449999999999996,-0.1642420524326411,0.2168477009293157,-0.5580156771953253
7.460000000000001,-0.1719809160910209,0.2089858833830547,-0.5721876718742206
7.470000000000006,-0.1596031873550058,0.2004456894838696,-0.5874806910770413
7.479999999999997,-0.1375192747063339,0.198135384812338,-0.6011086437267527
7.490000000000002,-0.1152058259092311,0.1994953089416501,-0.6071305181790922
7.500000000000007,-0.1030737845512673,0.1916925626857731,-0.6019322235912957
7.509999999999998,-0.1171037175309992,0.1793425203432054,-0.5982925215001302
7.520000000000003,-0.154417211112084,0.1638588408002828,-0.5955980788717719
7.530000000000008,-0.1937594614737172,0.1512134558013065,-0.5994883732844862
7.539999999999999,-0.2176117076513694,0.1432805378492059,-0.6079239704592256
7.550000000000004,-0.2295733172097375,0.1429886306453974,-0.6201364352044816
7.560000000000009,-0.2215481055538568,0.1425991462043913,-0.6371745630433892
7.57,-0.2027739632076254,0.1401321114286497,-0.666411472959147
7.580000000000005,-0.1819193241775279,0.1320556969952985,-0.6957050382878552
7.589999999999996,-0.1608326495203722,0.1219486764224461,-0.7215169362060184
7.600000000000001,-0.158530099889281,0.1102569964026145,-0.7394101151807418
7.6100000000000065,-0.1720301331276854,0.0976875298232832,-0.753910186657676
7.619999999999997,-0.2094847752560799,0.0874203033245894,-0.7671235163105338
7.630000000000003,-0.2550611725510652,0.0843032073745252,-0.7856391345969298
7.640000000000008,-0.2851041121508166,0.0870309027440707,-0.8106778055477167
7.649999999999999,-0.2947623051857669,0.1003049415273399,-0.8499577069156773
7.660000000000004,-0.2998444252178998,0.1180861954919171,-0.8842859257037089
7.670000000000009,-0.2950955358586249,0.1365655617656824,-0.9101291603820162
7.68,-0.268028441781521,0.1570540281391903,-0.9381040495864836
7.690000000000005,-0.2346067172636773,0.179720018857465,-0.9588136523471334
7.699999999999996,-0.2163758382249807,0.1951887034283615,-0.9882613258174184
7.710000000000001,-0.2142413880314995,0.2166462506167294,-1.0140176033947128
7.720000000000006,-0.2242397426218728,0.2368677891658022,-1.0417853357146354
7.729999999999997,-0.2230383836047366,0.2612480107533389,-1.0626631990920938
7.740000000000002,-0.2108762763842717,0.2858319480859612,-1.089125440358562
7.750000000000007,-0.1957465874915509,0.3073182169964751,-1.1153581025309114
7.759999999999998,-0.1977740939703859,0.3192062825431183,-1.1325842179739805
7.770000000000003,-0.2056957942141018,0.3267636924584404,-1.1511560370240248
7.780000000000008,-0.2138865113672027,0.3289486740337166,-1.1654687907208203
7.789999999999999,-0.2059741249979965,0.3295550395139361,-1.1719219406743713
7.800000000000004,-0.1869509139413775,0.3247361360322114,-1.1703803982838037
7.810000000000009,-0.166369680097787,0.3167438583465676,-1.1656084739450685
7.82,-0.1257226250759653,0.3061053218701566,-1.1605857368765051
7.830000000000005,-0.0922142495266598,0.2805810945120109,-1.15090592638577
7.839999999999996,-0.078788273113745,0.2462189067843474,-1.1412604725253106
7.850000000000001,-0.0698436780237894,0.2043356115736689,-1.1281291484976628
7.8600000000000065,-0.0461203900044134,0.1498623736821843,-1.1044195220879731
7.869999999999997,-0.0060513009036357,0.0942087823278445,-1.0705333323519823
7.880000000000003,0.0366897098043228,0.0346044652278943,-1.031242367552664
7.890000000000008,0.0857547396671514,-0.0318817711973069,-0.9830315359721418
7.899999999999999,0.130405595861467,-0.0898780374026391,-0.9268694198148184
7.910000000000004,0.1853904820113605,-0.1393705940378007,-0.8736936528621292
7.920000000000009,0.2215041268912039,-0.1833052155039262,-0.8281332845374186
7.93,0.2473925084778695,-0.2111210498141047,-0.7938805456688152
7.940000000000005,0.2716090626182795,-0.240026899159812,-0.7683939209043045
7.949999999999996,0.2929859817603357,-0.2595644282199338,-0.7459027415373024
7.960000000000001,0.3200204698079092,-0.2747269650391317,-0.7229452985544206
7.970000000000006,0.3564899504998535,-0.2885087952962177,-0.6969332994696883
7.979999999999997,0.4110026497148303,-0.2962970976702565,-0.6685312196417299
7.990000000000002,0.452067598282354,-0.2982364306416217,-0.6477667249938157
8.000000000000007,0.4679288408516971,-0.2889285696099241,-0.6394556437945501
8.009999999999998,0.4684642853342077,-0.2820296856236285,-0.6444051238262822
8.020000000000003,0.439190968411598,-0.2821009307670907,-0.6474735479537045
8.030000000000008,0.4054584243555965,-0.2808990099053252,-0.6564650926052613
8.04,0.3774922399798165,-0.280807786531111,-0.6708749832149477
8.050000000000004,0.358189363839943,-0.2723834831530488,-0.6858045722916017
8.06000000000001,0.3386140502754475,-0.2691601364511269,-0.7016908367463811
8.07,0.3221985588074554,-0.2598170888924432,-0.7037356012168935
8.080000000000005,0.3187978099622975,-0.2430946200402175,-0.7115149536425965
8.089999999999996,0.308955663093412,-0.2150602184298753,-0.7160219816744605
8.100000000000001,0.2848607426422083,-0.1897829539639545,-0.7252684459118183
8.110000000000007,0.2281506873763838,-0.160439480752075,-0.732663212217753
8.119999999999997,0.1548011455730748,-0.1285052048308488,-0.7337158083619557
8.130000000000003,0.0955933706109892,-0.0940579620888866,-0.7389486419005102
8.140000000000008,0.0423372819952282,-0.060860615925942,-0.7399216517392716
8.149999999999999,-0.0036010107308286,-0.0310329526994317,-0.739160249089385
8.160000000000004,-0.0422297550409422,0.0092574094712368,-0.7473111663901256
8.170000000000009,-0.078919129331183,0.0521805914470993,-0.7549600053257081
8.18,-0.1112181003732154,0.0940684492944183,-0.7731089270600172
8.190000000000005,-0.1293296494392317,0.1204421028086766,-0.7985027860619781
8.199999999999996,-0.1280238751480626,0.1471756051409877,-0.8245990772382925
8.21,-0.1331845771744609,0.1566945238201058,-0.8444831259376886
8.220000000000006,-0.1239575749238668,0.1653102583662789,-0.8652908747983582
8.229999999999997,-0.1139826456544185,0.1715722612576051,-0.8871207689287275
8.240000000000002,-0.1119254715109813,0.177812545164209,-0.9122838050939006
8.250000000000007,-0.1112125268182668,0.1811946796411093,-0.9262023011048904
8.259999999999998,-0.0941413310058633,0.1838888413337821,-0.9309669553081472
8.270000000000003,-0.0572251120468661,0.1896469188053071,-0.9329379004071928
8.280000000000008,-0.0116319741597303,0.1930622695447983,-0.9259971257441656
8.29,0.0116398476723421,0.1919011876727392,-0.9341231428573874
8.300000000000004,-0.0111829319958842,0.1807617672914749,-0.947134687438906
8.31000000000001,-0.0431953518785938,0.1636166676033444,-0.9637252716329712
8.32,-0.0831307630016573,0.1319997337168388,-0.9761149990906486
8.330000000000005,-0.1171913543675313,0.0958373125859748,-0.9850088483238236
8.339999999999996,-0.134804202552605,0.0646175421562619,-0.9953941173792876
8.350000000000001,-0.1456998355889944,0.0421717239519302,-1.004546896399188
8.360000000000007,-0.1502775479365433,0.0226733538933647,-1.0237086978986598
8.369999999999997,-0.1453992244999254,0.013588807264718,-1.044765571655608
8.380000000000003,-0.1286771368974678,0.0079291522592213,-1.0665946556624957
8.390000000000008,-0.1064179145440603,-0.0010896683867319,-1.0968157924934938
8.399999999999999,-0.0732784823801621,-0.0055217339413832,-1.1316855399992292
8.410000000000004,-0.0438838395157773,-0.0185893065336321,-1.1691861495685327
8.420000000000009,-0.0285311758870573,-0.0410886619610323,-1.200780362637675
8.43,-0.0286902667008518,-0.0736696390314859,-1.2231875364595528
8.440000000000005,-0.0056878490864458,-0.1034678565541094,-1.2459584257539027
8.449999999999996,0.0324933807949659,-0.1287031650960437,-1.261533584219125
8.46,0.054885602621194,-0.1481439261374258,-1.2596607493733385
8.470000000000006,0.0770178754958913,-0.1659181656532278,-1.2533413939853872
8.479999999999997,0.0971996648780339,-0.1771858768656441,-1.2351384240079717
8.490000000000002,0.0945206578251147,-0.1952530767434944,-1.2157359947970474
8.500000000000007,0.0866402627333459,-0.2161202521066311,-1.2010869035715568
8.509999999999998,0.0595079193356966,-0.2397698253749884,-1.1749574685373734
8.520000000000003,0.021855122889705,-0.2652391508775882,-1.1648408606216856
8.530000000000008,-0.0033216044649048,-0.2976343996241078,-1.1583944544823506
8.54,-0.0293057499424383,-0.3285777042973885,-1.1582945036998034
8.550000000000004,-0.0628054679645497,-0.357278582563601,-1.1646621857418296
8.56000000000001,-0.0938819935561782,-0.3915012280546607,-1.178584372317164
8.57,-0.1016203868097715,-0.4146027717620417,-1.1880628631241352
8.580000000000005,-0.0815527006622676,-0.4278511352693863,-1.1915623518125973
8.589999999999996,-0.0420150298535387,-0.4214470992537564,-1.1954327687404904
8.600000000000001,-0.002923702081375,-0.406898212872067,-1.2045225691650387
8.610000000000007,0.0076782175089979,-0.3792172362992586,-1.215213319209781
8.619999999999997,0.0020681504913721,-0.346869633742361,-1.2324302510361702
8.630000000000003,-0.0179064402322353,-0.3186959896034763,-1.2460977566471725
8.640000000000008,-0.1276980781237611,-0.2636397725667105,-1.2636913063819837
8.649999999999999,-0.1598681378551827,-0.2357731954963062,-1.2787743106350833
8.660000000000004,-0.1023664615786531,-0.22899312621178,-1.2845355595701935
8.670000000000009,-0.0104228184993352,-0.2413081021388049,-1.2949268917342582
8.68,0.0304943858045165,-0.2429889274060865,-1.2844687880893904
8.690000000000005,0.0422988118833039,-0.2465996263341384,-1.269941615515538
8.699999999999996,0.0541325324799256,-0.2429430387158804,-1.2492280604410932
8.71,0.0865493133613657,-0.235311203080287,-1.224333819602761
8.720000000000006,0.1162862385294491,-0.2280442932893421,-1.2150105822372257
8.729999999999997,0.1326274351476388,-0.2249479678649929,-1.2125133560721963
8.740000000000002,0.1423474413723379,-0.2338374239877075,-1.185975611958137
8.750000000000007,0.145330019462575,-0.2491169306172638,-1.143203423462728
8.759999999999998,0.1203980473057964,-0.2671251708179222,-1.0853842503088218
8.770000000000003,0.0974736737727196,-0.2835796205843215,-1.0161257809606816
8.780000000000008,0.0789866067043508,-0.2974277940039416,-0.9464413394295396
8.79,0.0413219424647363,-0.3016001135823941,-0.8713393461566634
8.800000000000004,0.0281519139179506,-0.2993083826754537,-0.7948161435082377
8.81000000000001,0.0193209833954279,-0.2950660649144346,-0.7112373437574848
8.82,0.0261550918473473,-0.2786270060885624,-0.6476476913403907
8.830000000000005,0.0692133538613567,-0.252800049362622,-0.5876088406922467
8.839999999999996,0.1093745353227113,-0.2269615436707473,-0.5433342138776409
8.850000000000001,0.1365971281273786,-0.1933857068106831,-0.50822240019132
8.860000000000007,0.1213414539336766,-0.1521463128083272,-0.4777851738599893
8.869999999999997,0.0832488661831165,-0.1040047447043102,-0.4560744321914746
8.880000000000003,0.0235918797487855,-0.0574324760705443,-0.4415019084813477
8.890000000000008,-0.03194153632272,-0.01687588730682,-0.4289675570299018
8.899999999999999,-0.0817917228545921,0.0160031609247182,-0.4233949434794025
8.910000000000004,-0.1315678821264684,0.0497724005259986,-0.4267142823082637
8.920000000000009,-0.1820034456563135,0.0846670526949658,-0.4381258099565396
8.93,-0.218135841132388,0.1217304711796723,-0.4556832684432307
8.940000000000005,-0.2286481741975216,0.1614889772868953,-0.4692537933886146
8.949999999999996,-0.2048657551087565,0.2071876862528859,-0.4774410749685108
8.96,-0.1804323686734094,0.2540338438840542,-0.4783031343419477
8.970000000000006,-0.1608231135112404,0.3020280905924815,-0.4797041277668679
8.979999999999997,-0.1493482107276452,0.3496702016866126,-0.4818364394866374
8.990000000000002,-0.1523180673963025,0.3959844961827825,-0.4850168173787481
9.000000000000007,-0.148957494342125,0.4449767800894579,-0.4909642883578104
9.009999999999998,-0.1509440142105819,0.4852036284078959,-0.5033400513867711
9.020000000000003,-0.1592992152877136,0.5182224556449837,-0.5251732419817577
9.030000000000008,-0.1591078341674047,0.5452652935651293,-0.5434858696501087
9.04,-0.1515767387740653,0.5701418729528799,-0.5521828048039061
9.050000000000004,-0.1197045496767331,0.5853602030024293,-0.5603257662404574
9.06000000000001,-0.0958380864669701,0.5954470035038687,-0.5534055578846616
9.07,-0.0690924926142345,0.5910460155504377,-0.5423672775882477
9.080000000000004,-0.049755068841148,0.5753567948046486,-0.5337090372269079
9.089999999999996,-0.0486338896698858,0.5539981674361246,-0.5310087513902061
9.1,-0.059859146247375,0.5250657387131259,-0.5244782146556989
9.110000000000008,-0.0728581793045707,0.5000594955534958,-0.515243899455577
9.119999999999996,-0.0881538748174441,0.466647663823502,-0.5191500565509968
9.130000000000004,-0.0940809320899315,0.4319370355516408,-0.5168711529430875
9.140000000000008,-0.0940431740358122,0.3908118839227249,-0.5187664936805063
9.15,-0.0965237891758897,0.3437248743309221,-0.5158776222302445
9.160000000000004,-0.1141499751347565,0.2865594425668869,-0.5079485700575768
9.170000000000009,-0.121642253007562,0.2229352072910485,-0.4967562091619988
9.18,-0.1116357043308918,0.1594658438849705,-0.4890118720999357
9.190000000000005,-0.1151232200866501,0.0949219185877548,-0.4784002809714554
9.199999999999996,-0.1305504803721471,0.0385969173595888,-0.4497495889569184
9.21,-0.145257991167638,-0.0039416135558222,-0.4286555876508598
9.220000000000006,-0.1526888349288311,-0.0318810661589051,-0.4080529170107816
9.229999999999997,-0.1525505215279308,-0.0516826271414264,-0.3864192541230686
9.240000000000002,-0.1489402615377752,-0.0617475932856224,-0.3674109354897384
9.250000000000009,-0.1502458602651477,-0.0688802918612134,-0.3488240628517798
9.259999999999998,-0.1562599288022262,-0.0744605669038286,-0.3361948048062113
9.270000000000003,-0.1666214801016342,-0.076593691455734,-0.334845657559744
9.280000000000008,-0.1653268523338517,-0.0792318012355903,-0.3381626794575114
9.29,-0.1589340412940037,-0.0671742519235061,-0.3348529301102046
9.300000000000004,-0.1560220050386078,-0.0500095007408756,-0.3262556428723664
9.31000000000001,-0.1415941979734724,-0.0379560394877576,-0.3227893517182233
9.32,-0.1318934103765338,-0.029623236521284,-0.3174812074475701
9.330000000000004,-0.1278116958039346,-0.0298442657233624,-0.3171092113849351
9.339999999999996,-0.119247756012939,-0.0356535983905653,-0.3189367154932581
9.35,-0.1100350804486323,-0.0517386997061192,-0.3162464952716723
9.360000000000008,-0.104100126714647,-0.0628714441260291,-0.3245664226603875
9.369999999999996,-0.0843080982326533,-0.0712333249464888,-0.3319966020560403
9.380000000000004,-0.0488166763473266,-0.081776873345547,-0.3363627088705308
9.390000000000008,-0.0094704725154755,-0.0835234732324927,-0.334696228020796
9.4,0.0125552928957438,-0.0917820228041381,-0.3287365200514456
9.410000000000004,0.0315187894155701,-0.1104261106835249,-0.3284693935668346
9.420000000000009,0.0423745782464493,-0.1395245697495327,-0.3326774709136043
9.43,0.0322597421125255,-0.1625433433890999,-0.3390522268662733
9.440000000000005,0.0142184706013301,-0.1800250087759372,-0.3428824782848175
9.449999999999996,-0.0124450477560432,-0.1835314781588616,-0.3456919403788002
9.46,-0.0182738398062891,-0.1734420809279646,-0.338767533619579
9.470000000000006,-0.0105069517601638,-0.152284963946208,-0.3259191576295324
9.479999999999997,0.0045607273586202,-0.1261379746078027,-0.3118820225036907
9.490000000000002,0.0259152184717055,-0.1010619144795459,-0.3037646685118322
9.500000000000009,0.0589397731795055,-0.0813930049789555,-0.3032285308763128
9.509999999999998,0.1003344159168298,-0.0652904730523967,-0.3009471607526153
9.520000000000003,0.1312929041473156,-0.0515844100811406,-0.2994726521938024
9.530000000000008,0.1706249903733811,-0.034441368831421,-0.3040734183813137
9.54,0.1955041135970513,-0.0164836498353972,-0.299914763374645
9.550000000000004,0.1814904859351894,-0.0028241289744409,-0.2877446738108919
9.56000000000001,0.1641825691750309,0.0083631619634934,-0.2731338404654503
9.57,0.1425277082635842,0.0118166877854391,-0.261739652603751
9.580000000000004,0.1305728264203625,0.0089510296174972,-0.2574122251450629
9.589999999999996,0.1131887736503443,-0.0038073846543756,-0.2599888242709051
9.6,0.0946746277273748,-0.0232452959583206,-0.2678481436035462
9.610000000000008,0.0861626826476117,-0.0368570351480658,-0.2800833867677736
9.619999999999996,0.094654915244802,-0.0426624204540473,-0.2796245842679853
9.630000000000004,0.1239002520833408,-0.0404496571691746,-0.2680655757326572
9.640000000000008,0.1334630181283823,-0.0333456174939192,-0.2498500535694198
9.65,0.0810780233999866,-0.0483288076506136,-0.21247891034387
9.660000000000004,-0.0075065673756131,-0.0881310362916398,-0.1588153772810659
9.670000000000009,-0.0460617918144898,-0.1174256860944411,-0.1059739533564285
9.68,-0.0258838584580222,-0.1324161868526037,-0.0690084579654894
9.690000000000005,0.0195804197307477,-0.1345260109424788,-0.0475105218220985
9.699999999999996,0.0743613794601447,-0.1290623083487793,-0.0328829146860623
9.71,0.1162275660031441,-0.1238863630629779,-0.016619786684275
9.720000000000006,0.1653295066516382,-0.1109900379300492,-0.0019166934526271
9.729999999999997,0.1936081402960131,-0.0945433095447491,-0.0002845588891441
9.740000000000002,0.2049271802595709,-0.082370464033727,0.0018361205437172
9.750000000000009,0.1930094707978552,-0.0763749678851713,0.0101367598896121
9.759999999999998,0.1708377592103925,-0.0784664830312321,0.0239733715551055
9.770000000000003,0.1545517602152757,-0.0868272393965175,0.0374831660240228
9.780000000000008,0.1367587574141547,-0.0999179732021811,0.0485531767448723
9.79,0.1139407831092743,-0.1166908928795067,0.0656957395698851
9.800000000000004,0.0791312649713617,-0.1356484402981761,0.0902537939404439
9.81000000000001,0.0329372787490525,-0.1658886507691941,0.121576394666272
9.82,-0.0041775195187069,-0.1917775329688913,0.1567926298165775
9.830000000000004,-0.0146958605190993,-0.2149352103709711,0.19047796215897
9.839999999999996,0.0002863183081601,-0.23061783806849,0.2176972360864331
9.85,0.0418619647353058,-0.2502419367247272,0.2371431506747202
9.860000000000008,0.0802589092228505,-0.2702815313101754,0.2505395940290797
9.869999999999996,0.0944235142945164,-0.2948534831693544,0.2558342323053835
9.880000000000004,0.0549707807242455,-0.3219125765497875,0.2538801973118622
9.890000000000008,-0.0131050581038399,-0.3600918847851312,0.2449729347562985
9.9,-0.0558146305302692,-0.3913631671761403,0.2409232424383989
9.910000000000004,-0.0783970832753072,-0.421147395234098,0.2413534047511331
9.920000000000009,-0.0945818328366532,-0.4444014779850089,0.2464835458083481
9.93,-0.1149633376128811,-0.4592633105307047,0.2598331918049344
9.940000000000005,-0.1399500562834512,-0.4824355639254066,0.2611389187335468
9.949999999999996,-0.1634421519941645,-0.4939492079917447,0.2626490841932243
9.96,-0.166517128924801,-0.508103253283057,0.2664173397082555
9.970000000000006,-0.158575818239434,-0.5114209534697761,0.2699519985819111
9.979999999999997,-0.1512771218530479,-0.5139408481972763,0.2718795058258959
9.990000000000002,-0.1448920235445566,-0.5043314077368797,0.2623949328542223
10.000000000000009,-0.1488069245007376,-0.4898676438470336,0.2523820386995917
10.009999999999998,-0.1569416822611388,-0.4743708594011667,0.2455660156887896
10.020000000000003,-0.1606165796505119,-0.4563271229340124,0.2416655240664546
10.030000000000008,-0.163015203575967,-0.4249669502287381,0.2383849661836955
10.04,-0.1717243936324897,-0.394081320872949,0.2332806993147379
10.050000000000004,-0.1855756872604295,-0.3590785861612795,0.2303403323688634
10.06000000000001,-0.1946955262409994,-0.3294153927311584,0.2246619447572137
10.07,-0.1825712400233626,-0.2955150720634779,0.2196668675545313
10.080000000000004,-0.1684038744888639,-0.2618644141670778,0.2250129413516782
10.089999999999996,-0.1589902877456774,-0.2275215358859779,0.2268262448484259
10.1,-0.1604987560335931,-0.1923450869710453,0.2218772487513548
10.110000000000008,-0.17526298098518,-0.1538635093259821,0.2047828913607749
10.119999999999996,-0.1976443018943042,-0.116925590289256,0.1794612660381099
10.130000000000004,-0.1973886545921302,-0.0902309393375674,0.1696248160010418
10.140000000000008,-0.1942129439618809,-0.062493118642779,0.1686687445235413
10.15,-0.1794821076930817,-0.0449714039331196,0.1765803967703859
10.160000000000004,-0.157268125673819,-0.0297948041274703,0.1841784412905465
10.170000000000009,-0.1386699521526791,-0.0123799453827143,0.1874527384554131
10.18,-0.1290317593591655,0.0092525674764473,0.1852505591245977
10.190000000000005,-0.1191409731681745,0.0365263065968092,0.1714738548731464
10.199999999999996,-0.1118393139348707,0.0693716767504105,0.1575152540818787
10.21,-0.1217344615388203,0.1063482088802445,0.1412116955782527
10.220000000000006,-0.1259021360812242,0.1429916196955419,0.1262709240417474
10.229999999999997,-0.113659042052563,0.1785763015030624,0.1122498416820378
10.240000000000002,-0.0760393723760898,0.2104142959741999,0.107165634056673
10.250000000000009,-0.0387831102748055,0.2410048475569494,0.10622482344703
10.259999999999998,0.0171931097776265,0.2836279475526592,0.1174745110215683
10.270000000000003,0.0525487216357591,0.3342561338301859,0.1337615730516382
10.280000000000008,0.0681648580619013,0.3793901282288907,0.1450562954275104
10.29,0.0689629245609401,0.424250673832018,0.1500000948535782
10.300000000000004,0.0651548488372445,0.4633726088170433,0.1455846511284346
10.31000000000001,0.0637537459389478,0.5009891883728088,0.1445466403975949
10.32,0.0658898835703463,0.5259143649223564,0.14977904496621
10.330000000000004,0.0657965649063247,0.5509093227594316,0.1530247640660172
10.339999999999996,0.069751219705684,0.5668534069150928,0.1603950295405106
10.35,0.0826951364487434,0.5803947135585718,0.171635115403783
10.360000000000008,0.0900268384232927,0.5791277382960306,0.1834713258976661
10.369999999999996,0.0917359523962011,0.5729144839436874,0.2032468502278088
10.380000000000004,0.1026084727219469,0.5568070125449006,0.2229795968946427
10.390000000000008,0.1139030980542966,0.5366276575302056,0.2414088461920603
10.4,0.1373094610683459,0.5142155324281747,0.2552079303024354
10.410000000000004,0.1526912360135837,0.4824293333512069,0.2558318839335989
10.420000000000009,0.1900799409151978,0.4478455146739276,0.2534620555329935
10.43,0.2258255609832218,0.4092333922239624,0.2422467527957649
10.440000000000005,0.2186468131696825,0.3769377841247147,0.230889177512239
10.449999999999996,0.1963905876361792,0.3454369123253105,0.2152357170349043
10.46,0.172580921784817,0.3154820558538727,0.2006367123165983
10.470000000000006,0.1598001875836512,0.2775541108137172,0.1810064787343958
10.479999999999997,0.1477219729543105,0.2404580256379544,0.1623163123741132
10.490000000000002,0.1420217342709453,0.2039774396066536,0.136483863960368
10.500000000000009,0.1433498371042218,0.1686258621169856,0.1132464151702705
10.509999999999998,0.1319305257179046,0.1281931783094357,0.085650474823238
10.520000000000003,0.1193414302004341,0.0949563473235809,0.0475007015854608
10.530000000000008,0.1064362014056029,0.0714532950400012,-0.0019515649203769
10.54,0.0844206258296258,0.0475102243648868,-0.055903179893458
10.550000000000004,0.0686522715583239,0.0315711418589464,-0.1179157951239379
10.56000000000001,0.0511336886703312,0.015112970018812,-0.1777687108356401
10.57,0.0383506102112626,0.0037455833422566,-0.2333191447274021
10.580000000000004,0.0234371981288123,-0.0125234168823642,-0.2862560484372715
10.589999999999996,0.0092559411588246,-0.0265114656444589,-0.3207325126186236
10.6,-0.0158122307390877,-0.0442541311877273,-0.3510459191862469
10.610000000000008,-0.0309925548988237,-0.0608236666922832,-0.3767496024826425
10.619999999999996,-0.0455660672236352,-0.0768918320885943,-0.4023991254823405
10.630000000000004,-0.0542443936152153,-0.0906602090438073,-0.4253125753555785
10.640000000000008,-0.0634903344186411,-0.101999396292965,-0.4407564043770643
10.65,-0.0690061914741086,-0.1153752654043357,-0.450433990307849
10.660000000000004,-0.0755107752787326,-0.1232826414781064,-0.4499057932856223
10.670000000000009,-0.081526827658463,-0.1300930008309061,-0.4449703803201361
10.68,-0.070458160957981,-0.1303530979716473,-0.4404492537657213
10.690000000000005,-0.0410260716376401,-0.1342396908636038,-0.4403089785058747
10.699999999999996,-0.0109482360765583,-0.1311715721487057,-0.4390744326936894
10.71,0.0005154480376468,-0.1188777878544687,-0.4366579463711212
10.720000000000006,0.017141613605199,-0.1120829520691108,-0.4299764715788753
10.729999999999997,0.044090132885877,-0.103121339846773,-0.4256636224635272
10.740000000000002,0.091803426071526,-0.0964961847637811,-0.4104789688567109
10.750000000000009,0.1199282146126252,-0.0901706600260673,-0.3721152804044768
10.759999999999998,0.1222425073100307,-0.0639147848646381,-0.2967551501014334
10.770000000000003,0.2156833455280775,-0.0376289531193143,-0.2353849591353434
10.780000000000008,0.2660475469307491,-0.0145415075786633,-0.2140500702124591
10.79,0.3000714884551677,0.0160581677519618,-0.204886467064666
10.800000000000004,0.3188602546083752,0.0496726906992057,-0.2018724391808434
10.81000000000001,0.3095428458188975,0.0891599104744427,-0.206273991340737
10.82,0.2998734009968498,0.1256999981188114,-0.2074489627145596
10.830000000000004,0.2634053155925769,0.158757110382091,-0.2024556826861133
10.839999999999996,0.2300926127304891,0.1804709179421123,-0.1949773487556149
10.85,0.1955382710970815,0.1962705926966199,-0.1865198316083588
10.860000000000008,0.1643322632841839,0.2185914757174299,-0.1814290535411164
10.869999999999996,0.1609242356389416,0.2320069914347662,-0.1751110566481469
10.880000000000004,0.161794685676163,0.2494037870600468,-0.1663427422142946
10.890000000000008,0.1636709797062684,0.2549773569752638,-0.1652270982219203
10.9,0.1590116348010913,0.261793710127005,-0.1653292875444541
10.910000000000004,0.1451064185305844,0.2634961140912682,-0.1725074922070496
10.920000000000009,0.1247130839902257,0.2581761845846265,-0.1875976026050312
10.93,0.0987324608032397,0.2547916993599546,-0.2063232903619728
10.940000000000005,0.0775740817430919,0.256771073070953,-0.2300461646308551
10.949999999999996,0.0534911734999611,0.2583721740338946,-0.2516553365609228
10.96,0.0395548019359372,0.2648311454144796,-0.2789968649897384
10.970000000000006,0.0286721260485616,0.2693579165609795,-0.2985968899156875
10.979999999999997,0.026369832124571,0.2800382292285767,-0.3207492207530801
10.990000000000002,0.03024531271493,0.2901008711434258,-0.3312277297901159
11.000000000000009,0.0388566688955461,0.2930346843334012,-0.3365833102800794
11.009999999999998,0.0525500061547837,0.2909562204267839,-0.338809892747734
11.020000000000003,0.0540822645504475,0.2824709039823923,-0.3360836331069289
11.030000000000008,0.0493555141091989,0.2760231059633225,-0.3292831003898327
11.04,0.0422193091506638,0.2660144189237468,-0.3241661556755681
11.050000000000004,0.0271566929752815,0.2556309435985759,-0.3101875171854094
11.06000000000001,0.0153876828320302,0.25340468358293,-0.2925858116175208
11.07,0.0074669595576245,0.2459525293807983,-0.2840725167804395
11.080000000000004,0.0037543864284568,0.2434423299144638,-0.2680381416080757
11.089999999999996,0.005951374001137,0.2337083747783622,-0.2465107268881641
11.1,0.0136481268571997,0.2182949802941983,-0.2222915772977021
11.110000000000008,0.0215369753886236,0.2008461878502052,-0.1939005637159387
11.119999999999996,0.0266158873087598,0.1785087955030915,-0.1620027447463864
11.130000000000004,0.0271918938386008,0.1543401896684061,-0.1333993673531847
11.140000000000008,0.0221365666498757,0.136955278582492,-0.1081936733529423
11.15,0.017613505630044,0.1196642542916939,-0.0853359151652739
11.160000000000004,-0.0014365347638041,0.1018971110336173,-0.0618391967069399
11.170000000000009,-0.0246782799356006,0.0857184940353545,-0.0441619390528835
11.18,-0.0351076317798983,0.0651825490006497,-0.0316254497018388
11.190000000000005,-0.0370497481517977,0.0515350041364521,-0.0244050558683607
11.199999999999996,-0.0325890962429837,0.0310633165413841,-0.0172255359919709
11.21,-0.0284129616260929,0.0184099015280019,-0.0112891615327146
11.220000000000006,-0.0337947951464973,0.0055212472607062,-0.0098845544592306
11.229999999999997,-0.0390135803871591,-0.0059947661271815,-0.0081965547751201
11.240000000000002,-0.0478848738772389,-0.0136884605119346,-0.002928885738392
11.250000000000009,-0.0493463867010043,-0.017893481439575,-0.0078535268207353
11.259999999999998,-0.0507016940825852,-0.02204053995773,-0.0124116923788807
11.270000000000003,-0.0534854467525865,-0.0287835634491273,-0.0223164595562823
11.280000000000008,-0.0488082607125253,-0.0309908761986959,-0.027054891783321
11.29,-0.0571753263974009,-0.0347202636730232,-0.0359182067238444
11.300000000000004,-0.0593559015382182,-0.0322433199378226,-0.0452153707296541
11.31000000000001,-0.0663969369770717,-0.0262809164021536,-0.0578287485826023
11.32,-0.0715917473069834,-0.0227147671869781,-0.0761859446708853
11.330000000000004,-0.0653315245586873,-0.020873715321858,-0.086557000178751
11.339999999999996,-0.0553224492406856,-0.0172816541942271,-0.0963788570389647
11.35,-0.0365665906178171,-0.0156691182609965,-0.1119638968497866
11.360000000000008,-0.0320842949023439,-0.0109880492108701,-0.1195788704774825
11.369999999999996,-0.0270711916644279,-0.0039442775638096,-0.1268960993991032
11.380000000000004,-0.0226300945487419,-0.0042472164136688,-0.1406072347308075
11.390000000000008,-0.0196550489442054,-0.000590089854697,-0.1523266786200846
11.4,-0.0205762909563797,0.00290195953246,-0.1634567286805416
11.410000000000004,-0.0202133483233409,0.0046893860004866,-0.1735881180378987
11.420000000000009,-0.0163709516101539,0.0067381756956431,-0.1765234741816033
11.43,-0.0116207018013663,0.0075240719179348,-0.1725269205840123
11.440000000000005,-0.0021782408655395,0.0102744567477619,-0.1676173565625881
11.449999999999996,0.0077114962159882,0.0056085327010368,-0.1648026018429052
11.46,0.0204137020716421,0.0013309893345509,-0.1640148186527252
11.470000000000006,0.0236729430298802,-2.5979055612454183e-05,-0.1697776498580241
11.479999999999997,0.0272683351478847,-0.0042017724013216,-0.1755328080115917
11.490000000000002,0.0221839293082786,-0.0090672158014442,-0.1759343393134217
11.500000000000009,0.0258430034514879,-0.0151426111988889,-0.17101139568515
11.509999999999998,0.0242966855618331,-0.0245334497865236,-0.1683668115911081
11.520000000000003,0.0236182909371134,-0.0331268555654526,-0.1647999288290808
11.530000000000008,0.0253291065271581,-0.0453065968590797,-0.1627916772495527
11.54,0.0299349569353839,-0.0543660738628731,-0.1610875278646224
11.550000000000004,0.0331347941022748,-0.0622810698642028,-0.1588222551398795
11.56000000000001,0.0371764203690504,-0.0689316497556932,-0.1485532072267009
11.57,0.0439302514207691,-0.0762007717619936,-0.1455032960442317
11.580000000000004,0.0456075720894581,-0.0768763530476547,-0.1342349290639186
11.589999999999996,0.0416253703850471,-0.0784046618459218,-0.1293574341329781
11.6,0.0361063159501821,-0.0765629817230802,-0.1230201642757198
11.610000000000008,0.02847691387739,-0.0723621303366287,-0.1113615886146973
11.619999999999996,0.0252961800441296,-0.0625203011685072,-0.1017868133877255
11.630000000000004,0.015513615972664,-0.0547049789396462,-0.0920353258816397
11.640000000000008,0.0141300646243504,-0.0416929650587881,-0.0819786811653699
11.65,0.0196229049880223,-0.0344046258030332,-0.0665504546996872
11.660000000000004,0.0301777074737623,-0.0254299717051748,-0.0562042400760736
11.670000000000009,0.0341156289646197,-0.0174994994134791,-0.0469001201324485
11.68,0.0391600928146618,-0.0099955685389342,-0.0358968648137037
11.690000000000005,0.0405425678377937,-0.0044139600606727,-0.0246437597815157
11.699999999999996,0.0406479388584199,-0.0017569834828933,-0.0176357037507897
11.71,0.0437359703827527,0.0004346380431476,-0.0071371156258368
11.720000000000006,0.0365376197332137,-0.0018020226762965,-0.0026908590521084
11.729999999999997,0.0299432724484866,0.0049930082581094,0.0037263152049358
11.740000000000002,0.021116544632595,0.010826571979083,0.0125148683246001
11.750000000000009,0.0221293694560872,0.0138629816371071,0.0205446290786613
11.759999999999998,0.0163494833328205,0.0200092361038606,0.0222764372761545
11.770000000000003,0.0090481199987564,0.0205055787904919,0.0233217169913764
11.780000000000008,0.0024573791106475,0.0221462714600726,0.0288520403397485
11.79,-0.0041227601051294,0.0233396280704545,0.0325119786151786
11.800000000000004,-0.012548645257841,0.0217536634105096,0.0342504834097821
11.81000000000001,-0.0204009419438538,0.0172653631322472,0.0347172396719928
11.82,-0.0265484118740755,0.0165354191813507,0.0387736657181771
11.830000000000004,-0.0301693103159398,0.0135228051674051,0.0464393331832068
11.839999999999996,-0.0330753495466286,0.0125287107096156,0.0504378801749268
11.85,-0.0326275717147118,0.0111980446064037,0.0595348303977961
11.860000000000008,-0.0321325715264297,0.0086005474411904,0.061019658244822
11.869999999999996,-0.0321324649594188,0.0118059127029902,0.061809150454014
11.880000000000004,-0.0337962342142417,0.0120658250891037,0.0637989666314463
11.890000000000008,-0.0370322086046423,0.0107647010714447,0.0624615999959458
11.9,-0.0324670341478472,0.0173917553887187,0.0652535890190113
11.910000000000004,-0.0314275067027172,0.02016047161811,0.0666094649388998
11.920000000000009,-0.035051371720529,0.0250115149145775,0.0665267538421547
11.93,-0.0385916794027927,0.0291598854410098,0.069404172315624
11.940000000000005,-0.0362344804914178,0.0256362586046066,0.071268191407674
11.949999999999996,-0.0339764756953457,0.0270387536335331,0.0683744976616591
11.96,-0.0267967602591312,0.0252908429726484,0.0730023680411532
11.970000000000006,-0.0234456638390317,0.0228965443519282,0.0772205664436833
11.979999999999997,-0.0172066311180294,0.0264326015181067,0.0811715862031962
11.990000000000002,-0.0200205847709282,0.0243340548754272,0.0853506545717708
12.000000000000009,-0.0238187781950928,0.0178846467367694,0.0884217890694617
12.009999999999998,-0.0276045436694369,0.0194671365530724,0.0856863011380867
12.020000000000003,-0.0245139726847476,0.0160516194695858,0.0936006064177215
12.030000000000008,-0.0176364084689922,0.0181614021922421,0.0927014185395636
12.04,-0.016191896363851,0.0147556408582266,0.0957971241969426
12.050000000000004,-0.0158554748011747,0.0113183219519681,0.0953885965994311
12.06000000000001,-0.0149311508426748,0.0081384295746214,0.0903678319872487
12.07,-0.0168237014724348,0.004919099141029,0.0852124515889475
12.080000000000004,-0.0158037996683682,0.0021475804904441,0.0759218922127411
12.089999999999996,-0.0157183669736453,-0.0015801925395683,0.0688303308457283
12.1,-0.0172822992998972,-0.0078150492963359,0.0613419158240989
12.110000000000008,-0.0211165293471702,-0.0108261913085881,0.0567364530406264
12.119999999999996,-0.0229418386532677,-0.0137321236668652,0.0499005341797946
12.130000000000004,-0.0210217358213675,-0.0182150040746656,0.0485979721325123
12.140000000000008,-0.0250505966157572,-0.0181411255176227,0.0447264036261845
12.15,-0.0245401223858424,-0.0246808250359062,0.0376001013780337
12.160000000000004,-0.0223161022791568,-0.0244353377196414,0.0386556687273091
12.170000000000009,-0.0216551378498632,-0.0204479897955474,0.0375317649985157
12.18,-0.0254118818945722,-0.0209926625862541,0.0330091480441251
12.190000000000005,-0.0317504271520511,-0.0180037848984554,0.0325844405380506
12.199999999999996,-0.036893173592549,-0.0130191904158306,0.0282523417557597
12.21,-0.0449329213302874,-0.0091152819861522,0.0265546341578384
12.220000000000006,-0.046729656150158,-0.0041090573116945,0.0268451475102615
12.229999999999997,-0.0502339942322659,0.0009616626923957,0.0268105587991849
12.240000000000002,-0.0519528166537576,0.0077293964225059,0.0251877511718458
12.250000000000009,-0.051589415859303,0.0141732914621561,0.0278791346988261
12.259999999999998,-0.0563447109296877,0.0166225761273467,0.0274819596512636
12.270000000000003,-0.0461570480963736,0.0232609478543078,0.0296482128178113
12.280000000000008,-0.0394472441766183,0.0194872937283998,0.0321978287599336
12.29,-0.0281286121455943,0.0234518253168923,0.0368399411835383
12.300000000000004,-0.0199330669641242,0.0182108274194645,0.0460141535325301
12.31000000000001,-0.0120470695246078,0.0152120898346868,0.0527928211531173
12.32,-0.0049954844393549,0.0103009978551792,0.0562873640102185
12.330000000000004,-0.0040299726502891,0.004535730941309,0.0570324416732144
12.339999999999996,-0.002812101741299,0.0019180354925512,0.05789607988756
12.35,-0.0091843414511914,-0.0010235278975357,0.0571477024422611
12.360000000000008,-0.0076922636612924,-0.0056588638789673,0.0535139115108975
12.369999999999996,-0.0098291164044544,-0.0080222523704966,0.0471686768582066
12.380000000000004,-0.0090114464024625,-0.0067228621488447,0.0419168969518406
12.390000000000008,-0.0087890812121025,-0.0085823319088698,0.039548270651317
12.4,-0.0112264620831872,-0.0128644510422716,0.0348897118811548
12.410000000000004,-0.0107812063572589,-0.0146969797003666,0.0309051505409205
12.420000000000009,-0.0144961598736943,-0.0208787540936561,0.0273083066966689
12.43,-0.0161396810480351,-0.0245465576010362,0.0239093624715967
12.440000000000005,-0.0212023488769472,-0.0261253493175648,0.0184576114655527
12.449999999999996,-0.0233084224316577,-0.0290030911845015,0.0149391164998717
12.46,-0.0229959506369163,-0.0309860899266571,0.012725664206889
12.470000000000006,-0.0209169059397446,-0.030195728245411,0.0100389833775056
12.479999999999997,-0.0185299717614,-0.0316603354020682,0.0068903679178883
12.490000000000002,-0.015413411518864,-0.0332775675912468,0.0053898387061067
12.500000000000009,-0.0088869223304616,-0.0337388558264604,0.0058472953696491
12.509999999999998,-0.0041883219373293,-0.033364105031526,0.0071729298533092
12.520000000000003,0.0031909883544064,-0.0349144908369436,0.0044723698610129
12.530000000000008,0.0063611283472937,-0.0302120150978957,0.00082250300984
12.54,0.0070833818608547,-0.0277821949083206,-0.0012608255977379
12.550000000000004,0.0060041849454739,-0.0214798659469775,-0.0069966159701618
12.56000000000001,0.0001002080374754,-0.0165030735992168,-0.009204449192616
12.57,0.0032173238560238,-0.0118369743279981,-0.0096872060392679
12.580000000000004,0.0102158147272638,-0.0029012216982823,-0.0146094777768736
12.589999999999996,0.0112981064797767,0.0035384291101231,-0.0191035697557282
12.6,0.021339307763585,-0.0006254507458055,-0.0205318955252507
12.610000000000008,0.0244404317159818,0.0053338058148878,-0.0263456210245077
12.619999999999996,0.0315470145234744,0.0095824286779358,-0.0291184628559441
12.630000000000004,0.0354069882021402,0.0067483077460095,-0.0340293946746318
12.640000000000008,0.0371824341267377,0.0118227721900953,-0.0382441943367908
12.65,0.0322600288101938,0.0154760869687603,-0.0459706057632279
12.660000000000004,0.0348657369059339,0.0190702777156152,-0.0478856816535998
12.670000000000009,0.0349530859366604,0.023516067525064,-0.0504609251115184
12.68,0.0318294424894242,0.0286818636133356,-0.0551104549633627
12.690000000000005,0.0314217798308594,0.0309155937122956,-0.0609487105586936
12.699999999999996,0.031723992396565,0.0367825830107597,-0.0641940520227011
12.71,0.0328521217043997,0.0420811769849977,-0.0664605061498051
12.720000000000006,0.0294792677446049,0.0434923061590993,-0.0722288216066724
12.729999999999997,0.0303320598598202,0.0492710587082015,-0.074092484495636
12.740000000000002,0.0224800707709542,0.0543578858815296,-0.0738959261793689
12.750000000000009,0.0175441862640694,0.0487472948612003,-0.0737690689864979
12.759999999999998,0.0147773261170758,0.0471702815313749,-0.0732271794530959
12.770000000000003,0.0122968489051072,0.0406803948006051,-0.0704306365522166
12.780000000000008,0.0161939446768899,0.0304775898319096,-0.067560194318639
12.79,0.0271748528904573,0.0286966591516377,-0.0696311238692861
12.800000000000004,0.0315487652636915,0.0240949295440115,-0.0679970339365389
