time,Gyr_X,Gyr_Y,Gyr_Z
0.0,0.001725,0.000458,0.007569
0.0024999999999977,0.002224,0.00281,0.009822
0.0049999999999954,0.001965,0.002795,0.011732
0.0075000000000216,0.002252,0.00143,0.010271
0.0100000000000193,0.001176,-0.000265,0.006596
0.012500000000017,-0.002374,0.001306,0.012284
0.0150000000000147,0.001775,0.002179,0.009286
0.0175000000000125,0.002738,0.001539,0.010807
0.0200000000000102,0.000366,0.002452,0.007939
0.0225000000000079,0.001682,0.002869,0.009575
0.0250000000000056,0.002255,0.000576,0.010184
0.0275000000000034,-7.6e-05,-0.00111,0.011269
0.0300000000000011,0.001038,0.001445,0.009444
0.0324999999999988,0.003893,0.000525,0.007153
0.0349999999999965,-0.000805,6.6e-05,0.006681
0.0374999999999943,0.002859,0.004942,0.010733
0.0400000000000204,0.001172,0.000595,0.007591
0.0425000000000181,0.001644,0.002126,0.009001
0.0450000000000159,0.001224,0.002172,0.012156
0.0475000000000136,0.003099,0.004592,0.01312
0.0500000000000113,0.002677,0.003164,0.009582
0.052500000000009,0.000887,0.001637,0.008931
0.0550000000000068,-0.001712,0.003888,0.011376
0.0575000000000045,0.003295,0.00357,0.009208
0.0600000000000022,0.000366,0.002915,0.007378
0.0625,-0.003888,0.003814,0.009165
0.0649999999999977,0.00089,0.004538,0.011129
0.0674999999999954,0.004033,0.005034,0.011715
0.0700000000000216,0.001357,0.004954,0.010974
0.0725000000000193,0.001922,0.006016,0.010435
0.075000000000017,0.001065,0.001206,0.008864
0.0775000000000147,0.000293,0.00383,0.011422
0.0800000000000125,0.002585,0.001513,0.008564
0.0825000000000102,0.000142,0.001053,0.008034
0.0850000000000079,0.001397,0.000795,0.009992
0.0875000000000056,0.003875,0.000482,0.009074
0.0900000000000034,0.001448,0.003638,0.008275
0.0925000000000011,0.000735,0.002588,0.006665
0.0949999999999988,4.5e-05,0.001181,0.010804
0.0974999999999965,0.001583,0.000972,0.007371
0.0999999999999943,0.000796,0.003123,0.007194
0.1025000000000204,-0.001009,-0.000502,0.008263
0.1050000000000181,-3.4e-05,0.001413,0.012756
0.1075000000000159,0.00188,0.003683,0.008207
0.1100000000000136,-0.000268,-0.001855,0.01113
0.1125000000000113,0.000689,0.001816,0.008027
0.1150000000000091,0.00063,0.001485,0.010038
0.1175000000000068,0.00303,0.004195,0.011315
0.1200000000000045,0.00088,0.002404,0.009876
0.1225000000000022,0.001409,0.000296,0.010384
0.125,-0.000584,0.002029,0.008724
0.1274999999999977,-0.002469,0.005024,0.013263
0.1299999999999954,-0.00053,0.006121,0.012084
0.1325000000000216,0.001863,0.003564,0.01389
0.1350000000000193,0.000492,0.00656,0.014811
0.137500000000017,0.001352,0.007292,0.011566
0.1400000000000147,-0.000305,0.003787,0.009231
0.1425000000000125,0.002869,0.004626,0.010114
0.1450000000000102,0.000188,0.001196,0.011223
0.1475000000000079,-0.001657,0.001561,0.008491
0.1500000000000056,-0.001837,0.003291,0.010949
0.1525000000000034,0.002167,0.004379,0.008544
0.1550000000000011,0.001771,0.001621,0.011479
0.1574999999999988,0.002208,0.001613,0.012866
0.1599999999999966,0.003106,0.00147,0.008731
0.1624999999999943,0.005255,0.001695,0.008697
0.1650000000000204,0.002613,-0.000535,0.009888
0.1675000000000182,0.000932,0.001036,0.010388
0.1700000000000159,0.003507,0.002935,0.005893
0.1725000000000136,5.6e-05,0.002594,0.010907
0.1750000000000113,-0.001271,0.001634,0.011671
0.1775000000000091,0.002309,0.000349,0.011461
0.1800000000000068,-0.000846,0.005925,0.010719
0.1825000000000045,0.000813,0.001676,0.008547
0.1850000000000022,-0.001483,0.00541,0.00822
0.1875,0.000695,0.003662,0.008807
0.1899999999999977,0.002833,0.003526,0.009186
0.1924999999999954,0.002351,0.007007,0.008821
0.1950000000000216,0.00205,0.00539,0.009909
0.1975000000000193,0.00122,0.005464,0.007928
0.200000000000017,-0.000443,0.006344,0.006898
0.2025000000000147,0.001194,0.001483,0.008582
0.2050000000000125,-0.000335,0.008454,0.007496
0.2075000000000102,0.004093,0.008575,0.006511
0.2100000000000079,0.002214,0.008716,0.00507
0.2125000000000056,0.001998,0.008965,0.004373
0.2150000000000034,0.002383,0.010069,0.005581
0.2175000000000011,-0.00017,0.010788,0.006519
0.2199999999999988,-6e-06,0.008994,0.001942
0.2224999999999966,0.003029,0.008016,0.004999
0.2249999999999943,0.001318,0.01333,0.002269
0.2275000000000204,0.00094,0.01606,0.005902
0.2300000000000182,0.002969,0.014021,0.004246
0.2325000000000159,0.001729,0.019296,0.006584
0.2350000000000136,0.00327,0.017682,0.006584
0.2375000000000113,0.000332,0.016951,0.006822
0.2400000000000091,-0.000435,0.01872,0.006865
0.2425000000000068,8e-05,0.018712,0.007475
0.2450000000000045,0.001621,0.018785,0.005799
0.2475000000000022,-0.000589,0.021989,0.010074
0.25,-0.000514,0.022227,0.007973
0.2524999999999977,0.00534,0.02001,0.006818
0.2549999999999954,0.00561,0.019053,0.009323
0.2575000000000216,0.000421,0.023153,0.008359
0.2600000000000193,0.00118,0.024475,0.00903
0.262500000000017,0.002532,0.023832,0.009441
0.2650000000000148,0.000902,0.024009,0.009007
0.2675000000000125,0.00097,0.028268,0.009967
0.2700000000000102,-0.001386,0.022755,0.006466
0.2725000000000079,0.003878,0.024913,0.007009
0.2750000000000057,0.000293,0.026206,0.008405
0.2775000000000034,0.002929,0.026347,0.007119
0.2800000000000011,0.003607,0.026207,0.006158
0.2824999999999988,-0.001882,0.024868,0.009612
0.2849999999999966,-0.001283,0.024927,0.009859
0.2874999999999943,-0.002854,0.024665,0.009485
0.2900000000000204,-0.000407,0.027261,0.008198
0.2925000000000182,0.001395,0.028492,0.008365
0.2950000000000159,0.001537,0.028638,0.010087
0.2975000000000136,0.002109,0.02666,0.008968
0.3000000000000113,0.002982,0.026263,0.011138
0.3025000000000091,0.001884,0.021791,0.011864
0.3050000000000068,0.003027,0.019702,0.012826
0.3075000000000045,0.004012,0.023372,0.012498
0.3100000000000023,0.002562,0.017492,0.011239
0.3125,0.004225,0.01721,0.011194
0.3149999999999977,0.004875,0.011962,0.014838
0.3174999999999954,0.001655,0.013687,0.011273
0.3200000000000216,0.001157,0.009704,0.012033
0.3225000000000193,0.001105,0.004455,0.012843
0.325000000000017,0.000872,0.00231,0.016821
0.3275000000000148,0.003459,-0.002116,0.015017
0.3300000000000125,0.002191,-0.004503,0.01493
0.3325000000000102,0.001725,-0.005017,0.014352
0.3350000000000079,0.001021,-0.004174,0.015476
0.3375000000000057,0.003327,-0.010893,0.016078
0.3400000000000034,-0.00197,-0.011753,0.015412
0.3425000000000011,0.000153,-0.014223,0.016036
0.3449999999999988,-0.003941,-0.017327,0.015721
0.3474999999999966,-0.002101,-0.016373,0.016426
0.3499999999999943,0.001236,-0.019355,0.01455
0.3525000000000204,0.000837,-0.018343,0.015422
0.3550000000000182,0.000752,-0.021127,0.013541
0.3575000000000159,-0.000776,-0.02521,0.01315
0.3600000000000136,0.002734,-0.024883,0.013036
0.3625000000000113,-0.000663,-0.023554,0.015353
0.3650000000000091,0.001238,-0.019495,0.012063
0.3675000000000068,-0.001054,-0.026086,0.012495
0.3700000000000045,-0.000392,-0.02328,0.010935
0.3725000000000023,-0.004201,-0.024088,0.014066
0.375,0.00094,-0.023928,0.010698
0.3774999999999977,-0.001861,-0.02294,0.012324
0.3799999999999954,-0.002471,-0.019458,0.012412
0.3825000000000216,-0.002244,-0.019111,0.009824
0.3850000000000193,0.000847,-0.019103,0.010365
0.387500000000017,-0.00072,-0.020939,0.011394
0.3900000000000148,-0.00421,-0.014786,0.01092
0.3925000000000125,-0.006072,-0.016157,0.012831
0.3950000000000102,-0.001961,-0.017555,0.016236
0.3975000000000079,0.000485,-0.012778,0.011765
0.4000000000000057,-5.5e-05,-0.013442,0.01254
0.4025000000000034,-0.000218,-0.009221,0.012805
0.4050000000000011,-0.001581,-0.011651,0.012114
0.4074999999999988,0.001507,-0.00864,0.010072
0.4099999999999966,0.001546,-0.003579,0.013054
0.4124999999999943,-0.002189,-0.007287,0.007574
0.4150000000000204,0.000849,-0.003822,0.012513
0.4175000000000182,-0.000696,-0.004564,0.012185
0.4200000000000159,0.001451,-0.001596,0.01303
0.4225000000000136,0.000194,-0.001694,0.014972
0.4250000000000113,0.001445,-0.002153,0.011531
0.4275000000000091,-0.001439,-0.003123,0.013775
0.4300000000000068,-0.001393,-0.002365,0.017156
0.4325000000000045,-0.00321,-0.003245,0.011844
0.4350000000000023,-0.000608,-0.002266,0.014066
0.4375,-0.001808,-0.001763,0.014669
0.4399999999999977,-0.000995,0.00051,0.014394
0.4424999999999954,0.001652,-0.003698,0.016017
0.4450000000000216,0.004152,-0.000556,0.017171
0.4475000000000193,0.002312,0.00112,0.016148
0.450000000000017,-0.001703,0.002613,0.015891
0.4525000000000148,-0.001402,-0.002192,0.018904
0.4550000000000125,0.002847,-0.000899,0.015853
0.4575000000000102,0.000619,0.00212,0.017545
0.4600000000000079,0.001869,0.003088,0.020843
0.4625000000000057,-0.000924,0.004069,0.017355
0.4650000000000034,0.002926,0.002459,0.015726
0.4675000000000011,0.007125,0.000276,0.0144
0.4699999999999988,0.002172,0.002687,0.014656
0.4724999999999966,0.00147,0.004535,0.014431
0.4749999999999943,0.003172,0.006943,0.014407
0.4775000000000204,0.003936,0.001656,0.013844
0.4800000000000182,-0.0012,0.006934,0.012163
0.4825000000000159,-0.000282,0.00725,0.013749
0.4850000000000136,0.003146,0.004204,0.008243
0.4875000000000113,0.001638,0.00541,0.007948
0.4900000000000091,0.001765,0.007018,0.009368
0.4925000000000068,0.001105,0.008208,0.004338
0.4950000000000045,0.002649,0.012418,0.004841
0.4975000000000023,0.004687,0.011646,0.003884
0.5,0.004257,0.008247,0.002351
0.5024999999999977,0.005653,0.00983,0.002452
0.5049999999999955,0.004788,0.011327,0.004975
0.5075000000000216,0.007679,0.012159,0.002549
0.5100000000000193,0.0048,0.011728,0.000616
0.512500000000017,0.004437,0.012495,0.003634
0.5150000000000148,0.00485,0.011309,0.004753
0.5175000000000125,0.003815,0.013251,0.002996
0.5200000000000102,0.003231,0.011873,0.002689
0.522500000000008,0.002738,0.013352,0.003781
0.5250000000000057,0.003231,0.008187,0.002334
0.5275000000000034,0.003024,0.010941,0.005179
0.5300000000000011,0.001474,0.011013,0.007726
0.5324999999999989,0.002592,0.011253,0.006255
0.5349999999999966,0.003243,0.007629,0.006741
0.5374999999999943,0.001348,0.009946,0.010165
0.5400000000000205,0.000722,0.010283,0.012249
0.5425000000000182,0.000744,0.010268,0.011811
0.5450000000000159,0.002087,0.006964,0.012118
0.5475000000000136,0.000762,0.011843,0.012755
0.5500000000000114,0.000107,0.008067,0.013005
0.5525000000000091,0.004333,0.007335,0.01514
0.5550000000000068,0.000697,0.008807,0.016364
0.5575000000000045,-0.000907,0.008645,0.016857
0.5600000000000023,0.000533,0.008664,0.01586
0.5625,-0.001174,0.004423,0.01831
0.5649999999999977,0.002982,0.004838,0.017677
0.5674999999999955,-0.003974,0.007024,0.018153
0.5700000000000216,-0.002334,0.005352,0.01866
0.5725000000000193,0.000594,-9.5e-05,0.01877
0.575000000000017,0.001153,0.007167,0.020177
0.5775000000000148,0.000573,0.00326,0.023436
0.5800000000000125,-9.7e-05,0.00071,0.022972
0.5825000000000102,-0.00103,0.00292,0.025562
0.585000000000008,0.001387,0.000376,0.021767
0.5875000000000057,-0.000469,-0.002423,0.027446
0.5900000000000034,-0.001004,-0.00301,0.026967
0.5925000000000011,0.000108,-0.005488,0.030666
0.5949999999999989,0.00209,-0.006896,0.029091
0.5974999999999966,-0.002229,-0.007865,0.032473
0.5999999999999943,-0.000574,-0.009158,0.031134
0.6025000000000205,-0.000155,-0.012216,0.036144
0.6050000000000182,0.001123,-0.013755,0.035103
0.6075000000000159,-6.6e-05,-0.017634,0.036175
0.6100000000000136,0.001114,-0.018582,0.037279
0.6125000000000114,-0.001666,-0.021756,0.03972
0.6150000000000091,-0.004028,-0.025493,0.040784
0.6175000000000068,-0.002447,-0.02739,0.042117
0.6200000000000045,-0.002222,-0.034492,0.041217
0.6225000000000023,-0.001298,-0.037372,0.045697
0.625,-0.000505,-0.03795,0.044157
0.6274999999999977,-0.005373,-0.044297,0.050277
0.6299999999999955,-0.006291,-0.045793,0.051291
0.6325000000000216,-0.002381,-0.049585,0.053831
0.6350000000000193,-0.00529,-0.049691,0.056794
0.637500000000017,-0.011884,-0.048792,0.061963
0.6400000000000148,-0.011513,-0.054479,0.067524
0.6425000000000125,-0.012276,-0.053591,0.067078
0.6450000000000102,-0.012742,-0.056365,0.069327
0.647500000000008,-0.013998,-0.059573,0.076421
0.6500000000000057,-0.014366,-0.057627,0.078195
0.6525000000000034,-0.016673,-0.063901,0.080929
0.6550000000000011,-0.017673,-0.06095,0.083838
0.6574999999999989,-0.019546,-0.058435,0.086544
0.6599999999999966,-0.02095,-0.066903,0.087074
0.6624999999999943,-0.018612,-0.067112,0.091513
0.6650000000000205,-0.023821,-0.063197,0.092765
0.6675000000000182,-0.024715,-0.064489,0.096516
0.6700000000000159,-0.026932,-0.063571,0.100376
0.6725000000000136,-0.027716,-0.067167,0.102826
0.6750000000000114,-0.029306,-0.064719,0.103947
0.6775000000000091,-0.035909,-0.064236,0.107203
0.6800000000000068,-0.035723,-0.060599,0.106356
0.6825000000000045,-0.037993,-0.061886,0.109122
0.6850000000000023,-0.040929,-0.060137,0.110502
0.6875,-0.045478,-0.056362,0.111068
0.6899999999999977,-0.051169,-0.053556,0.117836
0.6924999999999955,-0.056446,-0.04835,0.117231
0.6950000000000216,-0.057605,-0.04358,0.124411
0.6975000000000193,-0.061986,-0.043991,0.128903
0.700000000000017,-0.065078,-0.041367,0.131533
0.7025000000000148,-0.067836,-0.036369,0.135233
0.7050000000000125,-0.07603,-0.033508,0.135489
0.7075000000000102,-0.077298,-0.028397,0.137221
0.710000000000008,-0.078739,-0.027135,0.139373
0.7125000000000057,-0.081228,-0.027284,0.144909
0.7150000000000034,-0.085247,-0.024626,0.145801
0.7175000000000011,-0.085078,-0.016136,0.144785
0.7199999999999989,-0.086538,-0.017433,0.148361
0.7224999999999966,-0.093536,-0.012302,0.151177
0.7249999999999943,-0.09277,-0.017001,0.150611
0.7275000000000205,-0.09326,-0.010754,0.154751
0.7300000000000182,-0.095236,-0.009288,0.153866
0.7325000000000159,-0.097725,-0.004835,0.155459
0.7350000000000136,-0.099139,-0.008337,0.156648
0.7375000000000114,-0.101499,-0.00421,0.159322
0.7400000000000091,-0.101647,-0.006108,0.159603
0.7425000000000068,-0.103284,-0.005181,0.160309
0.7450000000000045,-0.107449,-0.004786,0.160211
0.7475000000000023,-0.111108,-0.002874,0.161565
0.75,-0.113532,-0.000112,0.161629
0.7524999999999977,-0.119658,0.000607,0.162937
0.7549999999999955,-0.127466,0.001516,0.165222
0.7575000000000216,-0.135259,0.004148,0.166488
0.7600000000000193,-0.140683,-0.002523,0.16776
0.762500000000017,-0.150831,0.001321,0.168558
0.7650000000000148,-0.154503,0.006919,0.171506
0.7675000000000125,-0.164329,0.007115,0.17081
0.7700000000000102,-0.174789,0.004373,0.175283
0.772500000000008,-0.17886,0.010041,0.180609
0.7750000000000057,-0.18684,0.011588,0.180215
0.7775000000000034,-0.192873,0.012352,0.182476
0.7800000000000011,-0.198717,0.016301,0.181059
0.7824999999999989,-0.206968,0.017915,0.185504
0.7849999999999966,-0.213939,0.021996,0.183318
0.7874999999999943,-0.218882,0.0236,0.189843
0.7900000000000205,-0.224102,0.028501,0.192785
0.7925000000000182,-0.229394,0.030731,0.196258
0.7950000000000159,-0.234742,0.031259,0.198775
0.7975000000000136,-0.237606,0.033876,0.199006
0.8000000000000114,-0.236642,0.033952,0.206726
0.8025000000000091,-0.242958,0.039295,0.20987
0.8050000000000068,-0.245109,0.041272,0.214098
0.8075000000000045,-0.247286,0.043433,0.219382
0.8100000000000023,-0.250053,0.042652,0.224654
0.8125,-0.253117,0.046445,0.231332
0.8149999999999977,-0.25546,0.047577,0.238096
0.8174999999999955,-0.256242,0.048359,0.244112
0.8200000000000216,-0.257055,0.049918,0.249756
0.8225000000000193,-0.257717,0.04727,0.257457
0.825000000000017,-0.259356,0.047342,0.265653
0.8275000000000148,-0.259189,0.04736,0.271524
0.8300000000000125,-0.255533,0.048281,0.278542
0.8325000000000102,-0.259718,0.043624,0.285587
0.835000000000008,-0.257716,0.04017,0.294999
0.8375000000000057,-0.255474,0.041606,0.303496
0.8400000000000034,-0.252765,0.038854,0.303824
0.8425000000000011,-0.253688,0.0365,0.31089
0.8449999999999989,-0.249858,0.034257,0.317346
0.8474999999999966,-0.244451,0.029416,0.323243
0.8499999999999943,-0.237452,0.027134,0.333978
0.8525000000000205,-0.238773,0.026868,0.339163
0.8550000000000182,-0.23286,0.019751,0.345133
0.8575000000000159,-0.229828,0.018621,0.353429
0.8600000000000136,-0.222382,0.013875,0.361232
0.8625000000000114,-0.222448,0.014503,0.369196
0.8650000000000091,-0.214878,0.013762,0.3783
0.8675000000000068,-0.202942,0.010162,0.384656
0.8700000000000045,-0.19875,0.009782,0.392532
0.8725000000000023,-0.195342,0.010056,0.401802
0.875,-0.185484,0.006836,0.407676
0.8774999999999977,-0.175613,0.00599,0.415985
0.8799999999999955,-0.165592,0.008795,0.425195
0.8825000000000216,-0.159869,0.006218,0.432298
0.8850000000000193,-0.147185,0.00358,0.440747
0.887500000000017,-0.139134,0.004249,0.448357
0.8900000000000148,-0.128858,0.005186,0.457367
0.8925000000000125,-0.121236,0.008097,0.463661
0.8950000000000102,-0.113848,0.006426,0.469578
0.897500000000008,-0.099583,0.006443,0.476233
0.9000000000000057,-0.091486,0.007869,0.484511
0.9025000000000034,-0.083777,0.00735,0.490657
0.9050000000000012,-0.069843,0.005994,0.496467
0.9074999999999988,-0.056468,0.002617,0.500547
0.9099999999999966,-0.045812,0.004182,0.508078
0.9124999999999944,-0.042054,0.003579,0.513744
0.9150000000000204,-0.033693,0.003622,0.515612
0.9175000000000182,-0.022653,0.001273,0.52352
0.920000000000016,-0.01411,-0.00291,0.529137
0.9225000000000136,-0.006835,-0.005953,0.534732
0.9250000000000114,-3.6e-05,-0.010177,0.541972
0.9275000000000092,0.009055,-0.013402,0.549804
0.9300000000000068,0.013941,-0.014198,0.55361
0.9325000000000044,0.023656,-0.020617,0.561235
0.9350000000000024,0.027602,-0.026666,0.565311
0.9375,0.033025,-0.030777,0.577156
0.9399999999999976,0.038014,-0.033659,0.583229
0.9424999999999956,0.03852,-0.041884,0.589656
0.9450000000000216,0.044078,-0.045972,0.598799
0.9475000000000192,0.046217,-0.052878,0.605289
0.950000000000017,0.052532,-0.063039,0.616989
0.9525000000000148,0.051086,-0.063117,0.624753
0.9550000000000124,0.057708,-0.068969,0.63054
0.9575000000000102,0.064477,-0.080183,0.643522
0.960000000000008,0.066379,-0.086518,0.650259
0.9625000000000056,0.067816,-0.089361,0.659109
0.9650000000000034,0.071991,-0.094987,0.667531
0.9675000000000012,0.080109,-0.102387,0.678266
0.9699999999999988,0.078382,-0.109157,0.680614
0.9724999999999966,0.087463,-0.114293,0.692254
0.9749999999999944,0.094489,-0.120288,0.698286
0.9775000000000204,0.098781,-0.123352,0.703091
0.9800000000000182,0.103868,-0.128099,0.705955
0.982500000000016,0.113007,-0.133704,0.711303
0.9850000000000136,0.121755,-0.137115,0.716176
0.9875000000000114,0.129179,-0.140621,0.720767
0.9900000000000092,0.133043,-0.143042,0.724647
0.9925000000000068,0.136881,-0.150046,0.725251
0.9950000000000044,0.140753,-0.155252,0.733004
0.9975000000000024,0.144922,-0.151262,0.736132
1.0,0.147609,-0.155938,0.739727
1.0024999999999975,0.149319,-0.154987,0.742736
1.0049999999999957,0.146402,-0.160024,0.746309
1.0075000000000216,0.144628,-0.163789,0.753104
1.010000000000019,0.144789,-0.165547,0.754906
1.012500000000017,0.140119,-0.162987,0.759358
1.0150000000000148,0.130358,-0.164847,0.763149
1.0175000000000125,0.133395,-0.165367,0.767285
1.0200000000000102,0.127742,-0.166546,0.77245
1.022500000000008,0.12049,-0.171058,0.771506
1.0250000000000057,0.111355,-0.174476,0.776227
1.0275000000000034,0.104258,-0.176321,0.780399
1.0300000000000011,0.097691,-0.173022,0.780424
1.0324999999999989,0.089627,-0.180645,0.786621
1.0349999999999966,0.085383,-0.182045,0.789596
1.0374999999999943,0.078797,-0.186431,0.791646
1.0400000000000205,0.07283,-0.190981,0.788876
1.0425000000000182,0.068047,-0.196387,0.791317
1.045000000000016,0.061994,-0.195845,0.793579
1.0475000000000136,0.056844,-0.202204,0.788399
1.0500000000000114,0.05177,-0.206231,0.785134
1.052500000000009,0.047568,-0.21103,0.785447
1.0550000000000068,0.042006,-0.214496,0.783789
1.0575000000000043,0.040703,-0.215909,0.78425
1.0600000000000025,0.030781,-0.222997,0.778545
1.0625,0.030515,-0.225242,0.775301
1.0649999999999975,0.025279,-0.228132,0.769574
1.0674999999999957,0.016359,-0.234039,0.764988
1.0700000000000216,0.009195,-0.235148,0.760532
1.072500000000019,0.005943,-0.240605,0.760365
1.075000000000017,-0.005858,-0.237784,0.747895
1.0775000000000148,-0.010231,-0.241964,0.743962
1.0800000000000125,-0.01567,-0.244373,0.734636
1.0825000000000102,-0.024252,-0.248335,0.727672
1.085000000000008,-0.034197,-0.247704,0.721233
1.0875000000000057,-0.040488,-0.250332,0.712665
1.0900000000000034,-0.051238,-0.249779,0.704125
1.0925000000000011,-0.058043,-0.251563,0.699445
1.0949999999999989,-0.067656,-0.251938,0.692553
1.0974999999999966,-0.081183,-0.24897,0.684282
1.0999999999999943,-0.089727,-0.25131,0.675028
1.1025000000000205,-0.100985,-0.251316,0.667838
1.1050000000000182,-0.111151,-0.248668,0.659735
1.107500000000016,-0.123756,-0.246556,0.652418
1.1100000000000136,-0.134586,-0.24441,0.642469
1.1125000000000114,-0.147957,-0.244363,0.639898
1.115000000000009,-0.15633,-0.246488,0.629892
1.1175000000000068,-0.169882,-0.245895,0.623445
1.1200000000000043,-0.180292,-0.241572,0.615265
1.1225000000000025,-0.19017,-0.245075,0.608281
1.125,-0.203538,-0.239995,0.605153
1.1274999999999975,-0.210531,-0.239927,0.603401
1.1299999999999957,-0.221203,-0.236708,0.594673
1.1325000000000216,-0.230785,-0.23557,0.590866
1.135000000000019,-0.24064,-0.236452,0.585236
1.137500000000017,-0.246921,-0.233683,0.576302
1.1400000000000148,-0.25757,-0.230257,0.573174
1.1425000000000125,-0.265741,-0.232081,0.568736
1.1450000000000102,-0.272088,-0.226748,0.56416
1.147500000000008,-0.276701,-0.224027,0.558258
1.1500000000000057,-0.284499,-0.223549,0.555291
1.1525000000000034,-0.285864,-0.21973,0.551712
1.1550000000000011,-0.297365,-0.216612,0.548778
1.1574999999999989,-0.29933,-0.206035,0.547373
1.1599999999999966,-0.304596,-0.207427,0.54002
1.1624999999999943,-0.310424,-0.20178,0.53535
1.1650000000000205,-0.316392,-0.195412,0.533467
1.1675000000000182,-0.318198,-0.191906,0.526913
1.170000000000016,-0.323494,-0.189239,0.526509
1.1725000000000136,-0.325272,-0.188395,0.521054
1.1750000000000114,-0.33313,-0.182019,0.522246
1.177500000000009,-0.339463,-0.178541,0.51656
1.1800000000000068,-0.34197,-0.176676,0.514736
1.1825000000000043,-0.342692,-0.173923,0.512011
1.1850000000000025,-0.354445,-0.172442,0.512707
1.1875,-0.35896,-0.167719,0.513645
1.1899999999999975,-0.362293,-0.163236,0.512178
1.1924999999999957,-0.369786,-0.162509,0.51193
1.1950000000000216,-0.378305,-0.157602,0.517797
1.197500000000019,-0.383648,-0.155936,0.518363
1.200000000000017,-0.392093,-0.157289,0.525773
1.2025000000000148,-0.401211,-0.151812,0.52967
1.2050000000000125,-0.409572,-0.150061,0.536697
1.2075000000000102,-0.420526,-0.14793,0.541506
1.210000000000008,-0.428318,-0.146131,0.549682
1.2125000000000057,-0.433479,-0.143255,0.557371
1.2150000000000034,-0.443226,-0.139725,0.56546
1.2175000000000011,-0.4537,-0.133024,0.574521
1.2199999999999989,-0.466184,-0.130048,0.583773
1.2224999999999966,-0.474082,-0.127241,0.595863
1.2249999999999943,-0.481956,-0.121516,0.602267
1.2275000000000205,-0.488885,-0.118846,0.607463
1.2300000000000182,-0.494933,-0.113656,0.617907
1.232500000000016,-0.50257,-0.115263,0.629053
1.2350000000000136,-0.506476,-0.110541,0.638294
1.2375000000000114,-0.508608,-0.107189,0.643105
1.240000000000009,-0.509307,-0.104584,0.650131
1.2425000000000068,-0.513815,-0.101949,0.662982
1.2450000000000043,-0.520055,-0.101465,0.664122
1.2475000000000025,-0.51869,-0.096837,0.669593
1.25,-0.519559,-0.09162,0.677037
1.2524999999999975,-0.518262,-0.087319,0.681526
1.2549999999999957,-0.519145,-0.082155,0.686643
1.2575000000000216,-0.522359,-0.079186,0.69122
1.260000000000019,-0.521709,-0.076948,0.697687
1.262500000000017,-0.51721,-0.068982,0.70313
1.2650000000000148,-0.517383,-0.06519,0.7043
1.2675000000000125,-0.51347,-0.064479,0.708417
1.2700000000000102,-0.509522,-0.057773,0.713397
1.272500000000008,-0.50692,-0.057796,0.716967
1.2750000000000057,-0.499864,-0.049616,0.721174
1.2775000000000034,-0.499475,-0.043787,0.723799
1.2800000000000011,-0.494926,-0.037824,0.731493
1.2824999999999989,-0.489639,-0.03089,0.734126
1.2849999999999966,-0.483033,-0.02504,0.741581
1.2874999999999943,-0.482263,-0.018778,0.746232
1.2900000000000205,-0.474028,-0.01321,0.751259
1.2925000000000182,-0.470217,-0.007956,0.756855
1.295000000000016,-0.464851,-0.001793,0.761693
1.2975000000000136,-0.45526,0.001057,0.767701
1.3000000000000114,-0.450108,0.011883,0.77252
1.302500000000009,-0.445131,0.015265,0.777816
1.3050000000000068,-0.433281,0.020433,0.784705
1.3075000000000043,-0.428125,0.021072,0.79033
1.3100000000000025,-0.424369,0.020432,0.795911
1.3125,-0.419112,0.026276,0.798395
1.3149999999999975,-0.414153,0.027782,0.803515
1.3174999999999957,-0.40777,0.03312,0.808742
1.3200000000000216,-0.40032,0.030006,0.81686
1.322500000000019,-0.399371,0.031603,0.827298
1.325000000000017,-0.39389,0.032907,0.832499
1.3275000000000148,-0.392668,0.033043,0.836509
1.3300000000000125,-0.385968,0.034464,0.843226
1.3325000000000102,-0.386362,0.03522,0.852096
1.335000000000008,-0.378838,0.030682,0.859623
1.3375000000000057,-0.378145,0.033728,0.872313
1.3400000000000034,-0.375973,0.028981,0.884942
1.3425000000000011,-0.375857,0.03052,0.892069
1.3449999999999989,-0.372204,0.027489,0.903791
1.3474999999999966,-0.369009,0.02744,0.914116
1.3499999999999943,-0.364944,0.022993,0.923657
1.3525000000000205,-0.363141,0.022095,0.935339
1.3550000000000182,-0.35643,0.016343,0.94372
1.357500000000016,-0.350131,0.012776,0.952805
1.3600000000000136,-0.346546,0.007246,0.966636
1.3625000000000114,-0.346671,0.001549,0.980931
1.365000000000009,-0.341776,-0.002542,0.989997
1.3675000000000068,-0.336145,-0.003269,1.003344
1.3700000000000043,-0.331232,-0.006844,1.019066
1.3725000000000025,-0.32754,-0.011937,1.02773
1.375,-0.324504,-0.018422,1.03794
1.3774999999999975,-0.320763,-0.021829,1.052796
1.3799999999999957,-0.315963,-0.030464,1.060386
1.3825000000000216,-0.317659,-0.034063,1.073439
1.385000000000019,-0.313386,-0.032231,1.087187
1.387500000000017,-0.308916,-0.043407,1.099932
1.3900000000000148,-0.304572,-0.049348,1.109914
1.3925000000000125,-0.30283,-0.051917,1.124273
1.3950000000000102,-0.297628,-0.061309,1.131732
1.397500000000008,-0.294769,-0.066999,1.145871
1.4000000000000057,-0.29034,-0.074717,1.152897
1.4025000000000034,-0.285865,-0.081839,1.166446
1.4050000000000011,-0.281078,-0.085434,1.175928
1.4074999999999989,-0.275065,-0.09473,1.189723
1.4099999999999966,-0.272198,-0.099063,1.194995
1.4124999999999943,-0.264958,-0.108047,1.207104
1.4150000000000205,-0.256901,-0.110561,1.2144
1.4175000000000182,-0.250755,-0.12189,1.220155
1.420000000000016,-0.246166,-0.124563,1.230028
1.4225000000000136,-0.239219,-0.13324,1.237695
1.4250000000000114,-0.23182,-0.139345,1.244606
1.427500000000009,-0.223506,-0.144863,1.24827
1.4300000000000068,-0.217198,-0.150928,1.253807
1.4325000000000043,-0.207678,-0.159128,1.257397
1.4350000000000025,-0.199969,-0.166121,1.259796
1.4375,-0.19196,-0.168935,1.260264
1.4399999999999975,-0.187644,-0.174294,1.266637
1.4424999999999957,-0.18145,-0.179508,1.273429
1.4450000000000216,-0.175512,-0.182681,1.27662
1.447500000000019,-0.167683,-0.184669,1.278539
1.450000000000017,-0.166123,-0.187965,1.284559
1.4525000000000148,-0.161256,-0.190955,1.286898
1.4550000000000125,-0.152333,-0.194202,1.289037
1.4575000000000102,-0.15462,-0.196573,1.29172
1.460000000000008,-0.149039,-0.195399,1.290129
1.4625000000000057,-0.148527,-0.194402,1.299953
1.4650000000000034,-0.149998,-0.199437,1.297177
1.4675000000000011,-0.142786,-0.200553,1.3016
1.4699999999999989,-0.140455,-0.203778,1.302335
1.4724999999999966,-0.13586,-0.203562,1.299155
1.4749999999999943,-0.132579,-0.203374,1.303214
1.4775000000000205,-0.130628,-0.207035,1.304424
1.4800000000000182,-0.127526,-0.208035,1.304756
1.482500000000016,-0.123482,-0.210843,1.302264
1.4850000000000136,-0.124438,-0.211904,1.305774
1.4875000000000114,-0.119922,-0.21449,1.302272
1.490000000000009,-0.117461,-0.215215,1.304805
1.4925000000000068,-0.115253,-0.219622,1.304424
1.4950000000000043,-0.112109,-0.216745,1.301458
1.4975000000000025,-0.110018,-0.218108,1.301439
1.5,-0.108063,-0.22078,1.300116
1.5024999999999975,-0.103639,-0.22179,1.297127
1.5049999999999957,-0.106756,-0.222303,1.296772
1.5075000000000216,-0.102375,-0.22378,1.295067
1.510000000000019,-0.100964,-0.22305,1.29887
1.512500000000017,-0.100893,-0.225093,1.290972
1.5150000000000148,-0.101553,-0.226654,1.292108
1.5175000000000125,-0.106458,-0.219964,1.288469
1.5200000000000102,-0.107861,-0.21921,1.291223
1.522500000000008,-0.111426,-0.220876,1.290682
1.5250000000000057,-0.112905,-0.218012,1.28966
1.5275000000000034,-0.112727,-0.215279,1.291317
1.5300000000000011,-0.117154,-0.220718,1.29082
1.5324999999999989,-0.119515,-0.217646,1.290808
1.5349999999999966,-0.119881,-0.216606,1.287196
1.5374999999999943,-0.12674,-0.219615,1.290876
1.5400000000000205,-0.130577,-0.224465,1.287012
1.5425000000000182,-0.131841,-0.227122,1.289607
1.545000000000016,-0.139372,-0.228614,1.285617
1.5475000000000136,-0.14298,-0.230067,1.289375
1.5500000000000114,-0.145625,-0.236654,1.284936
1.552500000000009,-0.148079,-0.238556,1.285954
1.5550000000000068,-0.151345,-0.238012,1.289555
1.5575000000000043,-0.156376,-0.241345,1.287398
1.5600000000000025,-0.154659,-0.245872,1.287407
1.5625,-0.158413,-0.24661,1.2889
1.5649999999999975,-0.160033,-0.249708,1.283455
1.5674999999999957,-0.168379,-0.248954,1.28102
1.5700000000000216,-0.167382,-0.251113,1.280044
1.572500000000019,-0.168896,-0.250769,1.275253
1.575000000000017,-0.173934,-0.245904,1.268536
1.5775000000000148,-0.175691,-0.243539,1.27012
1.5800000000000125,-0.179057,-0.242138,1.265341
1.5825000000000102,-0.182368,-0.23588,1.262045
1.585000000000008,-0.187773,-0.233144,1.260324
1.5875000000000057,-0.191429,-0.225237,1.259048
1.5900000000000034,-0.194833,-0.222388,1.256226
1.5925000000000011,-0.199683,-0.223556,1.25464
1.5949999999999989,-0.204046,-0.216623,1.253591
1.5974999999999966,-0.20487,-0.212187,1.253389
1.5999999999999943,-0.205958,-0.207289,1.251882
1.6025000000000205,-0.204283,-0.206694,1.245509
1.6050000000000182,-0.207271,-0.205386,1.245421
1.607500000000016,-0.20497,-0.19818,1.241619
1.6100000000000136,-0.205541,-0.195702,1.236769
1.6125000000000114,-0.205857,-0.189823,1.235011
1.615000000000009,-0.202771,-0.190644,1.2325
1.6175000000000068,-0.200687,-0.187181,1.22842
1.6200000000000043,-0.199056,-0.182235,1.223843
1.6225000000000025,-0.1986,-0.180638,1.220523
1.625,-0.198484,-0.180069,1.217171
1.6274999999999975,-0.197584,-0.173208,1.212431
1.6299999999999957,-0.198212,-0.171276,1.212305
1.6325000000000216,-0.193983,-0.164461,1.210035
1.635000000000019,-0.192519,-0.160724,1.206277
1.637500000000017,-0.192911,-0.158015,1.20345
1.6400000000000148,-0.190483,-0.156611,1.199609
1.6425000000000125,-0.194252,-0.147782,1.195121
1.6450000000000102,-0.188162,-0.149617,1.190899
1.647500000000008,-0.189328,-0.141378,1.188267
1.6500000000000057,-0.189194,-0.136967,1.184609
1.6525000000000034,-0.186183,-0.129181,1.182525
1.6550000000000011,-0.186537,-0.126484,1.179066
1.6574999999999989,-0.186162,-0.122105,1.172675
1.6599999999999966,-0.183997,-0.125726,1.172504
1.6624999999999943,-0.182435,-0.120534,1.164841
1.6650000000000205,-0.179952,-0.113931,1.164886
1.6675000000000182,-0.176618,-0.108264,1.16412
1.670000000000016,-0.177416,-0.103892,1.159879
1.6725000000000136,-0.179477,-0.096992,1.15793
1.6750000000000114,-0.174911,-0.092104,1.154659
1.677500000000009,-0.174363,-0.09051,1.154145
1.6800000000000068,-0.172156,-0.085139,1.151848
1.6825000000000043,-0.172427,-0.08007,1.153256
1.6850000000000025,-0.170757,-0.076246,1.153043
1.6875,-0.173852,-0.074697,1.151184
1.6899999999999975,-0.170012,-0.068052,1.157556
1.6924999999999957,-0.172438,-0.06265,1.157531
1.6950000000000216,-0.16862,-0.065246,1.16125
1.697500000000019,-0.165095,-0.063588,1.163035
1.700000000000017,-0.159277,-0.063157,1.166841
1.7025000000000148,-0.159772,-0.059952,1.168376
1.7050000000000125,-0.158508,-0.062209,1.174548
1.7075000000000102,-0.157633,-0.061385,1.178348
1.710000000000008,-0.153536,-0.058924,1.179485
1.7125000000000057,-0.15282,-0.059669,1.183897
1.7150000000000034,-0.145595,-0.061841,1.187161
1.7175000000000011,-0.14146,-0.065713,1.193435
1.7199999999999989,-0.137559,-0.06526,1.194098
1.7224999999999966,-0.134099,-0.064144,1.197259
1.7249999999999943,-0.128307,-0.067611,1.200765
1.7275000000000205,-0.123255,-0.07153,1.202292
1.7300000000000182,-0.115714,-0.066969,1.207871
1.732500000000016,-0.112997,-0.07008,1.208937
1.7350000000000136,-0.103213,-0.073355,1.212029
1.7375000000000114,-0.097948,-0.075085,1.214504
1.740000000000009,-0.092481,-0.072914,1.213222
1.7425000000000068,-0.087945,-0.07668,1.216435
1.7450000000000043,-0.081116,-0.075635,1.218155
1.7475000000000025,-0.070727,-0.072072,1.221569
1.75,-0.064138,-0.078876,1.220189
1.7524999999999975,-0.05427,-0.082891,1.220199
1.7549999999999957,-0.045314,-0.084277,1.217079
1.7575000000000216,-0.032772,-0.089961,1.216095
1.760000000000019,-0.02276,-0.09131,1.211548
1.762500000000017,-0.012931,-0.093263,1.209379
1.7650000000000148,-0.00046,-0.098388,1.205776
1.7675000000000125,0.010885,-0.101885,1.198996
1.7700000000000102,0.020858,-0.102961,1.193168
1.772500000000008,0.029432,-0.101189,1.188622
1.7750000000000057,0.041427,-0.102505,1.180073
1.7775000000000034,0.056724,-0.101914,1.174993
1.7800000000000011,0.066102,-0.102037,1.167601
1.7824999999999989,0.073395,-0.101128,1.157613
1.7849999999999966,0.080388,-0.102042,1.148374
1.7874999999999943,0.087146,-0.106686,1.135853
1.7900000000000205,0.088839,-0.111085,1.121357
1.7925000000000182,0.088231,-0.116032,1.103896
1.795000000000016,0.085219,-0.130054,1.084694
1.7975000000000136,0.075244,-0.148511,1.055261
1.8000000000000114,0.059421,-0.17103,1.02271
1.802500000000009,0.03171,-0.203881,0.980745
1.8050000000000068,-0.004354,-0.241582,0.935003
1.8075000000000043,-0.049613,-0.296095,0.870431
1.8100000000000025,-0.104398,-0.359555,0.783897
1.8125,-0.171581,-0.42913,0.681686
1.8149999999999975,-0.240496,-0.489092,0.580288
1.8174999999999957,-0.305848,-0.526704,0.492779
1.8200000000000216,-0.365436,-0.560746,0.435873
1.8225000000000195,-0.412843,-0.57821,0.408573
1.825000000000017,-0.452578,-0.570694,0.405409
1.8275000000000148,-0.481764,-0.554767,0.417147
1.8300000000000125,-0.509864,-0.53785,0.445508
1.8325000000000105,-0.527345,-0.523849,0.474904
1.835000000000008,-0.546248,-0.509442,0.505784
1.8375000000000057,-0.547511,-0.508389,0.526703
1.8400000000000036,-0.551272,-0.51205,0.545173
1.8425000000000007,-0.536573,-0.5191,0.563929
1.8449999999999989,-0.521889,-0.523231,0.575563
1.8474999999999968,-0.503993,-0.533006,0.581225
1.8499999999999943,-0.488578,-0.536607,0.591319
1.8525000000000205,-0.470174,-0.538308,0.59975
1.8550000000000184,-0.461541,-0.538773,0.615519
1.857500000000016,-0.456299,-0.53757,0.629384
1.8600000000000136,-0.454049,-0.530675,0.642545
1.8625000000000116,-0.447568,-0.521504,0.660344
1.865000000000009,-0.444077,-0.512551,0.6746
1.8675000000000068,-0.441203,-0.501424,0.690579
1.8700000000000043,-0.438666,-0.488544,0.69638
1.8725000000000025,-0.437544,-0.482716,0.707477
1.875,-0.430441,-0.468476,0.721375
1.8774999999999975,-0.425814,-0.458211,0.727878
1.8799999999999957,-0.419291,-0.447738,0.732052
1.8825000000000216,-0.408612,-0.435257,0.73644
1.8850000000000195,-0.400356,-0.421615,0.742053
1.887500000000017,-0.390506,-0.407609,0.745516
1.8900000000000148,-0.37735,-0.397155,0.743868
1.8925000000000125,-0.367521,-0.379068,0.746245
1.8950000000000105,-0.352545,-0.366213,0.745841
1.897500000000008,-0.338078,-0.34966,0.748294
1.9000000000000057,-0.323774,-0.332011,0.746565
1.9025000000000036,-0.312774,-0.315663,0.743403
1.9050000000000007,-0.291786,-0.299731,0.740694
1.9074999999999989,-0.277951,-0.279246,0.734647
1.9099999999999968,-0.261964,-0.260161,0.727373
1.9124999999999943,-0.246123,-0.248358,0.717696
1.9150000000000205,-0.230165,-0.230487,0.709394
1.9175000000000184,-0.217183,-0.214098,0.700783
1.920000000000016,-0.198944,-0.20095,0.686883
1.9225000000000136,-0.183989,-0.191611,0.673241
1.9250000000000116,-0.162712,-0.181873,0.656844
1.927500000000009,-0.147028,-0.180919,0.638447
1.9300000000000068,-0.135225,-0.173233,0.619102
1.9325000000000043,-0.116999,-0.17402,0.600913
1.9350000000000025,-0.112107,-0.174196,0.579349
1.9375,-0.103435,-0.176871,0.556556
1.9399999999999975,-0.100696,-0.178333,0.535091
1.9424999999999957,-0.100522,-0.178449,0.512374
1.9450000000000216,-0.104332,-0.180918,0.49225
1.9475000000000195,-0.110272,-0.18539,0.469606
1.950000000000017,-0.112529,-0.187264,0.449003
1.9525000000000148,-0.111458,-0.188558,0.429124
1.9550000000000125,-0.11251,-0.19291,0.410192
1.9575000000000105,-0.114159,-0.184752,0.394923
1.960000000000008,-0.108191,-0.185774,0.378025
1.9625000000000057,-0.102663,-0.181429,0.375795
1.9650000000000036,-0.095209,-0.178264,0.370329
1.9675000000000007,-0.088926,-0.175574,0.365024
1.9699999999999989,-0.079519,-0.174041,0.371742
1.9724999999999968,-0.073414,-0.173411,0.369901
1.9749999999999943,-0.066622,-0.165834,0.370055
1.9775000000000205,-0.061542,-0.16792,0.374443
1.9800000000000184,-0.053461,-0.171307,0.376902
1.982500000000016,-0.049676,-0.170489,0.38197
1.9850000000000136,-0.049086,-0.171971,0.385747
1.9875000000000116,-0.044759,-0.164695,0.38923
1.990000000000009,-0.041288,-0.164217,0.395411
1.9925000000000068,-0.040847,-0.164536,0.39762
1.9950000000000043,-0.040321,-0.165303,0.40101
1.9975000000000025,-0.038897,-0.163201,0.405598
2.0,-0.037083,-0.160623,0.408984
2.0024999999999977,-0.03773,-0.160681,0.410875
2.0049999999999955,-0.038068,-0.156166,0.417074
2.0075000000000216,-0.034785,-0.155474,0.417472
2.0100000000000198,-0.034626,-0.15267,0.420246
2.012500000000017,-0.03577,-0.151534,0.424788
2.015000000000015,-0.035869,-0.15101,0.428399
2.0175000000000125,-0.031881,-0.153896,0.436387
2.0200000000000102,-0.034009,-0.153272,0.442641
2.022500000000008,-0.028954,-0.153834,0.446025
2.0250000000000057,-0.030909,-0.151134,0.448812
2.0275000000000034,-0.030309,-0.152241,0.453342
2.030000000000001,-0.028524,-0.151904,0.458578
2.032499999999999,-0.031793,-0.15213,0.464108
2.0349999999999966,-0.031953,-0.157192,0.473817
2.0374999999999943,-0.032663,-0.153108,0.479763
2.0400000000000205,-0.038579,-0.15385,0.485998
2.042500000000018,-0.033712,-0.15358,0.484689
2.045000000000016,-0.039418,-0.152475,0.492124
2.0475000000000136,-0.04386,-0.148487,0.497157
2.050000000000012,-0.042215,-0.147231,0.497035
2.052500000000009,-0.04393,-0.147747,0.501026
2.055000000000007,-0.046209,-0.143516,0.505347
2.0575000000000045,-0.048104,-0.138409,0.505994
2.0600000000000023,-0.046025,-0.139219,0.507852
2.0625,-0.048359,-0.139457,0.511383
2.0649999999999977,-0.048399,-0.137305,0.510622
2.0674999999999955,-0.04575,-0.133051,0.515116
2.0700000000000216,-0.048074,-0.133601,0.519589
2.0725000000000198,-0.045855,-0.129226,0.526506
2.075000000000017,-0.050654,-0.130847,0.528472
2.077500000000015,-0.052162,-0.12681,0.531829
2.0800000000000125,-0.054827,-0.12157,0.53953
2.0825000000000102,-0.055243,-0.121798,0.541071
2.085000000000008,-0.055407,-0.120194,0.546571
2.0875000000000057,-0.058034,-0.117247,0.549924
2.0900000000000034,-0.06149,-0.115918,0.554615
2.092500000000001,-0.059041,-0.112914,0.557148
2.094999999999999,-0.059997,-0.108886,0.560219
2.0974999999999966,-0.06427,-0.106867,0.56159
2.0999999999999943,-0.064814,-0.103886,0.561611
2.1025000000000205,-0.06939,-0.09519,0.565033
2.105000000000018,-0.066055,-0.096971,0.564081
2.107500000000016,-0.077052,-0.09283,0.566804
2.1100000000000136,-0.079286,-0.089829,0.56837
2.112500000000012,-0.081262,-0.08654,0.570989
2.115000000000009,-0.083995,-0.080623,0.572457
2.117500000000007,-0.086325,-0.079888,0.572174
2.1200000000000045,-0.093365,-0.072964,0.575494
2.1225000000000023,-0.094695,-0.06921,0.574809
2.125,-0.09958,-0.064871,0.572807
2.1274999999999977,-0.102887,-0.062267,0.578655
2.1299999999999955,-0.104828,-0.059733,0.574071
2.1325000000000216,-0.106835,-0.054254,0.575323
2.1350000000000198,-0.108375,-0.056471,0.572058
2.137500000000017,-0.113484,-0.052266,0.571469
2.140000000000015,-0.111714,-0.049129,0.572511
2.1425000000000125,-0.116658,-0.051841,0.572106
2.1450000000000102,-0.119406,-0.048706,0.569797
2.147500000000008,-0.119318,-0.047007,0.566181
2.1500000000000057,-0.118715,-0.045519,0.571691
2.1525000000000034,-0.118727,-0.047618,0.569912
2.155000000000001,-0.119849,-0.045225,0.569054
2.157499999999999,-0.123462,-0.04444,0.566391
2.1599999999999966,-0.123107,-0.042313,0.567659
2.1624999999999943,-0.123161,-0.043999,0.564472
2.1650000000000205,-0.121856,-0.042059,0.564235
2.167500000000018,-0.126101,-0.044301,0.560007
2.170000000000016,-0.120427,-0.044712,0.558574
2.1725000000000136,-0.122936,-0.043342,0.560311
2.175000000000012,-0.124189,-0.044158,0.556878
2.177500000000009,-0.123246,-0.043981,0.555199
2.180000000000007,-0.121236,-0.045803,0.553272
2.1825000000000045,-0.121845,-0.048703,0.550642
2.1850000000000023,-0.122614,-0.050873,0.550731
2.1875,-0.122377,-0.050785,0.54817
2.1899999999999977,-0.118819,-0.053309,0.544214
2.1924999999999955,-0.118582,-0.053753,0.543387
2.1950000000000216,-0.119698,-0.054573,0.541184
2.1975000000000198,-0.11463,-0.061052,0.538179
2.200000000000017,-0.116898,-0.060113,0.534748
2.202500000000015,-0.117026,-0.062408,0.533546
2.2050000000000125,-0.113297,-0.063212,0.536064
2.2075000000000102,-0.114556,-0.062777,0.527599
2.210000000000008,-0.10989,-0.06596,0.528377
2.2125000000000057,-0.107332,-0.065579,0.525924
2.2150000000000034,-0.108044,-0.065315,0.521825
2.217500000000001,-0.10839,-0.070068,0.519385
2.219999999999999,-0.102879,-0.069404,0.519059
2.2224999999999966,-0.099806,-0.068738,0.514697
2.2249999999999943,-0.096178,-0.071085,0.50843
2.2275000000000205,-0.096659,-0.075367,0.508741
2.230000000000018,-0.097196,-0.077356,0.507204
2.232500000000016,-0.095576,-0.076476,0.503793
2.2350000000000136,-0.093569,-0.08081,0.501508
2.237500000000012,-0.089802,-0.081843,0.499082
2.240000000000009,-0.09004,-0.083998,0.494195
2.242500000000007,-0.090274,-0.084984,0.493617
2.2450000000000045,-0.085829,-0.089008,0.490329
2.2475000000000023,-0.083457,-0.095171,0.488047
2.25,-0.084306,-0.096419,0.489921
2.2524999999999977,-0.086805,-0.097308,0.489508
2.2549999999999955,-0.083025,-0.102103,0.48951
2.2575000000000216,-0.08246,-0.105123,0.486524
2.2600000000000198,-0.081608,-0.106093,0.487705
2.262500000000017,-0.081891,-0.107145,0.484721
2.265000000000015,-0.083071,-0.109273,0.483482
2.2675000000000125,-0.084656,-0.110506,0.483569
2.2700000000000102,-0.085899,-0.114493,0.483558
2.272500000000008,-0.088978,-0.115243,0.48495
2.2750000000000057,-0.088136,-0.114292,0.482055
2.2775000000000034,-0.086455,-0.116833,0.479191
2.280000000000001,-0.085393,-0.115265,0.477322
2.282499999999999,-0.086799,-0.116123,0.475139
2.2849999999999966,-0.08599,-0.119998,0.473044
2.2874999999999943,-0.080723,-0.12058,0.473303
2.2900000000000205,-0.082059,-0.121315,0.474558
2.292500000000018,-0.081906,-0.126886,0.476123
2.295000000000016,-0.078884,-0.127369,0.474935
2.2975000000000136,-0.078376,-0.125575,0.473311
2.300000000000012,-0.074643,-0.126526,0.472371
2.302500000000009,-0.071543,-0.123362,0.473446
2.305000000000007,-0.07042,-0.122805,0.466789
2.3075000000000045,-0.070091,-0.119646,0.462201
2.3100000000000023,-0.068974,-0.120223,0.461777
2.3125,-0.068913,-0.118254,0.459058
2.3149999999999977,-0.069585,-0.118318,0.45662
2.3174999999999955,-0.066163,-0.119631,0.454742
2.3200000000000216,-0.066176,-0.117576,0.45454
2.3225000000000198,-0.063573,-0.118031,0.454865
2.325000000000017,-0.063188,-0.117315,0.457653
2.327500000000015,-0.064872,-0.119248,0.45389
2.3300000000000125,-0.061688,-0.11818,0.454196
2.3325000000000102,-0.067192,-0.120951,0.456222
2.335000000000008,-0.067347,-0.119102,0.453097
2.3375000000000057,-0.066137,-0.120236,0.454394
2.3400000000000034,-0.072087,-0.118877,0.457031
2.342500000000001,-0.076696,-0.116217,0.454722
2.344999999999999,-0.075501,-0.116019,0.451937
2.3474999999999966,-0.081997,-0.110313,0.45119
2.3499999999999943,-0.080696,-0.109982,0.452075
2.3525000000000205,-0.085831,-0.103122,0.444724
2.355000000000018,-0.088403,-0.102465,0.446459
2.357500000000016,-0.088511,-0.098808,0.444285
2.3600000000000136,-0.092733,-0.099915,0.443234
2.362500000000012,-0.097252,-0.101973,0.44561
2.365000000000009,-0.099678,-0.092353,0.442932
2.367500000000007,-0.09958,-0.090478,0.441406
2.3700000000000045,-0.10493,-0.089517,0.439776
2.3725000000000023,-0.106284,-0.086521,0.436715
2.375,-0.108874,-0.083975,0.43437
2.3774999999999977,-0.109161,-0.080374,0.433496
2.3799999999999955,-0.113176,-0.083248,0.43465
2.3825000000000216,-0.115167,-0.082478,0.430927
2.3850000000000198,-0.118601,-0.078242,0.43266
2.387500000000017,-0.122565,-0.077455,0.433167
2.390000000000015,-0.119135,-0.079216,0.432741
2.3925000000000125,-0.123408,-0.082049,0.433
2.3950000000000102,-0.126348,-0.080463,0.436308
2.397500000000008,-0.128518,-0.078867,0.434736
2.4000000000000057,-0.132111,-0.075828,0.440089
2.4025000000000034,-0.134045,-0.075608,0.440649
2.405000000000001,-0.130098,-0.072557,0.443595
2.407499999999999,-0.135307,-0.074933,0.44493
2.4099999999999966,-0.133565,-0.076228,0.445
2.4124999999999943,-0.138561,-0.069837,0.449299
2.4150000000000205,-0.139084,-0.070953,0.447499
2.417500000000018,-0.138262,-0.068051,0.451013
2.420000000000016,-0.139897,-0.066227,0.449342
2.4225000000000136,-0.136788,-0.067893,0.449257
2.425000000000012,-0.136372,-0.068909,0.449624
2.427500000000009,-0.136405,-0.067633,0.452549
2.430000000000007,-0.136085,-0.069366,0.454953
2.4325000000000045,-0.132154,-0.077899,0.453062
2.4350000000000023,-0.131999,-0.074612,0.459006
2.4375,-0.126056,-0.072676,0.45784
2.4399999999999977,-0.128937,-0.072439,0.455046
2.4424999999999955,-0.126983,-0.073542,0.454912
2.4450000000000216,-0.130802,-0.070482,0.455492
2.4475000000000198,-0.122809,-0.071447,0.457872
2.450000000000017,-0.120173,-0.066125,0.454377
2.452500000000015,-0.119506,-0.070888,0.457748
2.4550000000000125,-0.119144,-0.071678,0.458565
2.4575000000000102,-0.1131,-0.076719,0.459745
2.460000000000008,-0.114416,-0.07841,0.464467
2.4625000000000057,-0.106743,-0.080162,0.463387
2.4650000000000034,-0.109589,-0.078863,0.462525
2.467500000000001,-0.106376,-0.081004,0.465136
2.469999999999999,-0.101557,-0.084919,0.465129
2.4724999999999966,-0.100411,-0.084496,0.467324
2.4749999999999943,-0.098306,-0.086321,0.469702
2.4775000000000205,-0.094633,-0.089961,0.475245
2.480000000000018,-0.090884,-0.090909,0.470599
2.482500000000016,-0.088261,-0.093612,0.475185
2.4850000000000136,-0.084478,-0.098622,0.474962
2.487500000000012,-0.084127,-0.097489,0.475844
2.490000000000009,-0.079459,-0.10384,0.479966
2.492500000000007,-0.077622,-0.103854,0.479456
2.4950000000000045,-0.070895,-0.106989,0.483438
2.4975000000000023,-0.068329,-0.110148,0.486075
2.5,-0.068317,-0.109054,0.486542
2.5024999999999977,-0.062449,-0.109655,0.48793
2.5049999999999955,-0.059587,-0.108515,0.492237
2.5075000000000216,-0.056571,-0.114006,0.49345
2.5100000000000198,-0.053403,-0.114843,0.491817
2.512500000000017,-0.046885,-0.120187,0.497324
2.515000000000015,-0.038418,-0.12051,0.498215
2.5175000000000125,-0.031431,-0.127476,0.50505
2.5200000000000102,-0.032073,-0.128722,0.505181
2.522500000000008,-0.02785,-0.131358,0.50282
2.5250000000000057,-0.018764,-0.130548,0.506447
2.5275000000000034,-0.017875,-0.136617,0.509504
2.530000000000001,-0.011009,-0.137684,0.510532
2.532499999999999,0.000568,-0.138588,0.517147
2.5349999999999966,0.003167,-0.142525,0.515849
2.5374999999999943,0.009023,-0.137514,0.521291
2.5400000000000205,0.014808,-0.142145,0.518564
2.542500000000018,0.018883,-0.143039,0.520829
2.545000000000016,0.023038,-0.145133,0.525854
2.5475000000000136,0.026067,-0.145485,0.525024
2.550000000000012,0.036398,-0.146446,0.525836
2.552500000000009,0.040141,-0.148498,0.531962
2.555000000000007,0.047415,-0.146215,0.530075
2.5575000000000045,0.050674,-0.148211,0.532127
2.5600000000000023,0.057415,-0.148749,0.535371
2.5625,0.061553,-0.148001,0.537793
2.5649999999999977,0.066593,-0.146203,0.539964
2.5674999999999955,0.067026,-0.147289,0.541806
2.5700000000000216,0.071325,-0.14616,0.541513
2.5725000000000198,0.074459,-0.147358,0.542916
2.575000000000017,0.077709,-0.140964,0.544252
2.577500000000015,0.079528,-0.138643,0.544476
2.5800000000000125,0.080755,-0.140785,0.54813
2.5825000000000102,0.083754,-0.140002,0.546456
2.585000000000008,0.088169,-0.13902,0.549505
2.5875000000000057,0.09089,-0.136413,0.54669
2.5900000000000034,0.097308,-0.137931,0.548818
2.592500000000001,0.097919,-0.132994,0.547387
2.594999999999999,0.09881,-0.135283,0.543568
2.5974999999999966,0.099897,-0.133526,0.545157
2.5999999999999943,0.105754,-0.130872,0.543573
2.6025000000000205,0.1042,-0.132948,0.540132
2.605000000000018,0.106088,-0.132403,0.539791
2.607500000000016,0.10942,-0.129801,0.539977
2.6100000000000136,0.109757,-0.132513,0.537392
2.612500000000012,0.109715,-0.131856,0.535166
2.615000000000009,0.111661,-0.131281,0.534152
2.617500000000007,0.111152,-0.128919,0.531971
2.6200000000000045,0.111441,-0.127697,0.532994
2.6225000000000023,0.110061,-0.127593,0.52998
2.625,0.112482,-0.125368,0.525611
2.6274999999999977,0.10815,-0.126879,0.524233
2.6299999999999955,0.109159,-0.120993,0.523255
2.6325000000000216,0.108591,-0.121628,0.5177
2.6350000000000198,0.110877,-0.120722,0.516366
2.637500000000017,0.111686,-0.11805,0.512113
2.640000000000015,0.108104,-0.11863,0.508782
2.6425000000000125,0.109891,-0.119935,0.505406
2.6450000000000102,0.106777,-0.117715,0.502776
2.647500000000008,0.107174,-0.11581,0.498139
2.6500000000000057,0.103088,-0.115429,0.497585
2.6525000000000034,0.103004,-0.112534,0.495007
2.655000000000001,0.101998,-0.118965,0.490073
2.657499999999999,0.102764,-0.112492,0.488653
2.6599999999999966,0.100497,-0.110866,0.486552
2.6624999999999943,0.094201,-0.106072,0.481328
2.6650000000000205,0.095133,-0.104363,0.481083
2.667500000000018,0.091032,-0.103025,0.473971
2.670000000000016,0.088575,-0.099026,0.476926
2.6725000000000136,0.088172,-0.096184,0.474899
2.675000000000012,0.084689,-0.095756,0.47184
2.677500000000009,0.07951,-0.09378,0.471083
2.680000000000007,0.074438,-0.094208,0.467985
2.6825000000000045,0.07193,-0.090992,0.469113
2.6850000000000023,0.070483,-0.086161,0.467914
2.6875,0.064939,-0.087935,0.466081
2.6899999999999977,0.062608,-0.083643,0.465321
2.6924999999999955,0.05763,-0.081933,0.461521
2.6950000000000216,0.052164,-0.080387,0.460593
2.6975000000000198,0.050239,-0.076145,0.459618
2.700000000000017,0.044989,-0.07652,0.457115
2.702500000000015,0.040264,-0.066957,0.458435
2.7050000000000125,0.035482,-0.069231,0.452574
2.7075000000000102,0.029851,-0.065395,0.450594
2.710000000000008,0.031004,-0.065573,0.450907
2.7125000000000057,0.021877,-0.057855,0.446474
2.7150000000000034,0.02188,-0.056654,0.446589
2.717500000000001,0.016154,-0.057901,0.445465
2.719999999999999,0.011692,-0.054158,0.440826
2.7224999999999966,0.008392,-0.050835,0.438005
2.7249999999999943,0.005508,-0.052634,0.434592
2.7275000000000205,0.005072,-0.054736,0.434291
2.730000000000018,0.000437,-0.050661,0.430653
2.732500000000016,0.000439,-0.049138,0.429606
2.7350000000000136,-0.000705,-0.05201,0.428336
2.737500000000012,-0.002223,-0.04849,0.423286
2.740000000000009,-0.004071,-0.049126,0.420197
2.742500000000007,-0.006332,-0.048429,0.418588
2.7450000000000045,-0.00772,-0.047337,0.414994
2.7475000000000023,-0.004312,-0.050326,0.411766
2.75,-0.009115,-0.051191,0.415125
2.7524999999999977,-0.009476,-0.047302,0.406406
2.7549999999999955,-0.011542,-0.055954,0.405457
2.7575000000000216,-0.01104,-0.051957,0.405259
2.7600000000000198,-0.010337,-0.05506,0.40256
2.762500000000017,-0.010645,-0.056313,0.396194
2.765000000000015,-0.007375,-0.059395,0.395682
2.7675000000000125,-0.010194,-0.060581,0.395621
2.7700000000000102,-0.011246,-0.064994,0.391152
2.772500000000008,-0.008142,-0.068629,0.389104
2.7750000000000057,-0.006294,-0.072408,0.387614
2.7775000000000034,-0.006542,-0.077054,0.387899
2.780000000000001,-0.006182,-0.083826,0.385315
2.782499999999999,-0.005613,-0.087366,0.38766
2.7849999999999966,-0.008684,-0.088374,0.389247
2.7874999999999943,-0.005566,-0.092955,0.388103
2.7900000000000205,-0.007345,-0.090913,0.387425
2.792500000000018,-0.010978,-0.091934,0.38802
2.795000000000016,-0.00729,-0.086258,0.38624
2.7975000000000136,-0.008586,-0.092892,0.389024
2.800000000000012,-0.00788,-0.090516,0.386169
2.802500000000009,-0.008065,-0.091067,0.384083
2.805000000000007,-0.005482,-0.094152,0.386632
2.8075000000000045,-0.008617,-0.096008,0.385278
2.8100000000000023,-0.0073,-0.101854,0.386498
2.8125,-0.007997,-0.103429,0.388371
2.8149999999999977,-0.004941,-0.108385,0.391991
2.8174999999999955,-0.00315,-0.110701,0.389064
2.8200000000000216,-0.004825,-0.111023,0.387945
2.8225000000000198,-0.002205,-0.116694,0.393424
2.825000000000017,0.000792,-0.114359,0.397081
2.827500000000015,0.000218,-0.118837,0.397716
2.8300000000000125,0.001618,-0.12027,0.399061
2.8325000000000102,-0.001393,-0.123204,0.396893
2.835000000000008,0.000351,-0.127795,0.399175
2.8375000000000057,0.0053,-0.127715,0.39854
2.8400000000000034,0.008934,-0.1296,0.396626
2.842500000000001,0.008746,-0.128908,0.396619
2.844999999999999,0.010367,-0.135018,0.397671
2.8474999999999966,0.014658,-0.130899,0.394938
2.8499999999999943,0.012449,-0.135477,0.396774
2.8525000000000205,0.015273,-0.142853,0.394528
2.855000000000018,0.015763,-0.143378,0.390602
2.857500000000016,0.023106,-0.141795,0.393862
2.8600000000000136,0.026434,-0.147867,0.389541
2.862500000000012,0.027966,-0.152355,0.386246
2.865000000000009,0.028721,-0.154786,0.386981
2.867500000000007,0.03069,-0.155054,0.392581
2.8700000000000045,0.034171,-0.159067,0.387173
2.8725000000000023,0.036309,-0.165349,0.389216
2.875,0.039583,-0.168324,0.38679
2.8774999999999977,0.037623,-0.169747,0.391396
2.8799999999999955,0.041272,-0.172766,0.390554
2.8825000000000216,0.044913,-0.178333,0.387686
2.8850000000000198,0.047848,-0.178799,0.389469
2.887500000000017,0.048343,-0.181021,0.389125
2.890000000000015,0.055849,-0.187171,0.387137
2.8925000000000125,0.058223,-0.186835,0.386716
2.8950000000000102,0.060133,-0.189765,0.387085
2.897500000000008,0.062253,-0.19256,0.386689
2.9000000000000057,0.060394,-0.195511,0.389654
2.9025000000000034,0.069127,-0.198665,0.38779
2.905000000000001,0.071432,-0.200494,0.388639
2.907499999999999,0.073441,-0.203931,0.387845
2.9099999999999966,0.075557,-0.20961,0.387359
2.9124999999999943,0.075514,-0.211966,0.391991
2.9150000000000205,0.081388,-0.215435,0.388984
2.917500000000018,0.083696,-0.220385,0.389928
2.920000000000016,0.089259,-0.225894,0.38817
2.9225000000000136,0.091802,-0.233682,0.393055
2.925000000000012,0.092294,-0.23564,0.39065
2.927500000000009,0.094616,-0.238401,0.393275
2.930000000000007,0.098354,-0.243278,0.392924
2.9325000000000045,0.102402,-0.245084,0.394521
2.9350000000000023,0.10396,-0.249465,0.392697
2.9375,0.104684,-0.25242,0.393639
2.9399999999999977,0.107586,-0.247471,0.392426
2.9424999999999955,0.105829,-0.25322,0.392371
2.9450000000000216,0.111433,-0.256386,0.390052
2.9475000000000198,0.115394,-0.256911,0.389089
2.950000000000017,0.111998,-0.260036,0.385889
2.952500000000015,0.120624,-0.262912,0.388651
2.9550000000000125,0.122433,-0.262734,0.387589
2.9575000000000102,0.123022,-0.263926,0.388413
2.960000000000008,0.124698,-0.274248,0.387656
2.9625000000000057,0.131802,-0.271676,0.389948
2.9650000000000034,0.132275,-0.273375,0.387157
2.967500000000001,0.13274,-0.275146,0.384612
2.969999999999999,0.132107,-0.278133,0.38665
2.9724999999999966,0.135126,-0.278379,0.388115
2.9749999999999943,0.13774,-0.280809,0.384981
2.9775000000000205,0.132338,-0.284575,0.382704
2.980000000000018,0.136197,-0.282238,0.382804
2.982500000000016,0.137071,-0.283699,0.382071
2.9850000000000136,0.135718,-0.28436,0.381068
2.987500000000012,0.133959,-0.282015,0.379019
2.990000000000009,0.131621,-0.282918,0.376838
2.992500000000007,0.132947,-0.280479,0.372835
2.9950000000000045,0.134169,-0.283422,0.373747
2.9975000000000023,0.129461,-0.282419,0.374255
3.0,0.13149,-0.282805,0.374534
3.0024999999999977,0.130922,-0.279404,0.370983
3.0049999999999955,0.128133,-0.281911,0.371235
3.0075000000000216,0.128698,-0.280482,0.372014
3.0100000000000198,0.128781,-0.27695,0.369246
3.012500000000017,0.124551,-0.280632,0.371511
3.015000000000015,0.124925,-0.278807,0.366396
3.0175000000000125,0.126455,-0.277761,0.364598
3.0200000000000102,0.119296,-0.272791,0.365639
3.022500000000008,0.120357,-0.271401,0.365732
3.0250000000000057,0.12281,-0.274315,0.366112
3.0275000000000034,0.120301,-0.271812,0.364418
3.030000000000001,0.120569,-0.270501,0.36282
3.032499999999999,0.119003,-0.269909,0.35976
3.0349999999999966,0.117473,-0.269027,0.364124
3.0374999999999943,0.11728,-0.271241,0.360898
3.0400000000000205,0.115956,-0.270963,0.361354
3.042500000000018,0.113621,-0.270501,0.358325
3.045000000000016,0.114051,-0.272861,0.358561
3.0475000000000136,0.114451,-0.273094,0.357739
3.050000000000012,0.111399,-0.271814,0.357682
3.052500000000009,0.105221,-0.27058,0.356842
3.055000000000007,0.107085,-0.268058,0.355067
3.0575000000000045,0.10354,-0.267401,0.352133
3.0600000000000023,0.103263,-0.266211,0.352073
3.0625,0.098304,-0.264418,0.352534
3.0649999999999977,0.097524,-0.260806,0.346873
3.0674999999999955,0.090043,-0.258456,0.34361
3.0700000000000216,0.09306,-0.258978,0.346901
3.0725000000000198,0.091263,-0.255185,0.342803
3.075000000000017,0.089865,-0.255153,0.342464
3.077500000000015,0.083961,-0.253747,0.338971
3.0800000000000125,0.085729,-0.249983,0.342155
3.0825000000000102,0.084528,-0.253356,0.33934
3.085000000000008,0.082401,-0.252445,0.337844
3.0875000000000057,0.081473,-0.249709,0.333475
3.0900000000000034,0.078734,-0.251375,0.332107
3.092500000000001,0.074635,-0.25474,0.331803
3.094999999999999,0.077736,-0.252989,0.33127
3.0974999999999966,0.080448,-0.255516,0.330997
3.0999999999999943,0.070267,-0.25335,0.331261
3.1025000000000205,0.074347,-0.255321,0.329391
3.105000000000018,0.070333,-0.257441,0.329129
3.107500000000016,0.066219,-0.254087,0.324547
3.1100000000000136,0.065108,-0.249882,0.328865
3.112500000000012,0.06403,-0.250806,0.323292
3.115000000000009,0.060944,-0.243773,0.321763
3.117500000000007,0.059726,-0.241821,0.323149
3.1200000000000045,0.057154,-0.245737,0.31986
3.1225000000000023,0.054606,-0.244512,0.315393
3.125,0.053106,-0.242046,0.312155
3.1274999999999977,0.051504,-0.242366,0.310648
3.1299999999999955,0.0507,-0.239408,0.307951
3.1325000000000216,0.051001,-0.236969,0.306552
3.1350000000000198,0.04456,-0.23492,0.305211
3.137500000000017,0.042868,-0.232199,0.300173
3.140000000000015,0.041568,-0.22922,0.300274
3.1425000000000125,0.037193,-0.229375,0.295936
3.1450000000000102,0.037374,-0.224015,0.295307
3.147500000000008,0.035924,-0.223073,0.294959
3.1500000000000057,0.033159,-0.225695,0.291153
3.1525000000000034,0.02891,-0.220892,0.288873
3.155000000000001,0.031547,-0.218403,0.286729
3.157499999999999,0.028057,-0.218406,0.283127
3.1599999999999966,0.026701,-0.215064,0.283525
3.1624999999999943,0.023782,-0.214921,0.281063
3.1650000000000205,0.023449,-0.21576,0.272896
3.167500000000018,0.023317,-0.2114,0.273531
3.170000000000016,0.023492,-0.210358,0.268424
3.1725000000000136,0.0223,-0.20816,0.265234
3.175000000000012,0.019207,-0.204018,0.260731
3.177500000000009,0.017927,-0.203238,0.257052
3.180000000000007,0.015653,-0.203477,0.252127
3.1825000000000045,0.015979,-0.199099,0.250202
3.1850000000000023,0.0167,-0.195876,0.241233
3.1875,0.015628,-0.195017,0.238862
3.1899999999999977,0.015549,-0.19491,0.231574
3.1924999999999955,0.010573,-0.189056,0.22623
3.1950000000000216,0.010031,-0.186986,0.221378
3.1975000000000198,0.007776,-0.181842,0.215732
3.200000000000017,0.009333,-0.181353,0.205273
3.202500000000015,0.005721,-0.176179,0.196327
3.2050000000000125,0.002059,-0.171228,0.190736
3.2075000000000102,0.00099,-0.166002,0.181407
3.210000000000008,-0.003488,-0.158206,0.170114
3.2125000000000057,-0.008316,-0.153413,0.156856
3.2150000000000034,-0.010246,-0.142452,0.14609
3.217500000000001,-0.011644,-0.135624,0.133609
3.219999999999999,-0.017765,-0.129898,0.119332
3.2224999999999966,-0.022858,-0.118965,0.104255
3.2249999999999943,-0.024623,-0.109971,0.09217
3.2275000000000205,-0.030559,-0.102094,0.076262
3.230000000000018,-0.036094,-0.09145,0.065025
3.232500000000016,-0.036834,-0.074239,0.050116
3.2350000000000136,-0.040565,-0.067295,0.037505
3.237500000000012,-0.04583,-0.056064,0.027861
3.240000000000009,-0.046626,-0.046852,0.016431
3.242500000000007,-0.048256,-0.034943,0.008572
3.2450000000000045,-0.052319,-0.027436,-0.001042
3.2475000000000023,-0.05572,-0.013642,-0.009958
3.25,-0.055133,-0.004649,-0.01753
3.2524999999999977,-0.059111,0.004939,-0.023647
3.2549999999999955,-0.06251,0.012807,-0.02608
3.2575000000000216,-0.060566,0.023306,-0.02737
3.2600000000000198,-0.063524,0.029331,-0.028574
3.262500000000017,-0.066404,0.033619,-0.029732
3.265000000000015,-0.062457,0.03685,-0.031793
3.2675000000000125,-0.062127,0.03773,-0.030121
3.2700000000000102,-0.06164,0.041484,-0.027274
3.272500000000008,-0.061807,0.040991,-0.0239
3.2750000000000057,-0.06201,0.040484,-0.019096
3.2775000000000034,-0.062828,0.039329,-0.013076
3.280000000000001,-0.058872,0.035713,-0.010976
3.282499999999999,-0.056413,0.035524,-0.003792
3.2849999999999966,-0.0631,0.033472,0.001315
3.2874999999999943,-0.061004,0.0334,0.006171
3.2900000000000205,-0.058599,0.031326,0.010727
3.292500000000018,-0.056659,0.02392,0.016627
3.295000000000016,-0.058372,0.026884,0.022086
3.2975000000000136,-0.056781,0.021458,0.024325
3.300000000000012,-0.058143,0.020284,0.031509
3.302500000000009,-0.058228,0.019894,0.033989
3.305000000000007,-0.05483,0.014856,0.038793
3.3075000000000045,-0.056052,0.016414,0.042401
3.3100000000000023,-0.056939,0.009733,0.046723
3.3125,-0.056867,0.007509,0.048614
3.3149999999999977,-0.055839,0.007261,0.047924
3.3174999999999955,-0.057094,0.003461,0.052162
3.3200000000000216,-0.057413,-0.000995,0.056531
3.3225000000000198,-0.05348,-0.000364,0.05415
3.325000000000017,-0.055426,-0.003958,0.055353
3.327500000000015,-0.052603,-0.008641,0.053581
3.3300000000000125,-0.050661,-0.006536,0.055676
3.3325000000000102,-0.053696,-0.011066,0.055131
3.335000000000008,-0.052227,-0.011374,0.054011
3.3375000000000057,-0.050721,-0.013618,0.052331
3.3400000000000034,-0.050323,-0.017588,0.051295
3.342500000000001,-0.048064,-0.016637,0.047193
3.344999999999999,-0.050496,-0.019017,0.048261
3.3474999999999966,-0.050282,-0.020878,0.049045
3.3499999999999943,-0.048232,-0.02497,0.041661
3.3525000000000205,-0.050178,-0.033017,0.04626
3.355000000000018,-0.051112,-0.033581,0.042511
3.357500000000016,-0.052197,-0.033858,0.045279
3.3600000000000136,-0.053526,-0.038923,0.046747
3.362500000000012,-0.055495,-0.035097,0.044654
3.365000000000009,-0.059791,-0.036976,0.045452
3.367500000000007,-0.06195,-0.037259,0.043625
3.3700000000000045,-0.064258,-0.036931,0.045384
3.3725000000000023,-0.067128,-0.030935,0.047372
3.375,-0.072935,-0.030683,0.047191
3.3774999999999977,-0.075331,-0.022262,0.043603
3.3799999999999955,-0.079747,-0.017641,0.044794
3.3825000000000216,-0.08083,-0.014016,0.043487
3.3850000000000198,-0.084274,-0.008754,0.041013
3.387500000000017,-0.083108,-0.005284,0.042931
3.390000000000015,-0.087924,-0.001431,0.037263
3.3925000000000125,-0.093676,0.000682,0.036114
3.3950000000000102,-0.090747,0.003336,0.034133
3.397500000000008,-0.090994,0.004502,0.030886
3.4000000000000057,-0.090092,0.005823,0.026702
3.4025000000000034,-0.0934,0.009631,0.027636
3.405000000000001,-0.091484,0.008512,0.023488
3.407499999999999,-0.092126,0.011707,0.02277
3.4099999999999966,-0.092836,0.007755,0.017265
3.4124999999999943,-0.091103,0.007395,0.016207
3.4150000000000205,-0.088753,0.008526,0.015268
3.417500000000018,-0.089425,0.006285,0.015593
3.420000000000016,-0.089964,0.005423,0.010639
3.4225000000000136,-0.084083,-0.000489,0.010873
3.425000000000012,-0.088355,-8.5e-05,0.011621
3.427500000000009,-0.087057,0.001229,0.00952
3.430000000000007,-0.086746,-0.001521,0.009505
3.4325000000000045,-0.086646,-0.001879,0.00949
3.4350000000000023,-0.085297,-0.003427,0.01291
3.4375,-0.088428,-0.004198,0.014823
3.4399999999999977,-0.087208,-0.002404,0.015623
3.4424999999999955,-0.089817,0.001048,0.012463
3.4450000000000216,-0.085962,-0.000964,0.015891
3.4475000000000198,-0.088823,0.001878,0.012714
3.450000000000017,-0.084373,0.000208,0.011732
3.452500000000015,-0.086091,-0.004655,0.012846
3.4550000000000125,-0.08554,-0.006405,0.013842
3.4575000000000102,-0.086042,-0.007407,0.016262
3.460000000000008,-0.082345,-0.009075,0.016712
3.4625000000000057,-0.079755,-0.008269,0.021424
3.4650000000000034,-0.085156,-0.009115,0.019517
3.467500000000001,-0.089893,-0.003712,0.024729
3.469999999999999,-0.089769,-0.000319,0.021271
3.4724999999999966,-0.087862,0.002601,0.019716
3.4749999999999943,-0.086644,0.009056,0.020892
3.4775000000000205,-0.088494,0.009899,0.022013
3.480000000000018,-0.09435,0.002409,0.023776
3.482500000000016,-0.094332,0.00355,0.026206
3.4850000000000136,-0.094488,0.007028,0.026257
3.487500000000012,-0.092006,3.4e-05,0.026841
3.490000000000009,-0.093395,-0.002462,0.024726
3.492500000000007,-0.095679,-0.005895,0.027775
3.4950000000000045,-0.098239,-0.008252,0.02931
3.4975000000000023,-0.102036,-0.009115,0.027937
3.5,-0.100383,-0.003925,0.02906
3.5024999999999977,-0.102879,-0.006171,0.028575
3.5049999999999955,-0.100963,-0.006741,0.028834
3.5075000000000216,-0.103183,-0.004736,0.02564
3.5100000000000198,-0.103197,-0.003484,0.022598
3.512500000000017,-0.105073,-0.004122,0.023273
3.515000000000015,-0.105149,-0.00319,0.02361
3.5175000000000125,-0.104499,-0.003695,0.02302
3.5200000000000102,-0.104696,-0.003821,0.024084
3.522500000000008,-0.106011,-0.001523,0.019331
3.5250000000000057,-0.10704,-0.000754,0.01976
3.5275000000000034,-0.103448,-0.000399,0.01874
3.530000000000001,-0.105999,-0.000501,0.019019
3.532499999999999,-0.105624,-0.003134,0.017994
3.5349999999999966,-0.102824,-0.0016,0.016103
3.5374999999999943,-0.104129,-0.002089,0.018186
3.5400000000000205,-0.103998,0.002492,0.015718
3.542500000000018,-0.105582,0.000346,0.015188
3.545000000000016,-0.102919,-0.001965,0.016964
3.5475000000000136,-0.103511,0.000442,0.015073
3.550000000000012,-0.103354,0.000262,0.016265
3.552500000000009,-0.104095,-0.001453,0.017742
3.555000000000007,-0.103147,-0.000444,0.016441
3.5575000000000045,-0.101027,-0.002512,0.016185
3.5600000000000023,-0.104642,-0.003572,0.013623
3.5625,-0.104609,-0.000161,0.017495
3.5649999999999977,-0.106815,-0.003669,0.014824
3.5674999999999955,-0.099769,-0.000414,0.013927
3.5700000000000216,-0.103414,-0.007471,0.016937
3.5725000000000198,-0.107126,-0.002438,0.016276
3.575000000000017,-0.105011,0.001473,0.016687
3.577500000000015,-0.104709,-0.00025,0.015283
3.5800000000000125,-0.10401,0.000269,0.016182
3.5825000000000102,-0.105208,0.001053,0.015577
3.585000000000008,-0.105287,0.00334,0.013275
3.5875000000000057,-0.102882,-0.002655,0.014354
3.5900000000000034,-0.104192,-0.003172,0.015261
3.592500000000001,-0.103511,-0.000446,0.019152
3.594999999999999,-0.104801,-0.00408,0.01779
3.5974999999999966,-0.105824,-0.005347,0.012732
3.5999999999999943,-0.105377,-0.001186,0.016875
3.6025000000000205,-0.105193,-0.001644,0.017285
3.605000000000018,-0.100389,0.002088,0.014728
3.607500000000016,-0.105952,-0.00249,0.01459
3.6100000000000136,-0.102879,-0.002597,0.012115
3.6125000000000114,-0.103541,-0.000772,0.016627
3.615000000000009,-0.102738,-0.004275,0.014647
3.617500000000007,-0.100461,-0.001149,0.012872
3.620000000000005,-0.095594,-0.000787,0.012875
3.6225000000000014,-0.100254,-0.00184,0.012217
3.625,-0.097214,0.00094,0.015131
3.6274999999999977,-0.096938,-0.001612,0.014145
3.629999999999996,-0.095841,-0.004373,0.014428
3.6325000000000216,-0.094068,0.0011,0.010718
3.6350000000000193,-0.093172,-0.002357,0.012311
3.637500000000017,-0.092095,-0.002839,0.011631
3.640000000000015,-0.093196,-0.002056,0.012163
3.642500000000013,-0.092888,-0.003226,0.015668
3.64500000000001,-0.093396,-0.00318,0.009552
3.647500000000008,-0.085889,-0.003922,0.013307
3.6500000000000057,-0.088607,-0.002293,0.015693
3.6525000000000034,-0.089039,9.5e-05,0.012378
3.655000000000001,-0.088577,0.000826,0.014227
3.657499999999999,-0.086142,0.001278,0.011011
3.6599999999999966,-0.084502,0.000318,0.012297
3.6624999999999934,-0.085914,-5.1e-05,0.011296
3.665000000000021,-0.084633,-0.000344,0.014888
3.667500000000018,-0.081134,0.000436,0.010543
3.670000000000016,-0.082621,0.000887,0.011257
3.6725000000000136,-0.084081,-0.000525,0.013337
3.6750000000000114,-0.080754,-0.000428,0.014425
3.677500000000009,-0.079033,-0.001559,0.012753
3.680000000000007,-0.077409,0.000644,0.011196
3.682500000000005,-0.075458,-0.002277,0.014757
3.6850000000000014,-0.076798,0.000558,0.014482
3.6875,-0.074612,-0.002247,0.012415
3.6899999999999977,-0.070426,-0.001702,0.015091
3.692499999999996,-0.071439,-0.000948,0.015187
3.6950000000000216,-0.068246,0.000935,0.014064
3.6975000000000193,-0.065665,-0.001776,0.011528
3.700000000000017,-0.066586,0.00099,0.011493
3.702500000000015,-0.062451,0.000883,0.012281
3.705000000000013,-0.063013,0.000351,0.01222
3.70750000000001,-0.061025,0.001846,0.013063
3.710000000000008,-0.059631,0.000355,0.013975
3.7125000000000057,-0.057791,0.001996,0.012194
3.7150000000000034,-0.053279,0.003134,0.012959
3.717500000000001,-0.052235,-0.001518,0.012278
3.719999999999999,-0.050175,0.000722,0.013777
3.7224999999999966,-0.0522,-0.004427,0.012068
3.7249999999999934,-0.047305,0.000126,0.011321
3.727500000000021,-0.047661,-0.001186,0.01081
3.730000000000018,-0.046146,0.002707,0.011183
3.732500000000016,-0.04334,0.001533,0.014184
3.7350000000000136,-0.044039,0.00064,0.011691
3.7375000000000114,-0.043681,0.000883,0.010242
3.740000000000009,-0.041504,0.003923,0.01285
3.742500000000007,-0.03718,0.004413,0.014866
3.745000000000005,-0.038767,0.001775,0.012245
3.7475000000000014,-0.03708,-0.001165,0.011518
3.75,-0.036846,-0.001237,0.010239
3.7524999999999977,-0.037822,-0.000139,0.010365
3.754999999999996,-0.031564,0.001881,0.009982
3.7575000000000216,-0.034179,0.002918,0.013065
3.7600000000000193,-0.033294,0.001814,0.013528
3.762500000000017,-0.031492,0.001436,0.010199
3.765000000000015,-0.03271,0.002893,0.01102
3.767500000000013,-0.03148,0.001324,0.013416
3.77000000000001,-0.029966,0.00288,0.012399
3.772500000000008,-0.023738,0.000789,0.012688
3.7750000000000057,-0.027458,0.001553,0.01271
3.7775000000000034,-0.02929,0.003674,0.01174
3.780000000000001,-0.023864,-0.000568,0.012776
3.782499999999999,-0.023137,-5.5e-05,0.012892
3.7849999999999966,-0.024353,0.001929,0.011653
3.7874999999999934,-0.0229,0.005872,0.009165
3.790000000000021,-0.020972,0.002075,0.010855
3.792500000000018,-0.019321,0.003024,0.011446
3.795000000000016,-0.018208,0.003087,0.010713
3.7975000000000136,-0.016634,0.002899,0.009558
3.8000000000000114,-0.018373,0.003036,0.009119
3.802500000000009,-0.015932,0.002071,0.013264
3.805000000000007,-0.015356,0.004411,0.01212
3.807500000000005,-0.013126,-0.001067,0.010892
3.8100000000000014,-0.011514,0.000552,0.011546
3.8125,-0.013839,0.006156,0.011318
3.8149999999999977,-0.012481,0.000384,0.010253
3.817499999999996,-0.011554,0.001564,0.011025
3.8200000000000216,-0.013441,0.003842,0.00895
3.8225000000000193,-0.010304,0.001613,0.011181
3.825000000000017,-0.01388,0.001807,0.013012
3.827500000000015,-0.011542,0.003576,0.010664
3.830000000000013,-0.010827,0.000177,0.009394
3.83250000000001,-0.009803,-0.001134,0.013059
3.835000000000008,-0.012687,-0.001669,0.012497
3.8375000000000057,-0.014277,0.003473,0.013828
3.8400000000000034,-0.01175,0.002254,0.012671
3.842500000000001,-0.010943,0.003884,0.011424
3.844999999999999,-0.012229,0.002461,0.01244
3.8474999999999966,-0.014228,0.003149,0.010214
3.8499999999999934,-0.008571,0.00049,0.012735
3.852500000000021,-0.010255,0.004029,0.010828
3.855000000000018,-0.012581,0.001995,0.010622
3.857500000000016,-0.010574,-0.001618,0.014286
3.8600000000000136,-0.012274,0.006012,0.011417
3.8625000000000114,-0.01349,0.003592,0.012571
3.865000000000009,-0.012478,0.000183,0.011451
3.867500000000007,-0.014253,-0.000131,0.011048
3.870000000000005,-0.011663,0.002281,0.012884
3.8725000000000014,-0.010602,-7.5e-05,0.012588
3.875,-0.012182,0.001349,0.01018
3.8774999999999977,-0.011471,0.001483,0.011175
3.879999999999996,-0.010198,0.00268,0.010995
3.8825000000000216,-0.012697,0.001963,0.010461
3.8850000000000193,-0.012194,0.002681,0.012546
3.887500000000017,-0.009859,0.002299,0.012069
3.890000000000015,-0.009292,0.00276,0.011375
3.892500000000013,-0.012743,0.002285,0.010436
3.89500000000001,-0.010298,0.002318,0.011406
3.897500000000008,-0.011615,0.001874,0.009804
3.9000000000000057,-0.009292,-0.000533,0.011002
3.9025000000000034,-0.009455,0.0005,0.011214
3.905000000000001,-0.006102,0.003239,0.009552
3.907499999999999,-0.005955,0.004864,0.012436
3.9099999999999966,-0.008741,0.005867,0.010789
3.9124999999999934,-0.004609,-0.000642,0.010011
3.915000000000021,-0.005028,0.003753,0.008529
3.917500000000018,-0.009379,0.004516,0.011175
3.920000000000016,-0.005256,0.001404,0.00926
3.9225000000000136,-0.003581,0.001613,0.01191
3.9250000000000114,-0.004095,-0.001377,0.010296
3.927500000000009,-0.004776,0.002178,0.01158
3.930000000000007,-0.002629,0.004398,0.010742
3.932500000000005,-0.002465,0.000759,0.008664
3.9350000000000014,-0.006047,0.000957,0.011244
3.9375,-0.000407,0.001583,0.01133
3.9399999999999977,-0.004739,0.000232,0.011518
3.942499999999996,-0.000937,0.000276,0.012781
3.9450000000000216,-0.001797,0.004949,0.011437
3.9475000000000193,-0.004072,0.002342,0.009758
3.950000000000017,-0.000337,0.002236,0.00876
3.952500000000015,-0.004092,-0.001037,0.009071
3.955000000000013,-0.003611,-0.000787,0.007655
3.95750000000001,-0.000772,0.0011,0.008463
3.960000000000008,0.002187,-0.002158,0.009673
3.9625000000000057,0.000427,0.00188,0.007192
3.9650000000000034,-0.001805,0.001254,0.008739
3.967500000000001,0.001169,0.002512,0.010238
3.969999999999999,0.002106,0.002445,0.009321
3.9724999999999966,-0.001837,0.00354,0.00876
3.9749999999999934,0.002915,0.00465,0.014208
3.977500000000021,0.002673,-0.000787,0.013194
3.980000000000018,0.002135,0.001103,0.008423
3.982500000000016,0.002109,0.000768,0.010551
3.9850000000000136,-0.000866,0.000557,0.012291
3.9875000000000114,0.002079,-0.000915,0.010442
3.990000000000009,0.00402,0.004194,0.012755
3.992500000000007,-0.00062,0.001074,0.010667
3.995000000000005,0.001829,0.004259,0.009336
3.9975000000000014,0.002081,0.003637,0.008149
4.0,0.002614,0.003334,0.008271
4.002499999999998,0.001348,0.001425,0.009201
4.004999999999996,0.000446,0.002947,0.011066
4.007500000000022,0.00276,0.002829,0.013853
4.010000000000019,0.000525,0.003716,0.008825
4.012500000000017,0.00292,0.003799,0.011141
4.015000000000015,0.004881,0.001622,0.008898
4.0175000000000125,0.002681,-0.000629,0.010774
4.02000000000001,0.004118,0.000726,0.013403
4.022500000000008,0.000777,0.002647,0.012446
4.025000000000006,0.003643,0.000956,0.010755
4.027500000000003,0.007995,0.001531,0.010546
4.030000000000001,0.003485,0.002409,0.011454
4.032499999999999,0.002266,0.00212,0.010354
4.034999999999997,0.006189,0.000257,0.008393
4.037499999999994,0.005887,0.002151,0.012507
4.0400000000000205,0.004863,0.002918,0.011665
4.042500000000018,0.001899,0.001875,0.010427
4.045000000000016,0.000928,0.002681,0.010996
4.047500000000014,0.005815,0.002188,0.010855
4.050000000000011,0.003729,0.001813,0.009831
4.052500000000009,0.001053,0.004784,0.009988
4.055000000000007,0.005928,0.003164,0.010257
4.0575000000000045,0.005595,0.000251,0.00959
4.060000000000002,0.003249,0.001968,0.008012
4.0625,0.003278,0.004452,0.00971
4.064999999999998,0.006335,0.003893,0.011849
4.067499999999996,0.005133,-0.000219,0.011698
4.070000000000022,0.000998,0.000327,0.009304
4.072500000000019,0.001838,0.002284,0.010061
4.075000000000017,0.002243,0.002947,0.008556
4.077500000000015,0.004204,0.000233,0.012138
4.0800000000000125,0.007359,0.002498,0.009062
4.08250000000001,0.003191,0.002464,0.013628
4.085000000000008,0.00364,0.003246,0.006344
4.087500000000006,0.003979,0.003523,0.00976
4.090000000000003,0.004736,0.00528,0.010207
4.092500000000001,0.005851,0.002245,0.006414
4.094999999999999,0.002163,0.002693,0.010001
4.097499999999997,0.002856,0.004708,0.012188
4.099999999999994,0.001948,0.003559,0.011528
4.1025000000000205,5.7e-05,0.003136,0.01156
4.105000000000018,0.002701,0.000303,0.007551
4.107500000000016,0.004994,0.000942,0.009254
4.110000000000014,0.00185,0.00175,0.011978
4.112500000000011,0.000539,0.003912,0.008021
4.115000000000009,0.003249,0.001512,0.008012
4.117500000000007,0.002641,0.002829,0.010396
4.1200000000000045,0.005754,0.002255,0.008594
4.122500000000002,0.003114,0.0024,0.010263
4.125,-6.3e-05,0.002448,0.01012
4.127499999999998,0.000984,0.002813,0.012379
4.129999999999996,0.001157,0.001749,0.012063
4.132500000000022,0.003655,0.001691,0.010494
4.135000000000019,0.002364,0.0021,0.007591
4.137500000000017,0.00049,0.003218,0.012604
4.140000000000015,0.002103,0.002136,0.011758
4.1425000000000125,0.005563,0.003428,0.011512
4.14500000000001,0.00296,0.001418,0.011948
4.147500000000008,0.004447,0.003431,0.011925
4.150000000000006,0.002704,-0.000836,0.011701
4.152500000000003,0.001291,0.005042,0.011645
4.155000000000001,-0.002013,-4.3e-05,0.008761
4.157499999999999,-0.000666,-0.001338,0.010482
4.159999999999997,0.003012,0.002935,0.008064
4.162499999999994,0.000644,0.003055,0.009135
4.1650000000000205,0.000673,0.001691,0.009731
4.167500000000018,0.003328,0.004404,0.009843
4.170000000000016,-0.001895,0.003033,0.009725
4.172500000000014,-0.00084,0.000847,0.012722
4.175000000000011,-0.001422,-0.001068,0.010765
4.177500000000009,0.000437,0.001881,0.011454
4.180000000000007,0.000171,-0.000243,0.009593
4.1825000000000045,-0.001262,0.001993,0.01078
4.185000000000002,-0.000867,0.00013,0.009253
4.1875,0.000686,0.005267,0.008821
4.189999999999998,-4.2e-05,0.00158,0.007469
4.192499999999996,0.003689,-0.000481,0.01118
4.195000000000022,-0.002573,0.000314,0.007781
4.197500000000019,0.000455,0.001525,0.009315
4.200000000000017,0.00033,0.003143,0.010245
4.202500000000015,-0.001846,0.00109,0.011931
4.2050000000000125,-0.000283,0.000981,0.01315
4.20750000000001,-0.001533,0.003944,0.007559
4.210000000000008,-0.002883,0.000957,0.010044
4.212500000000006,-0.001103,0.000841,0.010116
4.215000000000003,-0.002344,0.004176,0.009989
4.217500000000001,-0.001049,0.003348,0.010591
4.219999999999999,-0.00373,-0.000101,0.012176
4.222499999999997,-0.003691,0.003991,0.00905
4.224999999999994,-0.003394,0.004346,0.010917
4.2275000000000205,-0.003101,0.000647,0.007883
4.230000000000018,-0.004305,0.001381,0.010291
4.232500000000016,-0.002816,0.001951,0.007956
4.235000000000014,-0.003739,0.002576,0.009281
4.237500000000011,-0.002775,0.003099,0.009892
4.240000000000009,-0.002263,0.002361,0.010126
4.242500000000007,-0.003526,0.001013,0.012001
4.2450000000000045,-0.006427,-0.000243,0.0099
4.247500000000002,-0.006267,0.000715,0.011381
4.25,-0.004224,0.002386,0.012074
4.252499999999998,-0.004731,-0.000495,0.011735
4.254999999999996,-0.004251,-0.001052,0.010514
4.257500000000022,-0.002147,0.001151,0.012466
4.260000000000019,-0.007796,0.002033,0.012403
4.262500000000017,-0.00347,0.000667,0.010549
