time,Gyr_X,Gyr_Y,Gyr_Z
0.0,-0.0401767548164748,0.0038774980725392,-0.0081610694170454
0.0100000000000051,-0.0340331691275288,-0.0081896573811272,-0.0114291900084943
0.019999999999996,-0.0349018928414524,0.002187961725566,-0.0003122437887917
0.0300000000000011,-0.0430513895542237,0.001304971065867,-0.0078095821722572
0.0400000000000062,-0.043624776979022,-0.0013296010464542,-0.0038127702063281
0.0499999999999971,-0.0434989104032589,0.0048780010316844,0.0151736431396574
0.0600000000000022,-0.0667901769735166,-0.0048882128403715,0.0104544271293259
0.0699999999999931,-0.0734680699385761,0.0047598538806598,0.0012813816812705
0.0799999999999983,-0.0523220858013555,-0.0153061065698008,-0.0002453447607514
0.0900000000000034,-0.05756496910783,0.0031432010387305,0.0011890323879673
0.0999999999999943,-0.0587098756416432,0.0002123246961056,0.0120984421522834
0.1099999999999994,-0.0603400810620851,-0.0054331100870055,0.0074357641359707
0.1200000000000045,-0.0702883828277735,-0.0016162671233181,0.0192357423782907
0.1299999999999954,-0.0578659145490973,0.002493435334492,0.0118301049948032
0.1400000000000005,-0.0542611143465008,0.0095718967298291,0.0146559770554968
0.1500000000000056,-0.0597492301580384,-0.0043068003644054,0.0206920351677082
0.1599999999999966,-0.0541762782794085,0.0059696437874653,0.0137479354693579
0.1700000000000017,-0.0447495647234763,0.0062499847539017,0.0205653160398822
0.1799999999999926,-0.0658852462173034,0.0032479304224733,0.028839669588807
0.1899999999999977,-0.059871633985635,0.01584128016666,0.0206539602536077
0.2000000000000028,-0.049003136400354,0.0126970094100858,0.0251655845645798
0.2099999999999937,-0.0402473189383607,-0.0012923562996019,0.0187833067807675
0.2199999999999988,-0.0489722059919527,0.0134331951756285,0.0216271786740508
0.2300000000000039,-0.0387139946228276,0.0265523352750897,0.0257482487433759
0.2399999999999948,-0.0492446878533374,0.0081888450212772,0.0384418872453337
0.25,-0.031656500657679,0.0041985731480773,0.0363024160651616
0.2600000000000051,-0.0409921360093707,0.0167031521812391,0.0154164072638913
0.269999999999996,-0.0494083553433451,0.0172169800669508,0.0381331548878447
0.2800000000000011,-0.0261614445264092,0.0149752170688967,0.0285880473248871
0.2900000000000062,-0.0252360810875279,0.0138893006804507,0.0282558950871091
0.2999999999999971,-0.0335574040802945,0.0227271108101242,0.0427755409270367
0.3100000000000023,-0.0294887878028155,0.016509288919858,0.0203299595944881
0.3199999999999932,-0.0176109748950567,0.0115069878716177,0.0418335284987165
0.3299999999999983,-0.0135932963328661,0.0045131621426307,0.0325813157209636
0.3400000000000034,-0.0088230925275763,0.0097712207063834,0.0417942810015697
0.3499999999999943,-0.0117795527128933,-0.0058522711405082,0.0369785729407989
0.3599999999999994,-0.0186981988884859,0.0166590006854514,0.0418481447057166
0.3700000000000045,-0.0030615185788174,0.0063237131389588,0.0465552477652504
0.3799999999999954,-0.0133173368901445,0.0027978935702718,0.0383274192641345
0.3900000000000005,-0.0278852199159477,0.0010538159506135,0.0537720577867526
0.4000000000000057,-0.0266592780577107,-0.0128403102957074,0.0419996760904422
0.4099999999999966,-0.0345277989552698,-0.0033617786440498,0.0291197422316672
0.4200000000000017,-0.0159736078821179,-0.0119281542665507,0.034895463028749
0.4299999999999926,-0.0062674764491623,0.0010798630538912,0.0368401869607415
0.4399999999999977,-6.424877195841097e-05,-0.0006174871502748,0.0312260271101015
0.4500000000000028,0.0167207263046158,0.0080901968760485,0.0427966509091296
0.4599999999999937,0.006918250041184,0.0184488240201141,0.0293758878551873
0.4699999999999988,0.0169518519432177,0.0011157629402682,0.0330794040135501
0.480000000000004,-0.0002375125881266,0.0149859159559628,0.0311950640342595
0.4899999999999949,-0.0148319179443126,0.0052975877145222,0.0235585270686225
0.5,-0.0269553918185094,0.00280231968947,0.0402449194789783
0.5100000000000051,-0.0271136400998965,0.0060882585448194,0.0183311627485882
0.519999999999996,-0.0179057822062787,-0.0075571717925443,0.0287793853135494
0.5300000000000011,-0.0306572377318817,-0.0095230626113658,0.0254098301656737
0.5400000000000063,-0.0233531453430287,0.0054522588621707,0.0314710628532265
0.5499999999999972,-0.0095051778016031,0.0078497124986255,0.0295995510236817
0.5600000000000023,-0.0020996801913342,0.0029630950823939,0.0331225597878908
0.5699999999999932,-0.0078013297890072,2.654592571891602e-05,0.0374890862511973
0.5799999999999983,-0.0110834928976811,0.018555693021952,0.033162900544975
0.5900000000000034,-0.0061218171670526,0.0026108694234802,0.0453883260393646
0.5999999999999943,0.0108856571523307,0.0118152835258076,0.0471810233778413
0.6099999999999994,0.0132879235393149,0.0182386902634653,0.0469719448858675
0.6200000000000045,0.0116908731873149,0.0058385951595047,0.0525223917167138
0.6299999999999955,0.0275170149813776,-0.0008176259069039,0.0495414060247563
0.6400000000000006,0.0151990445179393,-0.0061947269673838,0.0560584100062205
0.6500000000000057,0.0094721909581241,0.0042853139651867,0.0672912538371721
0.6599999999999966,0.0150122765580306,0.0051486365511651,0.0595535119644885
0.6700000000000017,0.0113032498549059,0.0024692711549477,0.0646287290787578
0.6799999999999926,0.0077866073403884,0.0035050414479028,0.0648835233694693
0.6899999999999977,0.0023458812688359,-0.0010825101990494,0.0726628110341055
0.7000000000000028,0.0049726708151941,-0.0007148593677069,0.0737168464488549
0.7099999999999937,-0.0027222387271141,-0.0167615224424591,0.063084144972199
0.7199999999999989,0.0058348878341248,-0.0153423160210797,0.0755030223107824
0.730000000000004,0.0075584414659243,-0.0045669975351951,0.0833413230780507
0.7399999999999949,-0.0051678968152219,-0.0048810221081748,0.0896273197059797
0.75,-0.0034464618328353,0.0179075815530415,0.1028306169107453
0.7600000000000051,-0.0215869197896123,0.0194123755565082,0.1055059377821231
0.769999999999996,0.0070227034300643,0.0092982637151649,0.121354599711724
0.7800000000000011,0.0027360208269589,0.0282710921722786,0.131754882770703
0.7900000000000063,-0.0110105176692845,0.0352102527414342,0.1399680458195282
0.7999999999999972,-0.0011845892239278,0.0352640941292227,0.1493684977446621
0.8100000000000023,-0.0040126099944957,0.043918531650889,0.1523040849228215
0.8199999999999932,0.0250197567047784,0.0510272823845809,0.1650313947190234
0.8299999999999983,0.0471768914814195,0.0684277628302163,0.1659994242971228
0.8400000000000034,0.0713663619718827,0.07037736689363,0.1929472646838977
0.8499999999999943,0.1089124142549808,0.0774410395763708,0.1919836602996739
0.8599999999999994,0.1569203575912525,0.0794255549971624,0.2117628824478425
0.8700000000000045,0.1671037811504982,0.0768842389607332,0.218853142751706
0.8799999999999955,0.1946556673987025,0.0778571169049722,0.2326917820224734
0.8900000000000006,0.2232892877069649,0.0815343249604588,0.2580499244801552
0.9000000000000057,0.2232980394817909,0.0815359913540525,0.2643273465278103
0.9099999999999966,0.2444435584035427,0.0712962006219795,0.2719325663253485
0.9200000000000016,0.2616329564875769,0.0817907407434683,0.3002900944890012
0.9299999999999926,0.2668423540510637,0.0853667421901348,0.3086469484361017
0.9399999999999976,0.2876953541889702,0.0992721941869452,0.3230941807042054
0.9500000000000028,0.287533646543718,0.104593897502232,0.3427632568365664
0.9599999999999936,0.3101508473726586,0.0976966855828577,0.3627199063522593
0.9699999999999988,0.3294424712540086,0.1118010781482852,0.3838002555422944
0.980000000000004,0.339707494289264,0.1160931327889219,0.3934405632730591
0.9899999999999948,0.3621865894221447,0.1311203455113631,0.4363949377522897
1.0,0.3475399738631761,0.1414150054266348,0.4525238495519437
1.0100000000000051,0.3047663029635129,0.1431117345871147,0.4737166953181778
1.019999999999996,0.2891390327681885,0.1405166935198308,0.5059477702414801
1.0300000000000011,0.2471256985941081,0.1413403881114645,0.5270193259519765
1.0400000000000065,0.2239010027980643,0.1447483576009461,0.5435662360516134
1.0499999999999972,0.1914773075525641,0.1135560195646387,0.5786232965546783
1.0600000000000025,0.1851158227749053,0.1075499991796697,0.6057238133470352
1.0699999999999932,0.1659638071781101,0.1048731818640951,0.622882034234503
1.0799999999999983,0.1456435259003299,0.1118316743598475,0.6421244517541523
1.0900000000000034,0.13488817574885,0.1134989739250329,0.6768330713280701
1.0999999999999943,0.0942712141760069,0.1023252802637547,0.7086689811133113
1.1099999999999994,0.070056827585905,0.1194134696757683,0.7399030784383217
1.1200000000000043,0.0665840443069898,0.120593147906685,0.781092184521342
1.1299999999999957,0.0441169057303957,0.1219841788900907,0.8114650365164986
1.1400000000000006,0.0512435519692637,0.132888234972834,0.8588019303372789
1.1500000000000057,0.0818664071394247,0.1395728121556388,0.8843786918637145
1.1599999999999966,0.0912257764021336,0.1470670138145321,0.9078346990934018
1.1700000000000017,0.112807345111848,0.1449483903291038,0.940551122301551
1.1799999999999926,0.1222304652719216,0.1473549282522164,0.9728334185660849
1.1899999999999975,0.1327459417372208,0.1607157208689516,1.0250356890508214
1.2000000000000028,0.1405600927750739,0.1511018519519634,1.0538012545535005
1.2099999999999935,0.1441713645984858,0.1556191570356984,1.095502760951167
1.2199999999999989,0.1517178485711031,0.142744981223099,1.1436957552570393
1.230000000000004,0.1677690485223489,0.1229790169502338,1.187184840381317
1.2399999999999949,0.1834784460451143,0.1249117266148147,1.2211398300790235
1.25,0.1772853541250439,0.1023947346561182,1.2700932183388924
1.2600000000000051,0.1656166860372879,0.0939275763463615,1.304197024930157
1.269999999999996,0.1696485031446972,0.0660623340336886,1.3214077785017682
1.2800000000000011,0.1561149331127121,0.0464546779782816,1.3661182467702595
1.2900000000000065,0.1249859869810734,0.0366417499358453,1.4135860681530803
1.2999999999999972,0.1073998225249727,-0.0054777038662262,1.444163941375885
1.3100000000000025,0.0916731549766968,-0.0136142066106523,1.4633800605680063
1.3199999999999932,0.0979532754856016,-0.0348307707918776,1.4936442606219915
1.3299999999999983,0.0802843879461635,-0.0394847363088984,1.5130050185527677
1.3400000000000034,0.102762288336688,-0.045093202151585,1.5306324850780992
1.3499999999999943,0.1112034360973238,-0.0548076380347229,1.5746035684227042
1.3599999999999994,0.1304149102081307,-0.0751587422712886,1.5886769605915538
1.3700000000000043,0.1612539320414086,-0.0891879413520361,1.6078799687495529
1.3799999999999957,0.1410868445214422,-0.0931646964545605,1.6485742117744522
1.3900000000000006,0.1449356571718431,-0.0872858703790371,1.6821938432249313
1.4000000000000057,0.1572436065227966,-0.0912664415376287,1.6943055305247146
1.4099999999999966,0.1497467625814899,-0.0836529138211119,1.706941244977833
1.4200000000000017,0.1565981729537166,-0.0851059066489259,1.7322550765064684
1.4299999999999926,0.1578019492876099,-0.0834166415181746,1.751087394753755
1.4399999999999975,0.1150353517413355,-0.0470543367730849,1.7669484825474238
1.4500000000000028,0.0541305899554658,-0.0281964515251192,1.7834905844388564
1.4599999999999935,-0.0329266242798385,0.0139623202421283,1.797847507162853
1.4699999999999989,-0.1129315986367318,0.0475128750575476,1.7844966571308465
1.480000000000004,-0.1889295882800985,0.0661695301380061,1.7768076909618025
1.4899999999999949,-0.2725310366806575,0.1128285652064202,1.7660373252867412
1.5,-0.3432706738905616,0.1477930353981985,1.7538609173858146
1.5100000000000051,-0.3751568052184902,0.1904115999426041,1.7321372814331004
1.519999999999996,-0.4158919490744937,0.2236297146220177,1.7224696923799916
1.5300000000000011,-0.4102776019041523,0.2560485314920527,1.6960050098353443
1.5400000000000065,-0.4067328056623222,0.2892848180455558,1.6799024190088792
1.5499999999999972,-0.4136821081344322,0.3217493912589078,1.6710597827537668
1.5600000000000025,-0.41266511320307,0.328891069480956,1.6436107423644355
1.5699999999999932,-0.4022897418812769,0.3424000503607017,1.6231825429616802
1.5799999999999983,-0.4059430048578752,0.3564444413672248,1.5967163521109904
1.5900000000000034,-0.419040138385366,0.3542665904383144,1.564945819772848
1.5999999999999943,-0.3880744685310648,0.3407430540620321,1.5296093613251656
1.6099999999999994,-0.3841554460269086,0.3127195994355931,1.5065985433461984
1.6200000000000043,-0.3580986712467667,0.3079196674589138,1.4871994931591928
1.6299999999999957,-0.3284960736805776,0.2921108765844614,1.4727706215548029
1.6400000000000006,-0.2818648968634185,0.2726181015167722,1.4347030352628265
1.6500000000000057,-0.2565727558801155,0.2515138845670597,1.4300367546499977
1.6599999999999966,-0.2168848015989781,0.2373520637634453,1.4281457560734496
1.6700000000000017,-0.1975933607916189,0.2040182580614211,1.4244385906485744
1.6799999999999926,-0.2006642028244947,0.1871971621702125,1.4263549586741435
1.6899999999999975,-0.195371951768904,0.1641615673890865,1.4157278790158458
1.7000000000000028,-0.2101614671223585,0.1525497389409693,1.4194456955332084
1.7099999999999935,-0.195085463482194,0.1450947257692556,1.405233372338576
1.7199999999999989,-0.1964449220816944,0.1196686111192114,1.3982253726141547
1.730000000000004,-0.1966374950607713,0.1329571165741634,1.3965550594516207
1.7399999999999949,-0.194720290414363,0.1335577890977196,1.394635307573538
1.75,-0.1647909201721449,0.1616097461799119,1.3945646100518208
1.7600000000000051,-0.1202920369640082,0.1822750701505953,1.381589018263201
1.769999999999996,-0.084776110596324,0.1930018174040534,1.3702035306445997
1.7800000000000011,-0.0333611530112247,0.1912360035147975,1.3729852560836877
1.7900000000000065,-0.0194126353419427,0.2062725621393579,1.3795429685346137
1.7999999999999972,-0.0013217530459015,0.204324791454948,1.357731005808466
1.8100000000000025,-0.0032187599114379,0.209736991648062,1.3583284226354535
1.8199999999999927,-0.004860953416145,0.2138183980659702,1.3550226225871045
1.8299999999999983,-0.0151877392376111,0.1819272359396885,1.3338723192475426
1.8400000000000036,-0.0240813959744109,0.173900808411256,1.348169462787861
1.8499999999999943,-0.0647556588707672,0.1678911228037872,1.327306658497001
1.8599999999999997,-0.058877513284354,0.1338706210252561,1.3175968226681676
1.8700000000000043,-0.0757087999314165,0.1054545158694179,1.3029291124569085
1.8799999999999957,-0.0972131575885371,0.0834744503436228,1.2923939089017915
1.8900000000000008,-0.111944209098873,0.051641972647066,1.305171543489335
1.9000000000000057,-0.1288464195360323,0.0452577704118727,1.2900284626234286
1.9099999999999968,-0.1206180539185521,0.0203743136633544,1.2965029578733926
1.9200000000000017,-0.1428785959851481,0.0261358401816322,1.2901154811356024
1.9299999999999928,-0.1487748621733503,0.0115054278666879,1.2790767930861529
1.9399999999999975,-0.1682453076778,-0.0017204871630892,1.2832346676240776
1.9500000000000028,-0.1817937526553795,0.0199580273166661,1.284569300636414
1.9599999999999935,-0.1930331030967136,0.0154659505595267,1.2824260023356495
1.9699999999999989,-0.2117054163905144,0.0300791355251002,1.2617532257888884
1.980000000000004,-0.2168133408590716,0.0430908209936388,1.2692649608146762
1.9899999999999949,-0.2339527341283002,0.0628542488295113,1.2521291861343713
2.0,-0.2358604076989094,0.0793056856154466,1.2340415592130098
2.010000000000005,-0.2531690713331068,0.1223549597886867,1.2140961785292546
2.019999999999996,-0.2658657452452154,0.147517888961796,1.2076300261565949
2.030000000000001,-0.2618546575514381,0.1784615633279458,1.184802554280773
2.0400000000000063,-0.2640142087086379,0.2228099524812762,1.1792244018826692
2.049999999999997,-0.2723870112296081,0.2527532030758129,1.1571779618797304
2.0600000000000023,-0.2661005157812326,0.278931651792228,1.124432024387093
2.069999999999993,-0.2575578236017,0.3098148673996698,1.1021076317076477
2.0799999999999983,-0.2480263025507749,0.3334582595950247,1.081939216557091
2.0900000000000034,-0.2084525946543553,0.3705408575366291,1.0662036193385305
2.0999999999999943,-0.2071489366147106,0.3993265848219309,1.0462828651186415
2.1099999999999994,-0.1938469139340641,0.4198654481789428,1.0270139233180495
2.1200000000000045,-0.1703704146965644,0.4460477754520878,0.991246486392428
2.1299999999999955,-0.1530943381951686,0.4363198167009069,0.9744614014540814
2.140000000000001,-0.1221468065857348,0.4374380798734032,0.964550615072513
2.1500000000000057,-0.0994146214383237,0.4434541158947096,0.950167715862736
2.1599999999999966,-0.1049460625876077,0.423525540305678,0.9381726016893636
2.1700000000000017,-0.106714665754639,0.4053786587334351,0.9273430660108556
2.1799999999999926,-0.1286992507825776,0.3696792641355198,0.9333163574564212
2.1899999999999977,-0.1594476223560163,0.3446578380376626,0.924247946295872
2.200000000000003,-0.1975435613470358,0.3259697054978512,0.9198239335832972
2.2099999999999937,-0.2521458903984474,0.3045902322863947,0.9231872036388868
2.219999999999999,-0.2876527586405513,0.2925872854700888,0.9082598445236904
2.230000000000004,-0.3323685587546635,0.2870806882109039,0.9131918342030206
2.239999999999995,-0.3310255268724546,0.2576885518148407,0.919322270172075
2.25,-0.3366098681293145,0.2629559638100577,0.922126422399266
2.260000000000005,-0.326633091147923,0.252369664385267,0.927336464193625
2.269999999999996,-0.3428558412339509,0.2422844281353177,0.9363369832227928
2.280000000000001,-0.3406781738121711,0.2365298650310983,0.9265498170811076
2.2900000000000063,-0.3333937134392158,0.2363880455857034,0.9609312872841016
2.299999999999997,-0.2898322660082527,0.2435300258172624,0.9667044108201434
2.3100000000000023,-0.2642491180447228,0.2305946606778402,0.965670565804028
2.319999999999993,-0.2329588213111177,0.2175306417100588,0.9760083065062406
2.3299999999999983,-0.209176487602336,0.2048558245034901,0.9644598620102972
2.3400000000000034,-0.1847528150869761,0.1863969493574294,0.968634022426584
2.3499999999999943,-0.1432318825877701,0.1514310187349589,0.9490899799113088
2.3599999999999994,-0.114786935443231,0.1380270801560771,0.9355872402044916
2.3700000000000045,-0.0727902675107806,0.0919333884984131,0.9302084214824028
2.3799999999999955,-0.0305619769342429,0.0594330743037057,0.9086561328811776
2.390000000000001,-0.0003757553743273,0.0150701906886962,0.9042410697316884
2.4000000000000057,0.0194663943085746,-0.0105194076136242,0.91195912322398
2.4099999999999966,0.010611780674673,-0.0611257967012971,0.8937689125244129
2.4200000000000017,0.0128614224527255,-0.0866409790537287,0.9042732184820332
2.4299999999999926,-0.0001468444581121,-0.1165185999375704,0.9064212416187024
2.4399999999999977,-0.0274973121753855,-0.1490023039064106,0.8968025032419102
2.450000000000003,-0.0490851473952602,-0.1565249469619707,0.9245541492160652
2.4599999999999937,-0.0488955556964432,-0.1680369619544279,0.911086193979958
2.469999999999999,-0.0178801590590529,-0.1842558563804715,0.9191084014747586
2.480000000000004,-0.0116878418448663,-0.2032526379157692,0.92149760687493
2.489999999999995,-0.012753520344543,-0.1981031935286822,0.9351145537720784
2.5,-0.021052529577153,-0.1961352249118808,0.9427711326189092
2.510000000000005,-0.0484936820750171,-0.1835534546944612,0.9460440205251992
2.519999999999996,-0.080147231286514,-0.1624193830331463,0.9589936543589022
2.530000000000001,-0.1116412795054854,-0.1587100763668655,0.9535369782941612
2.5400000000000063,-0.1141584200155831,-0.1329991170044847,0.9591031852593794
2.549999999999997,-0.1035741603628041,-0.1292622218944137,0.9446884394668388
2.5600000000000023,-0.1066713954047985,-0.1416428805507785,0.9255242097558706
2.569999999999993,-0.0925003529686588,-0.10334710400457,0.9164030720322092
2.5799999999999983,-0.1177997509499754,-0.0966285202791908,0.9289200725673022
2.5900000000000034,-0.1261856823026956,-0.0878823624369022,0.9167094369907872
2.5999999999999943,-0.1583864586944028,-0.0552900572579505,0.8884277922485504
2.6099999999999994,-0.1772783461227717,-0.0361960631556048,0.8852577261764227
2.6200000000000045,-0.1774634271399361,-0.0451100181137403,0.8495899796748383
2.6299999999999955,-0.1921825435447295,-0.05198217615991,0.8324843617973
2.640000000000001,-0.1468126137580566,-0.0554954931921823,0.8157661988399584
2.6500000000000057,-0.1559868494989427,-0.0588111140493277,0.7970562751727837
2.6599999999999966,-0.1252879669340939,-0.0416186675284371,0.7917118471574596
2.6700000000000017,-0.1150387052013801,-0.0292327635139455,0.7809092772831285
2.6799999999999926,-0.0948242438383211,-0.0190937526772412,0.7622918446428044
2.6899999999999977,-0.1020014869290734,-0.0085311185356576,0.7349484303316496
2.700000000000003,-0.0792166546770628,0.0042200002874416,0.7215109522861954
2.7099999999999937,-0.064092512109341,0.024354400902023,0.6790181252765967
2.719999999999999,-0.0567715292796325,0.0240168495883246,0.6436064685981865
2.730000000000004,-0.0508869415454988,0.0190298730728445,0.6285991738867005
2.739999999999995,-0.0588507431348081,0.0369420578585559,0.6153448543508342
2.75,-0.0699966828116359,0.038693765519965,0.5951057122704142
2.760000000000005,-0.0779320187660972,0.0567512710574153,0.5978129525847898
2.769999999999996,-0.063814471119189,0.0481111739290568,0.5905830954869037
2.780000000000001,-0.0317217909376379,0.0708152616918098,0.601018099207545
2.7900000000000063,-0.0117377787598149,0.0724888931248654,0.5927526205417301
2.799999999999997,0.01486240103439,0.0606371817519734,0.5884334907184858
2.8100000000000023,0.0326035557177599,0.0898063552959673,0.5791203270145585
2.819999999999993,0.0649005732939552,0.0902636853112063,0.5668786489505866
2.8299999999999983,0.0911275354163167,0.1003009948046435,0.5636686663117698
2.8400000000000034,0.125504251551117,0.1183093465354782,0.5453539416868896
2.8499999999999943,0.1638901221587649,0.1281723881020952,0.5348599453070961
2.8599999999999994,0.198263004242477,0.1273346309972124,0.5448665781563865
2.8700000000000045,0.2057061902767042,0.1318153078870121,0.5680344808923631
2.8799999999999955,0.1873510408177347,0.12573329799422,0.5670634543926156
2.890000000000001,0.1840765232722055,0.1300241894147859,0.5805404722282312
2.9000000000000057,0.1462618623420017,0.1257660755073831,0.5921770502139924
2.9099999999999966,0.1183038574038798,0.1107389736904337,0.5881905371374394
2.9200000000000017,0.0961040671021812,0.1047940253526139,0.577689388615998
2.9299999999999926,0.0253934650773939,0.1146515633897104,0.5677350193212639
2.9399999999999977,-0.0534050987806111,0.120652482106465,0.5557668129504804
2.950000000000003,-0.1164609874663135,0.1262036591766747,0.5599244645035214
2.9599999999999937,-0.2011766960004573,0.1313194984407966,0.540860647265515
2.969999999999999,-0.2784280854203967,0.1558258765770808,0.5318851010715864
2.980000000000004,-0.3633967565011259,0.1583942294478845,0.5383387351183309
2.989999999999995,-0.4380297672105549,0.1413949487778868,0.535724400763994
3.0,-0.4749715377259181,0.1389131484008155,0.5408811639831759
3.010000000000005,-0.487623217469759,0.1481768077252606,0.5272990484436179
3.019999999999996,-0.4482281591022034,0.1493381992507786,0.5317681346404618
3.030000000000001,-0.3937806232410884,0.1382174910957961,0.5355349307831825
3.0400000000000063,-0.3311523063741191,0.1168491079407158,0.5415581111164158
3.049999999999997,-0.2663174380679335,0.1249411914680665,0.5489013369161269
3.0600000000000023,-0.2004564834178113,0.1156465888054884,0.5723482164177303
3.069999999999993,-0.1514907746962288,0.0865786154986076,0.5835571151990433
3.0799999999999983,-0.1118755232373494,0.0640082477828678,0.5894049061510673
3.0900000000000034,-0.0889796439000545,0.0463139703818516,0.6186031055054954
3.0999999999999943,-0.0999886410647001,0.0243196885860908,0.6255522873816745
3.1099999999999994,-0.0987436088954208,-0.0038174788850666,0.6348069628098234
3.1200000000000045,-0.0999961078521848,-0.0172865525609846,0.6326666992628147
3.1299999999999955,-0.1009286993883567,-0.0418759989241502,0.617394925000065
3.140000000000001,-0.1227399887011218,-0.0416855539078764,0.6179004475003826
3.1500000000000057,-0.1437213171245382,-0.0334115779212952,0.5824947788860757
3.1599999999999966,-0.18376838124857,-0.0508468696055775,0.5494477781413867
3.1700000000000017,-0.2073830880965787,-0.0493483564137077,0.531848834937411
3.1799999999999926,-0.2399044706004812,-0.0529929452281999,0.5056545565502237
3.1899999999999977,-0.2479776257097523,-0.0357899547620994,0.4738773090658698
3.200000000000003,-0.2373714358995111,-0.021201251387041,0.4402210739762821
3.2099999999999937,-0.230962753603635,-0.0176687369195803,0.4137224501011063
3.219999999999999,-0.2105725633494643,-0.0065030513818692,0.4100050986071024
3.230000000000004,-0.1667264441205849,-0.0044504263761807,0.3938362117101109
3.239999999999995,-0.1570926754298769,0.0074192119951975,0.3707472449374635
3.25,-0.1304717156236636,0.0076944243957314,0.3493204546239975
3.260000000000005,-0.0697134724058381,-0.001088002488401,0.3277605846346578
3.269999999999996,-0.0316679551720903,-0.0059360256306102,0.2832836121712186
3.280000000000001,0.0517739360362723,0.0008826043885743,0.2563668020854605
3.2900000000000063,0.1414750079809623,-0.0227501636691526,0.2220142103651255
3.299999999999997,0.2333556892848069,-0.036696701231815,0.2057997512351096
3.3100000000000023,0.2738684500343223,-0.0414824754972531,0.1539197411645541
3.319999999999993,0.3247396192130996,-0.0521575058704302,0.1329004156620242
3.3299999999999983,0.3366238822122841,-0.0534724565559967,0.1145828695897213
3.3400000000000034,0.3375160090478032,-0.0626000803765963,0.1011648490861701
3.3499999999999943,0.340736972123554,-0.0656865942275855,0.0835716534618403
3.3599999999999994,0.3399747317565841,-0.0713661035161581,0.0537037575941241
3.3700000000000045,0.3503475996479384,-0.0821646282911459,0.0402553440826707
3.3799999999999955,0.3707595895982633,-0.0964179659499454,0.0149186731217079
3.390000000000001,0.3750034960878673,-0.0933890054552818,-0.0057609984298485
3.4000000000000057,0.3749868730214114,-0.0955700521712226,-0.0343187766886525
3.4099999999999966,0.3586525278735963,-0.1177801328431931,-0.0364836454670976
3.4200000000000017,0.3513590854023105,-0.1112368814552544,-0.0481029050094501
3.4299999999999926,0.3145806248717142,-0.1042446841377633,-0.0618570384495747
3.4399999999999977,0.2799331518708041,-0.0890828394358451,-0.0758079478615002
3.450000000000003,0.2163262823491983,-0.0528281022807541,-0.0895812838569428
3.4599999999999937,0.1757839839273956,-0.0358603663431422,-0.1175399172275077
3.469999999999999,0.1607553571695478,-0.0237365071934594,-0.1246070054333722
3.480000000000004,0.1386714521318756,0.0021302734613213,-0.133199364855139
3.489999999999995,0.1294104569231826,-0.0084517800804405,-0.1702998820168686
3.5,0.1430138182083302,-0.0013490009655553,-0.1799546156383002
3.510000000000005,0.1668164451184878,0.009752814113517,-0.1935049317017645
3.519999999999996,0.173891933949489,0.0125254828409886,-0.2269421009490713
3.530000000000001,0.1526768330120321,0.0275991163964,-0.2631504178733014
3.5400000000000063,0.1567842844919426,0.0426677730595289,-0.2710112914024152
3.549999999999997,0.1626917153958372,0.0551638494896702,-0.2906348222548549
3.5600000000000023,0.175662364218721,0.0442605894775606,-0.3391641105019683
3.569999999999993,0.1906800662413817,0.0375767835951377,-0.3746589309382792
3.5799999999999983,0.1857930307279663,0.0726199246337295,-0.4232198021554811
3.5900000000000034,0.1615524005500223,0.0700962421550733,-0.454843339210531
3.5999999999999943,0.1637657021425953,0.0472663200109194,-0.4794901441480091
3.61,0.1569316614780964,0.0733949401623533,-0.5059673268947333
3.620000000000005,0.1219968622479592,0.0409113176135979,-0.5259480298781221
3.629999999999996,0.1026833438920919,0.0427800111856261,-0.547881592820494
3.640000000000001,0.0801723027925166,0.0336929055709219,-0.5670779778450531
3.6500000000000057,0.0431552396801121,0.0104631462427799,-0.5870117655636686
3.6599999999999966,-0.0009516251771691,0.0038502729753481,-0.5804594847422323
3.6700000000000017,-0.0215021710532982,-0.0157011074371912,-0.5855820707931726
3.6799999999999926,-0.0485600562021953,-0.0154691400801567,-0.5879420689074706
3.6899999999999977,-0.1040425352462419,-0.0220163855517656,-0.5779284969367965
3.700000000000003,-0.1104095448808317,-0.0400502369743781,-0.5918124706163098
3.7099999999999937,-0.1387416114125838,-0.0378328126192609,-0.6271450995202704
3.719999999999999,-0.1467278727781039,-0.0387240685248199,-0.6515065706393651
3.730000000000004,-0.162990422243209,-0.0500760492661762,-0.6640630314779038
3.739999999999995,-0.188569879442281,-0.0399441394184975,-0.6934478253596721
3.75,-0.2244205694147715,-0.0425619614959076,-0.7104105031425519
3.760000000000005,-0.2590406943722506,-0.0489400155145441,-0.7191569831592249
3.769999999999996,-0.2847633743326413,-0.0288369721152664,-0.7161299040250501
3.780000000000001,-0.3355752817111606,-0.0292676122586692,-0.7060560417513388
3.7900000000000063,-0.3414297534108584,-0.02815872485708,-0.7245439001508341
3.799999999999997,-0.3575544352303043,0.003501669465552,-0.7234201439851762
3.8100000000000014,-0.3753628635840095,0.0297474961342682,-0.7280252380660394
3.819999999999993,-0.3759296266551783,0.0622344412857956,-0.7479311184034386
3.8299999999999983,-0.3846081807162739,0.0616591764423561,-0.7669060458739514
3.8400000000000034,-0.391119009419746,0.0776516465728765,-0.790050370294097
3.8499999999999934,-0.384703304753338,0.07448557637257,-0.8235142940625162
3.86,-0.3515756277291522,0.0689261279324206,-0.8669662932808004
3.870000000000005,-0.3216040996404129,0.071013654874664,-0.892914768356425
3.879999999999996,-0.2926549496095578,0.0473123030711316,-0.9334536304259214
3.890000000000001,-0.2750890051173911,0.0267307323411314,-0.9673752945091756
3.9000000000000057,-0.2538038874082013,-0.0107368578850156,-1.0058635173280617
3.9099999999999966,-0.2755922197876189,-0.019425145106006,-1.039641646633312
3.9200000000000017,-0.2808079834088929,-0.0128118552054533,-1.0797072765348428
3.9299999999999926,-0.2880442383643672,-0.033579473294828,-1.0978265422573508
3.9399999999999977,-0.2868373525527971,-0.0441673450579187,-1.1307913797812543
3.950000000000003,-0.2498515817470206,-0.0605529841761562,-1.1616108311655506
3.9599999999999937,-0.2101274989612043,-0.0804385124635347,-1.199223276518408
3.969999999999999,-0.1728115973941789,-0.080363140519695,-1.2168003850347089
3.980000000000004,-0.1382958323314649,-0.1096759838416006,-1.2429004893715283
3.989999999999995,-0.1072746624751975,-0.1252641026894723,-1.2629897604641902
4.0,-0.0656874468325552,-0.1328512396068938,-1.282240661238163
4.010000000000005,-0.0207765917090043,-0.1492832382215696,-1.295276282212477
4.019999999999996,0.0130761386730245,-0.1491145424991838,-1.3243329066408014
4.030000000000001,0.0647325777848924,-0.1430104326061603,-1.3293956103199074
4.040000000000006,0.0901964287295778,-0.1557475249755669,-1.3222797062619869
4.049999999999997,0.1304825099735672,-0.1696119126614026,-1.3332480642327722
4.060000000000002,0.1080629056204081,-0.1332402552779965,-1.3401615202138997
4.069999999999993,0.1159272535913409,-0.1263379986515614,-1.322564279743882
4.079999999999998,0.0968953065329244,-0.1055737714355888,-1.3181498633858062
4.090000000000003,0.0810693074193702,-0.0640401496070846,-1.3205881926308058
4.099999999999994,0.0920156891506104,-0.0639856451088506,-1.3085143950461182
4.109999999999999,0.1259282327343664,-0.044586555461896,-1.2978775441486716
4.1200000000000045,0.1420649640523103,-0.0230369794635852,-1.2939879931291445
4.129999999999996,0.1451635768298198,-0.0079879676586803,-1.28034778327521
4.140000000000001,0.1865844518657483,0.0100835660221895,-1.264387427709002
4.150000000000006,0.2032072017087957,0.0460711089006899,-1.2560513561018238
4.159999999999997,0.2086552443727755,0.082060376230426,-1.234738528759215
4.170000000000002,0.2147776212508317,0.1208152458296381,-1.2191626644649354
4.179999999999993,0.2396762136183377,0.1410691489111879,-1.211346860876942
4.189999999999998,0.2603036941672286,0.1766505031257834,-1.1948179052562178
4.200000000000003,0.2688061911645052,0.1949737415017906,-1.1781451497416722
4.209999999999994,0.2719518164350903,0.2159535249500838,-1.1542497228262554
4.219999999999999,0.2795993770926651,0.2557956286923189,-1.1060206838999402
4.230000000000004,0.2892010853694516,0.265696701702965,-1.0749785649876025
4.239999999999995,0.3125767395177957,0.2939598058555133,-1.081762183849796
4.25,0.3242810652947147,0.3109429958346226,-1.0611971797067064
4.260000000000005,0.3405711802347057,0.328650155586599,-1.0812173764716644
4.269999999999996,0.3821149598191669,0.3389149303448848,-1.08447452093255
4.280000000000001,0.3970388429489999,0.3644283941688236,-1.086017179494967
4.290000000000006,0.4048678604712741,0.3704231338130991,-1.0756019707856843
4.299999999999997,0.3892968882382184,0.3896635180623767,-1.0577074232920756
4.310000000000002,0.3351878871745347,0.3859101602202643,-1.0485692501384103
4.319999999999993,0.2506516088427262,0.3874072985482302,-1.0356024343957877
4.329999999999998,0.1682450692698963,0.3930702549520874,-1.0306555601687446
4.340000000000003,0.0854650009257155,0.3902121589375639,-1.0116143097564878
4.349999999999994,-0.0216856807696551,0.4070245927110832,-1.0196573519756789
4.359999999999999,-0.0955153365559466,0.4085652969023077,-0.9980790283241414
4.3700000000000045,-0.1445941793621423,0.4092884111305302,-0.9798842640418748
4.379999999999996,-0.1280970922049027,0.4190354312548019,-0.9465750138739176
4.390000000000001,-0.1154375518137665,0.4087753239244115,-0.9199328541859676
4.400000000000006,-0.0695014067119314,0.4090520353993405,-0.8842547359722496
4.409999999999997,-0.0368833873657702,0.426559645444807,-0.8569842884337975
4.420000000000002,0.0121306901147202,0.4267429645891956,-0.8293038077877534
4.429999999999993,0.0603335659933727,0.407950908949558,-0.7836147593881693
4.439999999999998,0.0990867665467099,0.4201949318956509,-0.7620279612415879
4.450000000000003,0.1508949087611028,0.4169607996585273,-0.7482217298193327
4.459999999999994,0.1938891793048922,0.4015192555899478,-0.7423854733037015
4.469999999999999,0.2499632571480111,0.3957657466468571,-0.7409934623490726
4.480000000000004,0.2815938285084623,0.3680608456081402,-0.7763948864064305
4.489999999999995,0.3023116110455843,0.3240213936476674,-0.7888945027337919
4.5,0.3180881932050886,0.2875789098698499,-0.8082003256017182
4.510000000000005,0.3440851926715155,0.2625142549487589,-0.8447733395182441
4.519999999999996,0.3619168181431865,0.2390717491165377,-0.8666086080977934
4.530000000000001,0.3995927786264212,0.199450302759651,-0.8688969977297842
4.540000000000006,0.426441242816695,0.181256787392664,-0.8880471215673063
4.549999999999997,0.456150145577092,0.1684328427840202,-0.9160410354571796
4.560000000000002,0.4837124617431413,0.1451246587639273,-0.9094815678299386
4.569999999999993,0.5140532262872537,0.1236736040337029,-0.9278767353792138
4.579999999999998,0.5354481753410772,0.1228674590492783,-0.9265702497021032
4.590000000000003,0.5554935807819722,0.1100208082314396,-0.9193729863113967
4.599999999999994,0.5677202039915311,0.1188435965626635,-0.8985271635372986
4.609999999999999,0.585964913881023,0.0981000134110845,-0.8895673150353274
4.6200000000000045,0.5789942504394371,0.0982085977639154,-0.887090681838777
4.629999999999996,0.5784905502748408,0.0946209550759709,-0.8710632122281827
4.640000000000001,0.5624322985536723,0.0982298241126828,-0.8588608792967991
4.650000000000006,0.554748220549662,0.1118431504914112,-0.8331319490865783
4.659999999999997,0.533575483726948,0.1120033169874515,-0.8394044867831005
4.670000000000002,0.5191939909024386,0.1099469097256419,-0.8240968611741067
4.679999999999993,0.516548351129592,0.0956084027997553,-0.8304001088750341
4.689999999999998,0.5068606928253704,0.1004860983912203,-0.8247382174479265
4.700000000000003,0.503099662458807,0.0844876742880334,-0.8266370723707034
4.709999999999994,0.4874307007013034,0.086648971974153,-0.8217966786861306
4.719999999999999,0.4729452794729568,0.0852869973421795,-0.8351621334319119
4.730000000000004,0.4438903420130777,0.0855003347280919,-0.8629388002484398
4.739999999999995,0.3813843208160037,0.1011801413925347,-0.8840424087472947
4.75,0.3430900266655846,0.0779523376523468,-0.9214277453295016
4.760000000000005,0.3017985771849838,0.0902233021038489,-0.9549936232183176
4.769999999999996,0.2600822398696946,0.0645088469708498,-0.9844156637466708
4.780000000000001,0.2289134123065535,0.0448071656922618,-0.9923024533957312
4.790000000000006,0.1828182481359554,0.0571974103730432,-1.0245410364463663
4.799999999999997,0.1532187308139613,0.0417063365288616,-1.0395035142345777
4.810000000000002,0.154184821660439,0.0560447442645784,-1.0580612194837211
4.819999999999993,0.1500833324798082,0.050967801286607,-1.0801400635403182
4.829999999999998,0.1576087928747228,0.0533160980684128,-1.0969917825785422
4.840000000000003,0.1794382725982022,0.0605387549877103,-1.1014423823049493
4.849999999999994,0.2056458159922146,0.0422793836692687,-1.0972705468571116
4.859999999999999,0.2110973370816186,0.0529103207768364,-1.0970942036163494
4.8700000000000045,0.2047132737132845,0.0388488335078006,-1.0849147916326194
4.879999999999996,0.1797296371940452,0.0251544246173625,-1.0763873172258147
4.890000000000001,0.1440452514594154,0.0108500225482096,-1.096790666856003
4.900000000000006,0.0881294915807994,-0.0012099306359713,-1.1144306558713055
4.909999999999997,0.0278998654877584,-0.0243596681999559,-1.1294474325957795
4.920000000000002,-0.0456301948299911,-0.0450548537192268,-1.171529630946169
4.929999999999993,-0.1545619354956232,-0.0624276525902745,-1.1703557123751134
4.939999999999998,-0.2245249407388086,-0.057687612867291,-1.1815553195085229
4.950000000000003,-0.2949543530151362,-0.0846843965294056,-1.1832624341350166
4.959999999999994,-0.3192393375822893,-0.0994093077595874,-1.1762271240669795
4.969999999999999,-0.3555932787762825,-0.1229859156937755,-1.1296451497078857
4.980000000000004,-0.3651994132580127,-0.1425815853241325,-1.1087394358076088
4.989999999999995,-0.3176604231575389,-0.1645100117345983,-1.0874149856690172
5.0,-0.2769014219173769,-0.1871167147883823,-1.0687849912601632
5.010000000000005,-0.2248930946415415,-0.19193360123446,-1.0490919490450612
5.019999999999996,-0.155033688297267,-0.1985962084666674,-1.0379911242643425
5.030000000000001,-0.0940326747669642,-0.2105988291944703,-1.0181115931152591
5.040000000000006,-0.0086950315676698,-0.2116690557672668,-0.984443494071116
5.049999999999997,0.0734687755991518,-0.1822750705120227,-0.968991268435162
5.060000000000002,0.1412624339412088,-0.193530554581018,-0.9468606868147048
5.069999999999993,0.1824704228038605,-0.1860702277106637,-0.913190596913646
5.079999999999998,0.2482038273589482,-0.1788608168409328,-0.8789293325041491
5.090000000000003,0.2640195637312549,-0.1925346862583118,-0.8598560846307998
5.099999999999994,0.2777584342675259,-0.2027648863616658,-0.8333175767601246
5.109999999999999,0.2996610932485754,-0.2035943332414544,-0.8142033133145249
5.1200000000000045,0.3112066885219187,-0.2120524647956298,-0.8115802536806466
5.129999999999996,0.2907190902563903,-0.2088498374501568,-0.8070645545896151
5.140000000000001,0.2808175325432742,-0.2025763296972577,-0.7875775908704159
5.150000000000006,0.2758589149957055,-0.178558644313693,-0.7735644748431348
5.159999999999997,0.2448001222364644,-0.1644913622949917,-0.7520795288683773
5.170000000000002,0.234611798642779,-0.1681241896092946,-0.7467526518643456
5.179999999999993,0.2314034946274084,-0.1505785767147497,-0.741349507711788
5.189999999999998,0.2409066538649674,-0.1193860714970313,-0.7134120872021871
5.200000000000003,0.2694691783936011,-0.0974297764450266,-0.6869247383473609
5.209999999999994,0.2615752390007978,-0.0922863509815861,-0.684555820410845
5.219999999999999,0.2752516438597905,-0.0774349907097215,-0.6560750665290791
5.230000000000004,0.2712084600784863,-0.0418750901635415,-0.6416302049828032
5.239999999999995,0.2795909719750649,-0.0348785398875999,-0.5951994730176629
5.25,0.2997151069795528,-0.0085966807331082,-0.5554956273392323
5.260000000000005,0.3119952490293305,0.028520588159715,-0.5284576394654378
5.269999999999996,0.3342134229138321,0.0541807823306366,-0.4694595114118957
5.280000000000001,0.3656450939483375,0.0756903259285173,-0.4546937759386485
5.290000000000006,0.3832264781579947,0.0945288683025055,-0.3993136879844629
5.299999999999997,0.3871619638236523,0.1072505216924628,-0.3639062059807586
5.310000000000002,0.401461140117589,0.1001587531910763,-0.3305392058179975
5.319999999999993,0.4128345652125871,0.0833410854197885,-0.2941544405114762
5.329999999999998,0.3916201351978139,0.08736736793228,-0.2774476216982079
5.340000000000003,0.3859826490779545,0.0910712664759143,-0.2798005484900869
5.349999999999994,0.3575011438759782,0.1003196487449205,-0.2683304094303516
5.359999999999999,0.2883446972977482,0.1106430052967466,-0.2773312599101336
5.3700000000000045,0.1944300506640207,0.1119038106169245,-0.2847883598813716
5.379999999999996,0.0524171564508602,0.1444681900821151,-0.2775296833851993
5.390000000000001,-0.0747005255152751,0.138830170705887,-0.2652723730192109
5.400000000000006,-0.1908265723711761,0.1367351212167794,-0.245915075003379
5.409999999999997,-0.3130870702166642,0.1433056487318764,-0.2160503753052337
5.420000000000002,-0.4171224427099965,0.1325043181836887,-0.1598110765731925
5.429999999999993,-0.4695708118781535,0.1514968873891057,-0.1259648813543295
5.439999999999998,-0.4921850542446734,0.1433199421377675,-0.1118287558534281
5.450000000000003,-0.473398118400989,0.1436427651214063,-0.1003567840396426
5.459999999999994,-0.4417789566932791,0.1649410431370188,-0.100813295488184
5.469999999999999,-0.3876778551988084,0.1541967766990042,-0.1362785657705577
5.480000000000004,-0.333223841908257,0.1182714759435299,-0.162362293103007
5.489999999999995,-0.2628496968048849,0.088018282753116,-0.1625290296159217
5.5,-0.1915444035233011,0.0511411133398863,-0.1878485319916714
5.510000000000005,-0.1607365521884177,8.236803823135136e-05,-0.2071421694941909
5.519999999999996,-0.0936830369074359,-0.0318894287957235,-0.243016873532523
5.530000000000001,-0.0564978806418495,-0.0723862610835968,-0.2774868611673573
5.540000000000006,-0.0474562881728939,-0.1334456440851599,-0.3313258679172871
5.549999999999997,-0.0206070599695787,-0.1729305213187816,-0.3887325873691266
5.560000000000002,-0.0137246413154803,-0.2315560897078782,-0.4159960279978927
5.569999999999993,-0.0048283929945362,-0.2630562118135323,-0.4636979905216704
5.579999999999998,0.0160280683748592,-0.3009989567679215,-0.4830654445181732
5.590000000000003,0.0346310873733104,-0.3634238351263345,-0.516731283826877
5.599999999999994,0.0508149818724437,-0.3798345217785221,-0.5289904824067783
5.609999999999999,0.0892892186583107,-0.4272654827338412,-0.5320375730617092
5.6200000000000045,0.0977386494639526,-0.4568801453606719,-0.5574670576040974
5.629999999999996,0.1097056619649396,-0.4862115336073219,-0.5710255851761885
5.640000000000001,0.1321837833850532,-0.4915671292902434,-0.5983828789484301
5.650000000000006,0.169181900095215,-0.5035278467689432,-0.6280095376631168
5.659999999999997,0.2040351188118171,-0.4984178527242524,-0.661744136064988
5.670000000000002,0.204226941095195,-0.4828225074729874,-0.6636883659756104
5.679999999999993,0.2343636158350882,-0.4584783514219396,-0.6913312892799944
5.689999999999998,0.257804136852319,-0.4412640157427923,-0.6994802177967981
5.700000000000003,0.2524322467455972,-0.4238088822339797,-0.7322999029819174
5.709999999999994,0.2857519627652172,-0.3946831054916648,-0.7412566019808184
5.719999999999999,0.3058748056359384,-0.3716759550814603,-0.77535055084969
5.730000000000004,0.3094318363505973,-0.3551077447230108,-0.7935592901436107
5.739999999999995,0.2826368753762424,-0.3076361531743309,-0.7949369183886067
5.75,0.272338298751926,-0.2888603314033098,-0.8181722332118464
5.760000000000005,0.2523885175463651,-0.2410600096812453,-0.8180280768518663
5.769999999999996,0.2333016061986703,-0.2242856143265725,-0.8268953704626132
5.780000000000001,0.2202114049702118,-0.2021185685321046,-0.8215356284627395
5.790000000000006,0.1904193840075597,-0.1509743620666682,-0.8196974793303796
5.799999999999997,0.1771397521831465,-0.139824338526297,-0.8161300132517663
5.810000000000002,0.1531679011400197,-0.1227211300332224,-0.8186410601902555
5.819999999999993,0.1468862577188568,-0.1104735194557242,-0.821267341120152
5.829999999999998,0.107498179108697,-0.0867113015951799,-0.8422330876982353
5.840000000000003,0.0567287193608598,-0.1004389646190868,-0.8435018142800428
5.849999999999994,0.0084782426366161,-0.0992199989114154,-0.8476962865908705
5.859999999999999,-0.0395697671757515,-0.1144765316909917,-0.8099823822932569
5.8700000000000045,-0.1092094662449117,-0.1115466083210613,-0.7929917259839225
5.879999999999996,-0.1999936689397118,-0.1132189593814672,-0.7548446660629242
5.890000000000001,-0.2504553072284272,-0.0928820587175812,-0.7127684747222219
5.900000000000006,-0.2882186367555556,-0.0634281046143417,-0.6828525899025781
5.909999999999997,-0.3031806738836906,-0.0428623128782382,-0.635161908475654
5.920000000000002,-0.2540244643677636,-0.0253969804317512,-0.6170454117978948
5.929999999999993,-0.2081097601690521,-0.0130525688822177,-0.5981585912461759
5.939999999999998,-0.1341411733437469,-0.0007462762472879,-0.5860308654151586
5.950000000000003,-0.0638560225435867,-0.0062177207346479,-0.5823618631696703
5.959999999999994,0.0095055851307374,-0.0227014180201963,-0.5866841813493336
5.969999999999999,0.0738091594830812,-0.0513672908402422,-0.5813893231745105
5.980000000000004,0.123326731037634,-0.0656775077576713,-0.5978536447923148
5.989999999999995,0.1438559518813662,-0.106545663040165,-0.6171155377635617
6.0,0.1733637133654268,-0.1274001921768282,-0.6581555048476058
6.010000000000005,0.1831530428243087,-0.1412668141608545,-0.6686799862799299
6.019999999999996,0.1596968587484321,-0.1582910172433813,-0.7305814584961725
6.030000000000001,0.1414191488851503,-0.1573501067280086,-0.7638228356955103
6.040000000000006,0.1326212720329833,-0.1518602161989325,-0.8152657064994586
6.049999999999997,0.128534749706593,-0.1479744408069922,-0.8449190667178258
6.060000000000002,0.1136003530108307,-0.1337727586325122,-0.8548539149909147
6.069999999999993,0.1130048783624956,-0.1210469636013107,-0.8782710148535704
6.079999999999998,0.1191163021808114,-0.1103099749188874,-0.8787253976264129
6.090000000000003,0.1521516214251846,-0.1069101760248967,-0.8899315282565209
6.099999999999994,0.2078067384352824,-0.0978198764960753,-0.8899630459428757
6.109999999999999,0.2613688401913628,-0.0943578507010779,-0.903850876461592
6.1200000000000045,0.3448272995359898,-0.0913026603226891,-0.926185683608136
6.129999999999996,0.3942605647542118,-0.1060958177187142,-0.954036726335102
6.140000000000001,0.4657278071858638,-0.1332119265103169,-0.943613320905886
6.150000000000006,0.5098177763377824,-0.1385193486135122,-0.9758119741976456
6.159999999999997,0.5617477752921379,-0.1344925446111275,-0.9759983448847674
6.170000000000002,0.5844506183737875,-0.1363299378977563,-0.9419067034753988
6.179999999999993,0.601552731729329,-0.1201901746632517,-0.9260186523088
6.189999999999998,0.6061687887461771,-0.1465578674571626,-0.9146929998913428
6.200000000000003,0.6014360383860594,-0.1616325894672838,-0.9056582782602636
6.209999999999994,0.5755598566221601,-0.1795478318254718,-0.8720381910140799
6.219999999999999,0.5337678631010622,-0.2068143109564574,-0.8671999247824164
6.230000000000004,0.5063371919494656,-0.2326584558367111,-0.8520102104604776
6.239999999999995,0.4804279143998836,-0.243325966320434,-0.8491467460081982
6.25,0.449270334361219,-0.2510024771188034,-0.8346660658047699
6.260000000000005,0.4110874239667353,-0.2642274212854677,-0.8362221956720585
6.269999999999996,0.3557807242189518,-0.2685506861066708,-0.8116653799987487
6.280000000000001,0.3097865856199291,-0.2800728201229742,-0.814246488193259
6.290000000000006,0.2434417440342369,-0.3071099351135805,-0.8158726904190106
6.299999999999997,0.1693038630727485,-0.3274462949275599,-0.8247236092637451
6.310000000000002,0.079989686725066,-0.3442069649462783,-0.8427086836616168
6.319999999999993,-0.0046149746104273,-0.3680964211836475,-0.8491757316229167
6.329999999999998,-0.079289080786675,-0.3768898664401394,-0.8536887016756309
6.340000000000003,-0.1852262382697515,-0.3757768889352058,-0.8506664718047103
6.349999999999994,-0.3038627576560883,-0.3542721514308062,-0.8430934756736183
6.359999999999999,-0.386873779651936,-0.3445244301494403,-0.8176675758446026
6.3700000000000045,-0.4696929020017403,-0.3166424794842747,-0.7959788759341896
6.379999999999996,-0.5141096736354478,-0.3095393926662519,-0.7826288606876446
6.390000000000001,-0.5465675253915967,-0.2821644988168568,-0.765371153859899
6.400000000000006,-0.5623356079267242,-0.2405282591734317,-0.7579175447481401
6.409999999999997,-0.5767072717495866,-0.2251915081723923,-0.7803019623407973
6.420000000000002,-0.5607787468370881,-0.1975204571878128,-0.7864762604246764
6.429999999999993,-0.5340191024836574,-0.1731420529869352,-0.8098988896127822
6.439999999999998,-0.4884932021385372,-0.1178239647668632,-0.8261013696357086
6.450000000000003,-0.4257934289340974,-0.107849357355181,-0.8514624400570542
6.459999999999994,-0.3161867790693323,-0.0722442796127833,-0.8503372094576486
6.469999999999999,-0.1909790697392408,-0.0471745859607723,-0.8885433301619405
6.480000000000004,-0.068678937436425,-0.0177431421026207,-0.92789290116187
6.489999999999995,0.0251293748410445,0.0211021915133581,-0.973134363045529
6.5,0.120619014647993,0.0434498034425208,-1.0120182538348017
6.510000000000005,0.1876108546596306,0.0544502914060155,-1.0608589373101776
6.519999999999996,0.2108380781355735,0.0583645947445819,-1.0971585058563145
6.530000000000001,0.2381646149481905,0.0770053655067651,-1.1408646481878804
6.540000000000006,0.2278574171738171,0.1163733499266331,-1.1766045179895854
6.549999999999997,0.2405920767285204,0.134003868207737,-1.217070261396422
6.560000000000002,0.1963462515213787,0.1655147150656386,-1.2679700978635973
6.569999999999993,0.184449747355528,0.194158970489691,-1.2858564564762174
6.579999999999998,0.1693532362780019,0.2216330824592629,-1.3083189549815943
6.590000000000003,0.1263407495872041,0.2179296519090454,-1.324579657485788
6.599999999999994,0.0792037057774212,0.2273623195053548,-1.3198582586109182
6.609999999999999,0.036539775527335,0.2287338646577164,-1.3162702010365874
6.61999999999999,0.0085334777002942,0.2063393970633012,-1.3315654374623462
6.63000000000001,0.0058082473065453,0.1938232651086393,-1.3338697317787356
6.640000000000001,0.003527225770818,0.1950200558364531,-1.3543999126169408
6.649999999999992,0.0114158226847428,0.1823654969475037,-1.3526123467336544
6.660000000000011,0.0124399363354643,0.1673208051808561,-1.3526427507946894
6.670000000000002,0.0416933784645066,0.161514846559895,-1.3564483110561056
6.679999999999993,0.0371888008914966,0.1380027048335484,-1.3456481967124891
6.690000000000012,0.0416123730619845,0.109581643588116,-1.3315371796956788
6.700000000000003,0.0134293255007467,0.0652521140935089,-1.3381826020291816
6.709999999999994,-0.0287492051369204,0.0365499815343171,-1.341370077571208
6.720000000000013,-0.0304897136986906,0.0079269526835476,-1.3589961806695363
6.730000000000004,-0.0423438622599007,-0.0284877589577338,-1.3613424600478652
6.739999999999995,-0.0454303026184517,-0.0388772819423509,-1.3668609242428449
6.749999999999986,-0.0582630091813971,-0.0536491760484224,-1.349535389542605
6.760000000000005,-0.0487394160965077,-0.074398622985451,-1.378304849601801
6.769999999999996,-0.013136803722908,-0.0925155528632308,-1.378649709555783
6.779999999999987,0.028278410338717,-0.1199675154695595,-1.3673958678806115
6.790000000000006,0.0987151294489617,-0.138764239197104,-1.3623086205797763
6.799999999999997,0.1375267461046187,-0.1749582592389787,-1.374300095812505
6.809999999999988,0.19149233059026,-0.1999068046108636,-1.3696776805685045
6.820000000000007,0.2189837678770949,-0.1989328398535564,-1.3696957105241432
6.829999999999998,0.239189632856572,-0.2240718118820924,-1.3962688769951122
6.839999999999989,0.2477642804641254,-0.2214526209689254,-1.400871314025515
6.8500000000000085,0.2372071519589977,-0.2492760078524388,-1.4207261513682763
6.859999999999999,0.1948374374231804,-0.2597975565623358,-1.4181530219311171
6.86999999999999,0.1650283289177906,-0.2677702508444711,-1.439472581663711
6.88000000000001,0.1229436413085717,-0.2704282065018041,-1.4238454782245866
6.890000000000001,0.0600268499301125,-0.2385818840766027,-1.4122299852572986
6.899999999999992,0.0238706636713204,-0.2351305513466343,-1.398477150809932
6.910000000000011,-0.0269424176181295,-0.2215270578527004,-1.3939239399459808
6.920000000000002,-0.0653176816124722,-0.184304210051288,-1.3802662878877292
6.929999999999993,-0.0870965739071912,-0.1558664055341562,-1.347779826062336
6.940000000000012,-0.1240757661705179,-0.1375502877119968,-1.3198332942586295
6.950000000000003,-0.1517153449666166,-0.1014553523750982,-1.2998619874747837
6.959999999999994,-0.1542730749129913,-0.0890423491991887,-1.2755585866240444
6.970000000000013,-0.1533318793099622,-0.0745972107709166,-1.254235789755721
6.980000000000004,-0.1144373294128671,-0.0541687265557576,-1.2291525823558116
6.989999999999995,-0.1156793335806625,-0.0571808450916128,-1.228363676382893
6.999999999999986,-0.0683733394218653,-0.0159337627017791,-1.2444995301499262
7.010000000000005,-0.0495294679749532,0.0036241614133991,-1.2300799580841757
7.019999999999996,0.0020543492678569,0.023416579925551,-1.229028157421668
7.029999999999987,0.0577341753057535,0.0299833333481657,-1.2486782932545115
7.040000000000006,0.0626509971895892,0.0392580193729634,-1.261043793209066
7.049999999999997,0.0765668962948858,0.0646272888873621,-1.283451558195848
7.059999999999988,0.0414895582319012,0.0781746865962236,-1.2802387628646692
7.070000000000007,0.0144077109911842,0.0920878249942618,-1.2903151147564935
7.079999999999998,-0.0236972385753471,0.1003499199382038,-1.3097082416736343
7.089999999999989,-0.0850126949184902,0.12279655595306,-1.2934628816920557
7.1000000000000085,-0.1512466529669563,0.1395240656628586,-1.317792575297919
7.109999999999999,-0.2148411496668876,0.1635943428209211,-1.337126079167524
7.11999999999999,-0.2675532889517777,0.1716943131258705,-1.3595377629732563
7.13000000000001,-0.3359148500969682,0.1871555901536387,-1.3666538738159868
7.140000000000001,-0.3753530940635771,0.1953801935003446,-1.3791994249912136
7.149999999999992,-0.4120810338179348,0.1937106349073476,-1.375123485816391
7.160000000000011,-0.4150281706699493,0.1950863551248845,-1.3860227514506005
7.170000000000002,-0.4048085410109898,0.1797708756991827,-1.3858844214679271
7.179999999999993,-0.3821037040792496,0.1604711446988697,-1.3747325797257055
7.190000000000012,-0.3391926441486935,0.1263401400508656,-1.372100748821334
7.200000000000003,-0.2822298856160307,0.086331730841385,-1.384012319018241
7.209999999999994,-0.1865309277630942,0.0559463068971308,-1.3729251464971954
7.220000000000013,-0.1154555357370009,0.0056408084590075,-1.3690810616400375
7.230000000000004,-0.0303042369627988,-0.0385894635914212,-1.3719001686871866
7.239999999999995,0.0088053868574734,-0.0475181386210823,-1.3680794077577507
7.249999999999986,0.0086414416796848,-0.0608917568348887,-1.3702754636106889
7.260000000000005,0.0139415529943338,-0.0777788420633082,-1.3435012414950624
7.269999999999996,-0.0131697855172919,-0.1042034244540688,-1.3241551819237247
7.279999999999987,-0.0158970801378358,-0.1134981671927487,-1.3452482053822588
7.290000000000006,-0.0528939092492338,-0.1286802712523852,-1.327304115727969
7.299999999999997,-0.0702743572579028,-0.1266346510058893,-1.313290257355224
7.309999999999988,-0.0649047401349825,-0.1330030517447441,-1.2935247626067763
7.320000000000007,-0.0712807590821774,-0.1343653558819101,-1.2940512862696123
7.329999999999998,-0.053183883969588,-0.1198899416829176,-1.2519740373357002
7.339999999999989,-0.0385956486024182,-0.1167218139103325,-1.223947333264683
7.350000000000008,-0.0079844652126031,-0.0970571748975083,-1.200032365460434
7.359999999999999,0.0165783871414724,-0.0911485745262973,-1.1821688069673926
7.36999999999999,0.0579375454084762,-0.0949224195979304,-1.1683821782208148
7.38000000000001,0.0983081903202705,-0.0801589101827979,-1.1369759202567726
7.390000000000001,0.1269377072284767,-0.0598482360813706,-1.117489618675186
7.399999999999991,0.1542453540437389,-0.0416102413360451,-1.0943656837990778
7.410000000000011,0.1983605383258075,-0.0109374763233196,-1.0561100691116183
7.420000000000002,0.2132124985115648,0.0099803028627811,-1.0253769910529815
7.429999999999993,0.2399289990305843,0.0213905090273903,-1.009523862384644
7.440000000000012,0.2636645995724677,0.0537383109337828,-0.9765336265210752
7.450000000000003,0.2569111140519016,0.0691832335890869,-0.9839907401669782
7.459999999999994,0.2509155555107878,0.0902495984156731,-0.9659858483800128
7.470000000000013,0.2505536052929555,0.1230020837083018,-0.9416064046472868
7.480000000000004,0.2429479076021748,0.1406670244573558,-0.9202152453459704
7.489999999999995,0.2021597386903919,0.1513668667596984,-0.921049164670376
7.499999999999986,0.1932083092352494,0.1569413746976448,-0.9129477601228558
7.510000000000005,0.169698681322086,0.159040672334245,-0.8899845287813318
7.519999999999996,0.1500775709507607,0.1535113997609781,-0.8665975534742633
7.529999999999987,0.1587329532913496,0.149569272232565,-0.8686371053434869
7.540000000000006,0.1524584446771715,0.1372094004910793,-0.8434321733376392
7.549999999999997,0.1608951001502755,0.1046695680521405,-0.8297944657032106
7.559999999999988,0.1669611268527084,0.0872378509307057,-0.7937742680944576
7.570000000000007,0.1928030764749154,0.0902896471343035,-0.7771469580895437
7.579999999999998,0.1612205835965307,0.0804026580326216,-0.7670394061759929
7.589999999999989,0.1392946566589926,0.0658871576295334,-0.7469744908948814
7.600000000000008,0.0972420724634321,0.0402731756582841,-0.7381453531212646
7.609999999999999,0.0575812054136599,0.0309123619905942,-0.7184314187047237
7.61999999999999,0.0135935913063444,0.0112836795902157,-0.7065483565233254
7.63000000000001,-0.0453047764441098,0.0036611006520196,-0.7012166926371626
7.640000000000001,-0.0825910241603719,-0.015938527369304,-0.676538857394788
7.649999999999991,-0.1167043608420703,-0.0319665061158122,-0.6540804141681058
7.660000000000011,-0.1328891797958044,-0.0299138182207893,-0.6371181242441762
7.670000000000002,-0.128827399868437,-0.0352695688336805,-0.6065059328102055
7.679999999999993,-0.1442481641998183,-0.0402777264886307,-0.5971560352639054
7.690000000000012,-0.1149253214102414,-0.0480503436535609,-0.5731740849893534
7.700000000000003,-0.0893856265327807,-0.0606701305948691,-0.5399555162800543
7.709999999999994,-0.0562934261678056,-0.0587749148150003,-0.508266662406459
7.720000000000013,-0.0366221008344572,-0.0575851978359188,-0.4713045261634963
7.730000000000004,0.0013570082072014,-0.0617020022709393,-0.4380722290291188
7.739999999999995,0.0437651187175836,-0.0544780280197931,-0.4153584968467564
7.749999999999986,0.0678497714290153,-0.0535033428013711,-0.3671912807318127
7.760000000000005,0.0887940498465583,-0.0611753633550875,-0.3610913670404379
7.769999999999996,0.1103693216242782,-0.0750974234780687,-0.3367156532852501
7.779999999999987,0.1121442396277711,-0.0715616397578085,-0.3314051360490802
7.790000000000006,0.1013861400719633,-0.0700630697034133,-0.306761184714785
7.799999999999997,0.1001109674942958,-0.0577625864734223,-0.3165252935247674
7.809999999999988,0.0858500871882209,-0.0633246769256899,-0.3207698657548244
7.820000000000007,0.0765366976276884,-0.0438345994087124,-0.3066712730286279
7.829999999999998,0.0587842355685078,-0.0234880403457651,-0.294055281655703
7.839999999999989,0.0471474964745129,0.0065045036970882,-0.2713346894601394
7.850000000000008,0.0137910329569382,0.0404945402212244,-0.2568428519791387
7.859999999999999,-0.0102802362409506,0.0479909918518238,-0.2429492322738533
7.86999999999999,-0.030468942130458,0.0567061364897681,-0.2442340817131464
7.88000000000001,-0.0477229130750248,0.0617237847235554,-0.2313653677631507
7.890000000000001,-0.0817835440062421,0.0711264962749165,-0.2404157248332336
7.899999999999991,-0.0921900728404766,0.0546012410976739,-0.2214765194948605
7.910000000000011,-0.1069889537892805,0.0597603853382773,-0.2120642153111212
7.920000000000002,-0.1030082633778477,0.0545919413736868,-0.2196946487628415
7.929999999999993,-0.1050781650304178,0.0660041625929588,-0.172362995189649
7.940000000000012,-0.0942915832007052,0.0670204849304443,-0.1561773951323171
7.950000000000003,-0.0973114676418836,0.0800191571481025,-0.1644407506757991
7.959999999999994,-0.0774286626391735,0.0775446901424585,-0.1536325379636813
7.970000000000013,-0.1097037599464356,0.0696295928480656,-0.1634445940109441
7.980000000000004,-0.1141736018897481,0.0808007881604145,-0.1843082136045668
7.989999999999995,-0.1269031292317584,0.0728873312797003,-0.2066168032654497
7.999999999999986,-0.1426437870697262,0.0545445079838234,-0.2229117441253013
8.010000000000005,-0.1436377557021809,0.052012476956414,-0.2223507649558575
8.019999999999996,-0.1591026328102525,0.0526274817198084,-0.2466589312966759
8.029999999999987,-0.1691444763896347,0.0631170549449403,-0.2486550728741235
8.040000000000006,-0.1997285067394163,0.0800870393361487,-0.2597406004456614
8.049999999999997,-0.2169943883980022,0.0689607790005213,-0.2483071602742877
8.059999999999988,-0.2368415068985067,0.0590823269220101,-0.2471927452160097
8.070000000000007,-0.2778612659169022,0.0583513116525123,-0.260125904711066
8.079999999999998,-0.2792591263539655,0.0675566189484688,-0.259335609596685
8.08999999999999,-0.2769098864046084,0.0411539615006456,-0.2546232610528554
8.100000000000009,-0.2724979527311136,0.0311964570283127,-0.2418122634170509
8.11,-0.2610847084490106,0.0274496605675785,-0.2325001893380278
8.11999999999999,-0.2633893597726054,0.0007682510192756,-0.2507902485113341
8.13000000000001,-0.2532527526936722,-0.0279484971643743,-0.2384368791184696
8.14,-0.2736640420288041,-0.0825963461099756,-0.2472265236093786
8.149999999999991,-0.2691448726592216,-0.1597267775147299,-0.275806831258838
8.16000000000001,-0.2903372764213959,-0.2084780220106752,-0.3035102266701253
8.170000000000002,-0.2930690868828349,-0.216801218624993,-0.3079670628320386
8.179999999999993,-0.1731775160561019,-0.2670892352145014,-0.2890991542057498
8.190000000000012,-0.126517690015425,-0.2296494435235577,-0.2805656209974203
8.200000000000003,-0.1202871358906585,-0.2059578197663273,-0.2643010484739523
8.209999999999994,-0.020317901472415,-0.1823499419294681,-0.2522381485757413
8.220000000000013,0.0136190806701592,-0.1536130453912246,-0.2424940965149008
8.230000000000004,0.0225689193343914,-0.1629333337123363,-0.2515639682930168
8.239999999999995,0.0291953399422818,-0.1554756354916492,-0.2356776874992447
8.249999999999986,0.0291657887607427,-0.1715537448678895,-0.2446107775308051
8.260000000000005,0.0147859410298097,-0.1678279108782375,-0.2392452081493362
8.269999999999996,-0.0036251084664751,-0.1559763337062064,-0.2356624131010849
8.279999999999987,0.0001723209585634,-0.1471175044147632,-0.2435611662122478
8.290000000000006,0.0092498639554766,-0.145485531539356,-0.2622397464942651
8.299999999999997,0.284377692779598,-0.1066552287117241,-0.2420082821135618
8.309999999999988,0.3084054948370942,-0.07158209136728,-0.2415389352794803
8.320000000000007,0.2945364326715387,-0.0438666164939258,-0.2324959905316522
8.329999999999998,0.3131816246848236,-0.0523904999810926,-0.2134638286459833
8.33999999999999,0.2678984253457622,-0.0315647028780578,-0.1862893297744216
8.350000000000009,0.1894019690729201,-0.0476550086324032,-0.1880507404692985
8.36,0.283944597659905,-0.0218792411620644,-0.175669706503447
8.36999999999999,0.2519950522229401,-0.0065407507939511,-0.1462702126080576
8.38000000000001,0.2057577763215194,-0.0073898663524918,-0.1397956690927082
8.39,0.2060392009007098,-0.0128008421948371,-0.1248929608273408
8.399999999999991,0.2360986222784187,-0.0011182872942922,-0.1257846388314329
8.41000000000001,0.264276201850137,0.002752619398614,-0.1219735582901566
8.420000000000002,0.2279234342061974,-0.0426653009279662,-0.1353267424077736
8.429999999999993,0.2112522890668526,-0.0721657795969093,-0.1374737722641494
8.440000000000012,0.2173086653533118,-0.102357980982331,-0.1536034445828777
8.450000000000003,0.2538959897314763,-0.1007495458663696,-0.1677449273843254
8.459999999999994,0.2616141557622214,-0.128121656241462,-0.1785422436476248
8.470000000000013,0.2697021529583028,-0.1242184448351773,-0.1837179279345515
8.480000000000004,0.2753301756728382,-0.1227807312990212,-0.1803974936784527
8.489999999999995,0.2802306921255931,-0.1364649044894436,-0.1907513694004387
8.499999999999986,0.3147906408691077,-0.127759429130305,-0.1806848502257869
8.510000000000005,0.314800818702333,-0.1182026010991984,-0.1822237767089498
8.519999999999996,0.3070619881897601,-0.118269012277886,-0.1780960249041921
8.529999999999987,0.2950232619217651,-0.140033446910273,-0.1714114729802429
8.540000000000006,0.2951866983691526,-0.1192078745914412,-0.1842618720743916
8.549999999999997,0.2839646666990997,-0.1192963126862427,-0.1641957040352158
8.559999999999988,0.2623084729527899,-0.1261023334202231,-0.1593493038590458
8.570000000000007,0.2284381139577611,-0.1108534495965687,-0.1602698105500074
8.579999999999998,0.2172462824304534,-0.1046168380110154,-0.1530082343930105
8.58999999999999,0.201312169868034,-0.0935508731874944,-0.1440863185383171
8.600000000000009,0.2055998105742966,-0.0915717482951557,-0.1326688216895598
8.61,0.1803323527106072,-0.0970562689848394,-0.1279888606798081
8.61999999999999,0.1619666097581039,-0.0838788300025546,-0.1112939569780688
8.63000000000001,0.1645446635795079,-0.0667430691405073,-0.1032396005587071
8.64,0.1435113286699408,-0.0709646694406727,-0.1112947242617516
8.649999999999991,0.1379130635423964,-0.0573520989073878,-0.1207614518958045
8.66000000000001,0.1464971312914664,-0.0528428954573108,-0.1273066021653926
8.670000000000002,0.1275113710208031,-0.0496841682904613,-0.1489662193884615
8.679999999999993,0.1264533760117349,-0.0486363826437666,-0.1430542792643611
8.690000000000012,0.1217300770295675,-0.0429481910089798,-0.1665816042605941
8.700000000000003,-0.0196314042628985,-0.0258893438890528,-0.1402780100405687
8.709999999999994,0.0148114722042136,-0.0075773532489852,-0.1051131686493993
8.720000000000013,0.0097193043861788,0.013314258129412,-0.0945894488067497
8.730000000000004,-0.0556215952336039,0.0268487353716161,-0.0844303126648652
8.739999999999995,-0.0115628394370516,0.0411974481769897,-0.0838767719646436
8.749999999999986,-0.0122358068116802,0.0391828931276952,-0.0954592711490255
8.760000000000005,-0.0122444684316208,0.0307766748690774,-0.0960490265772192
8.769999999999996,0.0234434966813321,0.0271779449985499,-0.0957995872588602
8.779999999999987,-0.0105830658984342,0.0333337067312523,-0.0915185182572248
8.790000000000006,-0.0032780445757141,0.0254077693657579,-0.0692562167298688
8.799999999999997,-0.0092405278862418,0.0221181020203804,-0.0631202180120599
8.809999999999988,-0.0052566352334933,0.0359006814318979,-0.0446550190855421
8.820000000000007,-0.0046971560306518,0.0360518868123397,-0.0357667971465798
8.829999999999998,-0.0211400702960146,0.0435739431443104,-0.0377068849755498
8.83999999999999,-0.0057902768678062,0.0299289804252018,-0.0320940286530142
8.850000000000009,-0.0030654811608537,0.009878415913071,-0.03608827611827
8.86,0.0054578601519582,0.0152876477899713,-0.0249664949058314
8.86999999999999,-0.006790752135984,0.0272631101573366,-0.0221083510117943
8.88000000000001,0.007697163141332,0.0343528330958058,-0.016129288039681
8.89,-0.0058804379018425,0.0446080533168967,-0.0080811683686356
8.899999999999991,-0.005854370178351,0.040384762307823,-0.0035697431483
8.91000000000001,0.0094530002848924,0.0256541602033874,0.0024320977209309
8.920000000000002,-0.0078474561946081,0.0205329492030618,-0.0016432421925171
8.929999999999993,-0.0100876332011834,0.0291164965024564,0.0008105896470447
8.940000000000012,-0.0092465803013013,0.0414273075627273,0.0063557666632563
8.950000000000003,-0.0123542641097302,0.0482238020462132,0.0325836976038727
8.959999999999994,-0.00164334410026,0.0535286740923737,0.0291693560478716
8.970000000000013,-0.005566179473207,0.0655125594752128,0.0641592812754849
8.980000000000004,-0.0040303230773993,0.0674193705257053,0.0617067087516824
8.989999999999995,-0.009822629451043,0.0482257217216094,0.0624558403436247
8.999999999999986,-0.004106792679213,0.0372630473191185,0.0626792467368663
9.010000000000003,0.0019600435133901,0.0362067685435972,0.0483699926913063
9.019999999999996,-0.0040836663209439,0.0546212498367569,0.0503097909595672
9.029999999999989,-0.0015490234453673,0.0630056249506968,0.0413233110700976
9.040000000000006,-0.0023187820702349,0.0882718304329363,0.0430423542060499
9.049999999999995,-0.0173947455678425,0.0999807697656964,0.0342641046584126
9.059999999999988,-0.0261231225802793,0.0759587700443487,0.0457773414062829
9.070000000000007,-0.0367687159160897,0.0618261162810839,0.0381327992855441
9.079999999999998,-0.0148239039967739,0.0292489902386272,0.0140468987943172
9.08999999999999,-0.0156950068896089,0.0082501539730077,-0.0041260904559938
9.100000000000009,-0.0072757598696587,0.0128475434828667,-0.0204946706453224
9.11,-0.0017348360866601,0.0325917852874893,-0.0095618171960418
9.11999999999999,0.0191674909016082,0.051864293078201,-0.0147289937859191
9.13000000000001,0.0007637823996634,0.0792756193566713,-0.0043005067378245
9.14,-0.0156444772148805,0.0845233494334723,0.0135207308735867
9.149999999999991,-0.0315294846604899,0.0895262180551165,0.0153987039354814
9.16000000000001,-0.0316033081538798,0.0723204732936854,0.0259052362571579
9.170000000000002,-0.0143580670331645,0.0534201988907074,0.042919939121926
9.179999999999993,-0.0077154678812069,0.0378973141501583,0.0416265069131538
9.190000000000012,-0.0127811833017198,0.0154468379321039,0.0422090477036503
9.200000000000005,-0.0029617883867908,0.0291921554246964,0.0361231262917053
9.209999999999994,-0.0026068954344306,0.0466779420798045,0.0545266581641107
9.220000000000011,0.0048465144019786,0.0543048399483407,0.0659030826832514
9.230000000000004,-0.0045994135070947,0.0362806592206081,0.0679499135868061
9.239999999999997,-0.0205470296996462,0.0359552322621129,0.067776517172518
9.249999999999986,-0.013958035677157,0.0510272083083837,0.0689646449442479
9.260000000000003,-0.0119606914857223,0.0490725463390477,0.0887824925040865
9.269999999999996,-0.0124004009067386,0.0337529969661259,0.0743693016994323
9.279999999999989,-0.0042608554092723,0.0343268319303104,0.0710271067465002
9.290000000000006,0.0039465062240469,0.0276687106243957,0.0425926950686058
9.299999999999995,-0.0068144274534249,0.0116833304749981,0.0268888240485462
9.309999999999988,-0.00487019114062,0.0206491171583241,0.026803508876378
9.320000000000007,0.0048447702311149,0.0255943350038793,0.0205728023382948
9.329999999999998,-0.0069029763914575,0.0310362699183303,0.0295050045107621
9.33999999999999,-0.0265274117059644,0.0464009373589093,0.0411055993726622
9.350000000000009,-0.0015469552290322,0.0379553507427101,0.023327837417111
9.36,0.0020928934992132,0.0344182401514716,0.0374902612517061
9.36999999999999,-0.006828336929077,0.0326993850905918,0.0206520307131828
9.38000000000001,-0.0221989232574407,0.0238934219759435,0.0059677492244719
9.39,-0.011563219619437,0.0204341969302548,-0.0120197287443204
9.399999999999991,-0.0353217609128516,0.0324958842053037,-0.011562993560481
9.41000000000001,-0.006881776905754,0.0220762762810499,-0.026292732858553
9.420000000000002,-0.0060364812580807,0.0196634556584936,-0.018767631228958
9.429999999999993,0.0011050762977603,0.0307548902829829,-0.0229352941356902
9.440000000000012,0.0085067532255126,0.0309396871505419,-0.0522938911505203
9.450000000000005,-0.0064011453994217,0.0366884186287062,-0.0405647294126885
9.459999999999994,-0.0077270784933923,0.0257499800456431,-0.0432177574423118
9.470000000000011,-0.0074796923124123,0.0341174996665512,-0.0168269376631076
9.480000000000004,-0.0020288060845623,0.0241252273072086,-0.0246603184402756
9.489999999999997,-0.0071988920866467,0.027097487808332,-0.0231475723505497
9.499999999999986,-0.0053472892557188,0.0371467195505349,-0.0079040225363933
9.510000000000003,0.0017607311155697,0.0409455474689595,-0.0206971427146172
9.519999999999996,-8.428791377426132e-05,0.0544802912542293,-0.0202552939352156
9.529999999999989,-0.0048310681109965,0.0434254348649027,-0.0232921926365376
9.540000000000006,-0.0064982934587594,0.0224761911333178,-0.0094658645944348
9.549999999999995,-0.0153797939703273,0.0234371681213683,-0.0073709549746708
9.559999999999988,-0.0222548924193734,0.0260003395775078,0.0065532668500201
9.570000000000007,-0.0048505837181886,0.0226070636133218,0.0145523598039855
9.579999999999998,0.0001036123609108,0.0582819315227419,0.0081417222227696
9.58999999999999,-0.0119204971007381,0.0564856870978636,0.0242907826764536
9.600000000000009,-0.010176054351259,0.0374751477990669,0.0075877946563143
9.61,-0.0082781012176752,0.0295637683370863,-0.0056776893643726
9.61999999999999,-0.0286078810457746,0.0279616370822182,0.0262028213489991
9.63000000000001,-0.0259601326987892,0.0598838962427785,0.0312909569054146
9.64,0.0026073702561698,0.0765917091088037,0.0355691829232808
9.649999999999991,-0.0020859366319726,0.0877684741201227,0.0381598385520805
9.66000000000001,-0.002787945969025,0.0749256073196571,0.0464001500583062
9.670000000000002,-0.0197449576775219,0.0721659846509493,0.0524711261154842
9.679999999999993,-0.0048567813713509,0.067948572643336,0.0614397973662773
9.690000000000012,-0.0018108607288804,0.0818817091791114,0.088408733393916
9.700000000000005,-0.0020501134880461,0.1182634201018012,0.0878074929833342
9.709999999999994,-0.0308798927323557,0.1433939068720297,0.1122117902187361
9.720000000000011,-0.0122559198944204,0.1294834782822987,0.1232312355397075
9.730000000000004,-0.0200382234913419,0.1321139895258533,0.1032727356148892
9.739999999999997,-0.0092678266766321,0.1449856912359576,0.0993822934267752
9.749999999999986,-0.0224911963935481,0.1781797618696157,0.1119215266456735
9.760000000000003,-0.0239585798378286,0.209905906576529,0.100143920593989
9.769999999999996,-0.0334225496641839,0.2873130053857934,0.1238995259441611
9.779999999999989,0.0454579635852682,0.2314284074714802,0.1386123633299015
9.790000000000006,0.0339849024799746,0.0440249550775744,0.0829598481586701
9.799999999999995,-0.0425020242842509,-0.0018217695079395,0.0577653351601725
9.809999999999988,-0.0633911556210383,-0.0246565720896488,0.0491085070360497
9.820000000000007,-0.0376229450894071,0.0137368484608779,0.0654057253136756
9.829999999999998,0.0452289351787489,0.0616309633994858,0.0869356926502312
9.83999999999999,0.0118959289418325,0.0450657883824982,0.082783439212573
9.850000000000009,-0.0056027605157122,-0.0103949317276746,0.0735586189779608
9.86,-0.0325117208911485,-0.0365081380209705,0.0603300752320767
9.86999999999999,-0.0056979268541398,0.0017174641303353,0.0709008033327344
9.88000000000001,0.038916871406135,0.0364345835322145,0.064731722964323
9.89,0.0189861927741827,0.0572064189508178,0.0698716203633128
9.899999999999991,-0.0172331106022976,0.0119430561536972,0.0466732128612934
9.91000000000001,-0.0459306488121071,-0.0227358181056619,0.0397377134051182
9.920000000000002,-0.0135230226454486,0.0084521707968016,0.0261270132368485
9.929999999999993,0.0087473740772906,0.0415557436290187,0.0251588782776784
9.940000000000012,0.0060403581505709,0.0188221597526319,0.0222944447100642
9.950000000000005,-0.0207673189657059,-0.0150435441964594,0.0159249002341961
9.959999999999994,-0.0382146791847345,-0.0299062145186625,0.0295167188660643
9.970000000000011,-0.0194326711199217,0.0014187757034468,0.0353791119712276
9.980000000000004,0.0169021729025022,0.0361450355018495,0.0445782716176239
9.989999999999997,0.0126291157342138,0.0275337756756729,0.0211545444337524
9.999999999999986,-0.0224381718643951,0.0083781841844205,0.0290330242010644
10.010000000000003,-0.0331368327681234,-0.0175342965091269,0.0147549986308026
10.019999999999996,0.0154424010748025,0.0119765746518077,-0.018123958852233
10.029999999999989,0.0310613011529792,0.0206574840194989,-0.0209701416648328
10.040000000000006,0.0071184806613236,0.0126646809976582,-0.0464111281506785
10.049999999999995,-0.025743782693003,-0.0073433691542924,-0.0573537885210395
10.059999999999988,-0.0190647835342527,-0.0116983035061658,-0.0665706131110727
10.070000000000007,0.0034892457774482,0.0334566244893966,-0.0822922822463497
10.079999999999998,0.0105407537131414,0.0353149785657714,-0.0491238955747247
10.08999999999999,-0.0129016224282865,0.0172741030862185,-0.0569999981116373
10.100000000000009,-0.017407038664949,-0.008699900078104,-0.0528922154401655
10.11,-0.0165844409437898,0.0017373014162691,-0.0516951190525812
10.11999999999999,-3.454555330379631e-06,0.020644897954944,-0.0313059536393038
10.13000000000001,0.0157795879650724,0.0059269063934093,-0.0249840038691668
10.14,-0.0019658722858101,0.0135676134144345,-0.0013948918945882
10.149999999999991,-0.0088425667239614,0.0084290761933994,0.0128493859620046
10.16000000000001,-0.0199034698623924,-0.0012113805492174,0.0217223886058407
10.170000000000002,-0.0075638790821022,0.0223554660509373,0.0249353111387686
10.179999999999993,0.0118600023902875,0.0223559172396545,0.028786648997755
10.190000000000012,0.0013749410825486,0.0155427551567084,0.0151187666738797
10.200000000000005,-0.0123517161754645,0.0092654742209741,0.0064029969769481
10.209999999999994,-0.0056921636712842,-0.0086387158824087,0.0150451486997035
10.220000000000011,0.0089835810159396,-0.0002176990041624,0.0135719495617618
10.230000000000004,-0.0147258301248426,0.0138530878965164,0.0103804927529867
10.239999999999997,-0.0130047566284308,0.0022813707171036,0.0140131982531608
10.249999999999986,-0.0128037469949305,0.0035852643081977,0.0013942794768111
10.260000000000003,-0.0066577164428651,0.0204428622237856,0.007978984347254
10.269999999999996,0.0277940049196162,0.0019910851868514,-0.0045029194881171
10.279999999999989,0.0113829595456743,0.0115994875105167,-0.0087565177664451
10.290000000000006,0.0097160697559568,0.0157824215919634,0.0102966611269726
10.299999999999995,-0.0020571494738843,0.0088323196191954,0.0144455972138554
10.309999999999988,-0.0153800702981491,0.0261093067399252,0.0199550749327091
10.320000000000007,-0.0031578269767825,0.0252708662882085,0.0251639954516416
10.329999999999998,-0.0054061992540425,0.040229014096437,0.0462806334352999
10.33999999999999,-0.0226289897081916,0.02011443390015,0.0264074849169318
10.350000000000009,-0.0013513905401324,0.0108717435472538,0.0181081901620604
10.36,0.0024434969794534,0.0176150087799629,0.011377097946362
10.36999999999999,0.0024223476061671,0.0170902727537783,0.0481047863199219
10.38000000000001,0.0001579207559743,0.0115827081789182,0.0501856779470467
10.39,-0.0038149165107181,-0.0098307291971409,0.064027904632856
10.399999999999991,-0.0035071603609136,0.0115117240567453,0.0685714481705598
10.41000000000001,-0.0022256809405836,0.0074099803131968,0.0745455722112042
10.420000000000002,-0.0062208332592813,0.020179605654805,0.0710748311105937
10.429999999999993,-0.0183299737083067,0.0073796988985891,0.080083286150417
10.440000000000012,-0.0051842497806802,0.0168195553266496,0.0603952092369443
10.450000000000005,0.0053408602314441,0.012605458634553,0.0377690681706713
10.459999999999994,-0.0170165356092318,0.0054736636722818,0.0268503203706469
10.470000000000011,0.000439150086702,0.0210852219333501,0.0114478045697158
10.480000000000004,-0.0150110960553262,0.0149234241357666,0.0054186191074927
10.489999999999997,-0.002742673178693,0.0001764312773271,-0.0024883134945301
10.499999999999986,0.0009609822215136,0.0149875464643678,-0.0036671513346399
10.510000000000003,0.0009582981387412,0.0139927607781918,-0.0129790553016626
10.519999999999996,0.0096671877756925,0.0063602601101488,0.0067355640267064
10.529999999999989,-0.0064785639962582,0.0261595116634075,0.0109850766982636
