time,Gyr_X,Gyr_Y,Gyr_Z
0.0,-0.0031956978604016,-0.0042603487041181,-0.0042603487041181
0.0035000000000025,0.0,0.0,-0.0042603487041181
0.0069999999999978,-0.0031956978604016,0.0010646508437165,0.0
0.0105000000000003,0.0,0.002131047016685,-0.0042603487041181
0.0140000000000028,-0.0042603487041181,0.0,-0.0031956978604016
0.0174999999999982,0.0031956978604016,0.002131047016685,-0.0053267448770866
0.0210000000000007,-0.0010646508437165,-0.0010646508437165,-0.002131047016685
0.0245000000000032,-0.0010646508437165,0.0,0.0
0.0279999999999986,-0.002131047016685,0.002131047016685,0.0010646508437165
0.0315000000000011,0.0,0.002131047016685,-0.002131047016685
0.0350000000000036,0.0010646508437165,0.0,0.0
0.038499999999999,0.0010646508437165,0.002131047016685,0.0
0.0420000000000015,0.0,-0.002131047016685,0.0
0.045500000000004,-0.0010646508437165,0.0042603487041181,-0.0010646508437165
0.0489999999999994,0.0,-0.0010646508437165,-0.0010646508437165
0.0525000000000019,0.0,0.002131047016685,-0.0010646508437165
0.0559999999999973,0.0010646508437165,0.0010646508437165,0.0
0.0594999999999998,-0.0010646508437165,0.0,-0.0010646508437165
0.0630000000000023,0.0,-0.002131047016685,-0.0031956978604016
0.0664999999999977,0.002131047016685,0.002131047016685,-0.0010646508437165
0.0700000000000002,0.0,0.0010646508437165,-0.0053267448770866
0.0735000000000027,-0.0042603487041181,0.0,-0.0031956978604016
0.0769999999999981,-0.0010646508437165,0.0,-0.0063913957208032
0.0805000000000006,0.0,0.0,-0.0053267448770866
0.0840000000000031,0.0010646508437165,0.0010646508437165,-0.0031956978604016
0.0874999999999985,-0.002131047016685,0.0,-0.0031956978604016
0.091000000000001,0.0,0.0,-0.0031956978604016
0.0945000000000035,0.0010646508437165,0.0,-0.0042603487041181
0.0979999999999989,0.0,0.0,-0.0042603487041181
0.1015000000000014,-0.002131047016685,-0.0010646508437165,-0.0042603487041181
0.1050000000000039,-0.002131047016685,0.002131047016685,-0.0053267448770866
0.1084999999999993,-0.002131047016685,0.0,-0.002131047016685
0.1120000000000018,-0.0042603487041181,0.0053267448770866,-0.0031956978604016
0.1154999999999972,-0.0010646508437165,-0.0010646508437165,-0.0031956978604016
0.1189999999999997,-0.0010646508437165,0.0,-0.0042603487041181
0.1225000000000022,0.002131047016685,0.0,-0.0010646508437165
0.1259999999999976,0.0,0.0031956978604016,-0.0031956978604016
0.1295000000000001,-0.0031956978604016,0.002131047016685,0.0
0.1330000000000026,-0.002131047016685,0.0,-0.002131047016685
0.136499999999998,0.0010646508437165,0.0,0.0
0.1400000000000005,-0.0010646508437165,0.0031956978604016,-0.0010646508437165
0.143500000000003,0.0,0.0010646508437165,-0.0010646508437165
0.1469999999999984,0.0,0.0,0.0
0.1505000000000009,0.0,0.0,-0.0010646508437165
0.1540000000000034,0.0,0.0031956978604016,-0.0010646508437165
0.1574999999999988,0.0010646508437165,0.0010646508437165,-0.0010646508437165
0.1610000000000013,-0.0010646508437165,0.0,-0.002131047016685
0.1645000000000038,-0.002131047016685,-0.0010646508437165,-0.002131047016685
0.1679999999999992,-0.0010646508437165,0.0,-0.0031956978604016
0.1715000000000017,-0.0031956978604016,0.002131047016685,-0.002131047016685
0.1750000000000042,-0.0010646508437165,0.0,-0.002131047016685
0.1784999999999996,-0.002131047016685,0.002131047016685,-0.0031956978604016
0.1820000000000021,0.0010646508437165,0.002131047016685,-0.0031956978604016
0.1854999999999975,-0.0031956978604016,0.0031956978604016,-0.0042603487041181
0.189,-0.0010646508437165,0.0042603487041181,-0.0042603487041181
0.1925000000000025,0.0010646508437165,0.0,-0.0031956978604016
0.1959999999999979,-0.0010646508437165,0.0010646508437165,-0.0031956978604016
0.1995000000000004,0.0031956978604016,-0.0010646508437165,-0.0042603487041181
0.2030000000000029,-0.002131047016685,0.0042603487041181,-0.0010646508437165
0.2064999999999983,0.0,0.002131047016685,-0.0031956978604016
0.2100000000000008,-0.0042603487041181,0.0031956978604016,-0.0010646508437165
0.2135000000000033,-0.0010646508437165,0.0010646508437165,0.0
0.2169999999999987,-0.002131047016685,0.0,-0.002131047016685
0.2205000000000012,0.0,0.0,-0.0031956978604016
0.2240000000000037,0.0,-0.0010646508437165,-0.002131047016685
0.2274999999999991,0.0,0.002131047016685,-0.002131047016685
0.2310000000000016,0.0010646508437165,-0.0010646508437165,-0.0031956978604016
0.2345000000000041,0.002131047016685,0.0031956978604016,-0.002131047016685
0.2379999999999995,-0.0010646508437165,0.0,-0.0010646508437165
0.241500000000002,0.0,0.0031956978604016,-0.0031956978604016
0.2449999999999974,0.002131047016685,0.0031956978604016,0.0
0.2484999999999999,-0.002131047016685,0.0,0.0
0.2520000000000024,-0.0010646508437165,0.0010646508437165,-0.002131047016685
0.2554999999999978,-0.002131047016685,0.0,-0.0010646508437165
0.2590000000000003,0.0,0.002131047016685,-0.002131047016685
0.2625000000000028,-0.002131047016685,0.0010646508437165,-0.0010646508437165
0.2659999999999982,0.0010646508437165,0.0,-0.0010646508437165
0.2695000000000007,0.0,0.0,-0.0010646508437165
0.2730000000000032,0.0,0.0010646508437165,-0.0010646508437165
0.2764999999999986,0.0,0.0042603487041181,-0.0031956978604016
0.2800000000000011,0.0,0.002131047016685,-0.0031956978604016
0.2835000000000036,0.0,0.002131047016685,-0.0063913957208032
0.286999999999999,0.0,0.0010646508437165,-0.0053267448770866
0.2905000000000015,0.0,0.0,-0.0010646508437165
0.294000000000004,0.0,0.0,-0.0042603487041181
0.2974999999999994,0.002131047016685,0.0,-0.0031956978604016
0.3010000000000019,-0.0031956978604016,0.0010646508437165,-0.0031956978604016
0.3044999999999973,0.0,0.0053267448770866,-0.002131047016685
0.3079999999999998,0.0,0.0042603487041181,-0.002131047016685
0.3115000000000023,0.0,0.0223716303520633,-0.002131047016685
0.3149999999999977,0.0,0.0308940730895516,-0.0031956978604016
0.3185000000000002,-0.0031956978604016,0.041545817514473,0.0
0.3220000000000027,-0.002131047016685,0.0394165158270399,0.002131047016685
0.3254999999999981,-0.002131047016685,0.0319587239332681,0.0010646508437165
0.3290000000000006,-0.0031956978604016,0.0245026773687483,0.0
0.3325000000000031,-0.0063913957208032,0.0117181405978899,-0.0031956978604016
0.3359999999999985,-0.0042603487041181,0.0053267448770866,-0.0031956978604016
0.339500000000001,0.0,-0.0010646508437165,0.0031956978604016
0.3430000000000035,0.0095870935812048,0.0010646508437165,0.0042603487041181
0.3464999999999989,0.0106534897541733,-0.002131047016685,0.0010646508437165
0.3500000000000014,0.0074577918937717,0.0,0.0
0.3535000000000039,0.0,-0.002131047016685,0.0010646508437165
0.3569999999999993,-0.0042603487041181,0.0,-0.002131047016685
0.3605000000000018,-0.0063913957208032,-0.0074577918937717,0.0
0.3639999999999972,0.0,-0.0106534897541733,-0.0031956978604016
0.3674999999999997,0.0,-0.0170448854749766,-0.0074577918937717
0.3710000000000022,0.002131047016685,-0.0213052341790947,-0.0053267448770866
0.3744999999999976,-0.0063913957208032,-0.0351544217936697,0.0
0.3780000000000001,-0.0031956978604016,-0.0351544217936697,-0.0031956978604016
0.3815000000000026,0.0031956978604016,-0.0234362811957798,-0.0095870935812048
0.384999999999998,0.0042603487041181,-0.01598023463126,-0.013849187614575
0.3885000000000005,0.0053267448770866,-0.0031956978604016,-0.0042603487041181
0.392000000000003,0.0031956978604016,0.002131047016685,-0.0042603487041181
0.3954999999999984,-0.0031956978604016,0.0063913957208032,-0.0053267448770866
0.3990000000000009,-0.0117181405978899,0.0,-0.0095870935812048
0.4025000000000034,-0.0191759324916617,-0.0074577918937717,-0.0106534897541733
0.4059999999999988,-0.0127827914416064,-0.0117181405978899,-0.002131047016685
0.4095000000000013,-0.002131047016685,-0.0095870935812048,0.0
0.4130000000000038,0.0053267448770866,-0.0085224427374883,-0.0031956978604016
0.4164999999999992,0.0085224427374883,0.0,-0.0031956978604016
0.4200000000000017,0.0053267448770866,-0.0127827914416064,-0.0031956978604016
0.4235000000000042,0.0191759324916617,-0.0820287295144815,0.0117181405978899
0.4269999999999996,0.0319587239332681,-0.1438151303643327,0.0234362811957798
0.4305000000000021,0.0575260521457331,-0.1842962970350892,0.0287630260728665
0.4339999999999975,0.0745709376207097,-0.1640557136997109,0.0245026773687483
0.4375,0.1065296615539778,-0.0948115209560879,0.0234362811957798
0.4410000000000025,0.1289012919060412,-0.0468725623915597,0.0170448854749766
0.4444999999999979,0.1438151303643327,-0.0063913957208032,0.01598023463126
0.4480000000000004,0.1299659427497577,0.0063913957208032,0.0074577918937717
0.4515000000000029,0.0756355884644262,-0.0031956978604016,0.0
0.4549999999999983,0.0117181405978899,-0.0266319790561814,0.002131047016685
0.4585000000000008,-0.0511346564249298,-0.0585907029894496,0.0042603487041181
0.4620000000000033,-0.0724398906040246,-0.0756355884644262,-0.0010646508437165
0.4654999999999987,-0.0607217500061347,-0.0660484948832214,-0.0010646508437165
0.4690000000000012,-0.041545817514473,-0.041545817514473,0.0
0.4725000000000037,-0.013849187614575,-0.0031956978604016,-0.002131047016685
0.4759999999999991,0.0010646508437165,0.0234362811957798,-0.0063913957208032
0.4795000000000016,0.0106534897541733,0.0404811666707564,-0.0149138384582915
0.4830000000000041,0.002131047016685,0.0404811666707564,-0.0213052341790947
0.4864999999999995,-0.013849187614575,0.0543303542853314,-0.0202405833353782
0.490000000000002,-0.0308940730895516,0.0649838440395048,-0.0181095363186931
0.4934999999999974,-0.0564614013020165,0.0777666354811113,-0.0330233747769847
0.4969999999999999,-0.0777666354811113,0.0788312863248278,-0.0287630260728665
0.5005000000000024,-0.1097253594143795,0.0894847760790012,-0.0191759324916617
0.5039999999999978,-0.1161167551351827,0.1033339636935762,-0.013849187614575
0.5075000000000003,-0.1033339636935762,0.1161167551351827,-0.0234362811957798
0.5110000000000028,-0.0777666354811113,0.1267702448893561,-0.0234362811957798
0.5144999999999982,-0.0426122136874415,0.1320969897664428,-0.0053267448770866
0.5180000000000007,-0.0127827914416064,0.1406194325039311,0.0010646508437165
0.5215000000000032,0.0213052341790947,0.1448797812080492,0.0063913957208032
0.5249999999999986,0.0458079115478431,0.1320969897664428,0.0
0.5285000000000011,0.0660484948832214,0.1214435000122694,-0.0053267448770866
0.5320000000000036,0.0649838440395048,0.1171831513081512,-0.0031956978604016
0.535499999999999,0.0543303542853314,0.1267702448893561,-0.0127827914416064
0.5390000000000015,0.0426122136874415,0.1320969897664428,-0.013849187614575
0.542500000000004,0.0351544217936697,0.1320969897664428,-0.0223716303520633
0.5459999999999994,0.029827676916583,0.1225098961852379,-0.0362208179666383
0.5495000000000019,0.0170448854749766,0.1043986145372928,-0.0372854688103548
0.5529999999999973,0.0063913957208032,0.0820287295144815,-0.0255673282124649
0.5564999999999998,0.0010646508437165,0.0383501196540714,-0.0149138384582915
0.5600000000000023,0.0031956978604016,0.0095870935812048,-0.0010646508437165
0.5634999999999977,0.0170448854749766,-0.0223716303520633,0.0085224427374883
0.5670000000000002,0.029827676916583,-0.0383501196540714,0.01598023463126
0.5705000000000027,0.0426122136874415,-0.0500682602519613,0.0202405833353782
0.5739999999999981,0.0585907029894496,-0.0607217500061347,0.0149138384582915
0.5775000000000006,0.0671131457269379,-0.0852244273748831,0.013849187614575
0.5810000000000031,0.0660484948832214,-0.096942567972773,0.01598023463126
0.5844999999999985,0.0703088435873395,-0.1214435000122694,0.0213052341790947
0.588000000000001,0.0756355884644262,-0.1352926876268444,0.0308940730895516
0.5915000000000035,0.0916158230956863,-0.1534022239455376,0.0372854688103548
0.5949999999999989,0.1054650107102613,-0.1629910628559944,0.0404811666707564
0.5985000000000014,0.1331616406101593,-0.177904901314286,0.0479389585645282
0.6020000000000039,0.1459461773810178,-0.1821652500184041,0.0564614013020165
0.6054999999999993,0.1608600158393093,-0.1811005991746876,0.0628527970228197
0.6090000000000018,0.1565979218059392,-0.1597953649955928,0.0596570991624181
0.6125000000000043,0.1395530363309626,-0.1331616406101593,0.055395005129048
0.6159999999999997,0.1150521042914662,-0.0884201252352847,0.0447432607041266
0.6195000000000022,0.0894847760790012,-0.0607217500061347,0.0362208179666383
0.6229999999999976,0.0500682602519613,-0.0362208179666383,0.0362208179666383
0.6265000000000001,0.01598023463126,-0.0010646508437165,0.0330233747769847
0.6300000000000026,-0.0063913957208032,0.0223716303520633,0.0223716303520633
0.633499999999998,-0.0287630260728665,0.0564614013020165,0.0053267448770866
0.6370000000000005,-0.0585907029894496,0.0948115209560879,-0.0170448854749766
0.640500000000003,-0.0862890782185996,0.1129210572747811,-0.0383501196540714
0.6439999999999984,-0.1171831513081512,0.1331616406101593,-0.0521993072686464
0.6475000000000009,-0.1395530363309626,0.1438151303643327,-0.0617864008498512
0.6510000000000034,-0.1587289688226243,0.1512729222581045,-0.0745709376207097
0.6544999999999987,-0.1715135055934827,0.150206526085136,-0.0841580312019145
0.6580000000000013,-0.177904901314286,0.1534022239455376,-0.1043986145372928
0.6615000000000038,-0.1704471094205142,0.1576643179789077,-0.1150521042914662
0.6649999999999991,-0.152337573101821,0.1747092034538843,-0.124639197872671
0.6685000000000016,-0.1374237346435295,0.1864273440517743,-0.1352926876268444
0.6720000000000041,-0.1278348957330726,0.1864273440517743,-0.1416840833476476
0.6754999999999995,-0.1225098961852379,0.1874919948954908,-0.1352926876268444
0.679000000000002,-0.1214435000122694,0.1811005991746876,-0.1129210572747811
0.6824999999999974,-0.1150521042914662,0.1715135055934827,-0.0958761717998045
0.6859999999999999,-0.0852244273748831,0.1587289688226243,-0.0649838440395048
0.6895000000000024,-0.0596570991624181,0.1544686201185061,-0.0490036094082447
0.6929999999999978,-0.0330233747769847,0.150206526085136,-0.0340897709499532
0.6965000000000003,-0.0181095363186931,0.1491418752414194,-0.0266319790561814
0.7000000000000028,0.0031956978604016,0.1459461773810178,-0.0213052341790947
0.7034999999999982,0.002131047016685,0.1416840833476476,-0.0191759324916617
0.7070000000000007,0.0106534897541733,0.1310323389227262,-0.0127827914416064
0.7105000000000032,0.0085224427374883,0.1278348957330726,-0.0074577918937717
0.7139999999999986,0.0127827914416064,0.110790010258096,0.0031956978604016
0.7175000000000011,0.0149138384582915,0.0937468701123714,0.0085224427374883
0.7210000000000036,0.0181095363186931,0.0841580312019145,0.0127827914416064
0.724499999999999,0.0170448854749766,0.0809623333415129,0.01598023463126
0.7280000000000015,0.0213052341790947,0.069244192743623,0.0170448854749766
0.731500000000004,0.0319587239332681,0.0649838440395048,0.0234362811957798
0.7349999999999994,0.0383501196540714,0.0607217500061347,0.0255673282124649
0.7385000000000019,0.0383501196540714,0.0543303542853314,0.0202405833353782
0.7419999999999973,0.0213052341790947,0.0564614013020165,0.0031956978604016
0.7454999999999998,0.002131047016685,0.0500682602519613,-0.0074577918937717
0.7490000000000023,-0.0170448854749766,0.0436768645311581,-0.01598023463126
0.7524999999999977,-0.0394165158270399,0.0447432607041266,-0.0191759324916617
0.7560000000000002,-0.0500682602519613,0.0362208179666383,-0.0223716303520633
0.7595000000000027,-0.0564614013020165,0.0394165158270399,-0.0223716303520633
0.7629999999999981,-0.0543303542853314,0.0351544217936697,-0.02769837522915
0.7665000000000006,-0.0479389585645282,0.0372854688103548,-0.0351544217936697
0.7700000000000031,-0.0394165158270399,0.0319587239332681,-0.041545817514473
0.7734999999999985,-0.029827676916583,0.02769837522915,-0.0521993072686464
0.777000000000001,-0.0255673282124649,0.0245026773687483,-0.0575260521457331
0.7805000000000035,-0.0191759324916617,0.0245026773687483,-0.0649838440395048
0.7839999999999989,-0.0245026773687483,0.0362208179666383,-0.069244192743623
0.7875000000000014,-0.0362208179666383,0.0479389585645282,-0.0703088435873395
0.7910000000000039,-0.0490036094082447,0.0671131457269379,-0.0671131457269379
0.7944999999999993,-0.0617864008498512,0.0798976824977964,-0.0617864008498512
0.7980000000000018,-0.083093380358198,0.1075943123976944,-0.0500682602519613
0.8014999999999972,-0.0958761717998045,0.1214435000122694,-0.0404811666707564
0.8049999999999997,-0.1033339636935762,0.138488385487246,-0.0308940730895516
0.8085000000000022,-0.1043986145372928,0.1459461773810178,-0.0223716303520633
0.8119999999999976,-0.0990718696602061,0.1459461773810178,-0.0181095363186931
0.8155000000000001,-0.0873537290623162,0.138488385487246,-0.013849187614575
0.8190000000000026,-0.0713752397603081,0.1278348957330726,-0.0106534897541733
0.822499999999998,-0.0521993072686464,0.1214435000122694,-0.0063913957208032
0.8260000000000005,-0.0223716303520633,0.1214435000122694,-0.0106534897541733
0.829500000000003,-0.0010646508437165,0.1129210572747811,-0.0074577918937717
0.8329999999999984,0.0213052341790947,0.1171831513081512,-0.0063913957208032
0.8365000000000009,0.029827676916583,0.1171831513081512,-0.0085224427374883
0.8400000000000034,0.0181095363186931,0.1161167551351827,-0.0031956978604016
0.8434999999999988,0.013849187614575,0.1278348957330726,0.0
0.8470000000000013,0.0,0.1267702448893561,0.0010646508437165
0.8505000000000038,-0.0117181405978899,0.1352926876268444,0.0010646508437165
0.8539999999999992,-0.0202405833353782,0.1352926876268444,0.002131047016685
0.8575000000000017,-0.02769837522915,0.1267702448893561,0.002131047016685
0.8610000000000042,-0.0308940730895516,0.1257055940456395,-0.0010646508437165
0.8644999999999996,-0.029827676916583,0.1203788491685528,-0.0010646508437165
0.8680000000000021,-0.029827676916583,0.1150521042914662,-0.0010646508437165
0.8714999999999975,-0.041545817514473,0.1129210572747811,0.0
0.875,-0.0596570991624181,0.0958761717998045,-0.0074577918937717
0.8785000000000025,-0.0703088435873395,0.0916158230956863,-0.0191759324916617
0.8819999999999979,-0.1043986145372928,0.0884201252352847,-0.013849187614575
0.8855000000000004,-0.1459461773810178,0.1043986145372928,0.002131047016685
0.8890000000000029,-0.1747092034538843,0.1289012919060412,0.0181095363186931
0.8924999999999983,-0.180035948330971,0.1544686201185061,0.0117181405978899
0.8960000000000008,-0.1544686201185061,0.1853609478788057,0.0106534897541733
0.8995000000000033,-0.1214435000122694,0.1970790884766957,0.0063913957208032
0.9029999999999988,-0.0532657034416149,0.2002765316663493,0.0063913957208032
0.9065000000000012,-0.0042603487041181,0.2013411825100658,0.0063913957208032
0.9100000000000036,0.0468725623915597,0.1981454846496642,-0.0042603487041181
0.9134999999999992,0.0756355884644262,0.1981454846496642,-0.0085224427374883
0.9170000000000016,0.083093380358198,0.1874919948954908,-0.013849187614575
0.920500000000004,0.0532657034416149,0.1821652500184041,-0.0117181405978899
0.9239999999999996,-0.013849187614575,0.1619246666830259,-0.0074577918937717
0.927500000000002,-0.0756355884644262,0.1374237346435295,-0.0095870935812048
0.9309999999999974,-0.1874919948954908,0.1129210572747811,-0.0181095363186931
0.9345,-0.2812388650078622,0.0937468701123714,-0.0255673282124649
0.9380000000000024,-0.3526141047681703,0.0841580312019145,-0.0266319790561814
0.9414999999999978,-0.3611348021764067,0.0894847760790012,-0.0308940730895516
0.9450000000000004,-0.3472873598910836,0.0862890782185996,-0.0404811666707564
0.9485000000000028,-0.3590055004889736,0.0777666354811113,-0.069244192743623
0.9519999999999982,-0.3867021303888716,0.0724398906040246,-0.1118564064310645
0.9555000000000008,-0.4069427137242498,0.0639174478665363,-0.1299659427497577
0.9590000000000032,-0.4836446983616446,0.0074577918937717,-0.2034722295267509
0.9624999999999986,-0.5390397034906926,-0.0223716303520633,-0.2514094427620272
0.9660000000000012,-0.6136106411114024,-0.0660484948832214,-0.3014794483432405
0.9695000000000036,-0.6658099483800488,-0.0958761717998045,-0.3334381722765087
0.972999999999999,-0.7244023966987505,-0.1235745470289545,-0.3590055004889736
0.9765000000000016,-0.7542300736153336,-0.1374237346435295,-0.3653968962097769
0.980000000000004,-0.7915155424256883,-0.1576643179789077,-0.3504830577514853
0.9834999999999994,-0.8085604279006651,-0.1715135055934827,-0.3281114273994219
0.987000000000002,-0.8266699642193582,-0.191754088928861,-0.2833681666952953
0.9904999999999972,-0.8234742663589566,-0.2098636252475541,-0.2524758389349957
0.9939999999999998,-0.780862052671515,-0.2396913021641372,-0.2237128128621291
0.9975000000000024,-0.7393162351570419,-0.2663250265495707,-0.2066679273871525
1.0009999999999977,-0.6690056462404504,-0.3014794483432405,-0.1928187397725775
1.0045000000000002,-0.6136106411114024,-0.3313071252598236,-0.1693824585767977
1.008000000000003,-0.5379750526469761,-0.3675279432264619,-0.1342280367831279
1.011499999999998,-0.4783179534845579,-0.38350643252847,-0.1043986145372928
1.0150000000000006,-0.4026823650201317,-0.41120480775762,-0.0617864008498512
1.018500000000003,-0.3483520107348002,-0.4335764381096833,-0.0308940730895516
1.0219999999999985,-0.2854992137119804,-0.4516859744283765,0.0042603487041181
1.025500000000001,-0.2418223491808223,-0.4634041150262664,0.0319587239332681
1.0290000000000037,-0.1896230419121759,-0.4740576047804398,0.0500682602519613
1.0324999999999989,-0.1629910628559944,-0.4761869064678729,0.0639174478665363
1.0360000000000014,-0.1320969897664428,-0.4729912086074713,0.0756355884644262
1.039500000000004,-0.1203788491685528,-0.4612730680095813,0.0798976824977964
1.0429999999999993,-0.1033339636935762,-0.4335764381096833,0.0756355884644262
1.0465000000000018,-0.096942567972773,-0.3994866671597301,0.0681795418999064
1.0500000000000045,-0.0894847760790012,-0.3462209637181151,0.0532657034416149
1.0534999999999997,-0.0809623333415129,-0.2961527034661538,0.0404811666707564
1.0570000000000022,-0.0639174478665363,-0.2205171150017275,0.01598023463126
1.0604999999999976,-0.0532657034416149,-0.1597953649955928,0.0
1.064,-0.0255673282124649,-0.0767019846373948,-0.0245026773687483
1.0675000000000026,0.0,-0.0202405833353782,-0.0383501196540714
1.070999999999998,0.0394165158270399,0.0490036094082447,-0.0564614013020165
1.0745000000000005,0.0671131457269379,0.1118564064310645,-0.0767019846373948
1.078000000000003,0.1033339636935762,0.1672514115601126,-0.1043986145372928
1.0814999999999984,0.124639197872671,0.2034722295267509,-0.1257055940456395
1.0850000000000009,0.1416840833476476,0.2439533961975074,-0.1544686201185061
1.0885000000000034,0.152337573101821,0.2631275833599171,-0.1683160624038291
1.0919999999999987,0.1597953649955928,0.2833681666952953,-0.1811005991746876
1.0955000000000013,0.1544686201185061,0.2929570056057522,-0.1885583910684593
1.0990000000000038,0.1438151303643327,0.3089354949077603,-0.1938833906162941
1.1024999999999991,0.1374237346435295,0.3131975889411305,-0.1970790884766957
1.1060000000000016,0.1193124529955843,0.3153286359578155,-0.2002765316663493
1.109500000000004,0.0948115209560879,0.3238510786953038,-0.1981454846496642
1.1129999999999995,0.0628527970228197,0.3217200316786187,-0.1938833906162941
1.116500000000002,0.0330233747769847,0.3217200316786187,-0.1853609478788057
1.1199999999999974,-0.0170448854749766,0.3323735214327921,-0.1693824585767977
1.1235,-0.0596570991624181,0.3430252658577135,-0.1544686201185061
1.1270000000000024,-0.110790010258096,0.3547434064556034,-0.1225098961852379
1.1304999999999978,-0.1576643179789077,0.3632658491930918,-0.0948115209560879
1.1340000000000003,-0.219450718828759,0.3760503859639502,-0.0543303542853314
1.1375000000000028,-0.2652586303766022,0.3845728287014385,-0.0255673282124649
1.1409999999999982,-0.3153286359578155,0.397355620143045,0.0191759324916617
1.1445000000000007,-0.3568744534722885,0.397355620143045,0.0564614013020165
1.1480000000000032,-0.3909642244222418,0.397355620143045,0.1001382658331746
1.1514999999999986,-0.4026823650201317,0.3920288752659583,0.1374237346435295
1.1550000000000011,-0.4122694586013365,0.3792460838243518,0.1715135055934827
1.1585000000000036,-0.4037470158638482,0.3611348021764067,0.1928187397725775
1.161999999999999,-0.38350643252847,0.3227846825223353,0.2087989744038376
1.1655000000000015,-0.355809802628572,0.2812388650078622,0.2077325782308691
1.169000000000004,-0.316393286801532,0.2290395577392158,0.205601531214184
1.1724999999999994,-0.288694911572382,0.1789695521580025,0.191754088928861
1.176000000000002,-0.247149094057909,0.1139874534477496,0.166186760716396
1.179499999999997,-0.2205171150017275,0.0639174478665363,0.1427504795206162
1.1829999999999998,-0.1832316461913727,-0.0031956978604016,0.110790010258096
1.1865000000000023,-0.1576643179789077,-0.0543303542853314,0.0852244273748831
1.1899999999999975,-0.1299659427497577,-0.1225098961852379,0.0468725623915597
1.1935000000000002,-0.1086607085706629,-0.1651203645434275,0.0202405833353782
1.1970000000000027,-0.0905494269227178,-0.2173214171413259,-0.01598023463126
1.200499999999998,-0.0703088435873395,-0.2524758389349957,-0.0383501196540714
1.2040000000000006,-0.0521993072686464,-0.2940216564494687,-0.069244192743623
1.2075000000000031,-0.0330233747769847,-0.3195889846619337,-0.0926804739394028
1.2109999999999983,-0.0181095363186931,-0.3483520107348002,-0.1182478021518678
1.214500000000001,-0.0010646508437165,-0.3590055004889736,-0.136357338470561
1.2180000000000035,0.0181095363186931,-0.3590055004889736,-0.150206526085136
1.221499999999999,0.0351544217936697,-0.3504830577514853,-0.1576643179789077
1.2250000000000014,0.0596570991624181,-0.3345028231202252,-0.1555332709622227
1.228500000000004,0.0820287295144815,-0.3174579376452486,-0.1448797812080492
1.231999999999999,0.1235745470289545,-0.3014794483432405,-0.1214435000122694
1.2355000000000018,0.1555332709622227,-0.2854992137119804,-0.0990718696602061
1.2389999999999972,0.1992101354933808,-0.2631275833599171,-0.0745709376207097
1.2424999999999995,0.233299906443334,-0.2492801410745941,-0.0585907029894496
1.2460000000000022,0.2759121201307756,-0.233299906443334,-0.0362208179666383
1.2494999999999976,0.2972173543098703,-0.2290395577392158,-0.0213052341790947
1.253,0.3259803803827369,-0.2258421145495622,0.0010646508437165
1.2565000000000026,0.3366338701369103,-0.233299906443334,0.0245026773687483
1.259999999999998,0.3408942188410284,-0.2599318854995155,0.0543303542853314
1.2635000000000003,0.3366338701369103,-0.2833681666952953,0.0681795418999064
1.267000000000003,0.3153286359578155,-0.3238510786953038,0.0862890782185996
1.2704999999999984,0.286565609884949,-0.3579391043160051,0.096942567972773
1.274000000000001,0.2407576983371057,-0.4069427137242498,0.1012029166768912
1.2775000000000034,0.2002765316663493,-0.4367721359700849,0.1012029166768912
1.2809999999999988,0.1352926876268444,-0.4825800475179281,0.0937468701123714
1.2845000000000013,0.0894847760790012,-0.5092120265741096,0.0841580312019145
1.2880000000000038,0.0202405833353782,-0.5347793547865746,0.0724398906040246
1.2914999999999992,-0.0234362811957798,-0.5496931932448661,0.0532657034416149
1.2950000000000017,-0.0724398906040246,-0.5635423808594411,0.0308940730895516
1.2985000000000042,-0.1033339636935762,-0.5656734278761262,0.0127827914416064
1.3019999999999996,-0.136357338470561,-0.559280286826071,-0.0117181405978899
1.305500000000002,-0.1555332709622227,-0.5454328445407479,-0.0340897709499532
1.3089999999999975,-0.1629910628559944,-0.517734469311598,-0.0617864008498512
1.3125,-0.1608600158393093,-0.5049499325407395,-0.0852244273748831
1.3160000000000025,-0.1480754790684509,-0.4740576047804398,-0.1118564064310645
1.319499999999998,-0.1235745470289545,-0.4580773701491797,-0.1278348957330726
1.3230000000000004,-0.0745709376207097,-0.4378367868138015,-0.1448797812080492
1.326500000000003,-0.0287630260728665,-0.4261186462159115,-0.1544686201185061
1.3299999999999983,0.0426122136874415,-0.4101401569139035,-0.166186760716396
1.3335000000000008,0.1022693128498597,-0.4005513180034466,-0.1768385051413174
1.3370000000000033,0.1970790884766957,-0.3941599222826434,-0.1821652500184041
1.3404999999999987,0.2652586303766022,-0.3898978282492732,-0.1842962970350892
1.3440000000000012,0.3707236410868635,-0.3877685265618402,-0.1832316461913727
1.3475000000000037,0.4431635316908882,-0.3898978282492732,-0.1832316461913727
1.350999999999999,0.5358440056302911,-0.397355620143045,-0.1715135055934827
1.3545000000000016,0.5976321518093943,-0.41120480775762,-0.166186760716396
1.358000000000004,0.6711366932571355,-0.4314453910929982,-0.1459461773810178
1.3614999999999997,0.7126842561008605,-0.4474238803950063,-0.1299659427497577
1.365000000000002,0.7595568184924202,-0.4719265577637547,-0.1012029166768912
1.3684999999999974,0.7904508915819718,-0.492167141099133,-0.083093380358198
1.372,0.8160182197944368,-0.5145387714511963,-0.055395005129048
1.3755000000000024,0.8351924069568466,-0.5273215628928027,-0.0362208179666383
1.3789999999999978,0.8511726415881066,-0.5411707505073777,-0.0149138384582915
1.3825000000000005,0.8660864800463982,-0.547562146228181,0.0031956978604016
1.3860000000000028,0.875673573627603,-0.5486285424011496,0.0213052341790947
1.3894999999999982,0.8927184591025796,-0.5507578440885826,0.0308940730895516
1.393000000000001,0.912959042437958,-0.5507578440885826,0.0404811666707564
1.3965000000000032,0.933199625773336,-0.5443664483677794,0.0458079115478431
1.3999999999999986,0.9598333501587696,-0.5443664483677794,0.0372854688103548
1.403500000000001,0.9800739334941478,-0.533712958613606,0.0330233747769847
1.4070000000000036,1.0035102146899275,-0.5113430735907947,0.013849187614575
1.410499999999999,1.030142193746109,-0.4868403962220463,-0.0042603487041181
1.4140000000000017,1.051447427925204,-0.4357057397971164,-0.0372854688103548
1.417500000000004,1.0695587095731491,-0.3856374795451551,-0.0649838440395048
1.4209999999999994,1.0844725480314406,-0.3227846825223353,-0.1054650107102613
1.424500000000002,1.092994990768929,-0.2950880526224372,-0.1289012919060412
1.4279999999999973,1.108973480070937,-0.2684543282370038,-0.1608600158393093
1.4314999999999998,1.111104527087622,-0.2631275833599171,-0.1832316461913727
1.4350000000000025,1.1132355741043072,-0.2641939795328856,-0.2087989744038376
1.4384999999999977,1.1143002249480238,-0.2737810731140905,-0.2386266513204207
1.4420000000000002,1.111104527087622,-0.2929570056057522,-0.2695207244099723
1.445500000000003,1.108973480070937,-0.3089354949077603,-0.2961527034661538
1.448999999999998,1.1047131313668188,-0.3334381722765087,-0.3302424744161071
1.4525000000000006,1.0993863864897322,-0.3526141047681703,-0.3494166615785167
1.456000000000003,1.1015174335064173,-0.3824417816847534,-0.3792460838243518
1.4594999999999985,1.1047131313668188,-0.4048134120368167,-0.3952245731263599
1.463000000000001,1.1121691779313387,-0.4239875991992265,-0.4101401569139035
1.4665000000000037,1.130280459579284,-0.4602084171658648,-0.4261186462159115
1.4699999999999989,1.1483899958979769,-0.4879067923950148,-0.4335764381096833
1.4735000000000014,1.1686305792333551,-0.5230612141886847,-0.4378367868138015
1.477000000000004,1.1856754647083318,-0.5433017975240628,-0.4367721359700849
1.4804999999999993,1.1973936053062215,-0.5667380787198427,-0.4271832970596281
1.4840000000000018,1.21017814207708,-0.5795208701614492,-0.42292294835551
1.4875000000000045,1.21017814207708,-0.5837829641948193,-0.4080091098972184
1.4909999999999997,1.2112427929207967,-0.586978662055221,-0.4005513180034466
1.4945000000000022,1.2005893031666235,-0.5731294744406459,-0.3930952714389268
1.4979999999999976,1.1931332566021038,-0.5624759846864725,-0.3920288752659583
1.5015,1.17821767281456,-0.5433017975240628,-0.3920288752659583
1.5050000000000026,1.1686305792333551,-0.5209301671719996,-0.3920288752659583
1.508499999999998,1.1473253450542604,-0.4900360940824479,-0.3930952714389268
1.5120000000000005,1.1334761574396854,-0.4623394641825499,-0.3941599222826434
1.515500000000003,1.1121691779313387,-0.4218582975117934,-0.3952245731263599
1.5189999999999984,1.097255339473047,-0.3867021303888716,-0.397355620143045
1.5225000000000009,1.0716880112605822,-0.341960615013997,-0.4005513180034466
1.5260000000000034,1.0482517300648024,-0.3036087500306735,-0.4016177141764152
1.5294999999999987,1.016293006131534,-0.2492801410745941,-0.3984202709867616
1.5330000000000013,0.9928567249357544,-0.2024058333537824,-0.3952245731263599
1.5365000000000038,0.9513109074212812,-0.1608600158393093,-0.3877685265618402
1.5399999999999991,0.9193504381587612,-0.1331616406101593,-0.3781796876513833
1.5435000000000016,0.8746089227838865,-0.0916158230956863,-0.3685925940701784
1.547000000000004,0.8383881048172481,-0.0671131457269379,-0.3685925940701784
1.5504999999999995,0.7851241467048852,-0.0340897709499532,-0.3781796876513833
1.554000000000002,0.7361205372966404,-0.0149138384582915,-0.3888331774055567
1.5574999999999974,0.6626142505196473,0.0031956978604016,-0.4048134120368167
1.561,0.6061545945468827,0.0191759324916617,-0.42292294835551
1.5645000000000024,0.5273215628928027,0.029827676916583,-0.4495549274116914
1.5679999999999978,0.4676662090596366,0.0404811666707564,-0.4687308599033531
1.5715000000000003,0.3792460838243518,0.055395005129048,-0.4974938859762197
1.5750000000000028,0.3249157295390203,0.0617864008498512,-0.519865516328283
1.5784999999999982,0.2514094427620272,0.0788312863248278,-0.5518242402615512
1.5820000000000007,0.2002765316663493,0.0916158230956863,-0.5731294744406459
1.5855000000000032,0.1480754790684509,0.1139874534477496,-0.605088198373914
1.5889999999999986,0.1118564064310645,0.1278348957330726,-0.6349176206197492
1.5925000000000011,0.083093380358198,0.1406194325039311,-0.6743323911175372
1.5960000000000036,0.0703088435873395,0.152337573101821,-0.7009661155029706
1.599499999999999,0.0724398906040246,0.1683160624038291,-0.7393162351570419
1.6030000000000015,0.0777666354811113,0.1736428072809158,-0.767014610386192
1.606500000000004,0.1033339636935762,0.1789695521580025,-0.8085604279006651
1.6099999999999994,0.1331616406101593,0.191754088928861,-0.8351924069568466
1.613500000000002,0.180035948330971,0.2034722295267509,-0.8682175270630832
1.616999999999997,0.2247774637058457,0.2109282760912707,-0.8916538082588631
1.6204999999999998,0.2908259585890671,0.2237128128621291,-0.9161547402983594
1.6240000000000023,0.3472873598910836,0.233299906443334,-0.9321349749296196
1.6274999999999975,0.4325100419367148,0.2450180470412239,-0.9534402091087144
1.6310000000000002,0.4942981881158181,0.2556715367953973,-0.9672893967232892
1.6345000000000027,0.586978662055221,0.258867234655799,-0.9853989330419826
1.637999999999998,0.6540918077821589,0.2620629325162006,-1.0013791676732426
1.6415000000000006,0.7478386778945303,0.2705853752536888,-1.012032657427416
1.6450000000000031,0.8138871727777518,0.2695207244099723,-1.0205551001649042
1.6484999999999983,0.8927184591025796,0.2684543282370038,-1.0205551001649042
1.652000000000001,0.9491798604045962,0.260998281672484,-1.0194887039919358
1.6555000000000035,1.0173594023045027,0.2535404897787122,-1.0152283552878176
1.658999999999999,1.0546431257856057,0.2492801410745941,-1.007770563394046
1.6625000000000014,1.0876682458918423,0.2364956043037356,-1.0056395163773606
1.666000000000004,1.1004510373334488,0.2247774637058457,-1.0013791676732426
1.669499999999999,1.0961906886293304,0.1981454846496642,-0.9971170736398725
1.6730000000000018,1.079145803154354,0.1747092034538843,-0.9928567249357544
1.6764999999999972,1.0407956835002825,0.136357338470561,-0.9853989330419826
1.6799999999999995,1.0013791676732426,0.1086607085706629,-0.9758118394607777
1.6835000000000022,0.9374617198067065,0.0745709376207097,-0.972616141600376
1.6869999999999976,0.8852624125380599,0.0521993072686464,-0.9694204437399744
1.6905,0.8053647300402634,0.02769837522915,-0.970485094583691
1.6940000000000026,0.7457076308778453,0.0074577918937717,-0.9800739334941478
1.697499999999998,0.6594185526592456,-0.0170448854749766,-0.9928567249357544
1.7010000000000003,0.5944364539489927,-0.0340897709499532,-1.0035102146899275
1.704500000000003,0.5102766774178261,-0.0564614013020165,-1.0280111467294242
1.7079999999999984,0.4474238803950063,-0.069244192743623,-1.0471870792210858
1.711500000000001,0.3685925940701784,-0.0820287295144815,-1.0802104539980706
1.7150000000000034,0.3121311927681619,-0.0809623333415129,-1.111104527087622
1.7184999999999988,0.2396913021641372,-0.0852244273748831,-1.1558477877917488
1.7220000000000013,0.1842962970350892,-0.0862890782185996,-1.1931332566021038
1.7255000000000038,0.1214435000122694,-0.0873537290623162,-1.2378747719769785
1.7289999999999992,0.0735062867769931,-0.0767019846373948,-1.2719645429269315
1.7325000000000017,0.0255673282124649,-0.0660484948832214,-1.324163850195578
1.7360000000000042,-0.0074577918937717,-0.0511346564249298,-1.3593182719892478
1.7394999999999996,-0.0436768645311581,-0.0245026773687483,-1.407257230553776
1.743000000000002,-0.0713752397603081,0.0053267448770866,-1.4402806053307606
1.7464999999999975,-0.1054650107102613,0.0479389585645282,-1.480763517330769
1.75,-0.1427504795206162,0.069244192743623,-1.5052644493702656
1.7535000000000025,-0.1949497867892626,0.0905494269227178,-1.5287007305660454
1.756999999999998,-0.2322352555996175,0.0937468701123714,-1.5382895694765022
1.7605000000000004,-0.2908259585890671,0.0948115209560879,-1.531896428426447
1.764000000000003,-0.3302424744161071,0.0926804739394028,-1.5287007305660454
1.7674999999999983,-0.3781796876513833,0.0852244273748831,-1.5148515429514704
1.7710000000000008,-0.41120480775762,0.0798976824977964,-1.504199798526549
1.7745000000000033,-0.4420988808471717,0.0703088435873395,-1.4818281681744856
1.7779999999999987,-0.4559463231324946,0.0713752397603081,-1.4701100275765957
1.7815000000000012,-0.464468765869983,0.0607217500061347,-1.450934095084934
1.7850000000000037,-0.4655351620429515,0.0426122136874415,-1.4370849074703589
1.788499999999999,-0.4697955107470696,0.0191759324916617,-1.4243021160287526
1.7920000000000016,-0.4687308599033531,-0.0031956978604016,-1.421106418168351
1.795500000000004,-0.4751222556241564,-0.0372854688103548,-1.4264331630454377
1.7989999999999997,-0.4879067923950148,-0.0607217500061347,-1.4349556057829258
1.802500000000002,-0.503885281697023,-0.0862890782185996,-1.4520004912579023
1.8059999999999972,-0.5251905158761178,-0.1033339636935762,-1.4711746784203124
1.8095,-0.559280286826071,-0.1171831513081512,-1.4999377044931788
1.8130000000000024,-0.5912390107593392,-0.1235745470289545,-1.520178287828557
1.8164999999999976,-0.6487650629050722,-0.1342280367831279,-1.5574637566389118
1.8200000000000005,-0.7009661155029706,-0.1459461773810178,-1.5851621318680618
1.8235000000000028,-0.7851241467048852,-0.166186760716396,-1.6288389963992198
1.8269999999999984,-0.8607597351693115,-0.177904901314286,-1.6629287673491733
1.830500000000001,-0.972616141600376,-0.1928187397725775,-1.7076702827240478
1.8340000000000032,-1.0610362668356608,-0.2119946722642392,-1.737499704969883
1.8374999999999984,-1.196328954462505,-0.2226464166891606,-1.7758498246239545
1.841000000000001,-1.3049879177039163,-0.2279731615662473,-1.8014171528364191
1.844500000000004,-1.4541297929453356,-0.233299906443334,-1.8280491318926009
1.847999999999999,-1.5670525955493688,-0.2418223491808223,-1.8333758767696875
1.8515000000000013,-1.7204548194949063,-0.2578025838120824,-1.8248534340321991
1.855000000000004,-1.8333758767696875,-0.2759121201307756,-1.811004246417624
1.8584999999999996,-1.975059960117335,-0.2993484013265554,-1.792894710098931
1.8620000000000017,-2.069871481073423,-0.3259803803827369,-1.779045522484356
1.8654999999999973,-2.188119283225291,-0.3664615470534934,-1.7705230797468676
1.869,-2.2584298721418827,-0.4037470158638482,-1.7609359861656628
1.8725000000000025,-2.341523252500081,-0.4591437663221482,-1.763067033182348
1.8759999999999977,-2.383069070014554,-0.5092120265741096,-1.7683920327301823
1.8795,-2.4171588409645066,-0.5784562193177326,-1.7843722673614426
1.883000000000003,-2.425681283701995,-0.6242641308655758,-1.802481803680136
1.886499999999998,-2.4235502366853097,-0.6913772765925138,-1.8333758767696875
1.8900000000000008,-2.41183209608742,-0.7446429800341288,-1.866400996875924
1.893500000000003,-2.390526861908325,-0.8138871727777518,-1.9143382101112003
1.8969999999999985,-2.373481976433349,-0.8714132249234848,-1.9537547259382404
1.900500000000001,-2.347914648220884,-0.9459841625441944,-2.0091497310672883
1.9040000000000037,-2.3330008097625923,-1.0045748655336442,-2.0528265955984466
1.9074999999999989,-2.3106291794105287,-1.0610362668356608,-2.116745788794235
1.9110000000000011,-2.2999756896563555,-1.1057777822105357,-2.1636183511857947
1.914500000000004,-2.283997200354348,-1.1483899958979769,-2.229666846069016
1.9179999999999997,-2.2722790597564577,-1.1803487198312452,-2.2744083614438906
1.9215000000000015,-2.2520384764210792,-1.2218962826749702,-2.326609414041789
1.9250000000000045,-2.237122892633536,-1.2517239595915532,-2.359632788818774
1.9285,-2.220078007158559,-1.2996629181560817,-2.401178606333247
1.9320000000000024,-2.2072952157169525,-1.332686292933066,-2.4235502366853097
1.9354999999999976,-2.194512424275346,-1.3784942044809092,-2.448052914054059
1.939,-2.1913149810856924,-1.4104529284141776,-2.465097799529035
1.9425000000000023,-2.200903819996149,-1.4562608399620207,-2.4778805909706416
1.945999999999998,-2.222209054175244,-1.483959215191171,-2.483207335847728
1.9495000000000005,-2.2680169657230875,-1.5084601472306671,-2.481076288831044
1.953000000000003,-2.3330008097625923,-1.5159179391244388,-2.47042279907687
1.9564999999999984,-2.4363347734561684,-1.5137868921077535,-2.44698651788109
1.9600000000000009,-2.546060132870548,-1.5073954963869507,-2.4203545388249084
1.9635000000000036,-2.706920148709857,-1.5073954963869507,-2.370286278572947
1.9669999999999987,-2.8390171384763003,-1.498873053649462,-2.3351318567792774
1.9705000000000013,-3.0243780863551057,-1.482892819018202,-2.279735106320977
1.974000000000004,-3.1586061231382336,-1.4690453767328793,-2.241384986666906
1.9774999999999991,-3.3258575346983466,-1.4477383972245323,-2.1849235853648894
1.9810000000000016,-3.4323871962523245,-1.4243021160287526,-2.1455088148671013
1.984500000000004,-3.5357211599459006,-1.3944744391121693,-2.0975698563025733
1.9879999999999995,-3.588985118058264,-1.3603846681622165,-2.069871481073423
1.991500000000002,-3.6070946543769566,-1.324163850195578,-2.034717059279753
1.9949999999999972,-3.596442909952036,-1.29646722029568,-2.01234542892769
1.9985,-3.5335901129292155,-1.2698334959102464,-1.9899755439048787
2.0020000000000024,-3.466476967202277,-1.2527886104352697,-1.975059960117335
2.005499999999998,-3.335444628279552,-1.2400058189936634,-1.9612107725027603
2.0090000000000003,-3.221457174831801,-1.2346790741165767,-1.9505590280778389
2.012500000000003,-3.051010065411288,-1.2400058189936634,-1.944167632357036
2.0159999999999982,-2.916783773957412,-1.247461865558183,-1.9420365853403505
2.0195000000000007,-2.749530617068047,-1.2698334959102464,-1.940970189167382
2.0230000000000032,-2.631282814916179,-1.290074079245625,-1.947363330217437
2.026499999999998,-2.49812117430602,-1.332686292933066,-1.9558857729549253
2.030000000000001,-2.422485585841593,-1.3657114130393029,-1.9622771686757288
2.033500000000004,-2.351110346081285,-1.4083218813974925,-1.972930658429902
2.036999999999999,-2.323411970852136,-1.439215954487044,-1.9782556579777368
2.040500000000001,-2.3074334815501274,-1.4786324703140838,-1.982517752011107
2.044000000000004,-2.3223473200084186,-1.4999377044931788,-1.9878444968881936
2.0474999999999994,-2.366024184539577,-1.525505032705644,-1.9793220541507053
2.051000000000002,-2.4278123307186803,-1.5414852673369035,-1.9654728665361303
2.0544999999999973,-2.534341992272658,-1.5574637566389118,-1.940970189167382
2.058,-2.640871653826636,-1.5659861993764004,-1.920729605832004
2.0615000000000023,-2.8102541124034337,-1.5766396891305736,-1.8919665797591367
2.0649999999999977,-2.9561985444552,-1.5904888767451486,-1.8727923925967276
2.0685,-3.172453565423557,-1.6043380643597236,-1.8450940173675772
2.0720000000000027,-3.3386403261399527,-1.6075337622201251,-1.825918084875916
2.075499999999998,-3.5666134877062,-1.6075337622201251,-1.7960904079593327
2.0790000000000006,-3.7306692014059113,-1.5947492254492668,-1.769458428903151
2.082500000000003,-3.929881082228544,-1.5681172463930857,-1.723650517355308
2.0859999999999985,-4.059847024978302,-1.545745616041022,-1.6831693506845515
2.089500000000001,-4.195139712605147,-1.4935463087723757,-1.614989808784645
2.0930000000000035,-4.268644254052887,-1.455196189118304,-1.5606594544993135
2.096499999999999,-4.324041004511187,-1.405126183537091,-1.486088516878604
2.1000000000000014,-4.331497051075707,-1.361449319005933,-1.4264331630454377
2.103500000000004,-4.3016693741591245,-1.3156414074580896,-1.3476001313913577
2.1069999999999998,-4.242012274996706,-1.2815516365081363,-1.286878381385223
2.110500000000002,-4.1365472642864445,-1.2442661676977815,-1.219765235658285
2.113999999999997,-4.0332150459221205,-1.2176341886416,-1.1686305792333551
2.1175,-3.878746425803615,-1.1888711625687334,-1.106844178383504
2.121000000000002,-3.756236529618376,-1.1718262770937566,-1.0610362668356608
2.1244999999999976,-3.5985722116394685,-1.157977089479182,-1.0035102146899275
2.128,-3.488846852225089,-1.1462589488812918,-0.9545066052816829
2.1315000000000026,-3.362076607335733,-1.1558477877917488,-0.9001762509963515
2.134999999999998,-3.2928324145921097,-1.164370230529237,-0.861824386013028
2.1385000000000005,-3.228914966725573,-1.1814151160042137,-0.8149518236214683
2.142000000000003,-3.2012165914964235,-1.21017814207708,-0.7840577505319166
2.1454999999999984,-3.1948251957756204,-1.2421368660103485,-0.7552947244590501
2.149000000000001,-3.209739034233912,-1.2740955899436164,-0.7350541411236718
2.1525000000000034,-3.25767799279844,-1.3071189647206012,-0.7201403026653803
2.155999999999999,-3.30881264922337,-1.3305552459163812,-0.709488558240459
2.1595000000000013,-3.3737947479336228,-1.3603846681622165,-0.6903126257487973
2.163000000000004,-3.4387785919731275,-1.3870166472183978,-0.6668763445530174
2.166499999999999,-3.499500341979262,-1.413648626274579,-0.6274598287259775
2.1700000000000017,-3.5357211599459006,-1.4264331630454377,-0.5965657556364258
2.173500000000004,-3.558091044968712,-1.448803048068249,-0.5539552872782363
2.177,-3.545308253527106,-1.4637186318557929,-0.5166698184678814
2.180500000000002,-3.501631388995948,-1.4775660741411154,-0.4708619069200382
2.183999999999997,-3.4323871962523245,-1.482892819018202,-0.4420988808471717
2.1875,-3.3152040449441733,-1.4882195638952889,-0.3994866671597301
2.1910000000000025,-3.19908728980899,-1.4892859600682575,-0.369657244913895
2.194499999999998,-3.015855643617618,-1.4935463087723757,-0.3355692192931938
2.1980000000000004,-2.856060278622025,-1.4999377044931788,-0.3078708440640437
2.201500000000003,-2.622760372178691,-1.5073954963869507,-0.2823035158515788
2.2049999999999983,-2.4352683772832,-1.5191136369848404,-0.258867234655799
2.208500000000001,-2.1827925383482043,-1.527636079722329,-0.2343645572870505
2.2120000000000037,-1.9867781007152248,-1.536158522459817,-0.2215817658454441
2.2154999999999987,-1.737499704969883,-1.5489413139014236,-0.2087989744038376
2.219000000000001,-1.5563991057951954,-1.5595948036555969,-0.2002765316663493
2.222500000000004,-1.3348173399497512,-1.5702482934097703,-0.1938833906162941
2.225999999999999,-1.1846108138646152,-1.584095735695093,-0.1960144376329791
2.2295000000000016,-1.012032657427416,-1.5947492254492668,-0.205601531214184
2.233000000000004,-0.9044365997004696,-1.6075337622201251,-0.2151903701246408
2.2364999999999995,-0.7883198445652868,-1.624578647695102,-0.2301042085829324
2.240000000000002,-0.7222713496820654,-1.6330993451033382,-0.2450180470412239
2.2434999999999974,-0.6636806466926157,-1.648014928890882,-0.2631275833599171
2.247,-0.6338512244467807,-1.6512106267512834,-0.274847469287059
2.2505000000000024,-0.6104149432510009,-1.652275277595,-0.2950880526224372
2.253999999999998,-0.6061545945468827,-1.650144230578315,-0.2950880526224372
2.2575000000000003,-0.6061545945468827,-1.6384260899804248,-0.2918906094327836
2.261000000000003,-0.6114795940947174,-1.6256432985388185,-0.2759121201307756
2.264499999999998,-0.614677037284371,-1.6096630639075584,-0.2396913021641372
2.2680000000000007,-0.6178727351447726,-1.6043380643597236,-0.2066679273871525
2.271500000000003,-0.6231994800218592,-1.5904888767451486,-0.1544686201185061
2.2749999999999986,-0.6295908757426625,-1.5862267827117784,-0.1054650107102613
2.278500000000001,-0.6349176206197492,-1.573443991270172,-0.041545817514473
2.282000000000004,-0.6487650629050722,-1.5659861993764004,0.0127827914416064
2.285499999999999,-0.6626142505196473,-1.561725850672282,0.0884201252352847
2.289000000000001,-0.6785944851509074,-1.5606594544993135,0.150206526085136
2.292500000000004,-0.6998997193300021,-1.5585301528118805,0.2364956043037356
2.296,-0.7222713496820654,-1.5585301528118805,0.302544099186957
2.299500000000002,-0.7691439120736251,-1.5563991057951954,0.3888331774055567
2.3029999999999973,-0.8074957770569485,-1.555332709622227,0.4559463231324946
2.3065,-0.8778046206442881,-1.5585301528118805,0.5347793547865746
2.3100000000000023,-0.9374617198067065,-1.5585301528118805,0.6061545945468827
2.3134999999999977,-1.032273240762794,-1.5521370117618252,0.6892479749050807
2.317,-1.111104527087622,-1.5425499181806204,0.7457076308778453
2.3205000000000027,-1.2133738399374818,-1.536158522459817,0.8309320582527283
2.323999999999998,-1.2932697771060262,-1.525505032705644,0.8916538082588631
2.327500000000001,-1.3966037407996024,-1.5116558450910689,0.9640936988628878
2.331000000000003,-1.4690453767328793,-1.502068751509864,1.014161959114849
2.3344999999999985,-1.545745616041022,-1.490350610911974,1.0610362668356608
2.338000000000001,-1.6618641165054566,-1.4733057254369972,1.1281494125625986
2.3415000000000035,-1.719388423321938,-1.4562608399620207,1.164370230529237
2.344999999999999,-1.7683920327301823,-1.4456073502078477,1.1941979074458202
2.3485000000000014,-1.8237887831884827,-1.412583975430863,1.2325480270998914
2.352000000000004,-1.852551809261349,-1.390212345078799,1.261311053172758
2.3554999999999997,-1.873857043440444,-1.3550579232851294,1.2943361732789946
2.3590000000000018,-1.8823794861779324,-1.3316216420893496,1.3220328031788928
2.362499999999997,-1.8802484391612475,-1.29646722029568,1.3571889703018147
2.366,-1.8695966947363256,-1.2836826835248214,1.3859519963746811
2.369500000000002,-1.8450940173675772,-1.2708998920832149,1.413648626274579
2.3729999999999976,-1.7992861058197342,-1.2495929125748682,1.4562608399620207
2.3765,-1.7588049391489775,-1.2421368660103485,1.4871549130515724
2.3800000000000026,-1.6895607464053546,-1.2282876783957732,1.5287007305660454
2.383499999999998,-1.6277743455555036,-1.2240255843624033,1.555332709622227
2.3870000000000005,-1.5297671267390138,-1.208047095060395,1.5904888767451486
2.390500000000003,-1.4477383972245323,-1.1941979074458202,1.6192519028180152
2.3939999999999984,-1.3294905950726643,-1.1846108138646152,1.6576020224720869
2.397500000000001,-1.23361442327286,-1.1696952300770718,1.6853003977012364
2.401000000000004,-1.0940596416126456,-1.1633038343562685,1.727910866059426
2.4044999999999987,-0.9907256779190692,-1.1526520899313473,1.752413543428175
2.4080000000000013,-0.8437148496943347,-1.1515856937583784,1.7939593609426474
2.411500000000004,-0.7382515843133254,-1.1515856937583784,1.8120706425905928
2.414999999999999,-0.5976321518093943,-1.1409322040042051,1.8429629703508923
2.4185000000000016,-0.4985585368199362,-1.138802902316772,1.8685302985633567
2.422000000000004,-0.3664615470534934,-1.138802902316772,1.8962286737925071
2.4254999999999995,-0.2705853752536888,-1.138802902316772,1.9186003041445707
2.429000000000002,-0.1480754790684509,-1.1356072044563703,1.947363330217437
2.432499999999997,-0.0617864008498512,-1.132411506595969,1.9676039135528156
2.436,0.0500682602519613,-1.131345110423,2.003822986190201
2.4395000000000024,0.1331616406101593,-1.1292140634063152,2.027261012715233
2.442999999999998,0.2364956043037356,-1.131345110423,2.0613490383359347
2.4465000000000003,0.3089354949077603,-1.1292140634063152,2.09117846058177
2.450000000000003,0.4016177141764152,-1.1281494125625986,2.123137184515038
2.4534999999999982,0.4538170214450616,-1.1174959228084254,2.146573465710818
2.4570000000000007,0.5241258650324012,-1.111104527087622,2.1710743977503144
2.4605000000000032,0.5656734278761262,-1.1057777822105357,2.1849235853648894
2.463999999999998,0.614677037284371,-1.0940596416126456,2.197708122135748
2.467500000000001,0.6413090163405525,-1.0855371988751572,2.201968470839866
2.471000000000004,0.6711366932571355,-1.063165568523094,2.208359866560669
2.474499999999999,0.6871169278883955,-1.0525138240981724,2.1987727729794644
2.478000000000001,0.6935083236091989,-1.030142193746109,2.193446028102377
2.481500000000004,0.6967040214696004,-1.0152283552878176,2.1806632366607714
2.4849999999999994,0.6817901830113089,-0.9907256779190692,2.1636183511857947
2.488500000000002,0.6626142505196473,-0.9651583497066044,2.157226955464991
2.4919999999999973,0.626395177882261,-0.9417220685108244,2.150833814414936
2.4955,0.5976321518093943,-0.9246771830358478,2.1593562571524245
2.4990000000000023,0.5433017975240628,-0.903371948856753,2.174271840939968
2.5024999999999977,0.4985585368199362,-0.8905874120858945,2.192381377258661
2.506,0.43890318298677,-0.8799356676609732,2.220078007158559
2.5095000000000027,0.3920288752659583,-0.8735442719401699,2.243516033683591
2.512999999999998,0.3313071252598236,-0.8682175270630832,2.269083361896056
2.5165000000000006,0.2908259585890671,-0.8607597351693115,2.289322199902182
2.520000000000003,0.2578025838120824,-0.8501062454151381,2.317020575131332
2.5234999999999985,0.2386266513204207,-0.8469105475547365,2.3330008097625923
2.527000000000001,0.2407576983371057,-0.8383881048172481,2.3617638358354585
2.5305000000000035,0.2546051406224288,-0.8351924069568466,2.37667767429375
2.533999999999999,0.2940216564494687,-0.8341277561131301,2.3926561635957584
2.5375000000000014,0.3387649171535954,-0.8319967090964449,2.4054407003666167
2.541000000000004,0.3984202709867616,-0.8266699642193582,2.4128967469311364
2.5444999999999998,0.4516859744283765,-0.8234742663589566,2.41609419012079
2.548000000000002,0.5294526099094878,-0.8288010112360433,2.41183209608742
2.551499999999997,0.5848476150385359,-0.8351924069568466,2.403309653349932
2.555,0.6604849488322142,-0.8437148496943347,2.395853606785412
2.558500000000002,0.7201403026653803,-0.8490415945714216,2.389460465735357
2.5619999999999976,0.7979069381464917,-0.861824386013028,2.3809380229978685
2.5655,0.8501062454151381,-0.8714132249234848,2.374546627277065
2.5690000000000026,0.9076322975608712,-0.8863270633817765,2.362828486679175
2.572499999999998,0.9385263706504228,-0.901240901840068,2.352174996925002
2.5760000000000005,0.960898001002486,-0.921481485175446,2.331934413589624
2.579500000000003,0.9651583497066044,-0.9395927668233912,2.3223473200084186
2.5829999999999984,0.9534402091087144,-0.970485094583691,2.298911038812639
2.586500000000001,0.942788464683793,-0.9981834698128408,2.283997200354348
2.5900000000000034,0.9257435792088164,-1.037599985639881,2.2584298721418827
2.593499999999999,0.9182857873150446,-1.0802104539980706,2.237122892633536
2.5970000000000013,0.9246771830358478,-1.134540808283402,2.2030348670128346
2.600500000000004,0.940657417667108,-1.1846108138646152,2.1710743977503144
2.603999999999999,0.9715514907566596,-1.2410704698373798,2.1252682315317237
2.6075000000000017,1.0067059125503293,-1.2858137305415065,2.095438809285888
2.611000000000004,1.0642319646960623,-1.3358819907934678,2.048566246894328
2.6145,1.1079088292272203,-1.3806252514975943,2.019803220821462
2.618000000000002,1.17821767281456,-1.432824558766241,1.9697332152402485
2.621499999999997,1.2261566313790884,-1.4679789805599106,1.9345787934465783
2.625,1.2943361732789946,-1.5116558450910689,1.8909019289154203
2.6285000000000025,1.340144084826838,-1.5468120122139906,1.8610742519988372
2.631999999999998,1.407257230553776,-1.587293178884747,1.822722387015514
2.6355000000000004,1.450934095084934,-1.6181855066450466,1.7960904079593327
2.639000000000003,1.5095265434036358,-1.654406324611685,1.772654126763553
2.6424999999999983,1.5489413139014236,-1.6789072566511811,1.7577402883052613
2.646000000000001,1.60540271520344,-1.7076702827240478,1.7406954028302846
2.6495000000000037,1.648014928890882,-1.7268462152157096,1.7343040071094815
2.6529999999999987,1.705540981036615,-1.7460221477073712,1.721519470338623
2.656500000000001,1.7417600536740012,-1.7577402883052613,1.7161927254615363
2.660000000000004,1.7982214549760178,-1.7609359861656628,1.7076702827240478
2.663499999999999,1.8450940173675772,-1.7620006370093797,1.7034099340199298
2.6670000000000016,1.915404606284169,-1.7556092412885762,1.706605631880331
2.670500000000004,1.9793220541507053,-1.7449557515344027,1.7140634237741033
2.6739999999999995,2.081589621671313,-1.7321729600927964,1.7161927254615363
2.677500000000002,2.1785321896440863,-1.7161927254615363,1.7204548194949063
2.6809999999999974,2.321282669164702,-1.6970185382991263,1.719388423321938
2.6845,2.445921867037373,-1.6853003977012364,1.721519470338623
2.6880000000000024,2.6238267683516594,-1.6618641165054566,1.7183237724782212
2.691499999999998,2.774033294436796,-1.649079579734598,1.7108677259137015
2.6950000000000003,2.978570174807263,-1.6384260899804248,1.7034099340199298
2.698500000000003,3.1341034457694854,-1.6235122515221332,1.6980831891428432
2.701999999999998,3.3418360240003544,-1.6117941109242435,1.6874296993886695
2.7055000000000007,3.4899132483980577,-1.599011319482637,1.677842605807465
2.709000000000003,3.66888280055606,-1.5809000378346918,1.658666673315803
2.7124999999999986,3.7903263005683296,-1.5659861993764004,1.6437528348575114
2.716000000000001,3.9170965454576856,-1.5425499181806204,1.624578647695102
2.719500000000004,3.976753644620104,-1.5148515429514704,1.6107294600805269
2.722999999999999,4.009777019397089,-1.4818281681744856,1.596880272465952
2.726500000000001,3.999125274972167,-1.4520004912579023,1.5862267827117784
2.730000000000004,3.9309457330722606,-1.411517579257894,1.5787707361472587
2.7335,3.840396306149543,-1.3827562985142796,1.5766396891305736
2.737000000000002,3.69658117578521,-1.3433397826872395,1.5851621318680618
2.7404999999999973,3.560222091985397,-1.3199035014914595,1.596880272465952
2.744,3.372730097089906,-1.2932697771060262,1.6203165536617317
2.7475000000000023,3.235306362446377,-1.28048698566442,1.6437528348575114
2.7509999999999977,3.0574014611320908,-1.2655731472061282,1.6789072566511811
2.7545,2.9402200551531914,-1.259181751485325,1.7023452831762131
2.7580000000000027,2.82303690384504,-1.2517239595915532,1.737499704969883
2.761499999999998,2.7633798046826223,-1.2517239595915532,1.7662627310427494
2.765000000000001,2.737812476470157,-1.2602464023290416,1.790763663082246
2.768500000000003,2.749530617068047,-1.2655731472061282,1.8099395955739075
2.7719999999999985,2.8134498102638354,-1.2815516365081363,1.8216577361717976
2.775500000000001,2.8816276068344897,-1.2932697771060262,1.8237887831884827
2.7790000000000035,3.0009418051593264,-1.3135103604414045,1.818462038311396
2.782499999999999,3.104275768852902,-1.3252302463685464,1.806743897713506
2.7860000000000014,3.2342417116026603,-1.3476001313913577,1.7854369182051593
2.789500000000004,3.3290532325587483,-1.3646450168663344,1.767327381886466
2.7929999999999997,3.424929404358553,-1.3827562985142796,1.752413543428175
2.7965000000000018,3.4845865035209704,-1.395539089955886,1.737499704969883
2.799999999999997,3.5282633680521287,-1.407257230553776,1.7225858665115914
2.8035,3.5431772065104203,-1.411517579257894,1.7161927254615363
2.807000000000002,3.5282633680521287,-1.4061925797100594,1.7140634237741033
2.8104999999999976,3.497369294962577,-1.3934080429392008,1.7076702827240478
2.814,3.4281251022189543,-1.377429553637193,1.706605631880331
2.8175000000000026,3.3535541645982443,-1.3667760638830195,1.705540981036615
2.820999999999998,3.235306362446377,-1.351862225424728,1.700214236159528
2.8245000000000005,3.139430190646572,-1.3454708297039246,1.6991478399865596
2.828000000000003,3.004137503019728,-1.3433397826872395,1.7044745848636462
2.8314999999999984,2.912521679924041,-1.3454708297039246,1.7044745848636462
2.835000000000001,2.8123834140908666,-1.3390776886538696,1.6948874912824414
2.838500000000004,2.7623151538389057,-1.3444044335309562,1.6895607464053546
2.8419999999999987,2.739943523486842,-1.353991527112161,1.6693201630699763
2.8455000000000013,2.755923758118102,-1.3721028087601062,1.648014928890882
2.849000000000004,2.828363648722127,-1.3880812980621142,1.6139251579409286
2.852499999999999,2.9103906329073563,-1.409388277570461,1.587293178884747
2.8560000000000016,3.054205763271689,-1.4338892096099574,1.5425499181806204
2.859500000000004,3.177780310300644,-1.4562608399620207,1.506329100213982
2.8629999999999995,3.34822916505041,-1.4871549130515724,1.4583918869787058
2.866500000000002,3.477128711627199,-1.5031334023535805,1.4243021160287526
2.869999999999997,3.647577566376965,-1.534027475443132,1.3816899023413112
2.8735,3.757302925791345,-1.5532034079347938,1.3550579232851294
2.8770000000000024,3.8915292172452207,-1.573443991270172,1.3230991993518617
2.880499999999998,3.9671665510388983,-1.5915535275888653,1.3049879177039163
2.8840000000000003,4.04493318652001,-1.61285876176796,1.2836826835248214
2.887500000000003,4.079021212140711,-1.6235122515221332,1.2708998920832149
2.8909999999999982,4.090741098067854,-1.6352303921200233,1.2506593087478366
2.8945000000000007,4.077956561296995,-1.6352303921200233,1.2410704698373798
2.8980000000000032,4.0332150459221205,-1.6341657412763066,1.22935232923949
2.901499999999998,3.9778182954638206,-1.629903647242937,1.2250919805353715
2.905000000000001,3.8915292172452207,-1.624578647695102,1.2165695377978836
2.908500000000004,3.81802467579748,-1.6288389963992198,1.2123074437645132
2.911999999999999,3.700841524489328,-1.6352303921200233,1.1995246523229068
2.915500000000001,3.6070946543769566,-1.6416217878408266,1.1856754647083318
2.919000000000004,3.477128711627199,-1.650144230578315,1.16649953221667
2.9224999999999994,3.3769921911232763,-1.654406324611685,1.1569124386354652
2.926000000000002,3.2619400868318102,-1.6639934181928897,1.1430632510208902
2.9294999999999973,3.182042404334014,-1.6735822571033467,1.132411506595969
2.933,3.1000136748195324,-1.686365048544953,1.132411506595969
2.9365000000000023,3.055272159444658,-1.695952142126158,1.1270847617188822
2.9399999999999977,3.0147909927739014,-1.7044745848636462,1.122822667685512
2.9435,2.9934840132655545,-1.7172591216345048,1.1143002249480238
2.9470000000000027,2.973243429930176,-1.728977262232395,1.1036484805231024
2.950499999999998,2.953002846594798,-1.737499704969883,1.0908639437522438
2.9540000000000006,2.927435518382333,-1.7406954028302846,1.0663630117127476
2.957500000000003,2.9050656333595217,-1.743891100690686,1.0503827770814873
2.9609999999999985,2.87417156026997,-1.7449557515344027,1.0312068445898257
2.964500000000001,2.8475378358845367,-1.7502824964114894,1.022684401852337
2.9680000000000035,2.814514461107552,-1.7460221477073712,1.012032657427416
2.971499999999999,2.790013529068055,-1.7470867985510878,1.0056395163773606
2.9750000000000014,2.749530617068047,-1.723650517355308,0.9971170736398725
2.978500000000004,2.723965034184834,-1.6948874912824414,0.9981834698128408
2.9819999999999998,2.6920045649223137,-1.65653737162837,0.996052422796156
2.985500000000002,2.665372585866132,-1.6320346942596218,0.9971170736398725
2.988999999999997,2.6355449089495493,-1.6096630639075584,1.0013791676732426
2.9925,2.616368976457888,-1.5979449233096683,1.0013791676732426
2.996000000000002,2.5865412995413046,-1.596880272465952,1.0056395163773606
2.9994999999999976,2.566300716205926,-1.6000759703263534,1.0109662612544474
3.003,2.534341992272658,-1.6085984130638418,1.0152283552878176
3.0065000000000026,2.510905711076878,-1.626707949382535,1.0173594023045027
3.009999999999998,2.4725538460935548,-1.650144230578315,1.0205551001649042
3.0135000000000005,2.4427261691769715,-1.66825551222626,1.022684401852337
3.017000000000003,2.4043760495229005,-1.695952142126158,1.0312068445898257
3.0204999999999984,2.374546627277065,-1.7140634237741033,1.0407956835002825
3.024000000000001,2.342587903343797,-1.7417600536740012,1.055709521958574
3.0275000000000034,2.321282669164702,-1.767327381886466,1.0663630117127476
3.030999999999999,2.3053024345334423,-1.790763663082246,1.095126037785614
3.0345000000000013,2.3042377836897256,-1.808874944730191,1.1153666211209925
3.038000000000004,2.3138248772709304,-1.829115528065569,1.144129647193859
3.041499999999999,2.3351318567792774,-1.8387026216467743,1.1654348813729536
3.0450000000000017,2.390526861908325,-1.8514854130883809,1.196328954462505
3.048500000000004,2.444857216193657,-1.8546811109487824,1.2165695377978836
3.052,2.5364712939600915,-1.865334600702956,1.24533256387075
3.055500000000002,2.609977580737084,-1.8706613455800425,1.2623774493457267
3.058999999999997,2.716507242291062,-1.8770527413008455,1.28048698566442
3.0625,2.793209226928457,-1.885575184038334,1.290074079245625
3.0660000000000025,2.8773672581303718,-1.8983597208091925,1.2943361732789946
3.069499999999998,2.9327622632594195,-1.901555418669594,1.300727568999798
3.0730000000000004,2.982832268840633,-1.9026200695133104,1.3049879177039163
3.076500000000003,3.0009418051593264,-1.904751116529996,1.3028586160164832
3.0799999999999983,3.008397851723846,-1.889837278071704,1.2954008241227113
3.083500000000001,2.996679711125956,-1.8802484391612475,1.284747334368538
3.0870000000000037,2.9498071487343966,-1.8557475071217504,1.273029193770648
3.0904999999999987,2.9008035393261515,-1.8376379708030577,1.261311053172758
3.094000000000001,2.8198412059846385,-1.8141999442780257,1.2463972147144666
3.097500000000004,2.7452702683639285,-1.7971568041323012,1.2368101211332618
3.100999999999999,2.634478512776581,-1.7758498246239545,1.22935232923949
3.1045000000000016,2.5492558307309494,-1.7609359861656628,1.2272212822228048
3.108000000000004,2.428876981562397,-1.7428264498469697,1.2250919805353715
3.1114999999999995,2.3372611584667102,-1.739630751986568,1.231483376256175
3.115000000000002,2.220078007158559,-1.7247151681990245,1.2368101211332618
3.1184999999999974,2.132724278096243,-1.7183237724782212,1.2368101211332618
3.122,2.02406356952558,-1.7119323767574182,1.231483376256175
3.1255000000000024,1.945232283200752,-1.7076702827240478,1.2229609335186866
3.128999999999998,1.8568121579654675,-1.7087366788970164,1.2069806988874263
3.1325000000000003,1.800352501992703,-1.7098013297407328,1.1856754647083318
3.136000000000003,1.735368657953198,-1.7247151681990245,1.1494546467416935
3.139499999999998,1.705540981036615,-1.7343040071094815,1.1238890638584804
3.1430000000000007,1.6789072566511811,-1.7513488925844578,1.0844725480314406
3.146500000000003,1.6725158609303783,-1.7588049391489775,1.0599698706626923
3.1499999999999986,1.6884960955616382,-1.771589475919836,1.021619751008621
3.153500000000001,1.7098013297407328,-1.7737187776072691,0.9907256779190692
3.157000000000004,1.7609359861656628,-1.7705230797468676,0.9555712561253994
3.160499999999999,1.8141999442780257,-1.774785173780238,0.9321349749296196
3.164000000000001,1.897293324636224,-1.771589475919836,0.9001762509963515
3.167500000000004,1.9676039135528156,-1.7758498246239545,0.8735442719401699
3.171,2.074133575106793,-1.7769144754676711,0.8426501988506182
3.174500000000002,2.155095908448306,-1.7779808716406396,0.8181475214818699
3.1779999999999973,2.2616255700022845,-1.7779808716406396,0.7723396099340267
3.1815,2.3255430178688203,-1.7865033143781277,0.7339894902799553
3.1850000000000023,2.397982908472845,-1.792894710098931,0.6796591359946239
3.1884999999999977,2.428876981562397,-1.790763663082246,0.6359822714634658
3.192,2.4491175648977745,-1.7896990122385292,0.5731294744406459
3.1955000000000027,2.441661518333255,-1.7875679652218444,0.5273215628928027
3.198999999999998,2.3990493046458137,-1.774785173780238,0.4687308599033531
3.202500000000001,2.3436525541875133,-1.765196334869781,0.4293143440763132
3.206000000000003,2.240320335823189,-1.7406954028302846,0.3824417816847534
3.2094999999999985,2.14976916357122,-1.721519470338623,0.3483520107348002
3.213000000000001,2.042174851173525,-1.706605631880331,0.3227846825223353
3.2165000000000035,1.8887708818987357,-1.686365048544953,0.2918906094327836
3.219999999999999,1.7662627310427494,-1.66825551222626,0.2684543282370038
3.2235000000000014,1.587293178884747,-1.6597330694887715,0.2460844432141925
3.227000000000004,1.4573254908057371,-1.6469485327179132,0.2269085107225308
3.2304999999999997,1.2687688450665298,-1.6341657412763066,0.1981454846496642
3.2340000000000018,1.1334761574396854,-1.626707949382535,0.180035948330971
3.237499999999997,0.9491798604045962,-1.6192519028180152,0.1480754790684509
3.241,0.8149518236214683,-1.61712085580133,0.1267702448893561
3.244500000000002,0.6466357612176391,-1.6107294600805269,0.0905494269227178
3.2479999999999976,0.5294526099094878,-1.61285876176796,0.0671131457269379
3.2515,0.3920288752659583,-1.61285876176796,0.0308940730895516
3.2550000000000026,0.3057397970473587,-1.6139251579409286,0.0010646508437165
3.258499999999998,0.2098636252475541,-1.6139251579409286,-0.0404811666707564
3.2620000000000005,0.1544686201185061,-1.60540271520344,-0.0777666354811113
3.265500000000003,0.1086607085706629,-1.587293178884747,-0.1320969897664428
3.2689999999999984,0.0884201252352847,-1.5723775950972034,-0.1747092034538843
3.272500000000001,0.0894847760790012,-1.5468120122139906,-0.2322352555996175
3.276000000000004,0.1150521042914662,-1.5329628245994156,-0.2844345628682639
3.2794999999999987,0.1757738542976009,-1.5159179391244388,-0.355809802628572
3.2830000000000013,0.2492801410745941,-1.498873053649462,-0.41120480775762
3.286500000000004,0.3707236410868635,-1.4892859600682575,-0.4932317919428495
3.289999999999999,0.4772533026408414,-1.486088516878604,-0.5464974953844645
3.2935000000000016,0.6359822714634658,-1.483959215191171,-0.6253287817092923
3.297000000000004,0.7616878655091054,-1.4796971211578005,-0.6807255321675924
3.3004999999999995,0.9363953236337376,-1.476501423297399,-0.753165422771617
3.304000000000002,1.0695587095731491,-1.476501423297399,-0.8096250787443816
3.307499999999997,1.2421368660103485,-1.4658479335432255,-0.8799356676609732
3.311,1.3657114130393029,-1.4594565378224222,-0.933199625773336
3.3145000000000024,1.5159179391244388,-1.453065142101619,-1.000314516829526
3.317999999999998,1.6192519028180152,-1.4434780485204144,-1.037599985639881
3.3215000000000003,1.728977262232395,-1.432824558766241,-1.0770147561376688
3.325000000000003,1.7992861058197342,-1.4221710690120672,-1.1036484805231024
3.3284999999999982,1.8610742519988372,-1.4104529284141776,-1.130280459579284
3.3320000000000007,1.8887708818987357,-1.3987347878162877,-1.1515856937583784
3.3355000000000032,1.8909019289154203,-1.395539089955886,-1.176088371127127
3.338999999999998,1.8770527413008455,-1.3870166472183978,-1.1995246523229068
3.342500000000001,1.818462038311396,-1.3816899023413112,-1.2272212822228048
3.346000000000004,1.749217845567773,-1.369971761743421,-1.2485282617311515
3.349499999999999,1.629903647242937,-1.3571889703018147,-1.275160240787333
3.353000000000001,1.522309334845242,-1.3486665275643264,-1.2954008241227113
3.356500000000004,1.3454708297039246,-1.342273386514271,-1.332686292933066
3.3599999999999994,1.203785001027025,-1.338013037810153,-1.3625139698496491
3.363500000000002,1.000314516829526,-1.3390776886538696,-1.4083218813974925
3.3669999999999973,0.8394545009902167,-1.3454708297039246,-1.448803048068249
3.3705,0.6231994800218592,-1.3593182719892478,-1.512722241264037
3.3740000000000023,0.464468765869983,-1.3752985066205077,-1.5606594544993135
3.3774999999999977,0.260998281672484,-1.3934080429392008,-1.6341657412763066
3.381,0.1203788491685528,-1.4061925797100594,-1.6927564442657563
3.3845000000000027,-0.0458079115478431,-1.411517579257894,-1.7737187776072691
3.387999999999998,-0.152337573101821,-1.412583975430863,-1.834440527613404
3.3915000000000006,-0.2652586303766022,-1.4061925797100594,-1.9111425122507988
3.395000000000003,-0.3195889846619337,-1.395539089955886,-1.9633418195194452
3.3984999999999985,-0.3653968962097769,-1.3848856002017127,-2.0229989186818638
3.402000000000001,-0.3781796876513833,-1.374233855776791,-2.069871481073423
3.4055000000000035,-0.3685925940701784,-1.358253621145531,-2.1252682315317237
3.408999999999999,-0.3440916620306821,-1.3390776886538696,-2.160422653325393
3.4125000000000014,-0.2854992137119804,-1.314576756614373,-2.2104909135773543
3.416000000000004,-0.2311688594266489,-1.2943361732789946,-2.237122892633536
3.4194999999999998,-0.136357338470561,-1.282618032681105,-2.2722790597564577
3.423000000000002,-0.0639174478665363,-1.2666377980498449,-2.2914532469188678
3.426499999999997,0.0404811666707564,-1.2495929125748682,-2.3053024345334423
3.43,0.1182478021518678,-1.2442661676977815,-2.3159559242876155
3.433500000000002,0.2130593231079557,-1.2325480270998914,-2.314889528114647
3.4369999999999976,0.2791078179911772,-1.235743724960293,-2.3127602264272142
3.4405,0.3451563128743986,-1.231483376256175,-2.308498132393844
3.4440000000000026,0.3845728287014385,-1.2272212822228048,-2.2999756896563555
3.447499999999998,0.4207919013388249,-1.2112427929207967,-2.282930804181379
3.4510000000000005,0.4346410889533998,-1.192066860429135,-2.2680169657230875
3.454500000000003,0.4463592295512898,-1.1654348813729536,-2.233927194773134
3.4579999999999984,0.4463592295512898,-1.1430632510208902,-2.2051641687002674
3.461500000000001,0.4484902765679749,-1.1270847617188822,-2.168945096062881
3.4650000000000034,0.4570127193054631,-1.1238890638584804,-2.1455088148671013
3.468499999999999,0.4847093492053612,-1.138802902316772,-2.124201835358755
3.4720000000000013,0.508147375730393,-1.1633038343562685,-2.1252682315317237
3.475500000000004,0.561411333842756,-1.2091117459041116,-2.1263328823754395
3.478999999999999,0.6093502924072843,-1.2517239595915532,-2.134855325112928
3.4825000000000017,0.6753987872905056,-1.3135103604414045,-2.14976916357122
3.486000000000004,0.7329248394362388,-1.3646450168663344,-2.162553700342078
3.4895,0.81069147491735,-1.432824558766241,-2.1710743977503144
3.493000000000002,0.8692821779067997,-1.4871549130515724,-2.1774675388003697
3.496499999999997,0.942788464683793,-1.5510723609181087,-2.1827925383482043
3.5,0.9917920740920376,-1.5947492254492668,-2.1849235853648894
3.5035000000000025,1.0344025424502272,-1.6384260899804248,-2.192381377258661
3.506999999999998,1.0546431257856057,-1.6629287673491733,-2.18918567939826
3.5105000000000004,1.053578474941889,-1.6725158609303783,-2.1710743977503144
3.514000000000003,1.032273240762794,-1.66825551222626,-2.154031257604589
3.5174999999999983,0.968355792896258,-1.648014928890882,-2.1263328823754395
3.521000000000001,0.901240901840068,-1.6181855066450466,-2.1039612520233764
3.5245000000000037,0.7755353077944284,-1.57770433997429,-2.070937877246392
3.5279999999999987,0.6668763445530174,-1.545745616041022,-2.049630897738045
3.531500000000001,0.4911024902554164,-1.504199798526549,-2.0304567105756357
3.535000000000004,0.3440916620306821,-1.476501423297399,-2.0187385699777454
3.538499999999999,0.1395530363309626,-1.4306935117495558,-2.014476475944375
3.5420000000000016,-0.0245026773687483,-1.409388277570461,-2.0134118251006585
3.545500000000004,-0.2450180470412239,-1.377429553637193,-2.011280778083973
3.5489999999999995,-0.4101401569139035,-1.3646450168663344,-2.011280778083973
3.552500000000002,-0.6178727351447726,-1.3550579232851294,-2.0048893823631704
3.5559999999999974,-0.7648835633695069,-1.3454708297039246,-2.0016936845027686
3.5595,-0.9363953236337376,-1.3497311784080428,-2.0016936845027686
3.5630000000000024,-1.0567741728022906,-1.3667760638830195,-2.014476475944375
3.566499999999998,-1.1856754647083318,-1.3966037407996024,-2.034717059279753
3.5700000000000003,-1.2655731472061282,-1.4147150224475475,-2.0613490383359347
3.573500000000003,-1.3412087356705549,-1.4456073502078477,-2.0997009033192584
3.576999999999998,-1.3827562985142796,-1.4679789805599106,-2.1284639293921246
3.5805000000000007,-1.4083218813974925,-1.4871549130515724,-2.1636183511857947
3.584000000000003,-1.405126183537091,-1.4956773557890606,-2.1827925383482043
3.5874999999999986,-1.3816899023413112,-1.502068751509864,-2.2094262627336376
3.591000000000001,-1.3529268762684443,-1.5010041006661472,-2.228600449896048
3.594500000000004,-1.300727568999798,-1.4935463087723757,-2.249907429404394
3.597999999999999,-1.253855006608238,-1.482892819018202,-2.266952314879371
3.601500000000001,-1.1814151160042137,-1.464783282699509,-2.294648944779269
3.605000000000004,-1.1292140634063152,-1.446673746380816,-2.3116938302542454
3.6085,-1.0546431257856057,-1.4104529284141776,-2.331934413589624
3.612000000000002,-0.9992481206565574,-1.3784942044809092,-2.3436525541875133
3.615499999999997,-0.928939277069218,-1.324163850195578,-2.3436525541875133
3.619,-0.8841960163650913,-1.275160240787333,-2.3393922054833958
3.6225000000000014,-0.8160182197944368,-1.2069806988874263,-2.3298051119021905
3.6259999999999977,-0.7776663548111135,-1.1505210429146622,-2.317020575131332
3.6295,-0.727598094559152,-1.0802104539980706,-2.3010420858293243
3.6330000000000022,-0.6998997193300021,-1.0248154488690224,-2.2882575490584656
3.636499999999998,-0.6668763445530174,-0.9651583497066044,-2.2744083614438906
3.640000000000001,-0.6530271569384424,-0.9257435792088164,-2.2680169657230875
3.643500000000003,-0.6487650629050722,-0.8735442719401699,-2.2541677781085125
3.6469999999999994,-0.6594185526592456,-0.8383881048172481,-2.245645335371024
3.650500000000001,-0.6892479749050807,-0.8000379851631767,-2.239253939650221
3.654000000000004,-0.7190756518216638,-0.7776663548111135,-2.233927194773134
3.657499999999999,-0.7680792612299085,-0.7574257714757352,-2.237122892633536
3.661000000000002,-0.8096250787443816,-0.7552947244590501,-2.239253939650221
3.664500000000004,-0.8596950843255949,-0.7595568184924202,-2.250972080248111
3.6679999999999993,-0.901240901840068,-0.7723396099340267,-2.2658859187064024
3.6715000000000018,-0.9385263706504228,-0.8000379851631767,-2.2978446426396704
3.674999999999997,-0.9640936988628878,-0.8224096155152401,-2.327674064885506
3.6785,-0.9822032351815808,-0.8564993864651933,-2.362828486679175
3.682000000000002,-0.9949877719524394,-0.8778046206442881,-2.387331164047924
3.6854999999999976,-1.0088369595670144,-0.9065676467171546,-2.409701049070735
3.689,-1.0184240531482192,-0.9257435792088164,-2.4182234918082237
3.6925000000000026,-1.035468938623196,-0.9417220685108244,-2.426745934545712
3.695999999999998,-1.0578405689752592,-0.9534402091087144,-2.422485585841593
3.699500000000001,-1.0961906886293304,-0.9651583497066044,-2.415027793947822
3.703000000000003,-1.1398675531604887,-0.9832696313545496,-2.4075717473833023
3.7064999999999984,-1.215503141624915,-1.0056395163773606,-2.4001139554895303
3.710000000000001,-1.2879447775581916,-1.0290775429023926,-2.389460465735357
3.7135000000000034,-1.4061925797100594,-1.0578405689752592,-2.37667767429375
3.716999999999999,-1.512722241264037,-1.0887328967355587,-2.3606974396624905
3.720500000000001,-1.6714512100866616,-1.1174959228084254,-2.3351318567792774
3.724000000000004,-1.795025757115616,-1.1473253450542604,-2.3095645285668125
3.727499999999999,-1.9601461216590437,-1.1728926732667255,-2.269083361896056
3.7310000000000016,-2.0730671789338246,-1.1952625582895369,-2.239253939650221
3.734500000000004,-2.2051641687002674,-1.2282876783957732,-2.200903819996149
3.738,-2.270148012739772,-1.247461865558183,-2.181727887504488
3.741500000000002,-2.338327554639679,-1.2762248916310497,-2.1561605592920228
3.744999999999997,-2.352174996925002,-1.2932697771060262,-2.142311371677448
3.7485,-2.330869762745907,-1.310314662581003,-2.136986372129613
3.7520000000000016,-2.2882575490584656,-1.3220328031788928,-2.124201835358755
3.755499999999998,-2.193446028102377,-1.326294897212263,-2.1156793926212663
3.759,-2.109287996900463,-1.3273595480559794,-2.107156949883778
3.762500000000003,-1.9697332152402485,-1.3230991993518617,-2.087982762721368
3.7659999999999982,-1.8632035536862703,-1.3092500117372865,-2.077329272967195
3.7695000000000007,-1.7076702827240478,-1.2911404754185931,-2.065611132369305
3.7730000000000032,-1.6043380643597236,-1.282618032681105,-2.054957642615132
3.776499999999999,-1.4722410745932808,-1.25705070446864,-2.057088689631817
3.780000000000001,-1.397670136972571,-1.2442661676977815,-2.062415434508903
3.783500000000004,-1.3071189647206012,-1.2229609335186866,-2.0730671789338246
3.786999999999999,-1.2634421001894431,-1.2048513971999937,-2.081589621671313
3.7905000000000015,-1.2410704698373798,-1.1792840689875286,-2.093307762269203
3.794000000000004,-1.2463972147144666,-1.1622391835125518,-2.0997009033192584
3.7975,-1.2836826835248214,-1.1356072044563703,-2.1082233460567465
3.801000000000002,-1.3358819907934678,-1.1217580168417955,-2.1124836947608645
3.804499999999997,-1.4189753711516655,-1.108973480070937,-2.1156793926212663
3.808,-1.5010041006661472,-1.1036484805231024,-2.127397533219156
3.8115000000000014,-1.6224476006784168,-1.111104527087622,-2.139115673817046
3.8149999999999977,-1.723650517355308,-1.1185623189813938,-2.1519002105879044
3.8185,-1.8557475071217504,-1.1483899958979769,-2.1593562571524245
3.8220000000000023,-1.9580150746423584,-1.1728926732667255,-2.1700097469065978
3.825499999999998,-2.0730671789338246,-1.2133738399374818,-2.1678786998899127
3.8290000000000006,-2.147638116554534,-1.2400058189936634,-2.168945096062881
3.832500000000003,-2.227535799052331,-1.2794223348207032,-2.16574939820248
3.8359999999999994,-2.264821267862686,-1.3071189647206012,-2.1636183511857947
3.839500000000001,-2.292519643091836,-1.3358819907934678,-2.1593562571524245
3.843000000000004,-2.289322199902182,-1.353991527112161,-2.157226955464991
3.846499999999999,-2.257363475968914,-1.3710364125871377,-2.1593562571524245
3.8500000000000014,-2.2104909135773543,-1.379558855324626,-2.1614873041691096
3.853500000000004,-2.1284639293921246,-1.383820949357996,-2.157226955464991
3.8569999999999993,-2.053892991771415,-1.3816899023413112,-2.154031257604589
3.860500000000002,-1.9356451896195472,-1.3657114130393029,-2.140182069990015
3.863999999999997,-1.8450940173675772,-1.3476001313913577,-2.1263328823754395
3.8675,-1.7119323767574182,-1.3071189647206012,-2.09863450714629
3.871000000000002,-1.6139251579409286,-1.2708998920832149,-2.070937877246392
3.8744999999999976,-1.476501423297399,-1.2123074437645132,-2.02832566355895
3.878,-1.3806252514975943,-1.1611727873395834,-1.9995626374860835
3.8815000000000026,-1.254919657451955,-1.0919285945959605,-1.952690075094524
3.884999999999998,-1.1611727873395834,-1.039729287327314,-1.9249916998653736
3.888500000000001,-1.065296615539779,-0.9598333501587696,-1.889837278071704
3.892000000000003,-1.0013791676732426,-0.903371948856753,-1.8589432049821528
3.8954999999999984,-0.933199625773336,-0.8319967090964449,-1.8397672724904908
3.899000000000001,-0.905502995873438,-0.7840577505319166,-1.8248534340321991
3.9025000000000034,-0.8852624125380599,-0.727598094559152,-1.818462038311396
3.905999999999999,-0.8884581103984615,-0.6892479749050807,-1.826984481048884
3.909500000000001,-0.9108279954212728,-0.6487650629050722,-1.829115528065569
3.913000000000004,-0.9374617198067065,-0.6274598287259775,-1.8397672724904908
3.916499999999999,-0.9790075373211792,-0.6061545945468827,-1.8546811109487824
3.9200000000000017,-1.0248154488690224,-0.5923054069323076,-1.8674656477196407
3.923500000000004,-1.0823415010147557,-0.5837829641948193,-1.8930329759321056
3.927,-1.1270847617188822,-0.5805872663344177,-1.9090114652341137
3.930500000000002,-1.1803487198312452,-0.5848476150385359,-1.940970189167382
3.9339999999999975,-1.2144384907811985,-0.5923054069323076,-1.956950423798642
3.9375,-1.253855006608238,-0.6082838962343158,-1.9803867049944217
3.9410000000000025,-1.267704194222813,-0.6200020368322057,-1.9931712417652805
3.944499999999998,-1.2879447775581916,-0.642373667184269,-1.994235892608997
3.948,-1.290074079245625,-0.6562228547988439,-1.9899755439048787
3.951500000000003,-1.2858137305415065,-0.6668763445530174,-1.970799611413217
3.9549999999999983,-1.2794223348207032,-0.670072042413419,-1.9505590280778389
3.958500000000001,-1.261311053172758,-0.6636806466926157,-1.913273559267484
3.9620000000000033,-1.2421368660103485,-0.6647452975363323,-1.8834458823509008
3.965499999999999,-1.2069806988874263,-0.6594185526592456,-1.8408336686634592
3.969000000000001,-1.1803487198312452,-0.6551582039551274,-1.816330991294711
3.972500000000004,-1.136671855300087,-0.6477004120613556,-1.781176569501041
3.975999999999999,-1.108973480070937,-0.6391779693238674,-1.7588049391489775
3.9795000000000016,-1.067427662556464,-0.6370469223071823,-1.737499704969883
3.983000000000004,-1.037599985639881,-0.628524479569694,-1.721519470338623
3.9865,-1.009901610410731,-0.6210684330051742,-1.706605631880331
3.990000000000002,-0.9949877719524394,-0.614677037284371,-1.6991478399865596
3.993499999999997,-0.9790075373211792,-0.6157416881280875,-1.700214236159528
3.997,-0.984334282198266,-0.6189373859884891,-1.7044745848636462
4.000500000000002,-0.996052422796156,-0.628524479569694,-1.7204548194949063
4.003999999999998,-1.0205551001649042,-0.6391779693238674,-1.730041913076111
4.0075,-1.0621009176793774,-0.6604849488322142,-1.7566738921322929
4.011000000000003,-1.0983217356460158,-0.6775280889779387,-1.7769144754676711
4.014499999999998,-1.1515856937583784,-0.6988350684862855,-1.8078085485572224
4.018000000000001,-1.1941979074458202,-0.7148135577882937,-1.8301801789092855
4.021500000000003,-1.2432015168540649,-0.7403808860007585,-1.8642699498592392
4.024999999999999,-1.2762248916310497,-0.7638171671965385,-1.8834458823509008
4.028500000000001,-1.3017922198435146,-0.7829930996882002,-1.9090114652341137
4.032000000000004,-1.3092500117372865,-0.7936465894423735,-1.9164692571278852
4.035499999999999,-1.3060543138768848,-0.8128207766047831,-1.929252048569492
4.0390000000000015,-1.2943361732789946,-0.8256053133756417,-1.9303184447424608
4.042500000000004,-1.2687688450665298,-0.8447812458673034,-1.933514142602862
4.045999999999999,-1.2442661676977815,-0.8490415945714216,-1.9239270490216571
4.049500000000002,-1.192066860429135,-0.8596950843255949,-1.899424371652909
4.052999999999997,-1.1547813916187804,-0.861824386013028,-1.873857043440444
4.0565,-1.0919285945959605,-0.8682175270630832,-1.8216577361717976
4.060000000000002,-1.0418603343439992,-0.8660864800463982,-1.7833076165177262
4.063499999999998,-0.9779428864774626,-0.8778046206442881,-1.7183237724782212
4.067,-0.928939277069218,-0.889522761242178,-1.6735822571033467
4.070500000000003,-0.8746089227838865,-0.9086986937338396,-1.6181855066450466
4.073999999999998,-0.8394545009902167,-0.9257435792088164,-1.57770433997429
4.077500000000001,-0.81069147491735,-0.9438531155275096,-1.5489413139014236
4.081000000000003,-0.7829930996882002,-0.972616141600376,-1.5169825899681555
4.084499999999999,-0.7734060061069953,-0.9992481206565574,-1.5031334023535805
4.088000000000001,-0.7723396099340267,-1.0312068445898257,-1.4850238660348871
4.091500000000004,-0.7829930996882002,-1.0727544074335509,-1.483959215191171
4.094999999999999,-0.7957776364590586,-1.0983217356460158,-1.4882195638952889
4.098500000000001,-0.820278568498555,-1.1281494125625986,-1.504199798526549
4.102000000000004,-0.8607597351693115,-1.1537167407750637,-1.5159179391244388
4.105499999999999,-0.8969805531359498,-1.1792840689875286,-1.5372231733035338
4.109000000000002,-0.9438531155275096,-1.1973936053062215,-1.5627905015159986
4.112499999999997,-0.9822032351815808,-1.2069806988874263,-1.5862267827117784
4.116,-1.035468938623196,-1.2091117459041116,-1.6160562049576137
4.119500000000002,-1.0770147561376688,-1.20591604804371,-1.6341657412763066
4.1229999999999976,-1.134540808283402,-1.1941979074458202,-1.65653737162837
4.1265,-1.18247976684793,-1.18247976684793,-1.6714512100866616
4.130000000000003,-1.2506593087478366,-1.1569124386354652,-1.677842605807465
4.133499999999998,-1.3017922198435146,-1.134540808283402,-1.6725158609303783
4.1370000000000005,-1.374233855776791,-1.1004510373334488,-1.6618641165054566
4.140500000000003,-1.421106418168351,-1.0695587095731491,-1.649079579734598
4.143999999999998,-1.474370376280714,-1.022684401852337,-1.629903647242937
4.147500000000001,-1.5105911942473522,-0.9917920740920376,-1.61712085580133
4.151000000000003,-1.550007710074392,-0.9513109074212812,-1.60114062117007
4.154499999999999,-1.5702482934097703,-0.9204168343317296,-1.5936845746055504
4.158000000000001,-1.5819664340076602,-0.8852624125380599,-1.5851621318680618
4.161500000000004,-1.5851621318680618,-0.8650218292026817,-1.5819664340076602
4.164999999999999,-1.5798353869909751,-0.8383881048172481,-1.5819664340076602
4.168500000000002,-1.5670525955493688,-0.8330613599401614,-1.5862267827117784
4.172000000000004,-1.5446809651973052,-0.8245406625319252,-1.599011319482637
4.1755,-1.5159179391244388,-0.8319967090964449,-1.6203165536617317
4.179000000000002,-1.476501423297399,-0.8511726415881066,-1.649079579734598
4.182499999999997,-1.439215954487044,-0.8692821779067997,-1.6767779549637485
4.186,-1.3827562985142796,-0.9076322975608712,-1.7183237724782212
4.189500000000002,-1.3337526891060347,-0.9395927668233912,-1.7513488925844578
4.192999999999998,-1.2581153553123563,-0.9790075373211792,-1.7971568041323012
4.1965,-1.1899375587417018,-1.0130973082711323,-1.8301801789092855
4.200000000000003,-1.0940596416126456,-1.051447427925204,-1.8685302985633567
4.203499999999998,-1.0205551001649042,-1.079145803154354,-1.8951640229487907
4.207000000000001,-0.9140254386109264,-1.1036484805231024,-1.9196649549882872
4.210500000000003,-0.8341277561131301,-1.124953714702197,-1.9324494917591453
4.213999999999999,-0.7265316983861836,-1.145194298037575,-1.9431012361840672
4.217500000000001,-0.6487650629050722,-1.157977089479182,-1.9399055383236647
4.221000000000004,-0.5571509851386378,-1.1718262770937566,-1.929252048569492
4.224499999999999,-0.4985585368199362,-1.176088371127127,-1.9164692571278852
4.2280000000000015,-0.4410324846742031,-1.18247976684793,-1.8962286737925071
4.231500000000004,-0.4101401569139035,-1.1910022095854185,-1.874923439613413
4.234999999999999,-0.3994866671597301,-1.203785001027025,-1.8536164601050655
4.238500000000002,-0.4186608543221398,-1.21017814207708,-1.841898319507176
4.241999999999997,-0.4697955107470696,-1.2176341886416,-1.829115528065569
4.2455,-0.5305172607532044,-1.2208298865020015,-1.822722387015514
4.249000000000002,-0.6327865736030641,-1.2272212822228048,-1.8216577361717976
4.252499999999998,-0.725467047542467,-1.231483376256175,-1.8280491318926009
4.256,-0.8628907821859965,-1.235743724960293,-1.8323112259259708
4.259500000000003,-0.9694204437399744,-1.2389411681499467,-1.8429629703508923
4.262999999999998,-1.1143002249480238,-1.23361442327286,-1.857878554138436
4.266500000000001,-1.2240255843624033,-1.2325480270998914,-1.871725996423759
4.270000000000003,-1.3507958292517597,-1.2250919805353715,-1.894097626775822
4.273499999999999,-1.4360202566266425,-1.2250919805353715,-1.9068821635466808
4.277000000000001,-1.5382895694765022,-1.2325480270998914,-1.9281873977257755
4.280500000000004,-1.5958156216222352,-1.2400058189936634,-1.9431012361840672
4.283999999999999,-1.6597330694887715,-1.261311053172758,-1.9548193767819568
4.287500000000001,-1.6906253972490712,-1.28048698566442,-1.966537517379847
4.291000000000004,-1.7172591216345048,-1.3028586160164832,-1.9654728665361303
4.294499999999999,-1.7183237724782212,-1.3209681523351764,-1.9590814708153272
4.298000000000002,-1.7044745848636462,-1.3454708297039246,-1.931383095586177
4.301499999999997,-1.6810383036678664,-1.3550579232851294,-1.900489022496625
4.305,-1.6320346942596218,-1.3721028087601062,-1.8472250643842625
4.308500000000002,-1.5862267827117784,-1.383820949357996,-1.802481803680136
4.311999999999998,-1.527636079722329,-1.3944744391121693,-1.737499704969883
4.3155,-1.492481657928659,-1.3987347878162877,-1.693822840438725
4.319000000000003,-1.464783282699509,-1.413648626274579,-1.6373614391367084
4.322499999999998,-1.4594565378224222,-1.4221710690120672,-1.6022070173430385
4.3260000000000005,-1.483959215191171,-1.4317599079225245,-1.5649215485326835
4.329500000000003,-1.5233739856889583,-1.4402806053307606,-1.5414852673369035
4.332999999999998,-1.5926181784325817,-1.4541297929453356,-1.5212446840015257
4.336500000000001,-1.6618641165054566,-1.4637186318557929,-1.5073954963869507
4.340000000000003,-1.774785173780238,-1.474370376280714,-1.4892859600682575
4.343499999999999,-1.8706613455800425,-1.4882195638952889,-1.4775660741411154
4.347000000000001,-2.008085080223572,-1.502068751509864,-1.4679789805599106
4.350500000000004,-2.116745788794235,-1.5191136369848404,-1.4562608399620207
4.353999999999999,-2.253103127264796,-1.5414852673369035,-1.4445426993641308
4.357500000000002,-2.341523252500081,-1.555332709622227,-1.4370849074703589
4.360999999999997,-2.4384640751436013,-1.5745086421138883,-1.4243021160287526
4.3645,-2.4853383828644136,-1.584095735695093,-1.405126183537091
4.368000000000002,-2.511970361920594,-1.584095735695093,-1.3923433920954844
4.3714999999999975,-2.508774664060193,-1.5766396891305736,-1.377429553637193
4.375,-2.478945241814358,-1.5563991057951954,-1.3465354805476413
4.3785000000000025,-2.444857216193657,-1.5329628245994156,-1.3156414074580896
4.381999999999998,-2.370286278572947,-1.4935463087723757,-1.2623774493457267
4.3855,-2.302106736673041,-1.4594565378224222,-1.2091117459041116
4.389000000000003,-2.193446028102377,-1.4083218813974925,-1.1398675531604887
4.392499999999998,-2.1039612520233764,-1.3625139698496491,-1.083406151858472
4.396000000000001,-1.9878444968881936,-1.29646722029568,-1.0088369595670144
4.399500000000003,-1.9090114652341137,-1.2432015168540649,-0.960898001002486
4.402999999999999,-1.8195266891551125,-1.1728926732667255,-0.8980452039796664
4.406500000000001,-1.771589475919836,-1.1206916206688269,-0.8511726415881066
4.410000000000004,-1.7449557515344027,-1.0493181262377709,-0.8128207766047831
4.413499999999999,-1.7460221477073712,-0.9822032351815808,-0.7957776364590586
4.417000000000002,-1.7896990122385292,-0.8980452039796664,-0.7904508915819718
4.420500000000004,-1.8536164601050655,-0.8405191518339332,-0.7979069381464917
4.424,-1.9697332152402485,-0.7776663548111135,-0.8074957770569485
4.427500000000002,-2.0783939238109115,-0.7393162351570419,-0.8224096155152401
4.430999999999997,-2.231797893085701,-0.6998997193300021,-0.8373234539735316
4.4345,-2.356437090958372,-0.6817901830113089,-0.8596950843255949
4.438000000000002,-2.51410140893728,-0.670072042413419,-0.8735442719401699
4.441499999999998,-2.6216957213349743,-0.6775280889779387,-0.8937848552755481
4.445,-2.746334919207645,-0.7052264642070888,-0.917221136471328
4.448500000000003,-2.824101554688757,-0.7361205372966404,-0.9342660219463046
4.451999999999998,-2.913586330767758,-0.7968422873027752,-0.9619626518462028
4.455500000000001,-2.959394242315601,-0.8501062454151381,-0.9758118394607777
4.459000000000003,-2.9934840132655545,-0.9321349749296196,-0.9981834698128408
4.462499999999999,-3.005202153863444,-1.002443818516959,-1.009901610410731
4.466000000000001,-2.997746107298924,-1.097255339473047,-1.0205551001649042
4.469500000000004,-2.971112382913492,-1.1728926732667255,-1.021619751008621
4.472999999999999,-2.9189130756448445,-1.2666377980498449,-1.0205551001649042
4.4765000000000015,-2.866713768376198,-1.326294897212263,-1.021619751008621
4.480000000000004,-2.779360039313882,-1.3912769959225155,-1.009901610410731
4.483499999999999,-2.716507242291062,-1.4338892096099574,-0.9907256779190692
4.487000000000002,-2.6153043256141717,-1.483959215191171,-0.9545066052816829
4.490499999999997,-2.541798038837178,-1.5084601472306671,-0.9225478813484148
4.494,-2.4427261691769715,-1.5382895694765022,-0.8671511308901148
4.497500000000002,-2.373481976433349,-1.5532034079347938,-0.8224096155152401
4.500999999999998,-2.279735106320977,-1.569181897236802,-0.7584921676487036
4.5045,-2.213686611437756,-1.5723775950972034,-0.7180110009779472
4.508000000000003,-2.1455088148671013,-1.575575038286857,-0.6658099483800488
4.511499999999998,-2.09863450714629,-1.571312944253487,-0.6359822714634658
4.515000000000001,-2.053892991771415,-1.5542680587785105,-0.6082838962343158
4.518500000000003,-2.032586012263068,-1.5372231733035338,-0.5965657556364258
4.521999999999999,-2.0208678716651782,-1.5148515429514704,-0.586978662055221
4.525500000000001,-2.0229989186818638,-1.4978066574764937,-0.5859140112115044
4.529000000000004,-2.043239502017242,-1.4775660741411154,-0.5912390107593392
4.532499999999999,-2.0666757832130216,-1.4658479335432255,-0.600827849669796
4.536000000000001,-2.1082233460567465,-1.464783282699509,-0.628524479569694
4.539500000000004,-2.150833814414936,-1.4594565378224222,-0.6530271569384424
4.542999999999999,-2.2094262627336376,-1.464783282699509,-0.6924436727654824
4.546500000000002,-2.2584298721418827,-1.464783282699509,-0.723336000525782
4.549999999999997,-2.326609414041789,-1.4658479335432255,-0.7766017039673969
4.5535,-2.3947872106124435,-1.4615875848391076,-0.8224096155152401
4.557000000000002,-2.51410140893728,-1.4573254908057371,-0.8799356676609732
4.5604999999999976,-2.613173278597486,-1.4615875848391076,-0.9193504381587612
4.564,-2.7697712004034254,-1.474370376280714,-0.968355792896258
4.567500000000003,-2.8954767944490647,-1.4892859600682575,-1.0088369595670144
4.570999999999998,-3.070185997902949,-1.5084601472306671,-1.0429249851877156
4.5745000000000005,-3.1948251957756204,-1.5233739856889583,-1.0610362668356608
4.578000000000003,-3.339706722312921,-1.545745616041022,-1.0684923134001805
4.581499999999998,-3.425995800531521,-1.5574637566389118,-1.0546431257856057
4.585000000000001,-3.499500341979262,-1.5723775950972034,-0.9981834698128408
4.588500000000003,-3.5154805766105226,-1.5809000378346918,-0.9321349749296196
4.591999999999999,-3.474999409939766,-1.5979449233096683,-0.8160182197944368
4.595500000000001,-3.399362076146088,-1.61285876176796,-0.7169446048049787
4.599000000000004,-3.24595985220055,-1.6309700434159051,-0.5763251723010476
4.602499999999999,-3.0957533261154144,-1.650144230578315,-0.4708619069200382
4.606000000000002,-2.853930976934592,-1.6607977203324882,-0.355809802628572
4.609500000000004,-2.652589794424526,-1.6629287673491733,-0.2908259585890671
4.613,-2.375611278120782,-1.6576020224720869,-0.2301042085829324
4.616500000000002,-2.158291606308708,-1.64481923103048,-0.2045368803704674
4.619999999999997,-1.8770527413008455,-1.6107294600805269,-0.1938833906162941
4.6235,-1.6746469079470632,-1.5809000378346918,-0.205601531214184
4.627000000000002,-1.4253667668724692,-1.5244403818619272,-0.2301042085829324
4.630499999999998,-1.267704194222813,-1.476501423297399,-0.2695207244099723
4.634,-1.0844725480314406,-1.407257230553776,-0.3281114273994219
4.637500000000003,-0.9758118394607777,-1.3529268762684443,-0.3781796876513833
4.640999999999998,-0.8650218292026817,-1.2783559386477348,-0.452750625272093
4.644500000000001,-0.8117561257610666,-1.2272212822228048,-0.508147375730393
4.648000000000003,-0.7797974018277984,-1.1569124386354652,-0.5859140112115044
4.651499999999999,-0.7925801932694049,-1.111104527087622,-0.6434400633572375
4.655000000000001,-0.861824386013028,-1.053578474941889,-0.7286627454028686
4.658500000000004,-0.9459841625441944,-1.0280111467294242,-0.7915155424256883
4.661999999999999,-1.1036484805231024,-1.000314516829526,-0.875673573627603
4.6655000000000015,-1.24533256387075,-0.9907256779190692,-0.9353306727900212
4.669000000000004,-1.4573254908057371,-0.984334282198266,-1.002443818516959
4.672499999999999,-1.6192519028180152,-0.9811385843378644,-1.0429249851877156
4.676000000000002,-1.8312448297530024,-0.9779428864774626,-1.0599698706626923
4.679499999999997,-1.966537517379847,-0.9790075373211792,-1.055709521958574
4.683,-2.11461474177755,-0.9790075373211792,-1.022684401852337
4.686500000000002,-2.1913149810856924,-0.970485094583691,-0.9811385843378644
4.689999999999998,-2.2552341742814805,-0.9662247458795729,-0.9204168343317296
4.6935,-2.266952314879371,-0.9790075373211792,-0.863955433029713
4.697000000000003,-2.240320335823189,-0.996052422796156,-0.7819284488444836
4.700499999999998,-2.185989981537858,-1.0088369595670144,-0.7116178599278921
4.704000000000001,-2.0688068302297067,-1.0344025424502272,-0.6338512244467807
4.707500000000003,-1.9494926319048704,-1.0461224283773694,-0.5880433128989375
4.710999999999999,-1.7598713353219464,-1.055709521958574,-0.5347793547865746
4.714500000000001,-1.596880272465952,-1.0610362668356608,-0.5017542346803379
4.718000000000004,-1.3689071108997044,-1.0578405689752592,-0.4676662090596366
4.721499999999999,-1.1931332566021038,-1.0482517300648024,-0.4484902765679749
4.725000000000001,-0.9800739334941478,-1.0280111467294242,-0.425053995372195
4.728500000000004,-0.8330613599401614,-1.016293006131534,-0.4154651564617382
4.731999999999999,-0.6711366932571355,-1.002443818516959,-0.4058780628805333
4.735500000000002,-0.5699337765802444,-0.9928567249357544,-0.4037470158638482
4.738999999999997,-0.480449000501243,-0.9822032351815808,-0.397355620143045
4.7425,-0.4367721359700849,-0.972616141600376,-0.3962909692993285
4.746000000000002,-0.4058780628805333,-0.9630290480191712,-0.397355620143045
4.749499999999998,-0.41120480775762,-0.956635906969116,-0.3962909692993285
4.753,-0.43890318298677,-0.9417220685108244,-0.3920288752659583
4.756500000000003,-0.4825800475179281,-0.928939277069218,-0.3909642244222418
4.759999999999998,-0.5709984274239609,-0.9086986937338396,-0.3877685265618402
4.7635000000000005,-0.6572875056425604,-0.8980452039796664,-0.3824417816847534
4.767000000000003,-0.7979069381464917,-0.8863270633817765,-0.3611348021764067
4.770499999999998,-0.9108279954212728,-0.8778046206442881,-0.3259803803827369
4.774000000000001,-1.0716880112605822,-0.8746089227838865,-0.2759121201307756
4.777500000000003,-1.17821767281456,-0.8788692714880046,-0.233299906443334
4.780999999999999,-1.3039232668601997,-0.8810003185046897,-0.166186760716396
4.784500000000001,-1.377429553637193,-0.8810003185046897,-0.1065296615539778
4.788000000000004,-1.4360202566266425,-0.8724778757672014,-0.02769837522915
4.791499999999999,-1.4541297929453356,-0.8682175270630832,0.0340897709499532
4.795000000000002,-1.460522933995391,-0.861824386013028,0.1118564064310645
4.798499999999997,-1.446673746380816,-0.8607597351693115,0.1619246666830259
4.802,-1.409388277570461,-0.8660864800463982,0.2311688594266489
4.805500000000002,-1.3657114130393029,-0.8660864800463982,0.2716500260974054
4.8089999999999975,-1.3017922198435146,-0.8703468287505163,0.3110665419244454
4.8125,-1.2421368660103485,-0.8692821779067997,0.3249157295390203
4.8160000000000025,-1.1419986001771738,-0.8628907821859965,0.3334381722765087
4.819499999999998,-1.0599698706626923,-0.847976943727705,0.3323735214327921
4.823,-0.9545066052816829,-0.8288010112360433,0.3291760782431385
4.826500000000003,-0.8778046206442881,-0.8021690321798618,0.3249157295390203
4.829999999999998,-0.7851241467048852,-0.7755353077944284,0.3174579376452486
4.833500000000001,-0.7339894902799553,-0.7467722817215618,0.3121311927681619
4.837000000000003,-0.7062911150508053,-0.713748906944577,0.2982837504828389
4.840499999999999,-0.6998997193300021,-0.6967040214696004,0.2844345628682639
4.844000000000001,-0.7361205372966404,-0.6849858808717105,0.2631275833599171
4.847500000000004,-0.7776663548111135,-0.6796591359946239,0.2460844432141925
4.850999999999999,-0.863955433029713,-0.6860505317154271,0.2173214171413259
4.854500000000002,-0.9385263706504228,-0.6913772765925138,0.1874919948954908
4.858000000000004,-1.0482517300648024,-0.7105532090841755,0.152337573101821
4.8615,-1.136671855300087,-0.7265316983861836,0.1320969897664428
4.865000000000002,-1.253855006608238,-0.7467722817215618,0.1054650107102613
4.868499999999997,-1.328425944228948,-0.7616878655091054,0.1001382658331746
4.872,-1.423237465185036,-0.7829930996882002,0.1086607085706629
4.875500000000002,-1.4786324703140838,-0.8043000791965469,0.1267702448893561
4.878999999999998,-1.518048986141124,-0.8341277561131301,0.1693824585767977
4.8825,-1.5287007305660454,-0.863955433029713,0.1992101354933808
4.886000000000003,-1.5116558450910689,-0.903371948856753,0.2439533961975074
4.889499999999998,-1.4754367724536823,-0.933199625773336,0.2823035158515788
4.893000000000001,-1.3923433920954844,-0.9694204437399744,0.3174579376452486
4.896500000000003,-1.3252302463685464,-0.9928567249357544,0.3366338701369103
4.899999999999999,-1.2165695377978836,-1.016293006131534,0.3611348021764067
4.903500000000001,-1.1292140634063152,-1.032273240762794,0.3717882919305801
4.907000000000004,-1.014161959114849,-1.043991381360684,0.3867021303888716
4.910499999999999,-0.940657417667108,-1.045056032204401,0.3952245731263599
4.9140000000000015,-0.8543683394485082,-1.043991381360684,0.4037470158638482
4.917500000000004,-0.8170828706381533,-1.039729287327314,0.4154651564617382
4.920999999999999,-0.7893844954090034,-1.0312068445898257,0.4197272504951083
4.924500000000002,-0.7936465894423735,-1.021619751008621,0.4325100419367148
4.927999999999997,-0.8234742663589566,-1.022684401852337,0.43890318298677
4.9315,-0.863955433029713,-1.009901610410731,0.4378367868138015
4.935000000000002,-0.9310703240859032,-0.9971170736398725,0.4378367868138015
4.938499999999998,-0.9917920740920376,-0.9949877719524394,0.4378367868138015
4.942,-1.0546431257856057,-0.9885963762316362,0.43890318298677
4.945500000000003,-1.1356072044563703,-0.9811385843378644,0.4325100419367148
4.948999999999998,-1.1973936053062215,-0.9800739334941478,0.4346410889533998
4.952500000000001,-1.2740955899436164,-0.9800739334941478,0.4399678338304866
4.956000000000003,-1.3369483869664365,-0.9853989330419826,0.4591437663221482
4.959499999999999,-1.412583975430863,-0.9928567249357544,0.4942981881158181
4.963000000000001,-1.4594565378224222,-1.0056395163773606,0.5305172607532044
4.966500000000004,-1.520178287828557,-1.0248154488690224,0.5859140112115044
4.969999999999999,-1.5574637566389118,-1.039729287327314,0.6338512244467807
4.973500000000001,-1.5851621318680618,-1.0589052198189757,0.7020307663466872
4.977000000000004,-1.5936845746055504,-1.083406151858472,0.7510343757549319
4.980499999999999,-1.583031084851377,-1.1015174335064173,0.8234742663589566
4.984000000000002,-1.561725850672282,-1.1196269698251105,0.875673573627603
4.987499999999997,-1.5116558450910689,-1.1473253450542604,0.942788464683793
4.991,-1.4615875848391076,-1.167565928389639,0.9907256779190692
4.994500000000002,-1.383820949357996,-1.1878065117250167,1.0471870792210858
4.9979999999999976,-1.324163850195578,-1.201655699339592,1.0855371988751572
5.0015,-1.2368101211332618,-1.2240255843624033,1.1334761574396854
5.005000000000003,-1.1728926732667255,-1.2368101211332618,1.160108136495867
5.008499999999998,-1.0887328967355587,-1.2495929125748682,1.1856754647083318
5.0120000000000005,-1.0269464958857075,-1.2581153553123563,1.1984582561499384
5.015500000000003,-0.9481134642316276,-1.2602464023290416,1.2027203501833084
5.018999999999998,-0.8916538082588631,-1.2602464023290416,1.1995246523229068
5.022500000000001,-0.8256053133756417,-1.2463972147144666,1.1888711625687334
5.026000000000003,-0.7893844954090034,-1.2261566313790884,1.1771530219708437
5.029499999999999,-0.7584921676487036,-1.201655699339592,1.160108136495867
5.033000000000001,-0.7489033287382468,-1.18247976684793,1.1462589488812918
5.036500000000004,-0.7563611206320187,-1.1547813916187804,1.124953714702197
5.039999999999999,-0.7776663548111135,-1.1419986001771738,1.111104527087622
5.043500000000002,-0.8234742663589566,-1.1174959228084254,1.0876682458918423
5.047000000000004,-0.8703468287505163,-1.1047131313668188,1.083406151858472
5.0505,-0.9459841625441944,-1.0887328967355587,1.0780811523106375
5.054000000000002,-0.9981834698128408,-1.081276850171039,1.083406151858472
5.057499999999997,-1.0727544074335509,-1.0759501052939522,1.097255339473047
5.061,-1.1100398762439057,-1.0663630117127476,1.1164312719647087
5.064500000000002,-1.144129647193859,-1.045056032204401,1.1505210429146622
5.067999999999998,-1.1494546467416935,-1.032273240762794,1.18247976684793
5.0715,-1.1377365061438036,-1.002443818516959,1.2325480270998914
5.075000000000003,-1.1143002249480238,-0.9800739334941478,1.2687688450665298
5.078499999999998,-1.065296615539779,-0.9513109074212812,1.3230991993518617
5.082000000000001,-1.0152283552878176,-0.9342660219463046,1.3603846681622165
5.085500000000003,-0.9385263706504228,-0.905502995873438,1.4040615326933743
5.088999999999999,-0.875673573627603,-0.8884581103984615,1.4296288609058392
5.092500000000001,-0.7829930996882002,-0.8596950843255949,1.4583918869787058
5.096000000000004,-0.7126842561008605,-0.8383881048172481,1.474370376280714
5.099499999999999,-0.6189373859884891,-0.8053647300402634,1.4892859600682575
5.1030000000000015,-0.5347793547865746,-0.7893844954090034,1.494610959616092
5.106500000000004,-0.4378367868138015,-0.7627525163528219,1.506329100213982
5.109999999999999,-0.3664615470534934,-0.7435765838611602,1.5084601472306671
5.113500000000002,-0.2705853752536888,-0.7105532090841755,1.5116558450910689
5.116999999999997,-0.2087989744038376,-0.6860505317154271,1.5137868921077535
5.1205,-0.1320969897664428,-0.6540918077821589,1.5095265434036358
5.124000000000002,-0.0756355884644262,-0.6349176206197492,1.5084601472306671
5.127499999999998,-0.0053267448770866,-0.605088198373914,1.5010041006661472
5.131,0.0468725623915597,-0.5859140112115044,1.494610959616092
5.134500000000003,0.110790010258096,-0.5560845889656694,1.4871549130515724
5.137999999999998,0.1587289688226243,-0.5305172607532044,1.476501423297399
5.141500000000001,0.2183860679850424,-0.4974938859762197,1.480763517330769
5.145000000000003,0.2514094427620272,-0.4665998128866681,1.4818281681744856
5.148499999999999,0.274847469287059,-0.425053995372195,1.4892859600682575
5.152000000000001,0.2705853752536888,-0.4005513180034466,1.502068751509864
5.155500000000004,0.2460844432141925,-0.3813771308410369,1.5159179391244388
5.158999999999999,0.2098636252475541,-0.3685925940701784,1.536158522459817
5.162500000000001,0.150206526085136,-0.3600701513326901,1.561725850672282
5.166000000000004,0.0980072188164895,-0.3504830577514853,1.5883578297284635
5.169499999999999,0.0255673282124649,-0.3504830577514853,1.6224476006784168
5.173000000000002,-0.0245026773687483,-0.3472873598910836,1.64481923103048
5.176499999999997,-0.0884201252352847,-0.3472873598910836,1.6735822571033467
5.18,-0.1267702448893561,-0.3515477085952018,1.6874296993886695
5.183500000000002,-0.1715135055934827,-0.3547434064556034,1.6980831891428432
5.186999999999998,-0.1970790884766957,-0.3526141047681703,1.7044745848636462
5.1905,-0.2205171150017275,-0.355809802628572,1.695952142126158
5.194000000000003,-0.2301042085829324,-0.3568744534722885,1.6831693506845515
5.197499999999998,-0.2290395577392158,-0.3728546881035486,1.658666673315803
5.2010000000000005,-0.2215817658454441,-0.3771150368076668,1.6394924861533935
5.204500000000003,-0.1981454846496642,-0.3888331774055567,1.6107294600805269
5.207999999999998,-0.1789695521580025,-0.3941599222826434,1.5851621318680618
5.211500000000001,-0.1438151303643327,-0.4048134120368167,1.550007710074392
5.215000000000003,-0.1118564064310645,-0.4165315526347067,1.5244403818619272
5.218499999999999,-0.0671131457269379,-0.42292294835551,1.494610959616092
5.222000000000001,-0.0330233747769847,-0.4282496932325966,1.4722410745932808
5.225500000000004,0.0095870935812048,-0.4420988808471717,1.4456073502078477
5.228999999999999,0.0330233747769847,-0.4463592295512898,1.4264331630454377
5.232500000000002,0.0575260521457331,-0.4570127193054631,1.409388277570461
5.235999999999997,0.0724398906040246,-0.4687308599033531,1.4019304856766894
5.2395,0.0809623333415129,-0.480449000501243,1.4019304856766894
5.243000000000002,0.0713752397603081,-0.4911024902554164,1.399799438660004
5.2464999999999975,0.0724398906040246,-0.5049499325407395,1.409388277570461
5.25,0.0681795418999064,-0.5145387714511963,1.421106418168351
5.2535000000000025,0.0671131457269379,-0.5219948180157161,1.450934095084934
5.256999999999998,0.069244192743623,-0.5347793547865746,1.4754367724536823
5.2605,0.0767019846373948,-0.5550199381219528,1.5095265434036358
5.264000000000003,0.0905494269227178,-0.5667380787198427,1.5393542203202186
5.267499999999998,0.1086607085706629,-0.5816519171781342,1.5670525955493688
5.271000000000001,0.1257055940456395,-0.5901743599156226,1.587293178884747
5.274500000000003,0.1534022239455376,-0.5965657556364258,1.6043380643597236
5.277999999999999,0.1736428072809158,-0.5986968026531109,1.6224476006784168
5.281500000000001,0.1970790884766957,-0.5923054069323076,1.629903647242937
5.285000000000004,0.2109282760912707,-0.5891097090719061,1.6277743455555036
5.288499999999999,0.2279731615662473,-0.5795208701614492,1.6203165536617317
5.292000000000002,0.2375620004767041,-0.5646070317031576,1.6096630639075584
5.295500000000004,0.2450180470412239,-0.5496931932448661,1.5926181784325817
5.299,0.2503447919183106,-0.5326483077698895,1.5819664340076602
5.302500000000002,0.260998281672484,-0.5113430735907947,1.5702482934097703
5.305999999999997,0.2631275833599171,-0.4974938859762197,1.5670525955493688
5.3095,0.2727164222703739,-0.4793843496575265,1.5670525955493688
5.313000000000002,0.274847469287059,-0.4687308599033531,1.5745086421138883
5.316499999999998,0.2759121201307756,-0.4559463231324946,1.5915535275888653
5.32,0.2705853752536888,-0.4452945787075733,1.6107294600805269
5.323500000000003,0.2631275833599171,-0.4335764381096833,1.6352303921200233
5.326999999999998,0.2546051406224288,-0.4197272504951083,1.658666673315803
5.330500000000001,0.2386266513204207,-0.4005513180034466,1.6927564442657563
5.334000000000003,0.2301042085829324,-0.3856374795451551,1.7225858665115914
5.337499999999999,0.2226464166891606,-0.3622011983493752,1.769458428903151
5.341000000000001,0.2205171150017275,-0.3366338701369103,1.811004246417624
5.344500000000004,0.2247774637058457,-0.3131975889411305,1.862138902842554
5.347999999999999,0.2343645572870505,-0.2854992137119804,1.9090114652341137
5.3515000000000015,0.2599318854995155,-0.2556715367953973,1.9548193767819568
5.355000000000004,0.2801724688348938,-0.2279731615662473,1.9910401947485952
5.358499999999999,0.3078708440640437,-0.1960144376329791,2.027261012715233
5.362000000000002,0.3430252658577135,-0.1757738542976009,2.04749985072136
5.365499999999997,0.3717882919305801,-0.1406194325039311,2.062415434508903
5.369,0.397355620143045,-0.1161167551351827,2.06774217938599
5.372500000000002,0.4186608543221398,-0.0937468701123714,2.06774217938599
5.375999999999998,0.4261186462159115,-0.0777666354811113,2.06774217938599
5.3795,0.4293143440763132,-0.0671131457269379,2.069871481073423
5.383000000000003,0.425053995372195,-0.0575260521457331,2.069871481073423
5.386499999999998,0.4016177141764152,-0.0511346564249298,2.0730671789338246
5.390000000000001,0.3760503859639502,-0.0479389585645282,2.080524970827597
5.393500000000003,0.3408942188410284,-0.0436768645311581,2.0869163665484
5.396999999999999,0.3089354949077603,-0.0436768645311581,2.09117846058177
5.400500000000001,0.2684543282370038,-0.0404811666707564,2.0975698563025733
5.404000000000004,0.2418223491808223,-0.0447432607041266,2.107156949883778
5.407499999999999,0.2077325782308691,-0.0426122136874415,2.11461474177755
5.411000000000001,0.1874919948954908,-0.0468725623915597,2.123137184515038
5.414500000000004,0.1672514115601126,-0.0543303542853314,2.140182069990015
5.417999999999999,0.1597953649955928,-0.069244192743623,2.155095908448306
5.421500000000002,0.1491418752414194,-0.083093380358198,2.16574939820248
5.424999999999997,0.1491418752414194,-0.0916158230956863,2.172140793923283
5.4285,0.1565979218059392,-0.096942567972773,2.1710743977503144
5.432000000000002,0.1555332709622227,-0.1033339636935762,2.162553700342078
5.4354999999999976,0.1693824585767977,-0.1043986145372928,2.148704512727503
5.439,0.1832316461913727,-0.1001382658331746,2.133788928939959
5.442500000000003,0.2087989744038376,-0.1012029166768912,2.1124836947608645
5.445999999999998,0.2322352555996175,-0.1012029166768912,2.0901120644088014
5.4495000000000005,0.2663250265495707,-0.1001382658331746,2.0666757832130216
5.453000000000003,0.288694911572382,-0.1022693128498597,2.046435199877643
5.456499999999998,0.3153286359578155,-0.1129210572747811,2.019803220821462
5.460000000000001,0.3334381722765087,-0.1214435000122694,2.0006272883298
5.463500000000003,0.3526141047681703,-0.1310323389227262,1.970799611413217
5.466999999999999,0.3685925940701784,-0.1395530363309626,1.9505590280778389
5.470500000000001,0.3845728287014385,-0.1512729222581045,1.920729605832004
5.474000000000004,0.3994866671597301,-0.1555332709622227,1.9026200695133104
5.477499999999999,0.4186608543221398,-0.1651203645434275,1.881314835334216
5.481000000000002,0.4314453910929982,-0.1693824585767977,1.871725996423759
5.484500000000004,0.4431635316908882,-0.180035948330971,1.852551809261349
5.488,0.4463592295512898,-0.1864273440517743,1.8365715746300888
5.491500000000002,0.4357057397971164,-0.1970790884766957,1.816330991294711
5.494999999999997,0.4271832970596281,-0.2034722295267509,1.802481803680136
5.4985,0.3994866671597301,-0.2045368803704674,1.790763663082246
5.502000000000002,0.3792460838243518,-0.2141239739516723,1.7854369182051593
5.505499999999998,0.3440916620306821,-0.219450718828759,1.7769144754676711
5.509,0.3259803803827369,-0.2375620004767041,1.769458428903151
5.512500000000003,0.302544099186957,-0.2418223491808223,1.7641316840260644
5.515999999999998,0.2940216564494687,-0.2492801410745941,1.7577402883052613
5.519500000000001,0.2801724688348938,-0.258867234655799,1.7545445904448598
5.523000000000003,0.2833681666952953,-0.2620629325162006,1.7470867985510878
5.526499999999999,0.2812388650078622,-0.2695207244099723,1.7385643558135997
5.530000000000001,0.2897613077453506,-0.2695207244099723,1.723650517355308
5.533500000000004,0.3014794483432405,-0.2727164222703739,1.705540981036615
5.536999999999999,0.3100018910807288,-0.2727164222703739,1.684234001528268
5.5405000000000015,0.3281114273994219,-0.2716500260974054,1.658666673315803
5.544000000000004,0.3376985209806268,-0.2737810731140905,1.6384260899804248
5.547499999999999,0.3526141047681703,-0.2727164222703739,1.6085984130638418
5.551000000000002,0.3653968962097769,-0.2695207244099723,1.584095735695093
5.554499999999997,0.3803107346680683,-0.260998281672484,1.5521370117618252
5.558,0.3909642244222418,-0.2641939795328856,1.52656968354936
5.561500000000002,0.4048134120368167,-0.2567361876391139,1.494610959616092
5.564999999999998,0.4133358547743051,-0.2514094427620272,1.476501423297399
5.5685,0.42292294835551,-0.2482137449016255,1.4520004912579023
5.572000000000003,0.4346410889533998,-0.2460844432141925,1.4370849074703589
5.575499999999998,0.4548816722887781,-0.2386266513204207,1.4200400219953824
5.579000000000001,0.4815136513449596,-0.2354309534600191,1.407257230553776
5.582500000000003,0.5273215628928027,-0.233299906443334,1.3987347878162877
5.585999999999999,0.5741958706136145,-0.2364956043037356,1.395539089955886
5.589500000000001,0.6551582039551274,-0.2482137449016255,1.4019304856766894
5.593000000000004,0.7158799539612621,-0.2599318854995155,1.4040615326933743
5.596499999999999,0.8085604279006651,-0.2737810731140905,1.402996881849658
5.600000000000001,0.8841960163650913,-0.2854992137119804,1.407257230553776
5.603500000000004,0.9790075373211792,-0.3110665419244454,1.3934080429392008
5.606999999999999,1.0461224283773694,-0.3281114273994219,1.3848856002017127
5.610500000000002,1.1334761574396854,-0.3536787556118869,1.367840714726736
5.613999999999997,1.1888711625687334,-0.3760503859639502,1.3497311784080428
5.6175,1.2581153553123563,-0.4090737607409349,1.3273595480559794
5.621000000000002,1.298596521983113,-0.4325100419367148,1.3017922198435146
5.624499999999998,1.3433397826872395,-0.4729912086074713,1.2708998920832149
5.628,1.361449319005933,-0.4942981881158181,1.2495929125748682
