time,Gyr_X,Gyr_Y,Gyr_Z
0.0,-0.0010646508437165,0.0,0.0085224427374883
0.0035000000000025,-0.0010646508437165,-0.0010646508437165,0.0127827914416064
0.007000000000005,0.0,-0.002131047016685,0.0074577918937717
0.0105000000000003,-0.002131047016685,-0.0042603487041181,0.0074577918937717
0.0140000000000028,-0.002131047016685,-0.0031956978604016,0.0085224427374883
0.0175000000000054,-0.002131047016685,0.0010646508437165,0.0031956978604016
0.0210000000000007,-0.0010646508437165,0.0,0.0053267448770866
0.0245000000000032,0.0,-0.0010646508437165,0.0117181405978899
0.0279999999999986,0.0,-0.0010646508437165,0.0031956978604016
0.0315000000000011,-0.0031956978604016,0.0,0.0095870935812048
0.0350000000000036,0.0,-0.002131047016685,0.0074577918937717
0.038499999999999,-0.0010646508437165,-0.0031956978604016,0.0085224427374883
0.0420000000000015,-0.002131047016685,0.0031956978604016,0.0063913957208032
0.045500000000004,-0.0031956978604016,-0.002131047016685,0.0063913957208032
0.0489999999999994,-0.0010646508437165,-0.0031956978604016,0.0074577918937717
0.0525000000000019,-0.0010646508437165,0.0010646508437165,0.0127827914416064
0.0560000000000044,-0.0010646508437165,-0.0031956978604016,0.0085224427374883
0.0594999999999998,-0.0031956978604016,0.0,0.0095870935812048
0.0630000000000023,0.0,0.0,0.0074577918937717
0.0665000000000048,-0.0031956978604016,-0.0010646508437165,0.0106534897541733
0.0700000000000002,0.0,0.0,0.0063913957208032
0.0735000000000027,-0.0053267448770866,-0.0010646508437165,0.0042603487041181
0.0770000000000052,0.0,-0.0010646508437165,0.0085224427374883
0.0805000000000006,-0.0031956978604016,-0.0010646508437165,0.0074577918937717
0.0840000000000031,0.0,-0.0010646508437165,0.0106534897541733
0.0874999999999985,-0.002131047016685,0.0,0.0106534897541733
0.091000000000001,0.0,-0.0010646508437165,0.0085224427374883
0.0945000000000035,0.0,-0.0031956978604016,0.0063913957208032
0.0979999999999989,0.0010646508437165,-0.0010646508437165,0.0074577918937717
0.1015000000000014,0.0,0.0,0.0095870935812048
0.1050000000000039,0.002131047016685,-0.0031956978604016,0.0085224427374883
0.1084999999999993,-0.0031956978604016,-0.002131047016685,0.0031956978604016
0.1120000000000018,-0.0074577918937717,0.002131047016685,-0.0010646508437165
0.1155000000000043,-0.0031956978604016,0.002131047016685,0.0074577918937717
0.1189999999999997,-0.0010646508437165,0.0031956978604016,0.0106534897541733
0.1225000000000022,-0.0031956978604016,-0.002131047016685,0.0095870935812048
0.1260000000000047,-0.002131047016685,-0.0042603487041181,0.0010646508437165
0.1295000000000001,-0.002131047016685,-0.0063913957208032,0.0
0.1330000000000026,-0.0117181405978899,-0.0053267448770866,0.0031956978604016
0.1365000000000051,0.0,-0.002131047016685,0.0085224427374883
0.1400000000000005,-0.0095870935812048,-0.0053267448770866,0.0095870935812048
0.143500000000003,-0.002131047016685,0.0063913957208032,0.0074577918937717
0.1470000000000055,0.0,0.0,0.0085224427374883
0.1505000000000009,0.0,-0.0010646508437165,0.0063913957208032
0.1540000000000034,0.0,-0.0042603487041181,0.0085224427374883
0.1574999999999988,-0.0042603487041181,-0.0127827914416064,0.0085224427374883
0.1610000000000013,-0.0085224427374883,-0.0106534897541733,0.0074577918937717
0.1645000000000038,0.0042603487041181,0.0,0.0106534897541733
0.1679999999999992,0.0031956978604016,0.002131047016685,0.0085224427374883
0.1715000000000017,-0.0010646508437165,0.0042603487041181,0.0074577918937717
0.1750000000000042,0.0010646508437165,-0.0031956978604016,0.0127827914416064
0.1784999999999996,-0.0042603487041181,-0.0053267448770866,0.0085224427374883
0.1820000000000021,-0.0085224427374883,-0.0117181405978899,0.0053267448770866
0.1855000000000046,0.002131047016685,-0.0053267448770866,0.0106534897541733
0.189,0.0085224427374883,0.0010646508437165,0.0095870935812048
0.1925000000000025,0.0010646508437165,0.0031956978604016,0.0106534897541733
0.196000000000005,0.002131047016685,0.0074577918937717,0.0117181405978899
0.1995000000000004,0.0,0.0063913957208032,0.0095870935812048
0.2030000000000029,-0.0010646508437165,0.0031956978604016,0.0095870935812048
0.2065000000000054,0.0,0.0053267448770866,0.0117181405978899
0.2100000000000008,0.0,0.0085224427374883,0.0117181405978899
0.2135000000000033,0.0042603487041181,0.0170448854749766,0.0191759324916617
0.2169999999999987,0.0117181405978899,0.0234362811957798,0.0191759324916617
0.2205000000000012,0.0255673282124649,-0.0308940730895516,0.0085224427374883
0.2240000000000037,0.029827676916583,-0.096942567972773,0.013849187614575
0.2274999999999991,0.0170448854749766,-0.1427504795206162,0.0202405833353782
0.2310000000000016,-0.0042603487041181,-0.1416840833476476,0.01598023463126
0.2345000000000041,-0.002131047016685,-0.0788312863248278,0.0202405833353782
0.2379999999999995,-0.0010646508437165,-0.0149138384582915,0.0074577918937717
0.241500000000002,-0.0031956978604016,0.0127827914416064,-0.0031956978604016
0.2450000000000045,-0.0063913957208032,-0.0149138384582915,-0.002131047016685
0.2484999999999999,0.0191759324916617,-0.0234362811957798,0.0085224427374883
0.2520000000000024,0.0213052341790947,-0.0468725623915597,0.0031956978604016
0.2555000000000049,0.0234362811957798,-0.0479389585645282,-0.0010646508437165
0.2590000000000003,0.0543303542853314,-0.0372854688103548,0.0
0.2625000000000028,0.0841580312019145,-0.002131047016685,0.0106534897541733
0.2660000000000053,0.0809623333415129,0.0287630260728665,0.0127827914416064
0.2695000000000007,0.0532657034416149,0.0447432607041266,0.013849187614575
0.2730000000000032,0.0063913957208032,0.0404811666707564,0.0106534897541733
0.2764999999999986,-0.0575260521457331,0.0447432607041266,0.0095870935812048
0.2800000000000011,-0.0798976824977964,0.0191759324916617,0.0106534897541733
0.2835000000000036,-0.0490036094082447,0.0287630260728665,0.0181095363186931
0.286999999999999,-0.0127827914416064,0.0340897709499532,0.0170448854749766
0.2905000000000015,0.0063913957208032,0.0234362811957798,0.0149138384582915
0.294000000000004,-0.0074577918937717,0.0383501196540714,0.0127827914416064
0.2974999999999994,-0.0383501196540714,0.041545817514473,0.0053267448770866
0.3010000000000019,-0.0575260521457331,0.02769837522915,0.0106534897541733
0.3045000000000044,-0.0181095363186931,0.0223716303520633,0.0031956978604016
0.3079999999999998,0.0170448854749766,0.0149138384582915,0.0095870935812048
0.3115000000000023,0.0383501196540714,0.0053267448770866,0.0085224427374883
0.3150000000000048,0.0245026773687483,0.0,0.0074577918937717
0.3185000000000002,-0.0191759324916617,0.0,0.0053267448770866
0.3220000000000027,-0.0511346564249298,0.0095870935812048,0.0
0.3255000000000052,-0.0426122136874415,0.0095870935812048,-0.0106534897541733
0.3290000000000006,-0.0202405833353782,0.0,-0.0063913957208032
0.3325000000000031,-0.0085224427374883,-0.0106534897541733,0.0
0.3359999999999985,-0.0074577918937717,-0.0170448854749766,-0.0053267448770866
0.339500000000001,0.0202405833353782,-0.0340897709499532,0.0
0.3430000000000035,0.0436768645311581,-0.0426122136874415,-0.0031956978604016
0.3464999999999989,0.0543303542853314,-0.0511346564249298,0.0010646508437165
0.3500000000000014,0.0521993072686464,-0.055395005129048,0.0042603487041181
0.3535000000000039,0.0596570991624181,-0.0479389585645282,0.0095870935812048
0.3569999999999993,0.0607217500061347,-0.0330233747769847,0.0095870935812048
0.3605000000000018,0.0543303542853314,-0.0149138384582915,0.0127827914416064
0.3640000000000043,0.0436768645311581,-0.0063913957208032,0.0095870935812048
0.3674999999999997,0.0149138384582915,0.013849187614575,0.01598023463126
0.3710000000000022,-0.0053267448770866,0.0181095363186931,0.0181095363186931
0.3745000000000047,-0.0106534897541733,0.01598023463126,0.0213052341790947
0.3780000000000001,-0.0127827914416064,0.0255673282124649,0.0245026773687483
0.3815000000000026,-0.0063913957208032,0.0255673282124649,0.0181095363186931
0.3850000000000051,0.0,0.0191759324916617,0.01598023463126
0.3885000000000005,0.0106534897541733,0.0202405833353782,0.0181095363186931
0.392000000000003,-0.0010646508437165,0.0149138384582915,0.0149138384582915
0.3955000000000055,-0.0117181405978899,0.01598023463126,0.0085224427374883
0.3990000000000009,-0.01598023463126,0.0202405833353782,0.0063913957208032
0.4025000000000034,-0.0170448854749766,0.0234362811957798,0.0085224427374883
0.4059999999999988,-0.0191759324916617,0.01598023463126,0.0053267448770866
0.4095000000000013,-0.0213052341790947,0.0170448854749766,0.0074577918937717
0.4130000000000038,-0.0319587239332681,0.0170448854749766,0.0042603487041181
0.4164999999999992,-0.0308940730895516,0.0202405833353782,-0.0010646508437165
0.4200000000000017,-0.0213052341790947,0.0181095363186931,0.0
0.4235000000000042,-0.0053267448770866,0.0127827914416064,0.0031956978604016
0.4269999999999996,0.0,0.0053267448770866,0.0
0.4305000000000021,0.0095870935812048,0.0010646508437165,0.0053267448770866
0.4340000000000046,0.0255673282124649,-0.0031956978604016,0.0031956978604016
0.4375,0.0426122136874415,-0.0010646508437165,0.0042603487041181
0.4410000000000025,0.0500682602519613,-0.0127827914416064,0.0095870935812048
0.444500000000005,0.055395005129048,-0.0255673282124649,0.0095870935812048
0.4480000000000004,0.0436768645311581,-0.02769837522915,0.0106534897541733
0.4515000000000029,0.0308940730895516,-0.0245026773687483,0.0031956978604016
0.4550000000000054,0.0213052341790947,-0.0213052341790947,0.0074577918937717
0.4585000000000008,0.013849187614575,-0.013849187614575,0.0117181405978899
0.4620000000000033,0.0085224427374883,0.0,0.0095870935812048
0.4654999999999987,-0.0074577918937717,0.0149138384582915,0.0063913957208032
0.4690000000000012,-0.0095870935812048,0.0245026773687483,0.0042603487041181
0.4725000000000037,-0.0085224427374883,0.0404811666707564,0.0074577918937717
0.4759999999999991,-0.0095870935812048,0.0468725623915597,0.0063913957208032
0.4795000000000016,-0.0031956978604016,0.0617864008498512,0.0031956978604016
0.4830000000000041,0.0,0.0596570991624181,0.0063913957208032
0.4864999999999995,0.0202405833353782,0.0458079115478431,0.0074577918937717
0.490000000000002,0.0308940730895516,0.041545817514473,0.0181095363186931
0.4935000000000045,0.02769837522915,0.0585907029894496,0.013849187614575
0.4969999999999999,0.0181095363186931,0.0543303542853314,0.0085224427374883
0.5005000000000024,-0.0042603487041181,0.0532657034416149,0.0053267448770866
0.5040000000000049,-0.0234362811957798,0.0500682602519613,0.0042603487041181
0.5075000000000003,-0.0458079115478431,0.0532657034416149,0.0031956978604016
0.5110000000000028,-0.0543303542853314,0.0521993072686464,0.0042603487041181
0.5145000000000053,-0.0447432607041266,0.0447432607041266,0.002131047016685
0.5180000000000007,-0.0383501196540714,0.041545817514473,0.0095870935812048
0.5215000000000032,-0.0255673282124649,0.0266319790561814,0.0106534897541733
0.5249999999999986,-0.0085224427374883,0.01598023463126,0.0170448854749766
0.5285000000000011,0.0255673282124649,0.0031956978604016,0.0223716303520633
0.5320000000000036,0.0543303542853314,-0.0010646508437165,0.0308940730895516
0.535499999999999,0.0703088435873395,-0.0053267448770866,0.029827676916583
0.5390000000000015,0.0703088435873395,-0.0042603487041181,0.0308940730895516
0.542500000000004,0.0852244273748831,-0.0106534897541733,0.0266319790561814
0.5459999999999994,0.0990718696602061,-0.0191759324916617,0.02769837522915
0.5495000000000019,0.0937468701123714,-0.0053267448770866,0.0223716303520633
0.5530000000000044,0.0788312863248278,0.0074577918937717,0.0170448854749766
0.5564999999999998,0.0479389585645282,0.0255673282124649,0.0074577918937717
0.5600000000000023,0.0287630260728665,0.0340897709499532,0.0
0.5635000000000048,0.0191759324916617,0.0383501196540714,-0.0042603487041181
0.5670000000000002,0.0063913957208032,0.0394165158270399,0.0010646508437165
0.5705000000000027,0.0,0.0372854688103548,-0.0010646508437165
0.5740000000000052,0.0,0.0319587239332681,-0.0042603487041181
0.5775000000000006,0.0074577918937717,0.0340897709499532,0.0053267448770866
0.5810000000000031,0.0234362811957798,0.0255673282124649,0.0095870935812048
0.5845000000000056,0.0351544217936697,0.02769837522915,0.0149138384582915
0.588000000000001,0.0287630260728665,0.0266319790561814,0.0127827914416064
0.5915000000000035,0.029827676916583,0.0223716303520633,0.0127827914416064
0.5949999999999989,0.0266319790561814,0.01598023463126,0.01598023463126
0.5985000000000014,0.0191759324916617,0.0085224427374883,0.0223716303520633
0.6020000000000039,0.013849187614575,0.0127827914416064,0.0255673282124649
0.6054999999999993,0.0149138384582915,0.0191759324916617,0.0181095363186931
0.6090000000000018,0.0063913957208032,0.029827676916583,0.0223716303520633
0.6125000000000043,-0.0074577918937717,0.029827676916583,0.0181095363186931
0.6159999999999997,-0.0234362811957798,0.0351544217936697,0.0202405833353782
0.6195000000000022,-0.0287630260728665,0.029827676916583,0.0149138384582915
0.6230000000000047,-0.0213052341790947,0.0181095363186931,0.0255673282124649
0.6265000000000001,-0.0031956978604016,0.0223716303520633,0.0308940730895516
0.6300000000000026,0.0,0.0308940730895516,0.0287630260728665
0.6335000000000051,-0.0031956978604016,0.0330233747769847,0.0255673282124649
0.6370000000000005,0.0106534897541733,0.0266319790561814,0.0319587239332681
0.640500000000003,0.0394165158270399,0.0191759324916617,0.0330233747769847
0.6440000000000055,0.0458079115478431,0.0170448854749766,0.0340897709499532
0.6475000000000009,0.0394165158270399,0.0255673282124649,0.0213052341790947
0.6510000000000034,0.0287630260728665,0.0266319790561814,0.0213052341790947
0.6544999999999987,0.0223716303520633,0.0351544217936697,0.0117181405978899
0.6580000000000013,0.0191759324916617,0.0404811666707564,0.0149138384582915
0.6615000000000038,0.0234362811957798,0.0479389585645282,0.0127827914416064
0.6649999999999991,0.0340897709499532,0.0543303542853314,0.0149138384582915
0.6685000000000016,0.0351544217936697,0.0511346564249298,0.0106534897541733
0.6720000000000041,0.0245026773687483,0.0468725623915597,0.0042603487041181
0.6754999999999995,0.0127827914416064,0.0585907029894496,-0.0010646508437165
0.679000000000002,0.0010646508437165,0.0585907029894496,-0.0127827914416064
0.6825000000000045,0.0170448854749766,0.0575260521457331,-0.0149138384582915
0.6859999999999999,0.0340897709499532,0.0575260521457331,-0.0170448854749766
0.6895000000000024,0.0404811666707564,0.0585907029894496,-0.0181095363186931
0.693000000000005,0.041545817514473,0.0564614013020165,-0.0234362811957798
0.6965000000000003,0.0671131457269379,0.0404811666707564,-0.0202405833353782
0.7000000000000028,0.0820287295144815,0.0458079115478431,-0.0213052341790947
0.7035000000000053,0.0862890782185996,0.0362208179666383,-0.0202405833353782
0.7070000000000007,0.0873537290623162,0.02769837522915,-0.013849187614575
0.7105000000000032,0.0862890782185996,0.0053267448770866,-0.0106534897541733
0.7139999999999986,0.1150521042914662,0.002131047016685,-0.0095870935812048
0.7175000000000011,0.1651203645434275,0.0308940730895516,0.002131047016685
0.7210000000000036,0.1597953649955928,0.0436768645311581,0.0042603487041181
0.724499999999999,0.1597953649955928,0.0340897709499532,0.0053267448770866
0.7280000000000015,0.1949497867892626,0.0245026773687483,0.0106534897541733
0.731500000000004,0.205601531214184,0.0266319790561814,0.0245026773687483
0.7349999999999994,0.1960144376329791,0.0202405833353782,0.0255673282124649
0.7385000000000019,0.1992101354933808,-0.013849187614575,0.0266319790561814
0.7420000000000044,0.2183860679850424,-0.0202405833353782,0.0319587239332681
0.7454999999999998,0.2375620004767041,-0.0394165158270399,0.0362208179666383
0.7490000000000023,0.2279731615662473,-0.0585907029894496,0.0255673282124649
0.7525000000000048,0.2066679273871525,-0.0767019846373948,0.0106534897541733
0.7560000000000002,0.2024058333537824,-0.0894847760790012,-0.002131047016685
0.7595000000000027,0.2354309534600191,-0.0905494269227178,-0.0181095363186931
0.7630000000000052,0.2652586303766022,-0.0916158230956863,-0.0287630260728665
0.7665000000000006,0.2940216564494687,-0.0926804739394028,-0.0308940730895516
0.7700000000000031,0.314262239784847,-0.0937468701123714,-0.0266319790561814
0.7734999999999985,0.314262239784847,-0.1075943123976944,-0.0202405833353782
0.777000000000001,0.2929570056057522,-0.1289012919060412,-0.0213052341790947
0.7805000000000035,0.2141239739516723,-0.1629910628559944,-0.0213052341790947
0.7839999999999989,0.0937468701123714,-0.2119946722642392,-0.0383501196540714
0.7875000000000014,-0.0724398906040246,-0.302544099186957,-0.0916158230956863
0.7910000000000039,-0.1054650107102613,-0.3281114273994219,-0.0980072188164895
0.7944999999999993,-0.2077325782308691,-0.3600701513326901,-0.136357338470561
0.7980000000000018,-0.288694911572382,-0.4271832970596281,-0.1747092034538843
0.8015000000000043,-0.3579391043160051,-0.4761869064678729,-0.2066679273871525
0.8049999999999997,-0.4005513180034466,-0.5102766774178261,-0.2290395577392158
0.8085000000000022,-0.4335764381096833,-0.5401060996636612,-0.247149094057909
0.8120000000000047,-0.4506213235846599,-0.5667380787198427,-0.2556715367953973
0.8155000000000001,-0.4538170214450616,-0.5901743599156226,-0.2556715367953973
0.8190000000000026,-0.4463592295512898,-0.602958896686481,-0.2546051406224288
0.8225000000000051,-0.4293143440763132,-0.614677037284371,-0.2524758389349957
0.8260000000000005,-0.4186608543221398,-0.628524479569694,-0.2418223491808223
0.829500000000003,-0.4016177141764152,-0.6338512244467807,-0.2386266513204207
0.8330000000000055,-0.3994866671597301,-0.6359822714634658,-0.2450180470412239
0.8365000000000009,-0.4016177141764152,-0.642373667184269,-0.2482137449016255
0.8400000000000034,-0.41120480775762,-0.6370469223071823,-0.258867234655799
0.8434999999999988,-0.4261186462159115,-0.6338512244467807,-0.2705853752536888
0.8470000000000013,-0.4314453910929982,-0.630655526586379,-0.2737810731140905
0.8505000000000038,-0.43890318298677,-0.6210684330051742,-0.2812388650078622
0.8539999999999992,-0.4506213235846599,-0.6093502924072843,-0.2876302607286655
0.8575000000000017,-0.4676662090596366,-0.5923054069323076,-0.2854992137119804
0.8610000000000042,-0.464468765869983,-0.5816519171781342,-0.2801724688348938
0.8644999999999996,-0.4548816722887781,-0.559280286826071,-0.2641939795328856
0.8680000000000021,-0.4591437663221482,-0.5496931932448661,-0.2663250265495707
0.8715000000000046,-0.4687308599033531,-0.5262569120490862,-0.258867234655799
0.875,-0.4740576047804398,-0.5113430735907947,-0.2556715367953973
0.8785000000000025,-0.4655351620429515,-0.4964292351325031,-0.2546051406224288
0.882000000000005,-0.4463592295512898,-0.4783179534845579,-0.2503447919183106
0.8855000000000004,-0.4058780628805333,-0.4484902765679749,-0.247149094057909
0.8890000000000029,-0.3622011983493752,-0.42292294835551,-0.2460844432141925
0.8925000000000054,-0.288694911572382,-0.3877685265618402,-0.2482137449016255
0.8960000000000008,-0.2269085107225308,-0.3579391043160051,-0.2460844432141925
0.8995000000000033,-0.1374237346435295,-0.316393286801532,-0.2418223491808223
0.9029999999999988,-0.0596570991624181,-0.2769767709744921,-0.2301042085829324
0.9065000000000012,0.0532657034416149,-0.2141239739516723,-0.2151903701246408
0.9100000000000036,0.1427504795206162,-0.1811005991746876,-0.2077325782308691
0.9134999999999992,0.2578025838120824,-0.1235745470289545,-0.1928187397725775
0.9170000000000016,0.3334381722765087,-0.0767019846373948,-0.1864273440517743
0.920500000000004,0.425053995372195,-0.013849187614575,-0.177904901314286
0.9239999999999996,0.4879067923950148,0.0308940730895516,-0.1725781564371993
0.927500000000002,0.559280286826071,0.0884201252352847,-0.1651203645434275
0.9310000000000044,0.5986968026531109,0.1267702448893561,-0.1672514115601126
0.9345,0.6370469223071823,0.1768385051413174,-0.1619246666830259
0.9380000000000024,0.6455693650446706,0.2183860679850424,-0.1651203645434275
0.9415000000000048,0.6349176206197492,0.2567361876391139,-0.1704471094205142
0.9450000000000004,0.616806338971804,0.2716500260974054,-0.1693824585767977
0.9485000000000028,0.5816519171781342,0.2908259585890671,-0.1747092034538843
0.9520000000000052,0.5422354013510943,0.2982837504828389,-0.1736428072809158
0.9555000000000008,0.4932317919428495,0.2961527034661538,-0.1725781564371993
0.9590000000000032,0.4538170214450616,0.2918906094327836,-0.1672514115601126
0.9624999999999986,0.4058780628805333,0.288694911572382,-0.166186760716396
0.9660000000000012,0.3622011983493752,0.2780431671474606,-0.1629910628559944
0.9695000000000036,0.3110665419244454,0.258867234655799,-0.1555332709622227
0.972999999999999,0.2716500260974054,0.2439533961975074,-0.1491418752414194
0.9765000000000016,0.233299906443334,0.2279731615662473,-0.1416840833476476
0.980000000000004,0.2034722295267509,0.2141239739516723,-0.1331616406101593
0.9834999999999994,0.1683160624038291,0.2002765316663493,-0.124639197872671
0.987000000000002,0.1427504795206162,0.1832316461913727,-0.1097253594143795
0.9905000000000044,0.1235745470289545,0.1555332709622227,-0.0894847760790012
0.9939999999999998,0.1214435000122694,0.1480754790684509,-0.0735062867769931
0.9975000000000024,0.0884201252352847,0.1480754790684509,-0.0671131457269379
1.0010000000000048,0.0532657034416149,0.1352926876268444,-0.055395005129048
1.0045000000000002,0.0,0.0990718696602061,-0.0426122136874415
1.008000000000003,-0.0404811666707564,0.0862890782185996,-0.0245026773687483
1.0115000000000052,-0.0916158230956863,0.0649838440395048,-0.0106534897541733
1.0150000000000006,-0.1320969897664428,0.0564614013020165,0.0127827914416064
1.018500000000003,-0.177904901314286,0.0340897709499532,0.0372854688103548
1.0220000000000056,-0.1811005991746876,0.0010646508437165,0.0713752397603081
1.025500000000001,-0.1811005991746876,-0.0319587239332681,0.1065296615539778
1.0290000000000037,-0.1747092034538843,-0.0628527970228197,0.1267702448893561
1.0324999999999989,-0.1789695521580025,-0.1118564064310645,0.1438151303643327
1.0360000000000014,-0.1747092034538843,-0.1448797812080492,0.1587289688226243
1.039500000000004,-0.1629910628559944,-0.1938833906162941,0.1683160624038291
1.0429999999999993,-0.1459461773810178,-0.2343645572870505,0.177904901314286
1.0465000000000018,-0.1214435000122694,-0.2791078179911772,0.1853609478788057
1.0500000000000045,-0.1043986145372928,-0.3100018910807288,0.1864273440517743
1.0534999999999997,-0.0777666354811113,-0.3451563128743986,0.1874919948954908
1.0570000000000022,-0.0532657034416149,-0.3664615470534934,0.1864273440517743
1.0605000000000049,-0.0266319790561814,-0.3898978282492732,0.1811005991746876
1.064,-0.002131047016685,-0.4037470158638482,0.1853609478788057
1.0675000000000026,0.0181095363186931,-0.4144005056180216,0.1842962970350892
1.071000000000005,0.0404811666707564,-0.4197272504951083,0.1821652500184041
1.0745000000000005,0.0617864008498512,-0.4165315526347067,0.1811005991746876
1.078000000000003,0.0841580312019145,-0.4090737607409349,0.1821652500184041
1.0815000000000057,0.1150521042914662,-0.3984202709867616,0.1789695521580025
1.0850000000000009,0.1310323389227262,-0.3909642244222418,0.1736428072809158
1.0885000000000034,0.1512729222581045,-0.369657244913895,0.1587289688226243
1.0919999999999987,0.1448797812080492,-0.3547434064556034,0.1459461773810178
1.0955000000000013,0.1374237346435295,-0.3302424744161071,0.1193124529955843
1.0990000000000038,0.1310323389227262,-0.316393286801532,0.1022693128498597
1.1024999999999991,0.1267702448893561,-0.2897613077453506,0.0809623333415129
1.1060000000000016,0.1278348957330726,-0.2684543282370038,0.0681795418999064
1.109500000000004,0.1257055940456395,-0.2418223491808223,0.0543303542853314
1.1129999999999995,0.1182478021518678,-0.2151903701246408,0.0479389585645282
1.116500000000002,0.0990718696602061,-0.1928187397725775,0.0266319790561814
1.1200000000000043,0.0905494269227178,-0.1885583910684593,0.0149138384582915
1.1235,0.0767019846373948,-0.1704471094205142,0.0085224427374883
1.1270000000000024,0.0703088435873395,-0.1587289688226243,-0.0031956978604016
1.130500000000005,0.0607217500061347,-0.1320969897664428,-0.0127827914416064
1.1340000000000003,0.0617864008498512,-0.1214435000122694,-0.0191759324916617
1.1375000000000028,0.0756355884644262,-0.1001382658331746,-0.0245026773687483
1.1410000000000051,0.0894847760790012,-0.0852244273748831,-0.0234362811957798
1.1445000000000007,0.1139874534477496,-0.0575260521457331,-0.0319587239332681
1.1480000000000032,0.1278348957330726,-0.0511346564249298,-0.0362208179666383
1.1514999999999986,0.166186760716396,-0.02769837522915,-0.0383501196540714
1.1550000000000011,0.1832316461913727,-0.0095870935812048,-0.0404811666707564
1.1585000000000036,0.2045368803704674,0.0117181405978899,-0.0426122136874415
1.161999999999999,0.2269085107225308,0.0287630260728665,-0.041545817514473
1.1655000000000015,0.260998281672484,0.0617864008498512,-0.0394165158270399
1.169000000000004,0.2812388650078622,0.0862890782185996,-0.0340897709499532
1.1724999999999994,0.2929570056057522,0.1118564064310645,-0.0330233747769847
1.176000000000002,0.2929570056057522,0.1331616406101593,-0.0330233747769847
1.1795000000000044,0.286565609884949,0.1597953649955928,-0.0287630260728665
1.1829999999999998,0.274847469287059,0.1821652500184041,-0.0340897709499532
1.1865000000000023,0.2673896773932873,0.2034722295267509,-0.0149138384582915
1.1900000000000048,0.2578025838120824,0.2183860679850424,-0.0095870935812048
1.1935000000000002,0.2514094427620272,0.2450180470412239,0.0063913957208032
1.1970000000000027,0.2439533961975074,0.258867234655799,0.0149138384582915
1.2005000000000052,0.2343645572870505,0.2599318854995155,0.0351544217936697
1.2040000000000006,0.233299906443334,0.2578025838120824,0.0447432607041266
1.2075000000000031,0.2290395577392158,0.2641939795328856,0.0639174478665363
1.2109999999999983,0.2343645572870505,0.260998281672484,0.0767019846373948
1.214500000000001,0.2439533961975074,0.2556715367953973,0.0873537290623162
1.2180000000000035,0.2535404897787122,0.247149094057909,0.1022693128498597
1.221499999999999,0.2727164222703739,0.2343645572870505,0.1235745470289545
1.2250000000000014,0.2844345628682639,0.233299906443334,0.1289012919060412
1.228500000000004,0.3100018910807288,0.2364956043037356,0.138488385487246
1.231999999999999,0.3227846825223353,0.2407576983371057,0.1448797812080492
1.2355000000000018,0.3366338701369103,0.2396913021641372,0.1491418752414194
1.2390000000000043,0.341960615013997,0.2482137449016255,0.1544686201185061
1.2424999999999995,0.3451563128743986,0.2556715367953973,0.1470108282247343
1.2460000000000022,0.3323735214327921,0.2663250265495707,0.1491418752414194
1.2495000000000047,0.300413052170272,0.2908259585890671,0.1438151303643327
1.253,0.2641939795328856,0.300413052170272,0.1427504795206162
1.2565000000000026,0.1992101354933808,0.316393286801532,0.150206526085136
1.2600000000000051,0.1374237346435295,0.3302424744161071,0.1555332709622227
1.2635000000000003,0.0490036094082447,0.3387649171535954,0.1725781564371993
1.267000000000003,-0.002131047016685,0.3472873598910836,0.1906876927558924
1.2705000000000055,-0.069244192743623,0.3675279432264619,0.2173214171413259
1.274000000000001,-0.124639197872671,0.3803107346680683,0.2311688594266489
1.2775000000000034,-0.1906876927558924,0.3920288752659583,0.2503447919183106
1.2809999999999988,-0.2247774637058457,0.3994866671597301,0.2684543282370038
1.2845000000000013,-0.2695207244099723,0.4186608543221398,0.2876302607286655
1.2880000000000038,-0.2918906094327836,0.4218582975117934,0.3110665419244454
1.2914999999999992,-0.3078708440640437,0.4335764381096833,0.3398295679973119
1.2950000000000017,-0.2961527034661538,0.4431635316908882,0.355809802628572
1.2985000000000042,-0.2823035158515788,0.4559463231324946,0.3728546881035486
1.3019999999999996,-0.2663250265495707,0.452750625272093,0.3845728287014385
1.305500000000002,-0.2460844432141925,0.4463592295512898,0.3962909692993285
1.3090000000000046,-0.2269085107225308,0.4314453910929982,0.4005513180034466
1.3125,-0.2024058333537824,0.41120480775762,0.4048134120368167
1.3160000000000025,-0.1768385051413174,0.4016177141764152,0.4048134120368167
1.319500000000005,-0.1544686201185061,0.3749839897909817,0.4037470158638482
1.3230000000000004,-0.138488385487246,0.3579391043160051,0.4069427137242498
1.326500000000003,-0.1001382658331746,0.3430252658577135,0.4133358547743051
1.3300000000000054,-0.0767019846373948,0.3398295679973119,0.4165315526347067
1.3335000000000008,-0.0319587239332681,0.3313071252598236,0.4186608543221398
1.3370000000000033,-0.0031956978604016,0.3270467765557054,0.42292294835551
1.3404999999999987,0.0255673282124649,0.3281114273994219,0.425053995372195
1.3440000000000012,0.0500682602519613,0.3281114273994219,0.425053995372195
1.3475000000000037,0.0820287295144815,0.3334381722765087,0.4303807402492817
1.350999999999999,0.1054650107102613,0.3281114273994219,0.4399678338304866
1.3545000000000016,0.1544686201185061,0.3270467765557054,0.4474238803950063
1.358000000000004,0.191754088928861,0.3291760782431385,0.4452945787075733
1.3614999999999997,0.219450718828759,0.3302424744161071,0.4399678338304866
1.365000000000002,0.2301042085829324,0.3270467765557054,0.4325100419367148
1.3685000000000045,0.2386266513204207,0.316393286801532,0.4175962034784233
1.372,0.2407576983371057,0.3121311927681619,0.4101401569139035
1.3755000000000024,0.2354309534600191,0.2972173543098703,0.3930952714389268
1.3790000000000049,0.2247774637058457,0.2823035158515788,0.3824417816847534
1.3825000000000005,0.1981454846496642,0.2737810731140905,0.3590055004889736
1.3860000000000028,0.1693824585767977,0.2514094427620272,0.3440916620306821
1.3895000000000053,0.1171831513081512,0.2343645572870505,0.3270467765557054
1.393000000000001,0.0671131457269379,0.2173214171413259,0.3100018910807288
1.3965000000000032,-0.002131047016685,0.1906876927558924,0.2918906094327836
1.3999999999999986,-0.0617864008498512,0.177904901314286,0.2854992137119804
1.403500000000001,-0.1406194325039311,0.1576643179789077,0.2652586303766022
1.4070000000000036,-0.1960144376329791,0.1448797812080492,0.2599318854995155
1.410499999999999,-0.2631275833599171,0.138488385487246,0.2460844432141925
1.4140000000000017,-0.3174579376452486,0.1395530363309626,0.2311688594266489
1.417500000000004,-0.3760503859639502,0.1289012919060412,0.2141239739516723
1.4209999999999994,-0.41120480775762,0.1225098961852379,0.1981454846496642
1.424500000000002,-0.4591437663221482,0.1129210572747811,0.1704471094205142
1.4280000000000044,-0.4900360940824479,0.1043986145372928,0.1565979218059392
1.4314999999999998,-0.5166698184678814,0.0980072188164895,0.1257055940456395
1.4350000000000025,-0.5273215628928027,0.0916158230956863,0.1118564064310645
1.4385000000000048,-0.5305172607532044,0.0884201252352847,0.0958761717998045
1.4420000000000002,-0.5124077244345112,0.0852244273748831,0.0841580312019145
1.445500000000003,-0.4942981881158181,0.0884201252352847,0.0735062867769931
1.4490000000000052,-0.4783179534845579,0.0852244273748831,0.0543303542853314
1.4525000000000006,-0.4431635316908882,0.0798976824977964,0.0458079115478431
1.456000000000003,-0.4122694586013365,0.0777666354811113,0.0394165158270399
1.4595000000000056,-0.3728546881035486,0.0820287295144815,0.0319587239332681
1.463000000000001,-0.3376985209806268,0.0809623333415129,0.0223716303520633
1.4665000000000037,-0.2844345628682639,0.0671131457269379,0.0266319790561814
1.4699999999999989,-0.2396913021641372,0.0596570991624181,0.0255673282124649
1.4735000000000014,-0.1757738542976009,0.0521993072686464,0.0266319790561814
1.477000000000004,-0.1320969897664428,0.0351544217936697,0.0181095363186931
1.4804999999999993,-0.0841580312019145,0.0095870935812048,0.0031956978604016
1.4840000000000018,-0.055395005129048,-0.0085224427374883,-0.0149138384582915
1.4875000000000045,-0.0213052341790947,-0.0458079115478431,-0.0287630260728665
1.4909999999999997,0.002131047016685,-0.0703088435873395,-0.041545817514473
1.4945000000000022,0.0255673282124649,-0.1129210572747811,-0.0596570991624181
1.4980000000000049,0.0372854688103548,-0.1406194325039311,-0.0649838440395048
1.5015,0.0490036094082447,-0.1821652500184041,-0.0745709376207097
1.5050000000000026,0.0490036094082447,-0.2151903701246408,-0.083093380358198
1.508500000000005,0.0351544217936697,-0.2578025838120824,-0.0756355884644262
1.5120000000000005,0.0213052341790947,-0.2876302607286655,-0.0671131457269379
1.515500000000003,0.0085224427374883,-0.3376985209806268,-0.0617864008498512
1.5190000000000057,-0.0053267448770866,-0.3653968962097769,-0.0617864008498512
1.5225000000000009,-0.0372854688103548,-0.397355620143045,-0.0649838440395048
1.5260000000000034,-0.0585907029894496,-0.425053995372195,-0.0649838440395048
1.5294999999999987,-0.0767019846373948,-0.4495549274116914,-0.0607217500061347
1.5330000000000013,-0.0905494269227178,-0.4623394641825499,-0.0660484948832214
1.5365000000000038,-0.1033339636935762,-0.4655351620429515,-0.0649838440395048
1.5399999999999991,-0.1118564064310645,-0.4612730680095813,-0.0681795418999064
1.5435000000000016,-0.1289012919060412,-0.4410324846742031,-0.0756355884644262
1.547000000000004,-0.1299659427497577,-0.4197272504951083,-0.0767019846373948
1.5504999999999995,-0.1512729222581045,-0.3771150368076668,-0.0788312863248278
1.554000000000002,-0.1789695521580025,-0.3408942188410284,-0.0894847760790012
1.5575000000000043,-0.219450718828759,-0.2823035158515788,-0.0905494269227178
1.561,-0.2407576983371057,-0.2386266513204207,-0.0745709376207097
1.5645000000000024,-0.2503447919183106,-0.1896230419121759,-0.0511346564249298
1.568000000000005,-0.2503447919183106,-0.1491418752414194,-0.0383501196540714
1.5715000000000003,-0.2482137449016255,-0.1065296615539778,-0.0245026773687483
1.5750000000000028,-0.2503447919183106,-0.0756355884644262,-0.0191759324916617
1.5785000000000051,-0.2418223491808223,-0.0287630260728665,-0.0202405833353782
1.5820000000000007,-0.2364956043037356,0.0010646508437165,-0.0266319790561814
1.5855000000000032,-0.2119946722642392,0.0394165158270399,-0.0394165158270399
1.5889999999999986,-0.1885583910684593,0.0639174478665363,-0.0500682602519613
1.5925000000000011,-0.1587289688226243,0.0809623333415129,-0.0681795418999064
1.5960000000000036,-0.1395530363309626,0.0820287295144815,-0.0809623333415129
1.599499999999999,-0.1129210572747811,0.0873537290623162,-0.096942567972773
1.6030000000000015,-0.0884201252352847,0.0894847760790012,-0.1097253594143795
1.606500000000004,-0.0671131457269379,0.0937468701123714,-0.1278348957330726
1.6099999999999994,-0.0607217500061347,0.0948115209560879,-0.1395530363309626
1.613500000000002,-0.0585907029894496,0.0862890782185996,-0.1587289688226243
1.6170000000000044,-0.0671131457269379,0.0788312863248278,-0.1715135055934827
1.6204999999999998,-0.0852244273748831,0.0713752397603081,-0.1832316461913727
1.6240000000000023,-0.1022693128498597,0.0703088435873395,-0.1853609478788057
1.6275000000000048,-0.1331616406101593,0.0724398906040246,-0.1928187397725775
1.6310000000000002,-0.1608600158393093,0.0777666354811113,-0.1885583910684593
1.6345000000000027,-0.2013411825100658,0.083093380358198,-0.180035948330971
1.6380000000000052,-0.2247774637058457,0.0937468701123714,-0.1683160624038291
1.6415000000000006,-0.2418223491808223,0.1139874534477496,-0.1438151303643327
1.6450000000000031,-0.2439533961975074,0.1320969897664428,-0.1235745470289545
1.6484999999999983,-0.2396913021641372,0.152337573101821,-0.0958761717998045
1.652000000000001,-0.2354309534600191,0.1683160624038291,-0.0756355884644262
1.6555000000000035,-0.2279731615662473,0.1906876927558924,-0.0458079115478431
1.658999999999999,-0.2109282760912707,0.2151903701246408,-0.0287630260728665
1.6625000000000014,-0.1896230419121759,0.2418223491808223,0.002131047016685
1.666000000000004,-0.1725781564371993,0.2556715367953973,0.0255673282124649
1.669499999999999,-0.1427504795206162,0.2727164222703739,0.0671131457269379
1.6730000000000018,-0.1022693128498597,0.2812388650078622,0.0948115209560879
1.6765000000000043,-0.0468725623915597,0.2950880526224372,0.1406194325039311
1.6799999999999995,-0.0106534897541733,0.2972173543098703,0.1608600158393093
1.6835000000000022,0.0394165158270399,0.2908259585890671,0.1832316461913727
1.6870000000000047,0.0596570991624181,0.2823035158515788,0.1864273440517743
1.6905,0.0862890782185996,0.2759121201307756,0.1853609478788057
1.6940000000000026,0.1193124529955843,0.2684543282370038,0.180035948330971
1.6975000000000051,0.1608600158393093,0.247149094057909,0.1747092034538843
1.7010000000000003,0.1906876927558924,0.2226464166891606,0.1629910628559944
1.704500000000003,0.2205171150017275,0.2002765316663493,0.138488385487246
1.7080000000000055,0.2407576983371057,0.1864273440517743,0.1331616406101593
1.711500000000001,0.2620629325162006,0.1640557136997109,0.1043986145372928
1.7150000000000034,0.2791078179911772,0.1395530363309626,0.0852244273748831
1.7184999999999988,0.2812388650078622,0.1118564064310645,0.0521993072686464
1.7220000000000013,0.2854992137119804,0.0926804739394028,0.0362208179666383
1.7255000000000038,0.2961527034661538,0.0607217500061347,0.0117181405978899
1.7289999999999992,0.2908259585890671,0.0340897709499532,-0.0053267448770866
1.7325000000000017,0.2801724688348938,0.0085224427374883,-0.0287630260728665
1.7360000000000042,0.2652586303766022,-0.0031956978604016,-0.0479389585645282
1.7394999999999996,0.2311688594266489,-0.0127827914416064,-0.0703088435873395
1.743000000000002,0.1960144376329791,-0.0117181405978899,-0.0852244273748831
1.7465000000000046,0.138488385487246,0.0,-0.0905494269227178
1.75,0.096942567972773,0.0063913957208032,-0.0852244273748831
1.7535000000000025,0.055395005129048,0.041545817514473,-0.0703088435873395
1.757000000000005,0.0266319790561814,0.0681795418999064,-0.0596570991624181
1.7605000000000004,-0.029827676916583,0.1086607085706629,-0.0543303542853314
1.764000000000003,-0.0777666354811113,0.1299659427497577,-0.0404811666707564
1.7675000000000054,-0.1331616406101593,0.1534022239455376,-0.0202405833353782
1.7710000000000008,-0.1768385051413174,0.1725781564371993,-0.0010646508437165
1.7745000000000033,-0.2269085107225308,0.1981454846496642,0.02769837522915
1.7779999999999987,-0.2524758389349957,0.2130593231079557,0.0575260521457331
1.7815000000000012,-0.2737810731140905,0.2301042085829324,0.1022693128498597
1.7850000000000037,-0.2918906094327836,0.2343645572870505,0.136357338470561
1.788499999999999,-0.302544099186957,0.2386266513204207,0.180035948330971
1.7920000000000016,-0.3100018910807288,0.2386266513204207,0.2077325782308691
1.795500000000004,-0.300413052170272,0.2386266513204207,0.2450180470412239
1.7989999999999997,-0.286565609884949,0.2301042085829324,0.2716500260974054
1.802500000000002,-0.2482137449016255,0.2226464166891606,0.2972173543098703
1.8060000000000045,-0.1981454846496642,0.205601531214184,0.314262239784847
1.8095,-0.1342280367831279,0.166186760716396,0.3355692192931938
1.8130000000000024,-0.0798976824977964,0.1374237346435295,0.3376985209806268
1.8165000000000049,-0.0095870935812048,0.0905494269227178,0.3451563128743986
1.8200000000000005,0.0351544217936697,0.0490036094082447,0.3408942188410284
1.8235000000000028,0.0820287295144815,-0.0053267448770866,0.3259803803827369
1.8270000000000053,0.1075943123976944,-0.041545817514473,0.314262239784847
1.830500000000001,0.124639197872671,-0.0916158230956863,0.2972173543098703
1.8340000000000032,0.1267702448893561,-0.1225098961852379,0.2812388650078622
1.8374999999999984,0.1235745470289545,-0.1565979218059392,0.2503447919183106
1.841000000000001,0.1171831513081512,-0.1757738542976009,0.2269085107225308
1.844500000000004,0.1129210572747811,-0.1874919948954908,0.2002765316663493
1.847999999999999,0.1097253594143795,-0.1906876927558924,0.1757738542976009
1.8515000000000013,0.1182478021518678,-0.180035948330971,0.138488385487246
1.855000000000004,0.1331616406101593,-0.1672514115601126,0.1075943123976944
1.8584999999999996,0.138488385487246,-0.1395530363309626,0.0745709376207097
1.8620000000000017,0.1406194325039311,-0.1171831513081512,0.0447432607041266
1.8655000000000044,0.1289012919060412,-0.0852244273748831,0.0085224427374883
1.869,0.1171831513081512,-0.0575260521457331,-0.0106534897541733
1.8725000000000025,0.083093380358198,-0.0287630260728665,-0.0351544217936697
1.8760000000000048,0.0458079115478431,-0.0095870935812048,-0.0490036094082447
1.8795,-0.0063913957208032,0.02769837522915,-0.055395005129048
1.883000000000003,-0.0383501196540714,0.0639174478665363,-0.055395005129048
1.8865000000000047,-0.069244192743623,0.1043986145372928,-0.0458079115478431
1.8900000000000008,-0.1022693128498597,0.1320969897664428,-0.0404811666707564
1.893500000000003,-0.1459461773810178,0.1608600158393093,-0.0308940730895516
1.8969999999999985,-0.1736428072809158,0.1811005991746876,-0.0245026773687483
1.900500000000001,-0.2034722295267509,0.2013411825100658,-0.0117181405978899
1.9040000000000037,-0.219450718828759,0.2066679273871525,-0.0074577918937717
1.9074999999999989,-0.2290395577392158,0.219450718828759,0.002131047016685
1.9110000000000011,-0.2279731615662473,0.2183860679850424,0.0085224427374883
1.914500000000004,-0.2290395577392158,0.2130593231079557,0.0223716303520633
1.9179999999999997,-0.2279731615662473,0.2098636252475541,0.0319587239332681
1.9215000000000015,-0.1992101354933808,0.2034722295267509,0.0500682602519613
1.9250000000000045,-0.1736428072809158,0.1928187397725775,0.0671131457269379
1.9285,-0.1480754790684509,0.1725781564371993,0.0735062867769931
1.9320000000000024,-0.1289012919060412,0.1512729222581045,0.0841580312019145
1.9355000000000049,-0.1193124529955843,0.1182478021518678,0.0926804739394028
1.939,-0.1171831513081512,0.0958761717998045,0.0905494269227178
1.9425000000000023,-0.1118564064310645,0.0607217500061347,0.0852244273748831
1.946000000000005,-0.1150521042914662,0.041545817514473,0.0777666354811113
1.9495000000000005,-0.1235745470289545,0.0191759324916617,0.0724398906040246
1.953000000000003,-0.1310323389227262,0.0042603487041181,0.0607217500061347
1.9565000000000052,-0.1427504795206162,0.002131047016685,0.0511346564249298
1.9600000000000009,-0.1491418752414194,0.0074577918937717,0.0426122136874415
1.9635000000000036,-0.1512729222581045,0.0319587239332681,0.0340897709499532
1.9669999999999987,-0.1480754790684509,0.0617864008498512,0.01598023463126
1.9705000000000013,-0.1406194325039311,0.110790010258096,0.0031956978604016
1.974000000000004,-0.138488385487246,0.1427504795206162,-0.0053267448770866
1.9774999999999991,-0.1470108282247343,0.1608600158393093,-0.0053267448770866
1.9810000000000016,-0.1374237346435295,0.1725781564371993,0.0063913957208032
1.984500000000004,-0.0777666354811113,0.2045368803704674,0.0223716303520633
1.9879999999999995,-0.0223716303520633,0.2343645572870505,0.0340897709499532
1.991500000000002,0.0234362811957798,0.2620629325162006,0.0319587239332681
1.9950000000000043,0.0575260521457331,0.2727164222703739,0.02769837522915
1.9985,0.1129210572747811,0.2673896773932873,0.0330233747769847
2.0020000000000024,0.1587289688226243,0.2663250265495707,0.0383501196540714
2.005500000000005,0.2087989744038376,0.2482137449016255,0.0458079115478431
2.0090000000000003,0.2364956043037356,0.233299906443334,0.0479389585645282
2.012500000000003,0.2769767709744921,0.2119946722642392,0.0511346564249298
2.0160000000000053,0.3046751462036421,0.1960144376329791,0.0585907029894496
2.0195000000000007,0.3323735214327921,0.1629910628559944,0.0607217500061347
2.0230000000000032,0.3430252658577135,0.1448797812080492,0.069244192743623
2.026499999999998,0.3387649171535954,0.1118564064310645,0.0649838440395048
2.030000000000001,0.3174579376452486,0.0905494269227178,0.0628527970228197
2.033500000000004,0.286565609884949,0.0500682602519613,0.0575260521457331
2.036999999999999,0.2396913021641372,0.013849187614575,0.0575260521457331
2.040500000000001,0.1651203645434275,-0.0223716303520633,0.0511346564249298
2.044000000000004,0.0937468701123714,-0.055395005129048,0.0458079115478431
2.0474999999999994,-0.0010646508437165,-0.0809623333415129,0.0479389585645282
2.051000000000002,-0.0756355884644262,-0.1012029166768912,0.0521993072686464
2.0545000000000044,-0.1715135055934827,-0.1225098961852379,0.0660484948832214
2.058,-0.2343645572870505,-0.1342280367831279,0.0756355884644262
2.0615000000000023,-0.2908259585890671,-0.1416840833476476,0.1033339636935762
2.065000000000005,-0.3068061932203272,-0.1448797812080492,0.1278348957330726
2.0685,-0.3153286359578155,-0.1395530363309626,0.1491418752414194
2.0720000000000027,-0.3068061932203272,-0.1374237346435295,0.1715135055934827
2.075500000000005,-0.274847469287059,-0.1257055940456395,0.1928187397725775
2.0790000000000006,-0.2375620004767041,-0.1182478021518678,0.2024058333537824
2.082500000000003,-0.1821652500184041,-0.1171831513081512,0.2173214171413259
2.0859999999999985,-0.1448797812080492,-0.1139874534477496,0.2301042085829324
2.089500000000001,-0.0862890782185996,-0.1086607085706629,0.2375620004767041
2.0930000000000035,-0.0308940730895516,-0.1033339636935762,0.2460844432141925
2.096499999999999,0.041545817514473,-0.0958761717998045,0.2556715367953973
2.1000000000000014,0.0862890782185996,-0.0948115209560879,0.2620629325162006
2.103500000000004,0.1289012919060412,-0.0926804739394028,0.2578025838120824
2.1069999999999998,0.1534022239455376,-0.0862890782185996,0.2492801410745941
2.110500000000002,0.1757738542976009,-0.0852244273748831,0.2428870000245388
2.1140000000000043,0.1821652500184041,-0.0809623333415129,0.2354309534600191
2.1175,0.1970790884766957,-0.0756355884644262,0.2247774637058457
2.121000000000002,0.2013411825100658,-0.0681795418999064,0.2205171150017275
2.1245000000000047,0.2045368803704674,-0.0703088435873395,0.2024058333537824
2.128,0.2034722295267509,-0.0660484948832214,0.1842962970350892
2.1315000000000026,0.2034722295267509,-0.0607217500061347,0.1597953649955928
2.135000000000005,0.2013411825100658,-0.0511346564249298,0.1416840833476476
2.1385000000000005,0.1960144376329791,-0.0351544217936697,0.1139874534477496
2.142000000000003,0.1906876927558924,-0.0245026773687483,0.0958761717998045
2.145500000000005,0.1821652500184041,-0.0106534897541733,0.069244192743623
2.149000000000001,0.1736428072809158,0.0010646508437165,0.0543303542853314
2.1525000000000034,0.166186760716396,0.0053267448770866,0.0426122136874415
2.155999999999999,0.1683160624038291,0.0117181405978899,0.0340897709499532
2.1595000000000013,0.1747092034538843,0.0181095363186931,0.0255673282124649
2.163000000000004,0.1811005991746876,0.029827676916583,0.0149138384582915
2.166499999999999,0.1747092034538843,0.0521993072686464,0.0053267448770866
2.1700000000000017,0.166186760716396,0.0617864008498512,0.0053267448770866
2.173500000000004,0.1704471094205142,0.0756355884644262,0.0095870935812048
2.177,0.1672514115601126,0.0905494269227178,0.0117181405978899
2.180500000000002,0.1629910628559944,0.1086607085706629,0.0319587239332681
2.1840000000000046,0.1608600158393093,0.1150521042914662,0.0426122136874415
2.1875,0.150206526085136,0.1214435000122694,0.0628527970228197
2.1910000000000025,0.1406194325039311,0.1267702448893561,0.0820287295144815
2.194500000000005,0.1257055940456395,0.1257055940456395,0.0948115209560879
2.1980000000000004,0.1097253594143795,0.1289012919060412,0.1097253594143795
2.201500000000003,0.0852244273748831,0.1225098961852379,0.1310323389227262
2.2050000000000054,0.0767019846373948,0.1097253594143795,0.150206526085136
2.208500000000001,0.0873537290623162,0.096942567972773,0.180035948330971
2.2120000000000037,0.0937468701123714,0.0905494269227178,0.1906876927558924
2.2154999999999987,0.0980072188164895,0.0724398906040246,0.2013411825100658
2.219000000000001,0.0990718696602061,0.0639174478665363,0.1981454846496642
2.222500000000004,0.1022693128498597,0.0436768645311581,0.2034722295267509
2.225999999999999,0.1097253594143795,0.0266319790561814,0.2013411825100658
2.2295000000000016,0.1203788491685528,0.0010646508437165,0.1938833906162941
2.233000000000004,0.1310323389227262,-0.01598023463126,0.1938833906162941
2.2364999999999995,0.138488385487246,-0.0521993072686464,0.1832316461913727
2.240000000000002,0.1342280367831279,-0.0788312863248278,0.1672514115601126
2.2435000000000045,0.1310323389227262,-0.1086607085706629,0.1374237346435295
2.247,0.1203788491685528,-0.1299659427497577,0.1139874534477496
2.2505000000000024,0.1054650107102613,-0.1544686201185061,0.0777666354811113
2.254000000000005,0.0873537290623162,-0.1651203645434275,0.0500682602519613
2.2575000000000003,0.0671131457269379,-0.177904901314286,0.0149138384582915
2.261000000000003,0.0543303542853314,-0.1864273440517743,-0.013849187614575
2.2645000000000053,0.0383501196540714,-0.1853609478788057,-0.0447432607041266
2.2680000000000007,0.0266319790561814,-0.1768385051413174,-0.0703088435873395
2.271500000000003,0.002131047016685,-0.166186760716396,-0.1182478021518678
2.2749999999999986,-0.0266319790561814,-0.1544686201185061,-0.150206526085136
2.278500000000001,-0.0607217500061347,-0.1374237346435295,-0.1906876927558924
2.282000000000004,-0.0756355884644262,-0.1257055940456395,-0.2098636252475541
2.285499999999999,-0.110790010258096,-0.1097253594143795,-0.233299906443334
2.289000000000001,-0.1395530363309626,-0.0980072188164895,-0.2407576983371057
2.292500000000004,-0.1693824585767977,-0.0820287295144815,-0.233299906443334
2.296,-0.1885583910684593,-0.0649838440395048,-0.2226464166891606
2.299500000000002,-0.2226464166891606,-0.0458079115478431,-0.1885583910684593
2.3030000000000044,-0.2375620004767041,-0.0340897709499532,-0.1576643179789077
2.3065,-0.2386266513204207,-0.0213052341790947,-0.1043986145372928
2.3100000000000023,-0.2269085107225308,-0.0245026773687483,-0.0564614013020165
2.3135000000000048,-0.1928187397725775,-0.0330233747769847,0.0063913957208032
2.317,-0.1576643179789077,-0.0404811666707564,0.041545817514473
2.3205000000000027,-0.1075943123976944,-0.055395005129048,0.0809623333415129
2.324000000000005,-0.0660484948832214,-0.0617864008498512,0.1022693128498597
2.327500000000001,-0.0266319790561814,-0.0756355884644262,0.1235745470289545
2.331000000000003,0.0031956978604016,-0.0777666354811113,0.1342280367831279
2.3344999999999985,0.0500682602519613,-0.0735062867769931,0.1427504795206162
2.338000000000001,0.0767019846373948,-0.0788312863248278,0.1480754790684509
2.3415000000000035,0.0990718696602061,-0.0820287295144815,0.1491418752414194
2.344999999999999,0.1097253594143795,-0.0873537290623162,0.1395530363309626
2.3485000000000014,0.1054650107102613,-0.0937468701123714,0.1278348957330726
2.352000000000004,0.0990718696602061,-0.0958761717998045,0.110790010258096
2.3554999999999997,0.0852244273748831,-0.0884201252352847,0.0820287295144815
2.3590000000000018,0.0735062867769931,-0.0894847760790012,0.0649838440395048
2.3625000000000043,0.0617864008498512,-0.0894847760790012,0.0340897709499532
2.366,0.0532657034416149,-0.0894847760790012,0.0053267448770866
2.369500000000002,0.029827676916583,-0.0894847760790012,-0.0223716303520633
2.3730000000000047,0.0063913957208032,-0.0873537290623162,-0.0500682602519613
2.3765,-0.0213052341790947,-0.0745709376207097,-0.0788312863248278
2.3800000000000026,-0.0490036094082447,-0.0628527970228197,-0.1001382658331746
2.383500000000005,-0.0937468701123714,-0.0426122136874415,-0.1139874534477496
2.3870000000000005,-0.1182478021518678,-0.029827676916583,-0.1331616406101593
2.390500000000003,-0.1629910628559944,-0.0149138384582915,-0.1310323389227262
2.394000000000005,-0.1864273440517743,-0.0010646508437165,-0.1352926876268444
2.397500000000001,-0.2141239739516723,0.0170448854749766,-0.124639197872671
2.401000000000004,-0.2205171150017275,0.0287630260728665,-0.1129210572747811
2.4044999999999987,-0.2258421145495622,0.0458079115478431,-0.1022693128498597
2.4080000000000013,-0.219450718828759,0.0564614013020165,-0.0852244273748831
2.411500000000004,-0.2024058333537824,0.0596570991624181,-0.0639174478665363
2.414999999999999,-0.1821652500184041,0.0564614013020165,-0.0436768645311581
2.4185000000000016,-0.1416840833476476,0.0564614013020165,-0.0181095363186931
2.422000000000004,-0.1012029166768912,0.0585907029894496,0.0031956978604016
2.4254999999999995,-0.0532657034416149,0.0543303542853314,0.0287630260728665
2.429000000000002,-0.0245026773687483,0.0436768645311581,0.0468725623915597
2.4325000000000045,0.0074577918937717,0.0245026773687483,0.0639174478665363
2.436,0.0340897709499532,0.0074577918937717,0.0735062867769931
2.4395000000000024,0.0585907029894496,0.0053267448770866,0.0873537290623162
2.443000000000005,0.0671131457269379,-0.0010646508437165,0.0884201252352847
2.4465000000000003,0.0617864008498512,-0.002131047016685,0.0841580312019145
2.450000000000003,0.0511346564249298,-0.0042603487041181,0.0798976824977964
2.4535000000000053,0.02769837522915,-0.0095870935812048,0.0703088435873395
2.4570000000000007,0.0117181405978899,-0.013849187614575,0.0660484948832214
2.4605000000000032,-0.0074577918937717,-0.013849187614575,0.0532657034416149
2.463999999999998,-0.0191759324916617,-0.013849187614575,0.0426122136874415
2.467500000000001,-0.0436768645311581,-0.0149138384582915,0.0245026773687483
2.471000000000004,-0.0479389585645282,-0.0106534897541733,0.0117181405978899
2.474499999999999,-0.0490036094082447,-0.0245026773687483,-0.0170448854749766
2.478000000000001,-0.0575260521457331,-0.0245026773687483,-0.02769837522915
2.481500000000004,-0.0660484948832214,-0.0362208179666383,-0.0490036094082447
2.4849999999999994,-0.0756355884644262,-0.0458079115478431,-0.0628527970228197
2.488500000000002,-0.083093380358198,-0.0607217500061347,-0.0777666354811113
2.4920000000000044,-0.0852244273748831,-0.0735062867769931,-0.0820287295144815
2.4955,-0.0862890782185996,-0.0820287295144815,-0.0894847760790012
2.4990000000000023,-0.083093380358198,-0.0937468701123714,-0.0916158230956863
2.502500000000005,-0.0745709376207097,-0.1161167551351827,-0.083093380358198
2.506,-0.0671131457269379,-0.1320969897664428,-0.0841580312019145
2.5095000000000027,-0.0372854688103548,-0.1534022239455376,-0.0713752397603081
2.513000000000005,-0.002131047016685,-0.166186760716396,-0.0575260521457331
2.5165000000000006,0.0149138384582915,-0.177904901314286,-0.0479389585645282
2.520000000000003,0.013849187614575,-0.1928187397725775,-0.0426122136874415
2.5234999999999985,0.0149138384582915,-0.2269085107225308,-0.0234362811957798
2.527000000000001,0.0106534897541733,-0.2450180470412239,-0.0191759324916617
2.5305000000000035,-0.0191759324916617,-0.274847469287059,-0.0085224427374883
2.533999999999999,-0.0447432607041266,-0.3036087500306735,0.0
2.5375000000000014,-0.0777666354811113,-0.3259803803827369,0.0181095363186931
2.541000000000004,-0.0958761717998045,-0.3408942188410284,0.0255673282124649
2.5444999999999998,-0.1118564064310645,-0.355809802628572,0.0308940730895516
2.548000000000002,-0.1193124529955843,-0.3632658491930918,0.0372854688103548
2.5515000000000043,-0.1235745470289545,-0.3675279432264619,0.029827676916583
2.555,-0.1225098961852379,-0.3707236410868635,0.0202405833353782
2.558500000000002,-0.1182478021518678,-0.3760503859639502,0.0117181405978899
2.5620000000000047,-0.1065296615539778,-0.3739193389472651,-0.002131047016685
2.5655,-0.096942567972773,-0.369657244913895,-0.013849187614575
2.5690000000000026,-0.0884201252352847,-0.3547434064556034,-0.0308940730895516
2.572500000000005,-0.0820287295144815,-0.3430252658577135,-0.0543303542853314
2.5760000000000005,-0.0745709376207097,-0.3270467765557054,-0.0713752397603081
2.579500000000003,-0.0820287295144815,-0.3057397970473587,-0.0958761717998045
2.583000000000005,-0.0905494269227178,-0.2897613077453506,-0.1161167551351827
2.586500000000001,-0.1129210572747811,-0.2716500260974054,-0.1352926876268444
2.5900000000000034,-0.1416840833476476,-0.2535404897787122,-0.150206526085136
2.593499999999999,-0.1672514115601126,-0.2322352555996175,-0.1597953649955928
2.5970000000000013,-0.177904901314286,-0.219450718828759,-0.1629910628559944
2.600500000000004,-0.1757738542976009,-0.1874919948954908,-0.1555332709622227
2.603999999999999,-0.1725781564371993,-0.1704471094205142,-0.1480754790684509
2.6075000000000017,-0.166186760716396,-0.1470108282247343,-0.136357338470561
2.611000000000004,-0.1491418752414194,-0.1289012919060412,-0.1278348957330726
2.6145,-0.1161167551351827,-0.1054650107102613,-0.1097253594143795
2.618000000000002,-0.069244192743623,-0.0926804739394028,-0.0798976824977964
2.6215000000000046,-0.0010646508437165,-0.0735062867769931,-0.0511346564249298
2.625,0.0521993072686464,-0.0596570991624181,-0.0245026773687483
2.6285000000000025,0.1438151303643327,-0.0426122136874415,0.0074577918937717
2.632000000000005,0.2151903701246408,-0.0234362811957798,0.0287630260728665
2.6355000000000004,0.3089354949077603,0.0010646508437165,0.0532657034416149
2.639000000000003,0.3664615470534934,0.0191759324916617,0.0649838440395048
2.6425000000000054,0.4378367868138015,0.041545817514473,0.0724398906040246
2.646000000000001,0.4911024902554164,0.0596570991624181,0.0788312863248278
2.6495000000000037,0.5422354013510943,0.0745709376207097,0.0745709376207097
2.6529999999999987,0.5656734278761262,0.0820287295144815,0.0724398906040246
2.656500000000001,0.5582156359823544,0.0905494269227178,0.0521993072686464
2.660000000000004,0.5294526099094878,0.1043986145372928,0.0330233747769847
2.663499999999999,0.4793843496575265,0.1150521042914662,0.0117181405978899
2.6670000000000016,0.4420988808471717,0.1267702448893561,-0.0042603487041181
2.670500000000004,0.3867021303888716,0.150206526085136,-0.029827676916583
2.6739999999999995,0.3408942188410284,0.1597953649955928,-0.0575260521457331
2.677500000000002,0.274847469287059,0.1789695521580025,-0.083093380358198
2.6810000000000045,0.2269085107225308,0.1896230419121759,-0.1086607085706629
2.6845,0.1736428072809158,0.2077325782308691,-0.1320969897664428
2.6880000000000024,0.1448797812080492,0.2183860679850424,-0.1491418752414194
2.691500000000005,0.110790010258096,0.2311688594266489,-0.1725781564371993
2.6950000000000003,0.0777666354811113,0.2439533961975074,-0.1970790884766957
2.698500000000003,0.0500682602519613,0.2492801410745941,-0.2109282760912707
2.7020000000000053,0.0319587239332681,0.2514094427620272,-0.2205171150017275
2.7055000000000007,0.0255673282124649,0.258867234655799,-0.2237128128621291
2.709000000000003,0.0213052341790947,0.2567361876391139,-0.2237128128621291
2.7124999999999986,0.0245026773687483,0.2535404897787122,-0.2130593231079557
2.716000000000001,0.0319587239332681,0.2450180470412239,-0.2066679273871525
2.719500000000004,0.0404811666707564,0.2482137449016255,-0.1864273440517743
2.722999999999999,0.0532657034416149,0.247149094057909,-0.1725781564371993
2.726500000000001,0.069244192743623,0.2556715367953973,-0.150206526085136
2.730000000000004,0.0884201252352847,0.2535404897787122,-0.1342280367831279
2.7335,0.1086607085706629,0.2418223491808223,-0.1075943123976944
2.737000000000002,0.1225098961852379,0.2290395577392158,-0.0894847760790012
2.7405000000000044,0.1448797812080492,0.2109282760912707,-0.0617864008498512
2.744,0.1640557136997109,0.2002765316663493,-0.0383501196540714
2.7475000000000023,0.1992101354933808,0.191754088928861,-0.0117181405978899
2.7510000000000048,0.2269085107225308,0.1853609478788057,0.0117181405978899
2.7545,0.2631275833599171,0.1725781564371993,0.02769837522915
2.7580000000000027,0.2823035158515788,0.166186760716396,0.041545817514473
2.761500000000005,0.2993484013265554,0.1619246666830259,0.0479389585645282
2.765000000000001,0.3131975889411305,0.1597953649955928,0.0607217500061347
2.768500000000003,0.3217200316786187,0.1597953649955928,0.0703088435873395
2.7719999999999985,0.3291760782431385,0.1534022239455376,0.0777666354811113
2.775500000000001,0.3302424744161071,0.1565979218059392,0.0820287295144815
2.7790000000000035,0.3291760782431385,0.1512729222581045,0.0873537290623162
2.782499999999999,0.3259803803827369,0.1448797812080492,0.0916158230956863
2.7860000000000014,0.316393286801532,0.136357338470561,0.0894847760790012
2.789500000000004,0.2908259585890671,0.1278348957330726,0.0798976824977964
2.7929999999999997,0.2780431671474606,0.1225098961852379,0.0820287295144815
2.7965000000000018,0.260998281672484,0.1118564064310645,0.0852244273748831
2.8000000000000043,0.2535404897787122,0.1022693128498597,0.0873537290623162
2.8035,0.2503447919183106,0.0873537290623162,0.096942567972773
2.807000000000002,0.2556715367953973,0.0841580312019145,0.1033339636935762
2.8105000000000047,0.2620629325162006,0.0820287295144815,0.1065296615539778
2.814,0.2769767709744921,0.0724398906040246,0.1012029166768912
2.8175000000000026,0.2897613077453506,0.0681795418999064,0.1012029166768912
2.821000000000005,0.3057397970473587,0.0543303542853314,0.1001382658331746
2.8245000000000005,0.3270467765557054,0.0383501196540714,0.0980072188164895
2.828000000000003,0.3355692192931938,0.0223716303520633,0.0894847760790012
2.831500000000005,0.3387649171535954,-0.0042603487041181,0.0916158230956863
2.835000000000001,0.3270467765557054,-0.0340897709499532,0.0894847760790012
2.838500000000004,0.2780431671474606,-0.0713752397603081,0.0852244273748831
2.8419999999999987,0.2322352555996175,-0.1001382658331746,0.0948115209560879
2.8455000000000013,0.1544686201185061,-0.1331616406101593,0.1043986145372928
2.849000000000004,0.0809623333415129,-0.1427504795206162,0.1086607085706629
2.852499999999999,-0.0191759324916617,-0.1651203645434275,0.1193124529955843
2.8560000000000016,-0.0958761717998045,-0.177904901314286,0.1320969897664428
2.859500000000004,-0.1874919948954908,-0.1864273440517743,0.150206526085136
2.8629999999999995,-0.2301042085829324,-0.1928187397725775,0.1597953649955928
2.866500000000002,-0.2652586303766022,-0.1874919948954908,0.1715135055934827
2.8700000000000045,-0.2673896773932873,-0.177904901314286,0.1811005991746876
2.8735,-0.2460844432141925,-0.1587289688226243,0.180035948330971
2.8770000000000024,-0.2087989744038376,-0.1438151303643327,0.1821652500184041
2.880500000000005,-0.152337573101821,-0.124639197872671,0.1768385051413174
2.8840000000000003,-0.1043986145372928,-0.1139874534477496,0.1747092034538843
2.887500000000003,-0.0362208179666383,-0.0905494269227178,0.1640557136997109
2.8910000000000053,0.0,-0.0735062867769931,0.1597953649955928
2.8945000000000007,0.0458079115478431,-0.0511346564249298,0.150206526085136
2.8980000000000032,0.0649838440395048,-0.0404811666707564,0.152337573101821
2.901499999999998,0.0756355884644262,-0.0266319790561814,0.150206526085136
2.905000000000001,0.0735062867769931,-0.0106534897541733,0.1438151303643327
2.908500000000004,0.0596570991624181,0.0095870935812048,0.1395530363309626
2.911999999999999,0.0458079115478431,0.02769837522915,0.138488385487246
2.915500000000001,0.0245026773687483,0.0468725623915597,0.1310323389227262
2.919000000000004,0.0085224427374883,0.0532657034416149,0.1214435000122694
2.9224999999999994,0.0010646508437165,0.0703088435873395,0.1193124529955843
2.926000000000002,0.0106534897541733,0.0798976824977964,0.1139874534477496
2.9295000000000044,0.0255673282124649,0.0894847760790012,0.1054650107102613
2.933,0.0521993072686464,0.0926804739394028,0.0894847760790012
2.9365000000000023,0.0841580312019145,0.096942567972773,0.0735062867769931
2.940000000000005,0.1118564064310645,0.096942567972773,0.0575260521457331
2.9435,0.1470108282247343,0.0990718696602061,0.0383501196540714
2.9470000000000027,0.1683160624038291,0.0884201252352847,0.0245026773687483
2.950500000000005,0.177904901314286,0.0585907029894496,0.0074577918937717
2.9540000000000006,0.1683160624038291,0.0330233747769847,-0.002131047016685
2.957500000000003,0.1320969897664428,0.0042603487041181,-0.0223716303520633
2.9609999999999985,0.0926804739394028,-0.013849187614575,-0.0383501196540714
2.964500000000001,0.0245026773687483,-0.0319587239332681,-0.0585907029894496
2.9680000000000035,-0.0394165158270399,-0.041545817514473,-0.0713752397603081
2.971499999999999,-0.1374237346435295,-0.0521993072686464,-0.0873537290623162
2.9750000000000014,-0.2087989744038376,-0.055395005129048,-0.0948115209560879
2.978500000000004,-0.2908259585890671,-0.0607217500061347,-0.1022693128498597
2.9819999999999998,-0.3323735214327921,-0.069244192743623,-0.1033339636935762
2.985500000000002,-0.3749839897909817,-0.0745709376207097,-0.1065296615539778
2.9890000000000043,-0.3909642244222418,-0.0724398906040246,-0.1129210572747811
2.9925,-0.3749839897909817,-0.0628527970228197,-0.1150521042914662
2.996000000000002,-0.341960615013997,-0.0639174478665363,-0.1129210572747811
2.9995000000000047,-0.2854992137119804,-0.0596570991624181,-0.1161167551351827
3.003,-0.2407576983371057,-0.0585907029894496,-0.1150521042914662
3.0065000000000026,-0.177904901314286,-0.0575260521457331,-0.1150521042914662
3.010000000000005,-0.1342280367831279,-0.0575260521457331,-0.1043986145372928
3.0135000000000005,-0.0809623333415129,-0.0628527970228197,-0.0905494269227178
3.017000000000003,-0.0490036094082447,-0.0671131457269379,-0.0841580312019145
3.020500000000005,-0.0234362811957798,-0.0745709376207097,-0.0703088435873395
3.024000000000001,-0.0095870935812048,-0.0894847760790012,-0.0596570991624181
3.0275000000000034,0.0010646508437165,-0.0980072188164895,-0.0500682602519613
3.030999999999999,0.0,-0.1054650107102613,-0.0479389585645282
3.0345000000000013,-0.002131047016685,-0.1235745470289545,-0.0479389585645282
3.038000000000004,-0.0095870935812048,-0.1352926876268444,-0.0479389585645282
3.041499999999999,-0.0202405833353782,-0.152337573101821,-0.0511346564249298
3.0450000000000017,-0.0234362811957798,-0.1725781564371993,-0.0564614013020165
3.048500000000004,-0.0234362811957798,-0.1832316461913727,-0.0532657034416149
3.052,-0.0245026773687483,-0.1981454846496642,-0.0585907029894496
3.055500000000002,-0.0330233747769847,-0.2151903701246408,-0.0564614013020165
3.0590000000000046,-0.0468725623915597,-0.2322352555996175,-0.0596570991624181
3.0625,-0.0479389585645282,-0.2514094427620272,-0.0521993072686464
3.0660000000000025,-0.0458079115478431,-0.2641939795328856,-0.0447432607041266
3.069500000000005,-0.0426122136874415,-0.2780431671474606,-0.0394165158270399
3.0730000000000004,-0.0383501196540714,-0.2972173543098703,-0.0319587239332681
3.076500000000003,-0.0287630260728665,-0.3185243338182171,-0.0319587239332681
3.0800000000000054,-0.0245026773687483,-0.3366338701369103,-0.0319587239332681
3.083500000000001,-0.0085224427374883,-0.3536787556118869,-0.0330233747769847
3.0870000000000037,0.0010646508437165,-0.3675279432264619,-0.0362208179666383
3.0904999999999987,0.01598023463126,-0.3941599222826434,-0.0351544217936697
3.094000000000001,0.01598023463126,-0.3984202709867616,-0.0436768645311581
3.097500000000004,0.0010646508437165,-0.4048134120368167,-0.0639174478665363
3.100999999999999,-0.0117181405978899,-0.4101401569139035,-0.0745709376207097
3.1045000000000016,-0.041545817514473,-0.4133358547743051,-0.0937468701123714
3.108000000000004,-0.0671131457269379,-0.4165315526347067,-0.1033339636935762
3.1114999999999995,-0.1086607085706629,-0.4175962034784233,-0.124639197872671
3.115000000000002,-0.1512729222581045,-0.4186608543221398,-0.1320969897664428
3.1185000000000045,-0.2002765316663493,-0.4325100419367148,-0.1534022239455376
3.122,-0.2279731615662473,-0.4367721359700849,-0.1587289688226243
3.1255000000000024,-0.2578025838120824,-0.4420988808471717,-0.1597953649955928
3.129000000000005,-0.2716500260974054,-0.4463592295512898,-0.1619246666830259
3.1325000000000003,-0.286565609884949,-0.452750625272093,-0.1683160624038291
3.136000000000003,-0.288694911572382,-0.4559463231324946,-0.1725781564371993
3.1395000000000053,-0.2961527034661538,-0.4602084171658648,-0.1821652500184041
3.1430000000000007,-0.2929570056057522,-0.4772533026408414,-0.1821652500184041
3.146500000000003,-0.2844345628682639,-0.4857757453783297,-0.1811005991746876
3.1499999999999986,-0.2737810731140905,-0.4985585368199362,-0.1747092034538843
3.153500000000001,-0.247149094057909,-0.5134723752782278,-0.1629910628559944
3.157000000000004,-0.2290395577392158,-0.519865516328283,-0.150206526085136
3.160499999999999,-0.1896230419121759,-0.5294526099094878,-0.1299659427497577
3.164000000000001,-0.1555332709622227,-0.5454328445407479,-0.1086607085706629
3.167500000000004,-0.110790010258096,-0.5656734278761262,-0.0894847760790012
3.171,-0.0820287295144815,-0.5848476150385359,-0.0756355884644262
3.174500000000002,-0.0458079115478431,-0.6018925005135125,-0.0649838440395048
3.1780000000000044,-0.0213052341790947,-0.6231994800218592,-0.0532657034416149
3.1815,0.0063913957208032,-0.6381133184801508,-0.0500682602519613
3.1850000000000023,0.0106534897541733,-0.6466357612176391,-0.0468725623915597
3.1885000000000048,0.013849187614575,-0.6477004120613556,-0.0458079115478431
3.192,0.0063913957208032,-0.642373667184269,-0.0447432607041266
3.1955000000000027,0.0031956978604016,-0.628524479569694,-0.0362208179666383
3.199000000000005,-0.0095870935812048,-0.6189373859884891,-0.0383501196540714
3.202500000000001,-0.0170448854749766,-0.602958896686481,-0.0394165158270399
3.206000000000003,-0.0308940730895516,-0.5795208701614492,-0.0447432607041266
3.2094999999999985,-0.0511346564249298,-0.5582156359823544,-0.0681795418999064
3.213000000000001,-0.0713752397603081,-0.5486285424011496,-0.0798976824977964
3.2165000000000035,-0.0958761717998045,-0.5422354013510943,-0.0926804739394028
3.219999999999999,-0.096942567972773,-0.5358440056302911,-0.1033339636935762
3.2235000000000014,-0.1033339636935762,-0.5230612141886847,-0.1139874534477496
3.227000000000004,-0.1235745470289545,-0.5156034222949128,-0.1416840833476476
3.2304999999999997,-0.1459461773810178,-0.5124077244345112,-0.1619246666830259
3.2340000000000018,-0.1555332709622227,-0.5070809795574245,-0.1789695521580025
3.2375000000000043,-0.1725781564371993,-0.5049499325407395,-0.2066679273871525
3.241,-0.1842962970350892,-0.5060163287137079,-0.219450718828759
3.244500000000002,-0.1874919948954908,-0.5049499325407395,-0.2386266513204207
3.2480000000000047,-0.1853609478788057,-0.5049499325407395,-0.2503447919183106
3.2515,-0.1725781564371993,-0.5092120265741096,-0.258867234655799
3.2550000000000026,-0.1608600158393093,-0.5049499325407395,-0.2652586303766022
3.258500000000005,-0.1491418752414194,-0.5049499325407395,-0.2652586303766022
3.2620000000000005,-0.1257055940456395,-0.5092120265741096,-0.2695207244099723
3.265500000000003,-0.0905494269227178,-0.5017542346803379,-0.2620629325162006
3.269000000000005,-0.0596570991624181,-0.4932317919428495,-0.2535404897787122
3.272500000000001,-0.0170448854749766,-0.4847093492053612,-0.2503447919183106
3.276000000000004,0.0042603487041181,-0.4847093492053612,-0.2492801410745941
3.2794999999999987,0.0266319790561814,-0.480449000501243,-0.2407576983371057
3.2830000000000013,0.0564614013020165,-0.4857757453783297,-0.2322352555996175
3.286500000000004,0.0873537290623162,-0.4857757453783297,-0.2205171150017275
3.289999999999999,0.1118564064310645,-0.4815136513449596,-0.2119946722642392
3.2935000000000016,0.1289012919060412,-0.4815136513449596,-0.2002765316663493
3.297000000000004,0.1555332709622227,-0.4783179534845579,-0.1874919948954908
3.3004999999999995,0.166186760716396,-0.4761869064678729,-0.1757738542976009
3.304000000000002,0.1704471094205142,-0.4708619069200382,-0.1725781564371993
3.3075000000000045,0.1640557136997109,-0.4719265577637547,-0.166186760716396
3.311,0.1470108282247343,-0.4740576047804398,-0.1629910628559944
3.3145000000000024,0.1257055940456395,-0.4783179534845579,-0.1576643179789077
3.318000000000005,0.1001382658331746,-0.4889714432387313,-0.1480754790684509
3.3215000000000003,0.0862890782185996,-0.4857757453783297,-0.136357338470561
3.325000000000003,0.0649838440395048,-0.4911024902554164,-0.1331616406101593
3.3285000000000053,0.0383501196540714,-0.4911024902554164,-0.1257055940456395
3.3320000000000007,0.0287630260728665,-0.4868403962220463,-0.1203788491685528
3.3355000000000032,0.0149138384582915,-0.4900360940824479,-0.1150521042914662
3.338999999999998,0.0170448854749766,-0.4868403962220463,-0.1075943123976944
3.342500000000001,0.0255673282124649,-0.4847093492053612,-0.0990718696602061
3.346000000000004,0.0330233747769847,-0.4879067923950148,-0.1001382658331746
3.349499999999999,0.0404811666707564,-0.4889714432387313,-0.0980072188164895
3.353000000000001,0.0532657034416149,-0.4911024902554164,-0.1001382658331746
3.356500000000004,0.0649838440395048,-0.4974938859762197,-0.0980072188164895
3.3599999999999994,0.0671131457269379,-0.4953628389595346,-0.1001382658331746
3.363500000000002,0.0735062867769931,-0.4985585368199362,-0.0980072188164895
3.3670000000000044,0.0660484948832214,-0.5006895838366213,-0.0990718696602061
3.3705,0.055395005129048,-0.5049499325407395,-0.1033339636935762
3.3740000000000023,0.0362208179666383,-0.5230612141886847,-0.1033339636935762
3.377500000000005,0.0223716303520633,-0.5433017975240628,-0.1075943123976944
3.381,0.0095870935812048,-0.5624759846864725,-0.1054650107102613
3.3845000000000027,-0.0085224427374883,-0.5763251723010476,-0.1075943123976944
3.388000000000005,-0.0362208179666383,-0.5923054069323076,-0.1118564064310645
3.3915000000000006,-0.0490036094082447,-0.602958896686481,-0.1150521042914662
3.395000000000003,-0.0767019846373948,-0.616806338971804,-0.1214435000122694
3.3984999999999985,-0.0980072188164895,-0.6391779693238674,-0.1193124529955843
3.402000000000001,-0.1182478021518678,-0.6668763445530174,-0.110790010258096
3.4055000000000035,-0.1203788491685528,-0.6924436727654824,-0.0990718696602061
3.408999999999999,-0.1054650107102613,-0.7126842561008605,-0.0809623333415129
3.4125000000000014,-0.0777666354811113,-0.7382515843133254,-0.0681795418999064
3.416000000000004,-0.0660484948832214,-0.7584921676487036,-0.0724398906040246
3.4194999999999998,-0.0607217500061347,-0.7989733343194602,-0.0809623333415129
3.423000000000002,-0.0447432607041266,-0.8277363603923268,-0.0852244273748831
3.4265000000000043,-0.02769837522915,-0.8575640373089098,-0.0916158230956863
3.43,-0.0149138384582915,-0.8991098548233829,-0.1118564064310645
3.433500000000002,-0.002131047016685,-0.9193504381587612,-0.1182478021518678
3.4370000000000047,0.0181095363186931,-0.9459841625441944,-0.1257055940456395
3.4405,0.0319587239332681,-0.968355792896258,-0.1352926876268444
3.4440000000000026,0.0468725623915597,-0.984334282198266,-0.138488385487246
3.447500000000005,0.0575260521457331,-1.0035102146899275,-0.1448797812080492
3.4510000000000005,0.0532657034416149,-1.016293006131534,-0.152337573101821
3.454500000000003,0.0596570991624181,-1.0344025424502272,-0.1597953649955928
3.458000000000005,0.0532657034416149,-1.0418603343439992,-0.1640557136997109
3.461500000000001,0.0521993072686464,-1.0461224283773694,-0.1715135055934827
3.4650000000000034,0.0447432607041266,-1.0471870792210858,-0.1725781564371993
3.468499999999999,0.0319587239332681,-1.0461224283773694,-0.180035948330971
3.4720000000000013,0.0223716303520633,-1.0429249851877156,-0.1874919948954908
3.475500000000004,0.0117181405978899,-1.0258800997127389,-0.191754088928861
3.478999999999999,0.0117181405978899,-1.016293006131534,-0.1928187397725775
3.4825000000000017,0.0042603487041181,-1.0035102146899275,-0.2066679273871525
3.486000000000004,-0.0031956978604016,-0.9981834698128408,-0.2141239739516723
3.4895,-0.0031956978604016,-0.9949877719524394,-0.219450718828759
3.493000000000002,-0.0010646508437165,-0.9928567249357544,-0.2354309534600191
3.4965000000000046,-0.0074577918937717,-0.9875299800586675,-0.2428870000245388
3.5,-0.013849187614575,-0.9832696313545496,-0.2546051406224288
3.5035000000000025,-0.0266319790561814,-0.9811385843378644,-0.2652586303766022
3.507000000000005,-0.0447432607041266,-0.9672893967232892,-0.2780431671474606
3.5105000000000004,-0.0639174478665363,-0.968355792896258,-0.286565609884949
3.514000000000003,-0.0980072188164895,-0.9672893967232892,-0.2972173543098703
3.5175000000000054,-0.1299659427497577,-0.9694204437399744,-0.3068061932203272
3.521000000000001,-0.1789695521580025,-0.9811385843378644,-0.3110665419244454
3.5245000000000037,-0.2141239739516723,-0.9822032351815808,-0.3206536355056502
3.5279999999999987,-0.2396913021641372,-0.9758118394607777,-0.3217200316786187
3.531500000000001,-0.2780431671474606,-0.9640936988628878,-0.3366338701369103
3.535000000000004,-0.2961527034661538,-0.970485094583691,-0.3408942188410284
3.538499999999999,-0.3014794483432405,-0.9662247458795729,-0.3451563128743986
3.5420000000000016,-0.2950880526224372,-0.970485094583691,-0.3451563128743986
3.545500000000004,-0.2759121201307756,-0.9779428864774626,-0.3515477085952018
3.5489999999999995,-0.2514094427620272,-0.986465329214951,-0.3568744534722885
3.552500000000002,-0.2226464166891606,-0.9992481206565574,-0.3600701513326901
3.5560000000000045,-0.1811005991746876,-1.0205551001649042,-0.3632658491930918
3.5595,-0.1289012919060412,-1.0365335894669123,-0.3547434064556034
3.5630000000000024,-0.0798976824977964,-1.0418603343439992,-0.3579391043160051
3.566500000000005,-0.0255673282124649,-1.0461224283773694,-0.3622011983493752
3.5700000000000003,0.0053267448770866,-1.0482517300648024,-0.3622011983493752
3.573500000000003,0.029827676916583,-1.0525138240981724,-0.3717882919305801
3.5770000000000053,0.0521993072686464,-1.053578474941889,-0.3685925940701784
3.5805000000000007,0.0649838440395048,-1.053578474941889,-0.3643322453660603
3.584000000000003,0.083093380358198,-1.0461224283773694,-0.3600701513326901
3.5874999999999986,0.0894847760790012,-1.0386646364835974,-0.3504830577514853
3.591000000000001,0.0873537290623162,-1.0173594023045027,-0.3451563128743986
3.594500000000004,0.0756355884644262,-1.0056395163773606,-0.3430252658577135
3.597999999999999,0.0681795418999064,-0.9928567249357544,-0.3302424744161071
3.601500000000001,0.0596570991624181,-0.9768764903044942,-0.3206536355056502
3.605000000000004,0.0468725623915597,-0.9577023031420844,-0.3100018910807288
3.6085,0.0330233747769847,-0.9545066052816829,-0.302544099186957
3.612000000000002,0.013849187614575,-0.9363953236337376,-0.2908259585890671
3.615500000000005,0.0085224427374883,-0.9225478813484148,-0.2801724688348938
3.619,0.0095870935812048,-0.8969805531359498,-0.2695207244099723
3.6225000000000014,0.002131047016685,-0.8682175270630832,-0.2567361876391139
3.6260000000000048,-0.0053267448770866,-0.8415838026776498,-0.2460844432141925
3.6295,-0.013849187614575,-0.8213432193422715,-0.2386266513204207
3.6330000000000022,-0.0127827914416064,-0.7936465894423735,-0.2279731615662473
3.636500000000005,-0.0063913957208032,-0.7691439120736251,-0.2151903701246408
3.640000000000001,0.0149138384582915,-0.7339894902799553,-0.2013411825100658
3.643500000000003,0.0351544217936697,-0.7052264642070888,-0.191754088928861
3.6469999999999994,0.0543303542853314,-0.6753987872905056,-0.1853609478788057
3.650500000000001,0.069244192743623,-0.6647452975363323,-0.180035948330971
3.654000000000004,0.1001382658331746,-0.6487650629050722,-0.1736428072809158
3.657499999999999,0.1289012919060412,-0.6455693650446706,-0.1629910628559944
3.661000000000002,0.166186760716396,-0.6434400633572375,-0.152337573101821
3.664500000000004,0.1981454846496642,-0.6498314590780407,-0.150206526085136
3.6679999999999993,0.2173214171413259,-0.6604849488322142,-0.1459461773810178
3.6715000000000018,0.2311688594266489,-0.6732677402738206,-0.1352926876268444
3.675000000000004,0.2535404897787122,-0.7009661155029706,-0.1267702448893561
3.6785,0.274847469287059,-0.723336000525782,-0.1203788491685528
3.682000000000002,0.3068061932203272,-0.7542300736153336,-0.1043986145372928
3.6855000000000047,0.3302424744161071,-0.7819284488444836,-0.0958761717998045
3.689,0.3622011983493752,-0.8245406625319252,-0.0862890782185996
3.6925000000000026,0.3920288752659583,-0.8628907821859965,-0.069244192743623
3.696000000000005,0.4357057397971164,-0.9236125321921312,-0.0575260521457331
3.699500000000001,0.4612730680095813,-0.970485094583691,-0.0500682602519613
3.703000000000003,0.4836446983616446,-1.0312068445898257,-0.0468725623915597
3.7065000000000055,0.4964292351325031,-1.0908639437522438,-0.0479389585645282
3.710000000000001,0.4889714432387313,-1.1356072044563703,-0.0479389585645282
3.7135000000000034,0.4783179534845579,-1.1728926732667255,-0.0575260521457331
3.716999999999999,0.4623394641825499,-1.2091117459041116,-0.0575260521457331
3.720500000000001,0.4399678338304866,-1.22935232923949,-0.0649838440395048
3.724000000000004,0.3994866671597301,-1.247461865558183,-0.0798976824977964
3.727499999999999,0.3504830577514853,-1.253855006608238,-0.0809623333415129
3.7310000000000016,0.2950880526224372,-1.2559843082956712,-0.0841580312019145
3.734500000000004,0.2705853752536888,-1.2506593087478366,-0.0788312863248278
3.738,0.2503447919183106,-1.2250919805353715,-0.0745709376207097
3.741500000000002,0.2386266513204207,-1.2027203501833084,-0.0724398906040246
3.745000000000005,0.2183860679850424,-1.16649953221667,-0.0756355884644262
3.7485,0.2013411825100658,-1.1238890638584804,-0.0905494269227178
3.7520000000000016,0.180035948330971,-1.0940596416126456,-0.1043986145372928
3.755500000000005,0.1534022239455376,-1.0642319646960623,-0.1203788491685528
3.759,0.1512729222581045,-1.0407956835002825,-0.1352926876268444
3.762500000000003,0.1512729222581045,-1.0258800997127389,-0.152337573101821
3.766000000000005,0.1491418752414194,-1.0205551001649042,-0.1789695521580025
3.7695000000000007,0.1299659427497577,-1.0248154488690224,-0.2002765316663493
3.7730000000000032,0.0937468701123714,-1.0290775429023926,-0.2311688594266489
3.776499999999999,0.0671131457269379,-1.037599985639881,-0.2578025838120824
3.780000000000001,0.01598023463126,-1.0461224283773694,-0.2844345628682639
3.783500000000004,-0.0245026773687483,-1.0546431257856057,-0.2982837504828389
3.786999999999999,-0.0745709376207097,-1.063165568523094,-0.3110665419244454
3.7905000000000015,-0.1065296615539778,-1.0727544074335509,-0.3110665419244454
3.794000000000004,-0.1331616406101593,-1.0908639437522438,-0.3078708440640437
3.7975,-0.1448797812080492,-1.1047131313668188,-0.3100018910807288
3.801000000000002,-0.1672514115601126,-1.131345110423,-0.3153286359578155
3.804500000000005,-0.1789695521580025,-1.1430632510208902,-0.3131975889411305
3.808,-0.191754088928861,-1.1686305792333551,-0.3217200316786187
3.8115000000000014,-0.1981454846496642,-1.1899375587417018,-0.3153286359578155
3.815000000000005,-0.1896230419121759,-1.2005893031666235,-0.316393286801532
3.8185,-0.166186760716396,-1.2165695377978836,-0.3089354949077603
3.8220000000000023,-0.1214435000122694,-1.24533256387075,-0.288694911572382
3.825500000000005,-0.0841580312019145,-1.2559843082956712,-0.2759121201307756
3.8290000000000006,-0.029827676916583,-1.2623774493457267,-0.2578025838120824
3.832500000000003,0.0106534897541733,-1.2740955899436164,-0.2364956043037356
3.8359999999999994,0.0777666354811113,-1.2772912878040183,-0.2141239739516723
3.839500000000001,0.1278348957330726,-1.2719645429269315,-0.1949497867892626
3.843000000000004,0.1896230419121759,-1.2645067510331598,-0.1715135055934827
3.846499999999999,0.2301042085829324,-1.2581153553123563,-0.152337573101821
3.8500000000000014,0.274847469287059,-1.25705070446864,-0.138488385487246
3.853500000000004,0.2993484013265554,-1.259181751485325,-0.1289012919060412
3.8569999999999993,0.3174579376452486,-1.2645067510331598,-0.1225098961852379
3.860500000000002,0.3217200316786187,-1.2645067510331598,-0.1193124529955843
3.864000000000004,0.3153286359578155,-1.2495929125748682,-0.1182478021518678
3.8675,0.2950880526224372,-1.2346790741165767,-0.1267702448893561
3.871000000000002,0.2546051406224288,-1.2186988394853169,-0.1459461773810178
3.8745000000000047,0.2173214171413259,-1.2133738399374818,-0.1534022239455376
3.878,0.166186760716396,-1.2144384907811985,-0.1704471094205142
3.8815000000000026,0.1203788491685528,-1.2133738399374818,-0.1842962970350892
3.885000000000005,0.0532657034416149,-1.1984582561499384,-0.2098636252475541
3.888500000000001,-0.0042603487041181,-1.1878065117250167,-0.2258421145495622
3.892000000000003,-0.0841580312019145,-1.1537167407750637,-0.247149094057909
3.8954999999999984,-0.1331616406101593,-1.1281494125625986,-0.2684543282370038
3.899000000000001,-0.2013411825100658,-1.0887328967355587,-0.2812388650078622
3.9025000000000034,-0.2354309534600191,-1.0567741728022906,-0.2897613077453506
3.905999999999999,-0.2876302607286655,-1.0067059125503293,-0.300413052170272
3.909500000000001,-0.3259803803827369,-0.970485094583691,-0.302544099186957
3.913000000000004,-0.3504830577514853,-0.9310703240859032,-0.2972173543098703
3.916499999999999,-0.3440916620306821,-0.8969805531359498,-0.2812388650078622
3.9200000000000017,-0.3121311927681619,-0.8564993864651933,-0.2652586303766022
3.923500000000004,-0.2684543282370038,-0.84584589671102,-0.2492801410745941
3.927,-0.2013411825100658,-0.8447812458673034,-0.2205171150017275
3.930500000000002,-0.1512729222581045,-0.861824386013028,-0.2066679273871525
3.9340000000000046,-0.0820287295144815,-0.8937848552755481,-0.1938833906162941
3.9375,-0.0245026773687483,-0.928939277069218,-0.1832316461913727
3.9410000000000025,0.0372854688103548,-0.9758118394607777,-0.1651203645434275
3.944500000000005,0.0894847760790012,-1.0152283552878176,-0.1534022239455376
3.948,0.1448797812080492,-1.0727544074335509,-0.1257055940456395
3.951500000000003,0.1811005991746876,-1.1132355741043072,-0.1012029166768912
3.955000000000005,0.2237128128621291,-1.1686305792333551,-0.0649838440395048
3.958500000000001,0.2418223491808223,-1.21017814207708,-0.0351544217936697
3.9620000000000033,0.2535404897787122,-1.2485282617311515,-0.002131047016685
3.965499999999999,0.247149094057909,-1.2762248916310497,0.0191759324916617
3.969000000000001,0.2237128128621291,-1.3188371053184913,0.0490036094082447
3.972500000000004,0.2034722295267509,-1.3358819907934678,0.0735062867769931
3.975999999999999,0.1597953649955928,-1.3571889703018147,0.0873537290623162
3.9795000000000016,0.1193124529955843,-1.3593182719892478,0.1033339636935762
3.983000000000004,0.0628527970228197,-1.361449319005933,0.1150521042914662
3.9865,0.01598023463126,-1.356122574128846,0.1203788491685528
3.990000000000002,-0.0330233747769847,-1.3390776886538696,0.1310323389227262
3.993500000000005,-0.0798976824977964,-1.3188371053184913,0.1331616406101593
3.997,-0.1459461773810178,-1.2708998920832149,0.1214435000122694
4.000500000000002,-0.2013411825100658,-1.2485282617311515,0.1214435000122694
4.004000000000005,-0.260998281672484,-1.2304187254124583,0.1097253594143795
4.0075,-0.3078708440640437,-1.2229609335186866,0.1129210572747811
4.011000000000003,-0.3568744534722885,-1.2112427929207967,0.1086607085706629
4.014500000000005,-0.3867021303888716,-1.203785001027025,0.1001382658331746
4.018000000000001,-0.4261186462159115,-1.1803487198312452,0.1012029166768912
4.021500000000003,-0.4474238803950063,-1.1633038343562685,0.0948115209560879
4.024999999999999,-0.4697955107470696,-1.136671855300087,0.0948115209560879
4.028500000000001,-0.480449000501243,-1.1079088292272203,0.0894847760790012
4.032000000000004,-0.4783179534845579,-1.079145803154354,0.0937468701123714
4.035499999999999,-0.4708619069200382,-1.053578474941889,0.1012029166768912
4.0390000000000015,-0.4506213235846599,-1.016293006131534,0.1043986145372928
4.042500000000004,-0.4314453910929982,-0.986465329214951,0.1086607085706629
4.045999999999999,-0.4080091098972184,-0.9459841625441944,0.1139874534477496
4.049500000000002,-0.3792460838243518,-0.917221136471328,0.1193124529955843
4.053000000000004,-0.3355692192931938,-0.8746089227838865,0.1310323389227262
4.0565,-0.2929570056057522,-0.8373234539735316,0.136357338470561
4.060000000000002,-0.2226464166891606,-0.7893844954090034,0.1480754790684509
4.063500000000005,-0.1544686201185061,-0.7648835633695069,0.1555332709622227
4.067,-0.0564614013020165,-0.7329248394362388,0.1704471094205142
4.070500000000003,0.01598023463126,-0.7052264642070888,0.1715135055934827
4.074000000000005,0.1129210572747811,-0.6860505317154271,0.1683160624038291
4.077500000000001,0.180035948330971,-0.6722030894301041,0.166186760716396
4.081000000000003,0.2578025838120824,-0.6562228547988439,0.1576643179789077
4.084499999999999,0.3089354949077603,-0.644504714200954,0.1565979218059392
4.088000000000001,0.3771150368076668,-0.6295908757426625,0.1470108282247343
4.091500000000004,0.4122694586013365,-0.6082838962343158,0.1470108282247343
4.094999999999999,0.4463592295512898,-0.5848476150385359,0.1576643179789077
4.098500000000001,0.464468765869983,-0.5635423808594411,0.1576643179789077
4.102000000000004,0.4676662090596366,-0.5347793547865746,0.1747092034538843
4.105499999999999,0.4612730680095813,-0.5156034222949128,0.1789695521580025
4.109000000000002,0.4335764381096833,-0.492167141099133,0.191754088928861
4.112500000000004,0.3994866671597301,-0.4740576047804398,0.1960144376329791
4.116,0.3462209637181151,-0.4559463231324946,0.1992101354933808
4.119500000000002,0.3014794483432405,-0.4346410889533998,0.2045368803704674
4.123000000000005,0.2407576983371057,-0.397355620143045,0.1970790884766957
4.1265,0.1864273440517743,-0.3771150368076668,0.1938833906162941
4.130000000000003,0.1161167551351827,-0.3728546881035486,0.180035948330971
4.133500000000005,0.0660484948832214,-0.3707236410868635,0.1725781564371993
4.1370000000000005,-0.013849187614575,-0.3590055004889736,0.1565979218059392
4.140500000000003,-0.0735062867769931,-0.3462209637181151,0.1320969897664428
4.1440000000000055,-0.1299659427497577,-0.3270467765557054,0.124639197872671
4.147500000000001,-0.166186760716396,-0.3068061932203272,0.1161167551351827
4.151000000000003,-0.1885583910684593,-0.274847469287059,0.1022693128498597
4.154499999999999,-0.1821652500184041,-0.247149094057909,0.0990718696602061
4.158000000000001,-0.1555332709622227,-0.2290395577392158,0.0916158230956863
4.161500000000004,-0.1043986145372928,-0.2343645572870505,0.0926804739394028
4.164999999999999,-0.0319587239332681,-0.2524758389349957,0.0756355884644262
4.168500000000002,0.0095870935812048,-0.2759121201307756,0.0607217500061347
4.172000000000004,0.0713752397603081,-0.3078708440640437,0.0330233747769847
4.1755,0.1203788491685528,-0.3355692192931938,0.0127827914416064
4.179000000000002,0.2013411825100658,-0.3749839897909817,-0.0031956978604016
4.1825000000000045,0.2524758389349957,-0.4048134120368167,-0.0074577918937717
4.186,0.3153286359578155,-0.4474238803950063,-0.029827676916583
4.189500000000002,0.355809802628572,-0.4783179534845579,-0.029827676916583
4.193000000000005,0.3845728287014385,-0.5134723752782278,-0.0404811666707564
4.1965,0.3898978282492732,-0.5358440056302911,-0.0458079115478431
4.200000000000003,0.3803107346680683,-0.5539552872782363,-0.0468725623915597
4.203500000000005,0.3728546881035486,-0.5741958706136145,-0.0330233747769847
4.207000000000001,0.3462209637181151,-0.5805872663344177,-0.0213052341790947
4.210500000000003,0.3185243338182171,-0.5816519171781342,-0.0117181405978899
4.213999999999999,0.2876302607286655,-0.5827165680218508,0.0170448854749766
4.217500000000001,0.2673896773932873,-0.5752605214573311,0.0319587239332681
4.221000000000004,0.2311688594266489,-0.5422354013510943,0.0458079115478431
4.224499999999999,0.2013411825100658,-0.5326483077698895,0.0575260521457331
4.2280000000000015,0.1821652500184041,-0.5635423808594411,0.0841580312019145
4.231500000000004,0.1672514115601126,-0.5859140112115044,0.1012029166768912
4.234999999999999,0.1480754790684509,-0.6114795940947174,0.1161167551351827
4.238500000000002,0.1320969897664428,-0.6370469223071823,0.1331616406101593
4.242000000000004,0.1278348957330726,-0.6732677402738206,0.1448797812080492
4.2455,0.1171831513081512,-0.7009661155029706,0.1629910628559944
4.249000000000002,0.1022693128498597,-0.7414472821737271,0.1853609478788057
4.252500000000005,0.0820287295144815,-0.7755353077944284,0.1970790884766957
4.256,0.0404811666707564,-0.8298656620797599,0.2109282760912707
4.259500000000003,0.0,-0.8628907821859965,0.2226464166891606
4.263000000000005,-0.0628527970228197,-0.9076322975608712,0.2418223491808223
4.266500000000001,-0.1118564064310645,-0.9417220685108244,0.2492801410745941
4.270000000000003,-0.1896230419121759,-0.9598333501587696,0.2641939795328856
4.273499999999999,-0.2492801410745941,-0.9768764903044942,0.2599318854995155
4.277000000000001,-0.3408942188410284,-0.9715514907566596,0.247149094057909
4.280500000000004,-0.4101401569139035,-0.9598333501587696,0.2354309534600191
4.283999999999999,-0.4964292351325031,-0.947048813387911,0.2109282760912707
4.287500000000001,-0.5454328445407479,-0.928939277069218,0.2002765316663493
4.291000000000004,-0.5923054069323076,-0.8969805531359498,0.1704471094205142
4.294499999999999,-0.628524479569694,-0.8554329902922247,0.1459461773810178
4.298000000000002,-0.6615495996759307,-0.7766017039673969,0.110790010258096
4.301500000000004,-0.6722030894301041,-0.7318584432632703,0.083093380358198
4.305,-0.6626142505196473,-0.6871169278883955,0.0660484948832214
4.308500000000002,-0.642373667184269,-0.6498314590780407,0.0511346564249298
4.312000000000005,-0.5912390107593392,-0.6231994800218592,0.02769837522915
4.3155,-0.5486285424011496,-0.602958896686481,0.0127827914416064
4.319000000000003,-0.4580773701491797,-0.5784562193177326,-0.0042603487041181
4.322500000000005,-0.3867021303888716,-0.5699337765802444,-0.0127827914416064
4.3260000000000005,-0.2791078179911772,-0.5816519171781342,-0.0255673282124649
4.329500000000003,-0.180035948330971,-0.5923054069323076,-0.0266319790561814
4.332999999999998,-0.0511346564249298,-0.616806338971804,-0.029827676916583
4.336500000000001,0.0319587239332681,-0.6477004120613556,-0.0330233747769847
4.340000000000003,0.1171831513081512,-0.6988350684862855,-0.029827676916583
4.343499999999999,0.1725781564371993,-0.7414472821737271,-0.0234362811957798
4.347000000000001,0.2279731615662473,-0.7915155424256883,-0.002131047016685
4.350500000000004,0.2546051406224288,-0.8288010112360433,0.0181095363186931
4.353999999999999,0.2641939795328856,-0.8607597351693115,0.0447432607041266
4.357500000000002,0.2503447919183106,-0.8735442719401699,0.0639174478665363
4.361000000000004,0.2066679273871525,-0.8905874120858945,0.0852244273748831
4.3645,0.1512729222581045,-0.9140254386109264,0.1065296615539778
4.368000000000002,0.069244192743623,-0.9257435792088164,0.1278348957330726
4.371500000000005,0.0,-0.9204168343317296,0.1331616406101593
4.375,-0.1065296615539778,-0.905502995873438,0.136357338470561
4.3785000000000025,-0.1832316461913727,-0.8810003185046897,0.1320969897664428
4.382000000000005,-0.2631275833599171,-0.8298656620797599,0.1203788491685528
4.3855,-0.3089354949077603,-0.8021690321798618,0.1075943123976944
4.389000000000003,-0.3323735214327921,-0.7755353077944284,0.0894847760790012
4.392500000000005,-0.3291760782431385,-0.767014610386192,0.0628527970228197
4.396000000000001,-0.3185243338182171,-0.7755353077944284,0.029827676916583
4.399500000000003,-0.2993484013265554,-0.7840577505319166,-0.01598023463126
4.402999999999999,-0.2631275833599171,-0.7968422873027752,-0.0703088435873395
4.406500000000001,-0.2301042085829324,-0.8053647300402634,-0.1086607085706629
4.410000000000004,-0.1747092034538843,-0.8149518236214683,-0.1565979218059392
4.413499999999999,-0.1278348957330726,-0.820278568498555,-0.1811005991746876
4.417000000000002,-0.0628527970228197,-0.8021690321798618,-0.205601531214184
4.420500000000004,-0.02769837522915,-0.7851241467048852,-0.2226464166891606
4.424,0.0191759324916617,-0.7552947244590501,-0.2396913021641372
4.427500000000002,0.0543303542853314,-0.725467047542467,-0.2524758389349957
4.4310000000000045,0.1033339636935762,-0.683921230027994,-0.2684543282370038
4.4345,0.1448797812080492,-0.6594185526592456,-0.2791078179911772
4.438000000000002,0.1832316461913727,-0.6434400633572375,-0.2940216564494687
4.441500000000005,0.2141239739516723,-0.6455693650446706,-0.3089354949077603
4.445,0.2450180470412239,-0.6295908757426625,-0.3302424744161071
4.448500000000003,0.258867234655799,-0.614677037284371,-0.3547434064556034
4.452000000000005,0.2737810731140905,-0.602958896686481,-0.3792460838243518
4.455500000000001,0.2727164222703739,-0.586978662055221,-0.3888331774055567
4.459000000000003,0.2663250265495707,-0.5464974953844645,-0.3984202709867616
4.462499999999999,0.2620629325162006,-0.533712958613606,-0.4005513180034466
4.466000000000001,0.2535404897787122,-0.5219948180157161,-0.3898978282492732
4.469500000000004,0.2514094427620272,-0.519865516328283,-0.3675279432264619
4.472999999999999,0.2524758389349957,-0.5156034222949128,-0.3302424744161071
4.4765000000000015,0.2641939795328856,-0.5145387714511963,-0.2918906094327836
4.480000000000004,0.2833681666952953,-0.5102766774178261,-0.2407576983371057
4.483499999999999,0.2950880526224372,-0.4985585368199362,-0.2034722295267509
4.487000000000002,0.3110665419244454,-0.4836446983616446,-0.1576643179789077
4.490500000000004,0.3281114273994219,-0.4548816722887781,-0.1203788491685528
4.494,0.3717882919305801,-0.4303807402492817,-0.0767019846373948
4.497500000000002,0.4048134120368167,-0.42292294835551,-0.0468725623915597
4.501000000000005,0.4378367868138015,-0.4314453910929982,-0.0181095363186931
4.5045,0.4410324846742031,-0.4463592295512898,-0.0095870935812048
4.508000000000003,0.4346410889533998,-0.452750625272093,0.0010646508437165
4.511500000000005,0.4239875991992265,-0.4570127193054631,0.0010646508437165
4.515000000000001,0.3994866671597301,-0.4602084171658648,0.0074577918937717
4.518500000000003,0.3771150368076668,-0.4634041150262664,0.0085224427374883
4.521999999999999,0.3387649171535954,-0.4655351620429515,0.0127827914416064
4.525500000000001,0.2972173543098703,-0.4591437663221482,0.0095870935812048
4.529000000000004,0.2002765316663493,-0.4452945787075733,0.0
4.532499999999999,0.124639197872671,-0.4335764381096833,-0.0053267448770866
4.536000000000001,0.0191759324916617,-0.4133358547743051,-0.0106534897541733
4.539500000000004,-0.0617864008498512,-0.3845728287014385,-0.0191759324916617
4.542999999999999,-0.1459461773810178,-0.3430252658577135,-0.0255673282124649
4.546500000000002,-0.1970790884766957,-0.3217200316786187,-0.0308940730895516
4.550000000000004,-0.233299906443334,-0.2929570056057522,-0.0362208179666383
4.5535,-0.2514094427620272,-0.2876302607286655,-0.0447432607041266
4.557000000000002,-0.260998281672484,-0.288694911572382,-0.0543303542853314
4.560500000000005,-0.2567361876391139,-0.2876302607286655,-0.0713752397603081
4.564,-0.2301042085829324,-0.3014794483432405,-0.0809623333415129
4.567500000000003,-0.1949497867892626,-0.3270467765557054,-0.0820287295144815
4.571000000000005,-0.1278348957330726,-0.3451563128743986,-0.0777666354811113
4.5745000000000005,-0.0703088435873395,-0.355809802628572,-0.0713752397603081
4.578000000000003,0.0,-0.3803107346680683,-0.0649838440395048
4.5815000000000055,0.055395005129048,-0.4037470158638482,-0.0564614013020165
4.585000000000001,0.1171831513081512,-0.4495549274116914,-0.0372854688103548
4.588500000000003,0.1576643179789077,-0.4783179534845579,-0.0149138384582915
4.591999999999999,0.1928187397725775,-0.5187991201553145,0.01598023463126
4.595500000000001,0.2087989744038376,-0.5507578440885826,0.0447432607041266
4.599000000000004,0.2109282760912707,-0.5880433128989375,0.0809623333415129
4.602499999999999,0.1928187397725775,-0.6072192453905992,0.1075943123976944
4.606000000000002,0.1555332709622227,-0.6231994800218592,0.1278348957330726
4.609500000000004,0.096942567972773,-0.6402426201675839,0.152337573101821
4.613,0.0245026773687483,-0.6753987872905056,0.1672514115601126
4.616500000000002,-0.0436768645311581,-0.6913772765925138,0.1725781564371993
4.6200000000000045,-0.1480754790684509,-0.7116178599278921,0.1811005991746876
4.6235,-0.219450718828759,-0.7148135577882937,0.180035948330971
4.627000000000002,-0.2823035158515788,-0.7105532090841755,0.1811005991746876
4.630500000000005,-0.3110665419244454,-0.7169446048049787,0.1789695521580025
4.634,-0.3376985209806268,-0.7361205372966404,0.1725781564371993
4.637500000000003,-0.3547434064556034,-0.7563611206320187,0.166186760716396
4.641000000000005,-0.3632658491930918,-0.7744706569507118,0.1427504795206162
4.644500000000001,-0.3600701513326901,-0.7851241467048852,0.1235745470289545
4.648000000000003,-0.3451563128743986,-0.80642938088398,0.096942567972773
4.651499999999999,-0.3259803803827369,-0.8213432193422715,0.0820287295144815
4.655000000000001,-0.3014794483432405,-0.8309320582527283,0.0596570991624181
4.658500000000004,-0.2823035158515788,-0.8288010112360433,0.0394165158270399
4.661999999999999,-0.2546051406224288,-0.8192139176548384,0.0234362811957798
4.6655000000000015,-0.2247774637058457,-0.8000379851631767,0.0095870935812048
4.669000000000004,-0.1842962970350892,-0.7797974018277984,0.002131047016685
4.672499999999999,-0.1331616406101593,-0.7702103082465936,0.0
4.676000000000002,-0.0820287295144815,-0.7723396099340267,-0.0031956978604016
4.679500000000004,-0.0585907029894496,-0.7744706569507118,-0.0031956978604016
4.683,-0.0213052341790947,-0.7872551937215703,0.0010646508437165
4.686500000000002,-0.0074577918937717,-0.7872551937215703,0.0010646508437165
4.690000000000005,0.0,-0.7925801932694049,0.0085224427374883
4.6935,0.0063913957208032,-0.7936465894423735,0.01598023463126
4.697000000000003,-0.0063913957208032,-0.8021690321798618,0.0255673282124649
4.700500000000005,-0.013849187614575,-0.7989733343194602,0.0340897709499532
4.704000000000001,-0.041545817514473,-0.7957776364590586,0.0436768645311581
4.707500000000003,-0.0809623333415129,-0.7989733343194602,0.0468725623915597
4.710999999999999,-0.1374237346435295,-0.8138871727777518,0.0639174478665363
4.714500000000001,-0.1725781564371993,-0.8160182197944368,0.0809623333415129
4.718000000000004,-0.2024058333537824,-0.8085604279006651,0.1097253594143795
4.721499999999999,-0.2130593231079557,-0.7883198445652868,0.124639197872671
4.725000000000001,-0.2269085107225308,-0.7606214693361367,0.1576643179789077
4.728500000000004,-0.2343645572870505,-0.7350541411236718,0.1725781564371993
4.731999999999999,-0.233299906443334,-0.6935083236091989,0.1885583910684593
4.735500000000002,-0.2205171150017275,-0.670072042413419,0.1885583910684593
4.739000000000004,-0.1960144376329791,-0.6572875056425604,0.1938833906162941
4.7425,-0.1757738542976009,-0.6434400633572375,0.1896230419121759
4.746000000000002,-0.1534022239455376,-0.6274598287259775,0.1768385051413174
4.749500000000005,-0.1320969897664428,-0.6136106411114024,0.1672514115601126
4.753,-0.0884201252352847,-0.5827165680218508,0.1555332709622227
4.756500000000003,-0.0543303542853314,-0.5528888911052677,0.1438151303643327
4.760000000000005,-0.0394165158270399,-0.517734469311598,0.1320969897664428
4.7635000000000005,-0.0319587239332681,-0.5006895838366213,0.1225098961852379
4.767000000000003,-0.0010646508437165,-0.4697955107470696,0.1193124529955843
4.770499999999998,0.0223716303520633,-0.4410324846742031,0.1182478021518678
4.774000000000001,0.0426122136874415,-0.4218582975117934,0.124639197872671
4.777500000000003,0.0564614013020165,-0.4335764381096833,0.1310323389227262
4.780999999999999,0.0607217500061347,-0.4410324846742031,0.138488385487246
4.784500000000001,0.0585907029894496,-0.4399678338304866,0.1374237346435295
4.788000000000004,0.0490036094082447,-0.452750625272093,0.1416840833476476
4.791499999999999,0.0319587239332681,-0.452750625272093,0.1406194325039311
4.795000000000002,0.0181095363186931,-0.4634041150262664,0.1352926876268444
4.798500000000004,-0.0063913957208032,-0.4634041150262664,0.1299659427497577
4.802,-0.0383501196540714,-0.4463592295512898,0.1193124529955843
4.805500000000002,-0.0575260521457331,-0.4367721359700849,0.1097253594143795
4.809000000000005,-0.0681795418999064,-0.4165315526347067,0.1097253594143795
4.8125,-0.0756355884644262,-0.4037470158638482,0.1043986145372928
4.8160000000000025,-0.0862890782185996,-0.3994866671597301,0.1075943123976944
4.819500000000005,-0.0820287295144815,-0.3930952714389268,0.1150521042914662
4.823,-0.0585907029894496,-0.3717882919305801,0.1374237346435295
4.826500000000003,-0.0372854688103548,-0.3707236410868635,0.1512729222581045
4.830000000000005,0.0,-0.3685925940701784,0.1768385051413174
4.833500000000001,0.0234362811957798,-0.3707236410868635,0.191754088928861
4.837000000000003,0.041545817514473,-0.38350643252847,0.2087989744038376
4.840499999999999,0.0426122136874415,-0.3930952714389268,0.2226464166891606
4.844000000000001,0.0436768645311581,-0.4207919013388249,0.2439533961975074
4.847500000000004,0.0426122136874415,-0.4516859744283765,0.2641939795328856
4.850999999999999,0.029827676916583,-0.4964292351325031,0.2908259585890671
4.854500000000002,0.0127827914416064,-0.5294526099094878,0.3100018910807288
4.858000000000004,-0.0063913957208032,-0.5688691257365278,0.3270467765557054
4.8615,-0.0362208179666383,-0.5955011047927092,0.3366338701369103
4.865000000000002,-0.0788312863248278,-0.6370469223071823,0.3334381722765087
4.8685000000000045,-0.1182478021518678,-0.6594185526592456,0.3313071252598236
4.872,-0.1672514115601126,-0.6871169278883955,0.3185243338182171
4.875500000000002,-0.2013411825100658,-0.7180110009779472,0.3089354949077603
4.879000000000005,-0.2290395577392158,-0.7627525163528219,0.2940216564494687
4.8825,-0.2460844432141925,-0.7893844954090034,0.2705853752536888
4.886000000000003,-0.2567361876391139,-0.8021690321798618,0.2375620004767041
4.889500000000005,-0.2546051406224288,-0.8128207766047831,0.2098636252475541
4.893000000000001,-0.2205171150017275,-0.8266699642193582,0.1736428072809158
4.896500000000003,-0.1906876927558924,-0.8213432193422715,0.1427504795206162
4.899999999999999,-0.1576643179789077,-0.8117561257610666,0.0820287295144815
4.903500000000001,-0.1438151303643327,-0.8053647300402634,0.0468725623915597
4.907000000000004,-0.1065296615539778,-0.7915155424256883,-0.013849187614575
4.910499999999999,-0.0671131457269379,-0.7648835633695069,-0.0500682602519613
4.9140000000000015,-0.0031956978604016,-0.7382515843133254,-0.1022693128498597
4.917500000000004,0.041545817514473,-0.727598094559152,-0.1374237346435295
4.920999999999999,0.0958761717998045,-0.7052264642070888,-0.1789695521580025
4.924500000000002,0.1448797812080492,-0.6817901830113089,-0.2034722295267509
4.928000000000004,0.2034722295267509,-0.6519625060947258,-0.2311688594266489
4.9315,0.2482137449016255,-0.6359822714634658,-0.2407576983371057
4.935000000000002,0.2982837504828389,-0.6189373859884891,-0.247149094057909
4.938500000000005,0.3174579376452486,-0.6018925005135125,-0.2428870000245388
4.942,0.3302424744161071,-0.5763251723010476,-0.2301042085829324
4.945500000000003,0.3451563128743986,-0.5763251723010476,-0.2173214171413259
4.949000000000005,0.3376985209806268,-0.5805872663344177,-0.1874919948954908
4.952500000000001,0.3036087500306735,-0.5827165680218508,-0.1651203645434275
4.956000000000003,0.2418223491808223,-0.5741958706136145,-0.1342280367831279
4.959499999999999,0.1832316461913727,-0.5603466829990394,-0.1086607085706629
4.963000000000001,0.1129210572747811,-0.5454328445407479,-0.0628527970228197
4.966500000000004,0.0511346564249298,-0.5496931932448661,-0.029827676916583
4.969999999999999,-0.0436768645311581,-0.5422354013510943,0.0117181405978899
4.973500000000001,-0.1171831513081512,-0.5283879590657713,0.0436768645311581
4.977000000000004,-0.2503447919183106,-0.4985585368199362,0.083093380358198
4.980499999999999,-0.341960615013997,-0.4506213235846599,0.1193124529955843
4.984000000000002,-0.4197272504951083,-0.3622011983493752,0.1683160624038291
4.987500000000004,-0.4665998128866681,-0.314262239784847,0.2024058333537824
4.991,-0.5358440056302911,-0.302544099186957,0.2535404897787122
4.994500000000002,-0.5933700577760241,-0.2876302607286655,0.2844345628682639
4.998000000000005,-0.6604849488322142,-0.2546051406224288,0.3100018910807288
5.0015,-0.6935083236091989,-0.2364956043037356,0.3259803803827369
5.005000000000003,-0.7126842561008605,-0.2396913021641372,0.3430252658577135
5.008500000000005,-0.7222713496820654,-0.2428870000245388,0.3515477085952018
5.0120000000000005,-0.723336000525782,-0.2428870000245388,0.3345028231202252
5.015500000000003,-0.7020307663466872,-0.233299906443334,0.3078708440640437
5.0190000000000055,-0.6796591359946239,-0.2151903701246408,0.260998281672484
5.022500000000001,-0.6508961099217573,-0.2119946722642392,0.2183860679850424
5.026000000000003,-0.5891097090719061,-0.2034722295267509,0.1544686201185061
5.029499999999999,-0.5326483077698895,-0.1970790884766957,0.110790010258096
5.033000000000001,-0.4271832970596281,-0.1832316461913727,0.0521993072686464
5.036500000000004,-0.3430252658577135,-0.1672514115601126,0.0
5.039999999999999,-0.2364956043037356,-0.1576643179789077,-0.0575260521457331
5.043500000000002,-0.152337573101821,-0.1352926876268444,-0.0905494269227178
5.047000000000004,-0.0170448854749766,-0.0756355884644262,-0.1406194325039311
5.0505,0.0884201252352847,-0.055395005129048,-0.166186760716396
5.054000000000002,0.2290395577392158,-0.0745709376207097,-0.1704471094205142
5.0575000000000045,0.3302424744161071,-0.1012029166768912,-0.1704471094205142
5.061,0.452750625272093,-0.1406194325039311,-0.1747092034538843
5.064500000000002,0.5230612141886847,-0.1608600158393093,-0.1757738542976009
5.068000000000005,0.5944364539489927,-0.1928187397725775,-0.1651203645434275
5.0715,0.642373667184269,-0.2258421145495622,-0.1534022239455376
5.075000000000003,0.6732677402738206,-0.2514094427620272,-0.1203788491685528
5.078500000000005,0.6849858808717105,-0.2769767709744921,-0.0990718696602061
5.082000000000001,0.6785944851509074,-0.3089354949077603,-0.0756355884644262
5.085500000000003,0.6402426201675839,-0.3206536355056502,-0.0575260521457331
5.088999999999999,0.5571509851386378,-0.3451563128743986,-0.0490036094082447
5.092500000000001,0.4793843496575265,-0.3632658491930918,-0.0319587239332681
5.096000000000004,0.3590055004889736,-0.3813771308410369,-0.0181095363186931
5.099499999999999,0.2663250265495707,-0.397355620143045,-0.0063913957208032
5.1030000000000015,0.1438151303643327,-0.4186608543221398,0.0042603487041181
5.106500000000004,0.0394165158270399,-0.4314453910929982,0.0063913957208032
5.109999999999999,-0.096942567972773,-0.4261186462159115,0.0
5.113500000000002,-0.1992101354933808,-0.4197272504951083,-0.0010646508437165
5.117000000000004,-0.3302424744161071,-0.3643322453660603,-0.0106534897541733
5.1205,-0.4058780628805333,-0.2972173543098703,-0.0234362811957798
5.124000000000002,-0.4708619069200382,-0.2514094427620272,-0.0308940730895516
5.127500000000005,-0.517734469311598,-0.2311688594266489,-0.0362208179666383
5.131,-0.5539552872782363,-0.1864273440517743,-0.0585907029894496
5.134500000000003,-0.5496931932448661,-0.1597953649955928,-0.0745709376207097
5.138000000000005,-0.4996249329929048,-0.1161167551351827,-0.0905494269227178
5.141500000000001,-0.4357057397971164,-0.0894847760790012,-0.1065296615539778
5.145000000000003,-0.3334381722765087,-0.0575260521457331,-0.1289012919060412
5.148499999999999,-0.2439533961975074,-0.02769837522915,-0.1491418752414194
5.152000000000001,-0.1012029166768912,-0.0010646508437165,-0.177904901314286
5.155500000000004,0.0213052341790947,0.0063913957208032,-0.1896230419121759
5.158999999999999,0.1789695521580025,0.0181095363186931,-0.2087989744038376
5.162500000000001,0.2897613077453506,0.02769837522915,-0.2258421145495622
5.166000000000004,0.42292294835551,0.0330233747769847,-0.2428870000245388
5.169499999999999,0.5113430735907947,0.0372854688103548,-0.2546051406224288
5.173000000000002,0.6040235475301975,0.0436768645311581,-0.2695207244099723
5.176500000000004,0.6477004120613556,0.055395005129048,-0.2823035158515788
5.18,0.6690056462404504,0.0767019846373948,-0.2918906094327836
5.183500000000002,0.6711366932571355,0.1012029166768912,-0.2940216564494687
5.187000000000005,0.6508961099217573,0.1374237346435295,-0.302544099186957
5.1905,0.6125459902676859,0.150206526085136,-0.2929570056057522
5.194000000000003,0.5369104018032596,0.1725781564371993,-0.2929570056057522
5.197500000000005,0.4602084171658648,0.1842962970350892,-0.2876302607286655
5.2010000000000005,0.3334381722765087,0.2034722295267509,-0.286565609884949
5.204500000000003,0.2354309534600191,0.2183860679850424,-0.2791078179911772
5.207999999999998,0.0894847760790012,0.2418223491808223,-0.2673896773932873
5.211500000000001,-0.0170448854749766,0.2641939795328856,-0.2546051406224288
5.215000000000003,-0.1331616406101593,0.2993484013265554,-0.219450718828759
5.218499999999999,-0.1928187397725775,0.3430252658577135,-0.191754088928861
5.222000000000001,-0.2673896773932873,0.3962909692993285,-0.1597953649955928
5.225500000000004,-0.3121311927681619,0.4197272504951083,-0.1320969897664428
5.228999999999999,-0.3270467765557054,0.4559463231324946,-0.1022693128498597
5.232500000000002,-0.316393286801532,0.4847093492053612,-0.0809623333415129
5.236000000000004,-0.2940216564494687,0.503885281697023,-0.0649838440395048
5.2395,-0.2684543282370038,0.4911024902554164,-0.0500682602519613
5.243000000000002,-0.2215817658454441,0.4751222556241564,-0.0458079115478431
5.246500000000005,-0.177904901314286,0.4665998128866681,-0.0319587239332681
5.25,-0.1086607085706629,0.452750625272093,-0.0191759324916617
5.2535000000000025,-0.055395005129048,0.4474238803950063,-0.0106534897541733
5.257000000000005,0.0245026773687483,0.4452945787075733,0.0042603487041181
5.2605,0.0798976824977964,0.4335764381096833,0.0245026773687483
5.264000000000003,0.1374237346435295,0.4186608543221398,0.0426122136874415
5.267500000000005,0.1715135055934827,0.4016177141764152,0.0543303542853314
5.271000000000001,0.1992101354933808,0.3813771308410369,0.0639174478665363
5.274500000000003,0.2077325782308691,0.3717882919305801,0.0703088435873395
5.277999999999999,0.1981454846496642,0.3526141047681703,0.0809623333415129
5.281500000000001,0.1683160624038291,0.3323735214327921,0.0798976824977964
5.285000000000004,0.1193124529955843,0.3110665419244454,0.0862890782185996
5.288499999999999,0.0745709376207097,0.3131975889411305,0.0841580312019145
5.292000000000002,0.0031956978604016,0.3206536355056502,0.0724398906040246
5.295500000000004,-0.0607217500061347,0.3206536355056502,0.0628527970228197
5.299,-0.1651203645434275,0.3323735214327921,0.0500682602519613
5.302500000000002,-0.2269085107225308,0.3462209637181151,0.0468725623915597
5.3060000000000045,-0.3089354949077603,0.3675279432264619,0.0394165158270399
5.3095,-0.355809802628572,0.3941599222826434,0.0362208179666383
5.313000000000002,-0.4005513180034466,0.4101401569139035,0.0340897709499532
5.316500000000005,-0.4165315526347067,0.4186608543221398,0.0287630260728665
5.32,-0.4207919013388249,0.4474238803950063,0.0223716303520633
5.323500000000003,-0.41120480775762,0.4665998128866681,0.0191759324916617
5.327000000000005,-0.3526141047681703,0.4591437663221482,0.0202405833353782
5.330500000000001,-0.2876302607286655,0.4516859744283765,0.0223716303520633
5.334000000000003,-0.1874919948954908,0.4442281825346047,0.0202405833353782
5.337499999999999,-0.1086607085706629,0.4410324846742031,0.0117181405978899
5.341000000000001,0.0127827914416064,0.4442281825346047,0.0031956978604016
5.344500000000004,0.1001382658331746,0.4559463231324946,-0.0095870935812048
5.347999999999999,0.2215817658454441,0.4591437663221482,-0.0191759324916617
5.3515000000000015,0.3078708440640437,0.4431635316908882,-0.0287630260728665
5.355000000000004,0.4026823650201317,0.4420988808471717,-0.0351544217936697
5.358499999999999,0.4655351620429515,0.4367721359700849,-0.0436768645311581
5.362000000000002,0.5262569120490862,0.4378367868138015,-0.0511346564249298
5.365500000000004,0.5582156359823544,0.4314453910929982,-0.0490036094082447
5.369,0.5720648235969293,0.425053995372195,-0.0490036094082447
5.372500000000002,0.5667380787198427,0.4144005056180216,-0.0436768645311581
5.376000000000005,0.5379750526469761,0.3984202709867616,-0.0372854688103548
5.3795,0.4996249329929048,0.38350643252847,-0.0266319790561814
5.383000000000003,0.4218582975117934,0.3600701513326901,-0.013849187614575
5.386500000000005,0.3430252658577135,0.3313071252598236,-0.0063913957208032
5.390000000000001,0.2215817658454441,0.2982837504828389,0.0
5.393500000000003,0.1235745470289545,0.2727164222703739,0.01598023463126
5.396999999999999,-0.0117181405978899,0.2567361876391139,0.0372854688103548
5.400500000000001,-0.1086607085706629,0.2599318854995155,0.0479389585645282
5.404000000000004,-0.2482137449016255,0.288694911572382,0.0607217500061347
5.407499999999999,-0.3611348021764067,0.316393286801532,0.0681795418999064
5.411000000000001,-0.5102766774178261,0.3515477085952018,0.0862890782185996
5.414500000000004,-0.5827165680218508,0.3898978282492732,0.1097253594143795
5.417999999999999,-0.6455693650446706,0.4847093492053612,0.1267702448893561
5.421500000000002,-0.6690056462404504,0.5454328445407479,0.1438151303643327
5.425000000000004,-0.6572875056425604,0.5880433128989375,0.1725781564371993
5.4285,-0.6274598287259775,0.6040235475301975,0.2013411825100658
5.432000000000002,-0.5507578440885826,0.6381133184801508,0.2205171150017275
5.435500000000005,-0.4751222556241564,0.6647452975363323,0.2354309534600191
5.439,-0.3451563128743986,0.6967040214696004,0.2546051406224288
5.442500000000003,-0.2418223491808223,0.723336000525782,0.2641939795328856
5.446000000000005,-0.1054650107102613,0.7947112402860901,0.2663250265495707
5.4495000000000005,-0.0191759324916617,0.8373234539735316,0.2641939795328856
5.453000000000003,0.0980072188164895,0.8575640373089098,0.2833681666952953
5.4565000000000055,0.1842962970350892,0.8628907821859965,0.300413052170272
5.460000000000001,0.2663250265495707,0.8767399698005716,0.3227846825223353
5.463500000000003,0.314262239784847,0.889522761242178,0.3302424744161071
5.466999999999999,0.3526141047681703,0.9065676467171546,0.3536787556118869
5.470500000000001,0.3590055004889736,0.917221136471328,0.3611348021764067
5.474000000000004,0.3472873598910836,0.9257435792088164,0.3781796876513833
5.477499999999999,0.3302424744161071,0.9417220685108244,0.3813771308410369
5.481000000000002,0.2546051406224288,0.9598333501587696,0.3781796876513833
5.484500000000004,0.1757738542976009,0.9640936988628878,0.3707236410868635
5.488,0.0628527970228197,0.952375558264998,0.3739193389472651
5.491500000000002,-0.0287630260728665,0.9513109074212812,0.3685925940701784
5.4950000000000045,-0.1608600158393093,0.986465329214951,0.3515477085952018
5.4985,-0.2620629325162006,1.0237507980253058,0.3302424744161071
5.502000000000002,-0.4026823650201317,1.0908639437522438,0.302544099186957
5.505500000000005,-0.5006895838366213,1.1483899958979769,0.2833681666952953
5.509,-0.6210684330051742,1.2229609335186866,0.2620629325162006
5.512500000000003,-0.6455693650446706,1.2783559386477348,0.2641939795328856
5.516000000000005,-0.6061545945468827,1.3571889703018147,0.2578025838120824
5.519500000000001,-0.5454328445407479,1.399799438660004,0.2482137449016255
5.523000000000003,-0.4282496932325966,1.427497813889154,0.2439533961975074
5.526499999999999,-0.316393286801532,1.4253667668724692,0.2364956043037356
5.530000000000001,-0.1331616406101593,1.4019304856766894,0.219450718828759
5.533500000000004,0.0223716303520633,1.379558855324626,0.2098636252475541
5.536999999999999,0.2492801410745941,1.3593182719892478,0.1885583910684593
5.5405000000000015,0.4154651564617382,1.3497311784080428,0.1768385051413174
5.544000000000004,0.616806338971804,1.3593182719892478,0.1544686201185061
5.547499999999999,0.7457076308778453,1.3550579232851294,0.1459461773810178
5.551000000000002,0.8991098548233829,1.332686292933066,0.1534022239455376
5.554500000000004,0.996052422796156,1.3156414074580896,0.166186760716396
5.558,1.0855371988751572,1.2836826835248214,0.1736428072809158
5.561500000000002,1.1164312719647087,1.2527886104352697,0.1832316461913727
5.565000000000005,1.124953714702197,1.215503141624915,0.191754088928861
5.5685,1.1079088292272203,1.1846108138646152,0.191754088928861
5.572000000000003,1.0482517300648024,1.1547813916187804,0.1938833906162941
5.575500000000005,0.986465329214951,1.130280459579284,0.1960144376329791
5.579000000000001,0.875673573627603,1.092994990768929,0.1896230419121759
5.582500000000003,0.7766017039673969,1.0621009176793774,0.1853609478788057
5.585999999999999,0.6210684330051742,1.0205551001649042,0.1651203645434275
5.589500000000001,0.4697955107470696,0.9875299800586675,0.150206526085136
5.593000000000004,0.2503447919183106,0.940657417667108,0.1289012919060412
