time,Gyr_X,Gyr_Y,Gyr_Z
0.0,0.0255673282124649,-0.0202405833353782,0.002131047016685
0.0035000000000025,0.0095870935812048,0.0095870935812048,0.0
0.0069999999999978,-0.0042603487041181,0.0287630260728665,0.0031956978604016
0.0105000000000003,-0.0234362811957798,0.0340897709499532,0.002131047016685
0.0140000000000028,-0.0255673282124649,0.0234362811957798,-0.0010646508437165
0.0174999999999982,-0.0117181405978899,-0.0042603487041181,0.0010646508437165
0.0210000000000007,0.0,-0.0245026773687483,0.002131047016685
0.0245000000000032,0.0085224427374883,-0.0213052341790947,0.002131047016685
0.0279999999999986,0.0149138384582915,0.002131047016685,0.0042603487041181
0.0315000000000011,0.0266319790561814,0.0404811666707564,0.002131047016685
0.0350000000000036,0.02769837522915,0.055395005129048,-0.0053267448770866
0.038499999999999,0.0319587239332681,0.0735062867769931,-0.002131047016685
0.0420000000000015,0.0223716303520633,0.0788312863248278,-0.0031956978604016
0.045500000000004,0.0106534897541733,0.0724398906040246,-0.0106534897541733
0.0489999999999994,-0.0010646508437165,0.0649838440395048,-0.0106534897541733
0.0525000000000019,-0.0085224427374883,0.0596570991624181,-0.013849187614575
0.0559999999999973,-0.0042603487041181,0.0532657034416149,-0.0149138384582915
0.0594999999999998,0.0010646508437165,0.0575260521457331,-0.013849187614575
0.0630000000000023,-0.002131047016685,0.0639174478665363,-0.0127827914416064
0.0664999999999977,-0.0170448854749766,0.0639174478665363,-0.0170448854749766
0.0700000000000002,-0.0287630260728665,0.0628527970228197,-0.0149138384582915
0.0735000000000027,-0.0351544217936697,0.0490036094082447,-0.0234362811957798
0.0769999999999981,-0.0394165158270399,0.0404811666707564,-0.029827676916583
0.0805000000000006,-0.0426122136874415,0.0234362811957798,-0.0319587239332681
0.0840000000000031,-0.0404811666707564,0.0127827914416064,-0.0287630260728665
0.0874999999999985,-0.0330233747769847,-0.0042603487041181,-0.0255673282124649
0.091000000000001,-0.0223716303520633,-0.0234362811957798,-0.0202405833353782
0.0945000000000035,-0.0031956978604016,-0.0436768645311581,-0.0191759324916617
0.0979999999999989,0.0117181405978899,-0.0585907029894496,-0.013849187614575
0.1015000000000014,0.0308940730895516,-0.0671131457269379,-0.0042603487041181
0.1050000000000039,0.0372854688103548,-0.0703088435873395,0.0
0.1084999999999993,0.041545817514473,-0.0639174478665363,0.0042603487041181
0.1120000000000018,0.0362208179666383,-0.0575260521457331,0.0117181405978899
0.1154999999999972,0.0234362811957798,-0.0479389585645282,0.0117181405978899
0.1189999999999997,0.0117181405978899,-0.0372854688103548,0.0106534897541733
0.1225000000000022,-0.0117181405978899,-0.0202405833353782,0.0042603487041181
0.1259999999999976,-0.0191759324916617,-0.0117181405978899,0.0063913957208032
0.1295000000000001,-0.0255673282124649,0.002131047016685,0.0095870935812048
0.1330000000000026,-0.0234362811957798,0.0031956978604016,0.0117181405978899
0.136499999999998,-0.0170448854749766,0.0063913957208032,0.0127827914416064
0.1400000000000005,-0.0031956978604016,0.0031956978604016,0.0127827914416064
0.143500000000003,0.0063913957208032,0.0,0.0149138384582915
0.1469999999999984,0.0085224427374883,0.0,0.0117181405978899
0.1505000000000009,0.0149138384582915,-0.0010646508437165,0.0031956978604016
0.1540000000000034,0.0117181405978899,-0.002131047016685,0.0042603487041181
0.1574999999999988,0.002131047016685,0.0042603487041181,0.002131047016685
0.1610000000000013,0.0010646508437165,0.0042603487041181,0.0053267448770866
0.1645000000000038,-0.0074577918937717,0.0074577918937717,0.0010646508437165
0.1679999999999992,-0.0085224427374883,0.0,0.002131047016685
0.1715000000000017,-0.01598023463126,-0.0085224427374883,-0.0031956978604016
0.1749999999999971,-0.0149138384582915,-0.0170448854749766,-0.0031956978604016
0.1784999999999996,-0.0117181405978899,-0.0245026773687483,0.0
0.1820000000000021,-0.0063913957208032,-0.0202405833353782,0.0010646508437165
0.1854999999999975,-0.0010646508437165,-0.01598023463126,0.002131047016685
0.189,-0.0042603487041181,-0.0127827914416064,-0.002131047016685
0.1925000000000025,-0.0042603487041181,-0.0031956978604016,-0.0042603487041181
0.1959999999999979,-0.0010646508437165,-0.0010646508437165,-0.0031956978604016
0.1995000000000004,-0.002131047016685,-0.0042603487041181,-0.002131047016685
0.2030000000000029,-0.0031956978604016,0.0,0.0010646508437165
0.2064999999999983,0.0010646508437165,0.0010646508437165,-0.0010646508437165
0.2100000000000008,0.0,0.0,-0.0042603487041181
0.2135000000000033,0.0063913957208032,0.0031956978604016,-0.0010646508437165
0.2169999999999987,0.002131047016685,0.0106534897541733,0.0
0.2205000000000012,0.0106534897541733,0.0095870935812048,-0.0031956978604016
0.2240000000000037,0.0127827914416064,0.0170448854749766,-0.0063913957208032
0.2274999999999991,0.0095870935812048,0.0245026773687483,-0.0010646508437165
0.2310000000000016,0.0085224427374883,0.0266319790561814,-0.002131047016685
0.234499999999997,0.0063913957208032,0.0287630260728665,0.0
0.2379999999999995,0.0042603487041181,0.02769837522915,-0.0053267448770866
0.241500000000002,0.0074577918937717,0.029827676916583,-0.0010646508437165
0.2449999999999974,0.0085224427374883,0.0255673282124649,-0.0042603487041181
0.2484999999999999,0.0085224427374883,0.0234362811957798,-0.002131047016685
0.2520000000000024,0.0053267448770866,0.0255673282124649,-0.0031956978604016
0.2554999999999978,0.0,0.0202405833353782,-0.0095870935812048
0.2590000000000003,-0.0063913957208032,0.0181095363186931,-0.0053267448770866
0.2625000000000028,-0.0085224427374883,0.0106534897541733,-0.0074577918937717
0.2659999999999982,-0.0106534897541733,0.0,-0.0095870935812048
0.2695000000000007,-0.0127827914416064,-0.0042603487041181,-0.0085224427374883
0.2730000000000032,-0.0127827914416064,-0.0127827914416064,-0.0085224427374883
0.2764999999999986,-0.013849187614575,-0.0202405833353782,-0.0085224427374883
0.2800000000000011,-0.0095870935812048,-0.0191759324916617,-0.0074577918937717
0.2835000000000036,-0.0053267448770866,-0.0117181405978899,-0.0031956978604016
0.286999999999999,-0.002131047016685,-0.0106534897541733,0.0
0.2905000000000015,0.0042603487041181,0.0010646508437165,0.0010646508437165
0.294000000000004,0.0,0.0106534897541733,0.0053267448770866
0.2974999999999994,0.0031956978604016,0.0213052341790947,0.0095870935812048
0.3010000000000019,0.0,0.0319587239332681,0.01598023463126
0.3044999999999973,-0.002131047016685,0.0500682602519613,0.0191759324916617
0.3079999999999998,0.002131047016685,0.0617864008498512,0.0213052341790947
0.3115000000000023,0.0053267448770866,0.0884201252352847,0.0266319790561814
0.3149999999999977,0.0245026773687483,0.1075943123976944,0.0223716303520633
0.3185000000000002,0.0479389585645282,0.1267702448893561,0.0149138384582915
0.3220000000000027,0.0596570991624181,0.1470108282247343,0.0170448854749766
0.3254999999999981,0.0671131457269379,0.1715135055934827,0.0191759324916617
0.3290000000000006,0.0905494269227178,0.1811005991746876,0.0170448854749766
0.3325000000000031,0.1118564064310645,0.1906876927558924,0.0117181405978899
0.3359999999999985,0.1065296615539778,0.1992101354933808,0.013849187614575
0.339500000000001,0.0809623333415129,0.205601531214184,0.0127827914416064
0.3430000000000035,0.0564614013020165,0.2151903701246408,0.0117181405978899
0.3464999999999989,0.0181095363186931,0.219450718828759,0.0117181405978899
0.3500000000000014,-0.0053267448770866,0.2151903701246408,0.0106534897541733
0.3535000000000039,0.0063913957208032,0.1874919948954908,-0.002131047016685
0.3569999999999993,0.0383501196540714,0.1555332709622227,-0.0074577918937717
0.3605000000000018,0.0351544217936697,0.1086607085706629,-0.0095870935812048
0.3639999999999972,-0.002131047016685,0.0724398906040246,-0.01598023463126
0.3674999999999997,-0.0308940730895516,0.0362208179666383,-0.0149138384582915
0.3710000000000022,-0.0266319790561814,-0.002131047016685,-0.0149138384582915
0.3744999999999976,-0.0362208179666383,-0.0628527970228197,-0.0202405833353782
0.3780000000000001,-0.0255673282124649,-0.0873537290623162,-0.0308940730895516
0.3815000000000026,-0.0490036094082447,-0.1086607085706629,-0.0255673282124649
0.384999999999998,-0.0894847760790012,-0.1267702448893561,-0.0245026773687483
0.3885000000000005,-0.1267702448893561,-0.1406194325039311,-0.0362208179666383
0.392000000000003,-0.1225098961852379,-0.1427504795206162,-0.0436768645311581
0.3954999999999984,-0.0798976824977964,-0.1534022239455376,-0.0458079115478431
0.3990000000000009,-0.0330233747769847,-0.1534022239455376,-0.0436768645311581
0.4025000000000034,0.0074577918937717,-0.150206526085136,-0.0458079115478431
0.4059999999999988,0.01598023463126,-0.1427504795206162,-0.0490036094082447
0.4095000000000013,0.0085224427374883,-0.1289012919060412,-0.0479389585645282
0.4130000000000038,-0.0031956978604016,-0.1150521042914662,-0.0468725623915597
0.4164999999999992,-0.0234362811957798,-0.0905494269227178,-0.0394165158270399
0.4200000000000017,-0.0308940730895516,-0.0735062867769931,-0.0372854688103548
0.4234999999999971,-0.041545817514473,-0.0426122136874415,-0.0191759324916617
0.4269999999999996,-0.0543303542853314,-0.0213052341790947,-0.0063913957208032
0.4305000000000021,-0.0585907029894496,0.0074577918937717,0.0085224427374883
0.4339999999999975,-0.0585907029894496,0.0074577918937717,0.0085224427374883
0.4375,-0.0585907029894496,0.0074577918937717,0.0085224427374883
0.4410000000000025,-0.0585907029894496,0.0074577918937717,0.0085224427374883
0.4444999999999979,0.0095870935812048,0.138488385487246,0.0245026773687483
0.4480000000000004,0.0383501196540714,0.1597953649955928,0.02769837522915
0.4515000000000029,0.0671131457269379,0.1725781564371993,0.0447432607041266
0.4549999999999983,0.0894847760790012,0.1725781564371993,0.0490036094082447
0.4585000000000008,0.0948115209560879,0.166186760716396,0.0330233747769847
0.4620000000000033,0.0852244273748831,0.1640557136997109,0.0106534897541733
0.4654999999999987,0.0660484948832214,0.152337573101821,-0.0149138384582915
0.4690000000000012,0.0372854688103548,0.1427504795206162,-0.0245026773687483
0.4725000000000037,0.0127827914416064,0.1054650107102613,-0.0234362811957798
0.4759999999999991,-0.0149138384582915,0.0777666354811113,-0.0202405833353782
0.4795000000000016,-0.0532657034416149,0.0479389585645282,-0.0053267448770866
0.4830000000000041,-0.0628527970228197,0.0372854688103548,-0.0010646508437165
0.4864999999999995,-0.0521993072686464,0.0245026773687483,-0.0063913957208032
0.490000000000002,-0.0266319790561814,0.0117181405978899,-0.0074577918937717
0.4934999999999974,0.0127827914416064,-0.01598023463126,-0.0149138384582915
0.4969999999999999,0.0255673282124649,-0.0340897709499532,-0.0149138384582915
0.5005000000000024,0.0287630260728665,-0.0543303542853314,-0.0117181405978899
0.5039999999999978,0.02769837522915,-0.0649838440395048,-0.0085224427374883
0.5075000000000003,0.0255673282124649,-0.0852244273748831,-0.0085224427374883
0.5110000000000028,0.0202405833353782,-0.096942567972773,-0.0106534897541733
0.5144999999999982,0.0,-0.110790010258096,-0.0181095363186931
0.5180000000000007,-0.0245026773687483,-0.1235745470289545,-0.0234362811957798
0.5215000000000032,-0.0490036094082447,-0.1406194325039311,-0.0287630260728665
0.5249999999999986,-0.0564614013020165,-0.1491418752414194,-0.0319587239332681
0.5285000000000011,-0.0543303542853314,-0.1608600158393093,-0.0362208179666383
0.5320000000000036,-0.0426122136874415,-0.166186760716396,-0.0372854688103548
0.535499999999999,-0.0223716303520633,-0.1587289688226243,-0.0340897709499532
0.5390000000000015,-0.0095870935812048,-0.1395530363309626,-0.0330233747769847
0.542500000000004,0.0074577918937717,-0.1139874534477496,-0.0351544217936697
0.5459999999999994,0.0170448854749766,-0.0926804739394028,-0.0266319790561814
0.5495000000000019,0.0213052341790947,-0.0511346564249298,-0.0127827914416064
0.5529999999999973,0.0191759324916617,-0.0287630260728665,-0.002131047016685
0.5564999999999998,0.0074577918937717,0.0042603487041181,0.0074577918937717
0.5600000000000023,0.002131047016685,0.0266319790561814,0.0149138384582915
0.5634999999999977,-0.0127827914416064,0.0479389585645282,0.0095870935812048
0.5670000000000002,-0.0234362811957798,0.0639174478665363,0.0042603487041181
0.5705000000000027,-0.0351544217936697,0.0756355884644262,0.0
0.5739999999999981,-0.0330233747769847,0.0767019846373948,0.0010646508437165
0.5775000000000006,-0.029827676916583,0.0767019846373948,-0.002131047016685
0.5810000000000031,-0.0266319790561814,0.0788312863248278,-0.002131047016685
0.5844999999999985,-0.013849187614575,0.0788312863248278,0.0
0.588000000000001,-0.0063913957208032,0.0884201252352847,0.0
0.5915000000000035,0.0063913957208032,0.1033339636935762,-0.0031956978604016
0.5949999999999989,0.013849187614575,0.1139874534477496,-0.0042603487041181
0.5985000000000014,0.0255673282124649,0.1225098961852379,-0.0010646508437165
0.6020000000000039,0.029827676916583,0.1310323389227262,-0.0042603487041181
0.6054999999999993,0.0287630260728665,0.1342280367831279,-0.0031956978604016
0.6090000000000018,0.0213052341790947,0.138488385487246,-0.0010646508437165
0.6124999999999972,0.01598023463126,0.1416840833476476,0.0010646508437165
0.6159999999999997,0.01598023463126,0.1406194325039311,0.0031956978604016
0.6195000000000022,0.01598023463126,0.1374237346435295,0.0042603487041181
0.6229999999999976,0.01598023463126,0.1352926876268444,-0.002131047016685
0.6265000000000001,0.01598023463126,0.1278348957330726,-0.0053267448770866
0.6300000000000026,0.01598023463126,0.1225098961852379,-0.0042603487041181
0.633499999999998,0.0245026773687483,0.0980072188164895,0.0063913957208032
0.6370000000000005,0.0245026773687483,0.0820287295144815,0.0085224427374883
0.640500000000003,0.029827676916583,0.0564614013020165,0.0095870935812048
0.6439999999999984,0.0266319790561814,0.0362208179666383,0.0042603487041181
0.6475000000000009,0.0106534897541733,0.0106534897541733,0.0
0.6510000000000034,-0.0042603487041181,-0.0106534897541733,-0.002131047016685
0.6544999999999987,-0.0085224427374883,-0.0383501196540714,-0.0031956978604016
0.6580000000000013,-0.0074577918937717,-0.0543303542853314,0.0
0.6615000000000038,0.0,-0.0703088435873395,0.0074577918937717
0.6649999999999991,0.0117181405978899,-0.0788312863248278,0.013849187614575
0.6685000000000016,0.0266319790561814,-0.0916158230956863,0.0255673282124649
0.671999999999997,0.0362208179666383,-0.096942567972773,0.02769837522915
0.6754999999999995,0.0532657034416149,-0.1033339636935762,0.0170448854749766
0.679000000000002,0.0564614013020165,-0.1043986145372928,0.0170448854749766
0.6824999999999974,0.0447432607041266,-0.1012029166768912,0.0127827914416064
0.6859999999999999,0.029827676916583,-0.0990718696602061,0.0117181405978899
0.6895000000000024,-0.0106534897541733,-0.0873537290623162,0.01598023463126
0.6929999999999978,-0.0447432607041266,-0.0681795418999064,0.0181095363186931
0.6965000000000003,-0.0713752397603081,-0.041545817514473,0.0191759324916617
0.7000000000000028,-0.0820287295144815,-0.0202405833353782,0.0223716303520633
0.7034999999999982,-0.0735062867769931,0.0085224427374883,0.0202405833353782
0.7070000000000007,-0.0564614013020165,0.0170448854749766,0.01598023463126
0.7105000000000032,-0.0170448854749766,0.0223716303520633,0.0085224427374883
0.7139999999999986,0.0053267448770866,0.0234362811957798,0.0042603487041181
0.7175000000000011,0.0234362811957798,0.0255673282124649,0.0010646508437165
0.7210000000000036,0.0266319790561814,0.0330233747769847,-0.002131047016685
0.724499999999999,0.0245026773687483,0.0436768645311581,0.0053267448770866
0.7280000000000015,0.0191759324916617,0.0521993072686464,0.0053267448770866
0.731500000000004,0.0202405833353782,0.0607217500061347,0.0095870935812048
0.7349999999999994,0.0127827914416064,0.0703088435873395,0.013849187614575
0.7385000000000019,0.0127827914416064,0.0724398906040246,0.0181095363186931
0.7419999999999973,0.013849187614575,0.0724398906040246,0.0191759324916617
0.7454999999999998,0.0213052341790947,0.0713752397603081,0.0245026773687483
0.7490000000000023,0.02769837522915,0.0724398906040246,0.0308940730895516
0.7524999999999977,0.0490036094082447,0.0788312863248278,0.0362208179666383
0.7560000000000002,0.0585907029894496,0.0862890782185996,0.0394165158270399
0.7595000000000027,0.0703088435873395,0.0937468701123714,0.0436768645311581
0.7629999999999981,0.0724398906040246,0.1075943123976944,0.0468725623915597
0.7665000000000006,0.0649838440395048,0.1235745470289545,0.0458079115478431
0.7700000000000031,0.0543303542853314,0.1395530363309626,0.0372854688103548
0.7734999999999985,0.0511346564249298,0.150206526085136,0.0319587239332681
0.777000000000001,0.0436768645311581,0.1608600158393093,0.0170448854749766
0.7805000000000035,0.0372854688103548,0.1683160624038291,0.0063913957208032
0.7839999999999989,0.0287630260728665,0.1725781564371993,0.0031956978604016
0.7875000000000014,0.0308940730895516,0.1747092034538843,-0.002131047016685
0.7910000000000039,0.02769837522915,0.166186760716396,-0.0095870935812048
0.7944999999999993,0.0340897709499532,0.1565979218059392,-0.0191759324916617
0.7980000000000018,0.0362208179666383,0.1459461773810178,-0.0255673282124649
0.8014999999999972,0.0287630260728665,0.1416840833476476,-0.0372854688103548
0.8049999999999997,0.0095870935812048,0.1459461773810178,-0.0490036094082447
0.8085000000000022,0.0,0.1416840833476476,-0.0585907029894496
0.8119999999999976,-0.0266319790561814,0.1470108282247343,-0.0703088435873395
0.8155000000000001,-0.0330233747769847,0.152337573101821,-0.0756355884644262
0.8190000000000026,-0.0404811666707564,0.1534022239455376,-0.0777666354811113
0.822499999999998,-0.0362208179666383,0.150206526085136,-0.0756355884644262
0.8260000000000005,-0.029827676916583,0.1459461773810178,-0.0841580312019145
0.829500000000003,-0.0255673282124649,0.1470108282247343,-0.0862890782185996
0.8329999999999984,-0.0170448854749766,0.150206526085136,-0.0916158230956863
0.8365000000000009,-0.0117181405978899,0.1512729222581045,-0.0948115209560879
0.8400000000000034,-0.0042603487041181,0.1619246666830259,-0.0852244273748831
0.8434999999999988,-0.0010646508437165,0.1640557136997109,-0.0820287295144815
0.8470000000000013,0.0,0.1715135055934827,-0.0649838440395048
0.8505000000000038,-0.0042603487041181,0.180035948330971,-0.055395005129048
0.8539999999999992,-0.0170448854749766,0.1981454846496642,-0.041545817514473
0.8575000000000017,-0.0245026773687483,0.2162550209683574,-0.0383501196540714
0.8609999999999971,-0.0245026773687483,0.2354309534600191,-0.0330233747769847
0.8644999999999996,-0.02769837522915,0.2460844432141925,-0.029827676916583
0.8680000000000021,-0.0245026773687483,0.2599318854995155,-0.0362208179666383
0.8714999999999975,-0.0340897709499532,0.2705853752536888,-0.0383501196540714
0.875,-0.0372854688103548,0.2759121201307756,-0.0404811666707564
0.8785000000000025,-0.0394165158270399,0.2769767709744921,-0.0468725623915597
0.8819999999999979,-0.0351544217936697,0.2780431671474606,-0.0575260521457331
0.8855000000000004,-0.0340897709499532,0.2769767709744921,-0.0617864008498512
0.8890000000000029,-0.041545817514473,0.2780431671474606,-0.0724398906040246
0.8924999999999983,-0.0468725623915597,0.2801724688348938,-0.0862890782185996
0.8960000000000008,-0.0468725623915597,0.2823035158515788,-0.0937468701123714
0.8995000000000033,-0.0500682602519613,0.2801724688348938,-0.0990718696602061
0.9029999999999988,-0.0394165158270399,0.2737810731140905,-0.1043986145372928
0.9065000000000012,-0.0202405833353782,0.2599318854995155,-0.110790010258096
0.9100000000000036,0.0127827914416064,0.2450180470412239,-0.1118564064310645
0.9134999999999992,0.0340897709499532,0.2269085107225308,-0.1193124529955843
0.9170000000000016,0.0639174478665363,0.2077325782308691,-0.1278348957330726
0.920500000000004,0.0798976824977964,0.1949497867892626,-0.1342280367831279
0.9239999999999996,0.1310323389227262,0.1842962970350892,-0.1374237346435295
0.927500000000002,0.1864273440517743,0.1640557136997109,-0.1374237346435295
0.9309999999999974,0.205601531214184,0.1619246666830259,-0.1587289688226243
0.9345,0.1587289688226243,0.1576643179789077,-0.1885583910684593
0.9380000000000024,0.0585907029894496,0.177904901314286,-0.1395530363309626
0.9414999999999978,0.0149138384582915,0.2109282760912707,-0.0980072188164895
0.9450000000000004,-0.0308940730895516,0.2269085107225308,-0.096942567972773
0.9485000000000028,-0.0479389585645282,0.2215817658454441,-0.0767019846373948
0.9519999999999982,-0.0511346564249298,0.2098636252475541,-0.0500682602519613
0.9555000000000008,-0.0490036094082447,0.1885583910684593,-0.0500682602519613
0.9590000000000032,-0.0287630260728665,0.177904901314286,-0.0340897709499532
0.9624999999999986,0.0074577918937717,0.180035948330971,-0.0340897709499532
0.9660000000000012,0.055395005129048,0.1885583910684593,-0.02769837522915
0.9695000000000036,0.0745709376207097,0.2002765316663493,-0.0202405833353782
0.972999999999999,0.0500682602519613,0.2034722295267509,-0.013849187614575
0.9765000000000016,0.0340897709499532,0.1992101354933808,0.0
0.980000000000004,0.0170448854749766,0.1938833906162941,0.002131047016685
0.9834999999999994,-0.002131047016685,0.1885583910684593,0.0106534897541733
0.987000000000002,-0.0245026773687483,0.1906876927558924,0.0053267448770866
0.9904999999999972,-0.0202405833353782,0.1960144376329791,0.0085224427374883
0.9939999999999998,-0.002131047016685,0.2077325782308691,0.0063913957208032
0.9975000000000024,0.013849187614575,0.2077325782308691,0.0
1.0009999999999977,0.0340897709499532,0.2109282760912707,-0.0010646508437165
1.0045000000000002,0.041545817514473,0.205601531214184,-0.0010646508437165
1.008000000000003,0.0362208179666383,0.2013411825100658,-0.0085224427374883
1.011499999999998,0.0266319790561814,0.1992101354933808,-0.01598023463126
1.0150000000000006,0.0,0.2002765316663493,-0.0308940730895516
1.018500000000003,-0.0191759324916617,0.1938833906162941,-0.0394165158270399
1.0219999999999985,-0.0447432607041266,0.1906876927558924,-0.0575260521457331
1.025500000000001,-0.0564614013020165,0.1874919948954908,-0.0735062867769931
1.0290000000000037,-0.0532657034416149,0.1789695521580025,-0.0852244273748831
1.0324999999999989,-0.0458079115478431,0.1789695521580025,-0.0852244273748831
1.0360000000000014,-0.0319587239332681,0.1757738542976009,-0.0948115209560879
1.039500000000004,-0.013849187614575,0.1693824585767977,-0.0926804739394028
1.0429999999999993,0.0053267448770866,0.1629910628559944,-0.0873537290623162
1.0465000000000018,0.013849187614575,0.1534022239455376,-0.0767019846373948
1.0499999999999972,0.0330233747769847,0.1470108282247343,-0.0660484948832214
1.0534999999999997,0.0426122136874415,0.1374237346435295,-0.0596570991624181
1.0570000000000022,0.0521993072686464,0.1299659427497577,-0.0436768645311581
1.0604999999999976,0.0500682602519613,0.1278348957330726,-0.02769837522915
1.064,0.0500682602519613,0.1310323389227262,-0.0149138384582915
1.0675000000000026,0.0490036094082447,0.1289012919060412,-0.0053267448770866
1.070999999999998,0.0490036094082447,0.1310323389227262,0.0074577918937717
1.0745000000000005,0.0511346564249298,0.1320969897664428,0.013849187614575
1.078000000000003,0.0585907029894496,0.1193124529955843,0.0245026773687483
1.0814999999999984,0.0639174478665363,0.110790010258096,0.02769837522915
1.0850000000000009,0.0788312863248278,0.1065296615539778,0.0255673282124649
1.0885000000000034,0.0735062867769931,0.1065296615539778,0.0149138384582915
1.0919999999999987,0.0660484948832214,0.1054650107102613,0.0042603487041181
1.0955000000000013,0.0628527970228197,0.1097253594143795,0.0
1.0990000000000038,0.055395005129048,0.1203788491685528,-0.0010646508437165
1.1024999999999991,0.0543303542853314,0.1235745470289545,-0.0031956978604016
1.1060000000000016,0.041545817514473,0.136357338470561,-0.0085224427374883
1.109499999999997,0.0319587239332681,0.1480754790684509,-0.0074577918937717
1.1129999999999995,0.0170448854749766,0.1587289688226243,-0.0063913957208032
1.116500000000002,0.0,0.1704471094205142,-0.0085224427374883
1.1199999999999974,-0.0085224427374883,0.1821652500184041,-0.0127827914416064
1.1235,-0.0213052341790947,0.191754088928861,-0.0095870935812048
1.1270000000000024,-0.0223716303520633,0.1992101354933808,-0.0042603487041181
1.1304999999999978,-0.0340897709499532,0.2045368803704674,-0.0053267448770866
1.1340000000000003,-0.0351544217936697,0.205601531214184,0.002131047016685
1.1375000000000028,-0.0404811666707564,0.2045368803704674,0.0010646508437165
1.1409999999999982,-0.0383501196540714,0.1938833906162941,0.0053267448770866
1.1445000000000007,-0.0468725623915597,0.1853609478788057,-0.0074577918937717
1.1480000000000032,-0.0713752397603081,0.1821652500184041,-0.055395005129048
1.1514999999999986,-0.0713752397603081,0.1853609478788057,-0.0873537290623162
1.1550000000000011,-0.0532657034416149,0.1981454846496642,-0.0532657034416149
1.1585000000000036,-0.0362208179666383,0.2109282760912707,-0.0245026773687483
1.161999999999999,-0.0458079115478431,0.2311688594266489,-0.0362208179666383
1.1655000000000015,-0.0458079115478431,0.2450180470412239,-0.02769837522915
1.169000000000004,-0.0266319790561814,0.2407576983371057,0.0053267448770866
1.1724999999999994,-0.0074577918937717,0.2386266513204207,0.0170448854749766
1.176000000000002,0.01598023463126,0.2343645572870505,0.0319587239332681
1.179499999999997,0.0266319790561814,0.2375620004767041,0.0532657034416149
1.1829999999999998,0.0383501196540714,0.2450180470412239,0.0596570991624181
1.1865000000000023,0.0436768645311581,0.2524758389349957,0.0596570991624181
1.1899999999999975,0.0543303542853314,0.2503447919183106,0.0681795418999064
1.1935000000000002,0.0543303542853314,0.247149094057909,0.0745709376207097
1.1970000000000027,0.041545817514473,0.2343645572870505,0.0798976824977964
1.200499999999998,0.029827676916583,0.2364956043037356,0.0756355884644262
1.2040000000000006,0.0191759324916617,0.2396913021641372,0.0681795418999064
1.2075000000000031,0.0170448854749766,0.2396913021641372,0.0596570991624181
1.2109999999999983,0.002131047016685,0.2503447919183106,0.0479389585645282
1.214500000000001,-0.0010646508437165,0.2546051406224288,0.0447432607041266
1.2180000000000035,-0.0063913957208032,0.2620629325162006,0.0340897709499532
1.221499999999999,-0.0127827914416064,0.2620629325162006,0.0255673282124649
1.2250000000000014,-0.0106534897541733,0.2652586303766022,0.013849187614575
1.228500000000004,-0.0106534897541733,0.2641939795328856,0.0117181405978899
1.231999999999999,-0.013849187614575,0.2705853752536888,0.0
1.2355000000000018,-0.013849187614575,0.2705853752536888,-0.0031956978604016
1.2389999999999972,-0.0085224427374883,0.2737810731140905,-0.0085224427374883
1.2424999999999995,-0.013849187614575,0.2716500260974054,-0.0106534897541733
1.2460000000000022,-0.0202405833353782,0.2716500260974054,-0.0117181405978899
1.2494999999999976,-0.0255673282124649,0.2705853752536888,-0.0127827914416064
1.253,-0.0308940730895516,0.2695207244099723,-0.01598023463126
1.2565000000000026,-0.0351544217936697,0.2684543282370038,-0.0127827914416064
1.259999999999998,-0.0340897709499532,0.2641939795328856,-0.013849187614575
1.2635000000000003,-0.0330233747769847,0.2599318854995155,-0.0170448854749766
1.267000000000003,-0.0372854688103548,0.2620629325162006,-0.0223716303520633
1.2704999999999984,-0.0447432607041266,0.2578025838120824,-0.0255673282124649
1.274000000000001,-0.041545817514473,0.2482137449016255,-0.0287630260728665
1.2775000000000034,-0.0458079115478431,0.2492801410745941,-0.0340897709499532
1.2809999999999988,-0.0394165158270399,0.2428870000245388,-0.0383501196540714
1.2845000000000013,-0.0340897709499532,0.2343645572870505,-0.0372854688103548
1.2880000000000038,-0.0340897709499532,0.2301042085829324,-0.0372854688103548
1.2914999999999992,-0.0191759324916617,0.2162550209683574,-0.0287630260728665
1.2950000000000017,0.0074577918937717,0.1864273440517743,-0.01598023463126
1.298499999999997,0.0308940730895516,0.1491418752414194,0.0042603487041181
1.3019999999999996,0.0681795418999064,0.0756355884644262,0.0266319790561814
1.305500000000002,0.0809623333415129,0.0031956978604016,0.041545817514473
1.3089999999999975,0.083093380358198,-0.1012029166768912,0.0458079115478431
1.3125,0.1097253594143795,-0.1736428072809158,0.0479389585645282
1.3160000000000025,0.1747092034538843,-0.2556715367953973,0.0543303542853314
1.319499999999998,0.1970790884766957,-0.3270467765557054,0.0607217500061347
1.3230000000000004,0.180035948330971,-0.4207919013388249,0.0319587239332681
1.326500000000003,0.1352926876268444,-0.4953628389595346,0.0010646508437165
1.3299999999999983,0.0703088435873395,-0.600827849669796,-0.041545817514473
1.3335000000000008,0.01598023463126,-0.670072042413419,-0.0777666354811113
1.3370000000000033,-0.0468725623915597,-0.7542300736153336,-0.136357338470561
1.3404999999999987,-0.0926804739394028,-0.8117561257610666,-0.1757738542976009
1.3440000000000012,-0.138488385487246,-0.8831313655213747,-0.2364956043037356
1.3475000000000037,-0.1672514115601126,-0.9363953236337376,-0.2791078179911772
1.350999999999999,-0.1906876927558924,-0.9907256779190692,-0.3323735214327921
1.3545000000000016,-0.2024058333537824,-1.0237507980253058,-0.3749839897909817
1.357999999999997,-0.2173214171413259,-1.0610362668356608,-0.4282496932325966
1.3614999999999997,-0.2173214171413259,-1.0887328967355587,-0.4623394641825499
1.365000000000002,-0.2226464166891606,-1.1132355741043072,-0.5017542346803379
1.3684999999999974,-0.2215817658454441,-1.1174959228084254,-0.5315836569261729
1.372,-0.2301042085829324,-1.130280459579284,-0.5582156359823544
1.3755000000000024,-0.2343645572870505,-1.136671855300087,-0.5773915684740161
1.3789999999999978,-0.247149094057909,-1.134540808283402,-0.5997614534968274
1.3825000000000005,-0.2567361876391139,-1.131345110423,-0.6136106411114024
1.3860000000000028,-0.2727164222703739,-1.1132355741043072,-0.628524479569694
1.3894999999999982,-0.2791078179911772,-1.097255339473047,-0.642373667184269
1.393000000000001,-0.286565609884949,-1.067427662556464,-0.6498314590780407
1.3965000000000032,-0.2929570056057522,-1.0418603343439992,-0.6626142505196473
1.3999999999999986,-0.286565609884949,-0.9992481206565574,-0.6711366932571355
1.403500000000001,-0.2823035158515788,-0.9651583497066044,-0.6807255321675924
1.4070000000000036,-0.2716500260974054,-0.903371948856753,-0.6924436727654824
1.410499999999999,-0.260998281672484,-0.8522372924318231,-0.6956393706258839
1.4140000000000017,-0.2386266513204207,-0.7755353077944284,-0.6924436727654824
1.417500000000004,-0.2183860679850424,-0.7116178599278921,-0.6764634381342222
1.4209999999999994,-0.1874919948954908,-0.6295908757426625,-0.6583539018155291
1.424500000000002,-0.1587289688226243,-0.5667380787198427,-0.6477004120613556
1.4279999999999973,-0.1395530363309626,-0.4729912086074713,-0.6413090163405525
1.4314999999999998,-0.1320969897664428,-0.4090737607409349,-0.642373667184269
1.4350000000000025,-0.1459461773810178,-0.3206536355056502,-0.6402426201675839
1.4384999999999977,-0.1704471094205142,-0.2620629325162006,-0.6338512244467807
1.4420000000000002,-0.2130593231079557,-0.1928187397725775,-0.6178727351447726
1.445500000000003,-0.2535404897787122,-0.1448797812080492,-0.5997614534968274
1.448999999999998,-0.3100018910807288,-0.0958761717998045,-0.5731294744406459
1.4525000000000006,-0.3440916620306821,-0.0649838440395048,-0.5464974953844645
1.456000000000003,-0.3920288752659583,-0.0266319790561814,-0.5060163287137079
1.4594999999999985,-0.4144005056180216,-0.0042603487041181,-0.4729912086074713
1.463000000000001,-0.4282496932325966,0.0234362811957798,-0.4239875991992265
1.4665000000000037,-0.4293143440763132,0.0447432607041266,-0.3824417816847534
1.4699999999999989,-0.4058780628805333,0.0724398906040246,-0.3249157295390203
1.4735000000000014,-0.3760503859639502,0.0884201252352847,-0.2876302607286655
1.477000000000004,-0.3110665419244454,0.1065296615539778,-0.2343645572870505
1.4804999999999993,-0.2535404897787122,0.1171831513081512,-0.1992101354933808
1.4840000000000018,-0.1651203645434275,0.1267702448893561,-0.1427504795206162
1.4874999999999972,-0.0916158230956863,0.1267702448893561,-0.1086607085706629
1.4909999999999997,0.0117181405978899,0.1320969897664428,-0.0639174478665363
1.4945000000000022,0.0905494269227178,0.1299659427497577,-0.0266319790561814
1.4979999999999976,0.1842962970350892,0.1257055940456395,0.0149138384582915
1.5015,0.2460844432141925,0.1203788491685528,0.0426122136874415
1.5050000000000026,0.3217200316786187,0.1129210572747811,0.0777666354811113
1.508499999999998,0.3675279432264619,0.1054650107102613,0.1022693128498597
1.5120000000000005,0.4101401569139035,0.1043986145372928,0.124639197872671
1.515500000000003,0.4325100419367148,0.1054650107102613,0.1416840833476476
1.5189999999999984,0.4357057397971164,0.1225098961852379,0.1534022239455376
1.5225000000000009,0.4175962034784233,0.1289012919060412,0.1629910628559944
1.5260000000000034,0.3717882919305801,0.1395530363309626,0.1608600158393093
1.5294999999999987,0.3174579376452486,0.1374237346435295,0.1672514115601126
1.5330000000000013,0.2343645572870505,0.1342280367831279,0.1704471094205142
1.5365000000000038,0.1704471094205142,0.124639197872671,0.1672514115601126
1.5399999999999991,0.0703088435873395,0.1129210572747811,0.1704471094205142
1.5435000000000016,-0.0031956978604016,0.0980072188164895,0.1725781564371993
1.546999999999997,-0.0905494269227178,0.0639174478665363,0.177904901314286
1.5504999999999995,-0.1448797812080492,0.0426122136874415,0.1757738542976009
1.554000000000002,-0.2109282760912707,0.0085224427374883,0.1853609478788057
1.5574999999999974,-0.2460844432141925,-0.0223716303520633,0.1864273440517743
1.561,-0.2854992137119804,-0.0671131457269379,0.1949497867892626
1.5645000000000024,-0.3014794483432405,-0.1022693128498597,0.1992101354933808
1.5679999999999978,-0.3174579376452486,-0.1470108282247343,0.2013411825100658
1.5715000000000003,-0.3238510786953038,-0.1853609478788057,0.2024058333537824
1.5750000000000028,-0.3302424744161071,-0.2183860679850424,0.2066679273871525
1.5784999999999982,-0.3313071252598236,-0.2450180470412239,0.2119946722642392
1.5820000000000007,-0.316393286801532,-0.2684543282370038,0.2087989744038376
1.5855000000000032,-0.3153286359578155,-0.2801724688348938,0.2098636252475541
1.5889999999999986,-0.3057397970473587,-0.2950880526224372,0.2087989744038376
1.5925000000000011,-0.3036087500306735,-0.3046751462036421,0.2045368803704674
1.5960000000000036,-0.3078708440640437,-0.3206536355056502,0.2013411825100658
1.599499999999999,-0.3089354949077603,-0.3376985209806268,0.2013411825100658
1.6030000000000015,-0.3195889846619337,-0.3536787556118869,0.1981454846496642
1.606500000000004,-0.3334381722765087,-0.3739193389472651,0.1928187397725775
1.6099999999999994,-0.3568744534722885,-0.3803107346680683,0.1842962970350892
1.613500000000002,-0.3675279432264619,-0.3941599222826434,0.1821652500184041
1.616999999999997,-0.3803107346680683,-0.4005513180034466,0.1747092034538843
1.6204999999999998,-0.3856374795451551,-0.4122694586013365,0.1576643179789077
1.6240000000000023,-0.3898978282492732,-0.4218582975117934,0.1448797812080492
1.6274999999999975,-0.38350643252847,-0.4325100419367148,0.1171831513081512
1.6310000000000002,-0.3771150368076668,-0.4484902765679749,0.0948115209560879
1.6345000000000027,-0.3611348021764067,-0.4623394641825499,0.0649838440395048
1.637999999999998,-0.3451563128743986,-0.4751222556241564,0.0383501196540714
1.6415000000000006,-0.3121311927681619,-0.4942981881158181,0.0117181405978899
1.6450000000000031,-0.2897613077453506,-0.5156034222949128,-0.0074577918937717
1.6484999999999983,-0.247149094057909,-0.5326483077698895,-0.029827676916583
1.652000000000001,-0.2141239739516723,-0.5464974953844645,-0.0500682602519613
1.6555000000000035,-0.1736428072809158,-0.5646070317031576,-0.0745709376207097
1.658999999999999,-0.150206526085136,-0.5784562193177326,-0.0884201252352847
1.6625000000000014,-0.124639197872671,-0.600827849669796,-0.1086607085706629
1.666000000000004,-0.1171831513081512,-0.6221330838488908,-0.1182478021518678
1.669499999999999,-0.1139874534477496,-0.6466357612176391,-0.1331616406101593
1.6730000000000018,-0.1235745470289545,-0.6626142505196473,-0.1427504795206162
1.6764999999999972,-0.1470108282247343,-0.6764634381342222,-0.1608600158393093
1.6799999999999995,-0.1715135055934827,-0.6935083236091989,-0.1736428072809158
1.6835000000000022,-0.219450718828759,-0.7030954171904037,-0.1928187397725775
1.6869999999999976,-0.2503447919183106,-0.709488558240459,-0.2087989744038376
1.6905,-0.2950880526224372,-0.709488558240459,-0.233299906443334
1.6940000000000026,-0.3313071252598236,-0.7084221620674903,-0.247149094057909
1.697499999999998,-0.3717882919305801,-0.6924436727654824,-0.2663250265495707
1.7010000000000003,-0.4016177141764152,-0.6796591359946239,-0.2823035158515788
1.704500000000003,-0.4346410889533998,-0.6530271569384424,-0.3014794483432405
1.7079999999999984,-0.4559463231324946,-0.6370469223071823,-0.3131975889411305
1.711500000000001,-0.4729912086074713,-0.6125459902676859,-0.3238510786953038
1.7150000000000034,-0.4772533026408414,-0.6040235475301975,-0.3281114273994219
1.7184999999999988,-0.4772533026408414,-0.5965657556364258,-0.3345028231202252
1.7220000000000013,-0.4751222556241564,-0.5912390107593392,-0.3366338701369103
1.7255000000000038,-0.4602084171658648,-0.5837829641948193,-0.3387649171535954
1.7289999999999992,-0.43890318298677,-0.5891097090719061,-0.3313071252598236
1.7325000000000017,-0.4144005056180216,-0.5965657556364258,-0.3217200316786187
1.735999999999997,-0.3952245731263599,-0.6093502924072843,-0.3153286359578155
1.7394999999999996,-0.3643322453660603,-0.6210684330051742,-0.314262239784847
1.743000000000002,-0.3536787556118869,-0.6349176206197492,-0.3131975889411305
1.7464999999999975,-0.3398295679973119,-0.6519625060947258,-0.3078708440640437
1.75,-0.3281114273994219,-0.6604849488322142,-0.302544099186957
1.7535000000000025,-0.3217200316786187,-0.6775280889779387,-0.288694911572382
1.756999999999998,-0.3121311927681619,-0.6935083236091989,-0.2823035158515788
1.7605000000000004,-0.2993484013265554,-0.713748906944577,-0.2673896773932873
1.764000000000003,-0.2908259585890671,-0.7318584432632703,-0.2492801410745941
1.7674999999999983,-0.3174579376452486,-0.8170828706381533,-0.2279731615662473
1.7710000000000008,-0.4080091098972184,-0.9065676467171546,-0.2119946722642392
1.7745000000000033,-0.600827849669796,-0.8607597351693115,-0.177904901314286
1.7779999999999987,-0.7766017039673969,-0.8245406625319252,-0.1544686201185061
1.7815000000000012,-1.009901610410731,-0.847976943727705,-0.1043986145372928
1.7850000000000037,-1.1728926732667255,-0.8405191518339332,-0.0575260521457331
1.788499999999999,-1.3593182719892478,-0.8288010112360433,0.0031956978604016
1.7920000000000016,-1.4658479335432255,-0.8288010112360433,0.0447432607041266
1.795499999999997,-1.5659861993764004,-0.8181475214818699,0.0852244273748831
1.7989999999999997,-1.6213812045054483,-0.8021690321798618,0.1054650107102613
1.802500000000002,-1.6512106267512834,-0.7584921676487036,0.1214435000122694
1.8059999999999972,-1.64055713699711,-0.7382515843133254,0.1331616406101593
1.8095,-1.571312944253487,-0.7403808860007585,0.1565979218059392
1.8130000000000024,-1.4754367724536823,-0.7403808860007585,0.1704471094205142
1.8164999999999976,-1.3252302463685464,-0.7414472821737271,0.1832316461913727
1.8200000000000005,-1.1846108138646152,-0.7393162351570419,0.1960144376329791
1.8235000000000028,-0.9896610270753528,-0.7414472821737271,0.2077325782308691
1.8269999999999984,-0.8394545009902167,-0.7371851881403569,0.2173214171413259
1.830500000000001,-0.6551582039551274,-0.7361205372966404,0.2279731615662473
1.8340000000000032,-0.547562146228181,-0.7510343757549319,0.2407576983371057
1.8374999999999984,-0.4655351620429515,-0.8096250787443816,0.2652586303766022
1.841000000000001,-0.4676662090596366,-0.7744706569507118,0.2950880526224372
1.844500000000004,-0.5028206308533064,-0.7350541411236718,0.3483520107348002
1.847999999999999,-0.5230612141886847,-0.7552947244590501,0.3984202709867616
1.8515000000000013,-0.5347793547865746,-0.7648835633695069,0.4719265577637547
1.855000000000004,-0.4985585368199362,-0.7648835633695069,0.5326483077698895
1.8584999999999996,-0.4133358547743051,-0.7723396099340267,0.5912390107593392
1.8620000000000017,-0.3121311927681619,-0.767014610386192,0.6231994800218592
1.8654999999999973,-0.1267702448893561,-0.7606214693361367,0.6519625060947258
1.869,0.02769837522915,-0.7648835633695069,0.6615495996759307
1.8725000000000025,0.2066679273871525,-0.8149518236214683,0.6743323911175372
1.8759999999999977,0.2908259585890671,-0.84584589671102,0.7020307663466872
1.8795,0.2993484013265554,-0.7840577505319166,0.7606214693361367
1.883000000000003,0.2492801410745941,-0.7606214693361367,0.8032336830235783
1.886499999999998,0.136357338470561,-0.7595568184924202,0.8554329902922247
1.8900000000000008,0.02769837522915,-0.753165422771617,0.8746089227838865
1.893500000000003,-0.1289012919060412,-0.7659482142132235,0.8788692714880046
1.8969999999999985,-0.2503447919183106,-0.7627525163528219,0.8810003185046897
1.900500000000001,-0.3930952714389268,-0.7797974018277984,0.8575640373089098
1.9040000000000037,-0.4825800475179281,-0.7734060061069953,0.8319967090964449
1.9074999999999989,-0.5997614534968274,-0.7446429800341288,0.7819284488444836
1.9110000000000011,-0.6817901830113089,-0.7286627454028686,0.7307937924195538
1.914500000000004,-0.7702103082465936,-0.6892479749050807,0.6615495996759307
1.9179999999999997,-0.8138871727777518,-0.6562228547988439,0.6061545945468827
1.9215000000000015,-0.8298656620797599,-0.6093502924072843,0.5102766774178261
1.9249999999999967,-0.7989733343194602,-0.5965657556364258,0.4314453910929982
1.9285,-0.7084221620674903,-0.5752605214573311,0.3259803803827369
1.9320000000000024,-0.6061545945468827,-0.5528888911052677,0.2450180470412239
1.9354999999999976,-0.4420988808471717,-0.5209301671719996,0.1267702448893561
1.939,-0.300413052170272,-0.4847093492053612,0.0447432607041266
1.9425000000000023,-0.0745709376207097,-0.4431635316908882,-0.0490036094082447
1.945999999999998,0.0980072188164895,-0.3888331774055567,-0.1150521042914662
1.9495000000000005,0.3366338701369103,-0.3153286359578155,-0.2013411825100658
1.953000000000003,0.517734469311598,-0.2567361876391139,-0.2673896773932873
1.9564999999999984,0.753165422771617,-0.1938833906162941,-0.3366338701369103
1.9600000000000009,0.9140254386109264,-0.1534022239455376,-0.3653968962097769
1.9635000000000036,1.1057777822105357,-0.1278348957330726,-0.3739193389472651
1.9669999999999987,1.2272212822228048,-0.1118564064310645,-0.3590055004889736
1.9705000000000013,1.3635803660226178,-0.0980072188164895,-0.3259803803827369
1.974000000000004,1.450934095084934,-0.1022693128498597,-0.288694911572382
1.9774999999999991,1.5350921262868489,-0.0841580312019145,-0.2503447919183106
1.9810000000000016,1.5798353869909751,-0.0681795418999064,-0.2343645572870505
1.984499999999997,1.61285876176796,-0.0585907029894496,-0.2098636252475541
1.9879999999999995,1.61712085580133,-0.055395005129048,-0.1811005991746876
1.991500000000002,1.5958156216222352,-0.0532657034416149,-0.1416840833476476
1.9949999999999972,1.5563991057951954,-0.0564614013020165,-0.1214435000122694
1.9985,1.4775660741411154,-0.0607217500061347,-0.0937468701123714
2.0020000000000024,1.4019304856766894,-0.0681795418999064,-0.0756355884644262
2.005499999999998,1.2858137305415065,-0.0756355884644262,-0.0703088435873395
2.0090000000000003,1.18247976684793,-0.0820287295144815,-0.0735062867769931
2.012500000000003,1.039729287327314,-0.1001382658331746,-0.0905494269227178
2.0159999999999982,0.9204168343317296,-0.124639197872671,-0.1118564064310645
2.0195000000000007,0.767014610386192,-0.152337573101821,-0.1480754790684509
2.0230000000000032,0.6519625060947258,-0.1842962970350892,-0.1864273440517743
2.026499999999998,0.4953628389595346,-0.2130593231079557,-0.2364956043037356
2.030000000000001,0.3856374795451551,-0.2311688594266489,-0.2759121201307756
2.033500000000004,0.2492801410745941,-0.2460844432141925,-0.3355692192931938
2.036999999999999,0.1629910628559944,-0.2290395577392158,-0.3920288752659583
2.040500000000001,0.0628527970228197,-0.1619246666830259,-0.5006895838366213
2.044000000000004,0.0127827914416064,-0.124639197872671,-0.5859140112115044
2.0474999999999994,-0.0213052341790947,-0.0585907029894496,-0.6679409953967339
2.051000000000002,-0.0245026773687483,-0.002131047016685,-0.725467047542467
2.0544999999999973,0.0181095363186931,0.02769837522915,-0.7797974018277984
2.058,0.0788312863248278,0.0724398906040246,-0.8149518236214683
2.0615000000000023,0.1906876927558924,0.1129210572747811,-0.8650218292026817
2.0649999999999977,0.3057397970473587,0.1406194325039311,-0.8959141569629812
2.0685,0.4634041150262664,0.1725781564371993,-0.9246771830358478
2.0720000000000027,0.5955011047927092,0.1938833906162941,-0.940657417667108
2.075499999999998,0.7787327509840819,0.2119946722642392,-0.9395927668233912
2.0790000000000006,0.9193504381587612,0.2247774637058457,-0.9342660219463046
2.082500000000003,1.092994990768929,0.2386266513204207,-0.912959042437958
2.0859999999999985,1.2144384907811985,0.2524758389349957,-0.8884581103984615
2.089500000000001,1.361449319005933,0.2684543282370038,-0.8426501988506182
2.0930000000000035,1.4615875848391076,0.274847469287059,-0.7979069381464917
2.096499999999999,1.5649215485326835,0.2854992137119804,-0.727598094559152
2.1000000000000014,1.6277743455555036,0.2791078179911772,-0.6647452975363323
2.103500000000004,1.6810383036678664,0.2833681666952953,-0.5635423808594411
2.1069999999999998,1.6970185382991263,0.2918906094327836,-0.4815136513449596
2.110500000000002,1.6970185382991263,0.3057397970473587,-0.3707236410868635
2.113999999999997,1.6789072566511811,0.316393286801532,-0.2908259585890671
2.1175,1.6416217878408266,0.3313071252598236,-0.1992101354933808
2.121000000000002,1.60540271520344,0.3313071252598236,-0.1470108282247343
2.1244999999999976,1.561725850672282,0.3249157295390203,-0.1022693128498597
2.128,1.5393542203202186,0.3174579376452486,-0.0884201252352847
2.1315000000000026,1.520178287828557,0.3110665419244454,-0.1097253594143795
2.134999999999998,1.512722241264037,0.3110665419244454,-0.1470108282247343
2.1385000000000005,1.5105911942473522,0.3217200316786187,-0.2322352555996175
2.142000000000003,1.5148515429514704,0.3259803803827369,-0.3078708440640437
2.1454999999999984,1.5159179391244388,0.3270467765557054,-0.4101401569139035
2.149000000000001,1.5169825899681555,0.3131975889411305,-0.4793843496575265
2.1525000000000034,1.5084601472306671,0.2982837504828389,-0.5603466829990394
2.155999999999999,1.5159179391244388,0.2801724688348938,-0.626395177882261
2.1595000000000013,1.522309334845242,0.2631275833599171,-0.7393162351570419
2.163000000000004,1.5414852673369035,0.2535404897787122,-0.8277363603923268
2.166499999999999,1.569181897236802,0.2428870000245388,-0.940657417667108
2.1700000000000017,1.5979449233096683,0.2354309534600191,-1.016293006131534
2.173499999999997,1.6288389963992198,0.2290395577392158,-1.0961906886293304
2.177,1.64481923103048,0.2151903701246408,-1.1409322040042051
2.180500000000002,1.6607977203324882,0.2034722295267509,-1.1792840689875286
2.183999999999997,1.665059814365858,0.1981454846496642,-1.1931332566021038
2.1875,1.650144230578315,0.1928187397725775,-1.20591604804371
2.1910000000000025,1.6256432985388185,0.1992101354933808,-1.2112427929207967
2.194499999999998,1.5819664340076602,0.2045368803704674,-1.2229609335186866
2.1980000000000004,1.5393542203202186,0.2119946722642392,-1.2261566313790884
2.201500000000003,1.4701100275765957,0.2247774637058457,-1.2368101211332618
2.2049999999999983,1.4189753711516655,0.2492801410745941,-1.2400058189936634
2.208500000000001,1.3369483869664365,0.2823035158515788,-1.254919657451955
2.2120000000000037,1.2708998920832149,0.3185243338182171,-1.2815516365081363
2.2154999999999987,1.1654348813729536,0.3611348021764067,-1.324163850195578
2.219000000000001,1.081276850171039,0.3941599222826434,-1.342273386514271
2.222500000000004,0.9534402091087144,0.4335764381096833,-1.3294905950726643
2.225999999999999,0.8501062454151381,0.4484902765679749,-1.2836826835248214
2.2295000000000016,0.7073575112237738,0.4836446983616446,-1.1952625582895369
2.232999999999997,0.5955011047927092,0.5070809795574245,-1.1238890638584804
2.2364999999999995,0.4580773701491797,0.5571509851386378,-1.032273240762794
2.240000000000002,0.3611348021764067,0.5955011047927092,-0.9747471886170612
2.2434999999999974,0.2503447919183106,0.644504714200954,-0.9044365997004696
2.247,0.1928187397725775,0.6711366932571355,-0.8522372924318231
2.2505000000000024,0.1534022239455376,0.7041618133633722,-0.8032336830235783
2.253999999999998,0.1534022239455376,0.7169446048049787,-0.7659482142132235
2.2575000000000003,0.1938833906162941,0.7073575112237738,-0.7116178599278921
2.261000000000003,0.2599318854995155,0.7020307663466872,-0.6807255321675924
2.264499999999998,0.3994866671597301,0.6871169278883955,-0.6498314590780407
2.2680000000000007,0.5347793547865746,0.670072042413419,-0.6189373859884891
2.271500000000003,0.7499697249112154,0.6413090163405525,-0.5763251723010476
2.2749999999999986,0.9300039279129344,0.6210684330051742,-0.5528888911052677
2.278500000000001,1.1888711625687334,0.5859140112115044,-0.5070809795574245
2.282000000000004,1.390212345078799,0.5667380787198427,-0.4889714432387313
2.285499999999999,1.6597330694887715,0.5433017975240628,-0.4570127193054631
2.289000000000001,1.850420762244664,0.519865516328283,-0.4335764381096833
2.292500000000004,2.0847853195317145,0.4953628389595346,-0.3994866671597301
2.296,2.245645335371024,0.4740576047804398,-0.3664615470534934
2.299500000000002,2.428876981562397,0.4442281825346047,-0.314262239784847
2.3029999999999973,2.548189434557981,0.4175962034784233,-0.2599318854995155
2.3065,2.6579165393016124,0.38350643252847,-0.152337573101821
2.3100000000000023,2.7005270076598022,0.3632658491930918,-0.0617864008498512
2.3134999999999977,2.703724450849456,0.3494166615785167,0.0607217500061347
2.317,2.6696346798995023,0.3430252658577135,0.1406194325039311
2.3205000000000027,2.567365367049643,0.3536787556118869,0.2343645572870505
2.323999999999998,2.4491175648977745,0.3707236410868635,0.3014794483432405
2.327500000000001,2.250972080248111,0.3920288752659583,0.3898978282492732
2.331000000000003,2.0783939238109115,0.4122694586013365,0.4559463231324946
2.3344999999999985,1.820593085328081,0.4282496932325966,0.5560845889656694
2.338000000000001,1.629903647242937,0.4431635316908882,0.6338512244467807
2.3415000000000035,1.3848856002017127,0.4623394641825499,0.7297291415758372
2.344999999999999,1.2218962826749702,0.4772533026408414,0.80642938088398
2.3485000000000014,1.032273240762794,0.5070809795574245,0.9140254386109264
2.352000000000004,0.9193504381587612,0.5251905158761178,1.0013791676732426
2.3554999999999997,0.8011026360068932,0.5443664483677794,1.1281494125625986
2.3590000000000018,0.7318584432632703,0.5582156359823544,1.231483376256175
2.362499999999997,0.6690056462404504,0.5720648235969293,1.3752985066205077
2.366,0.630655526586379,0.5784562193177326,1.4882195638952889
2.369500000000002,0.605088198373914,0.5880433128989375,1.6352303921200233
2.3729999999999976,0.5986968026531109,0.5923054069323076,1.737499704969883
2.3765,0.5965657556364258,0.5955011047927092,1.8834458823509008
2.3800000000000026,0.6125459902676859,0.5997614534968274,1.9793220541507053
2.383499999999998,0.6466357612176391,0.5933700577760241,2.1018302050066917
2.3870000000000005,0.6764634381342222,0.5923054069323076,2.181727887504488
2.390500000000003,0.727598094559152,0.586978662055221,2.276539408460576
2.3939999999999984,0.7691439120736251,0.5901743599156226,2.3372611584667102
2.397500000000001,0.8256053133756417,0.5923054069323076,2.397982908472845
2.401000000000004,0.8671511308901148,0.5965657556364258,2.437399424299885
2.4044999999999987,0.917221136471328,0.6072192453905992,2.476815940126925
2.4080000000000013,0.9545066052816829,0.6136106411114024,2.4949254764456184
2.411500000000004,1.002443818516959,0.6178727351447726,2.5034479191831065
2.414999999999999,1.0248154488690224,0.6114795940947174,2.5077082678872245
2.4185000000000016,1.045056032204401,0.600827849669796,2.483207335847728
2.421999999999997,1.0418603343439992,0.5923054069323076,2.457640007635263
2.4254999999999995,1.014161959114849,0.5965657556364258,2.41183209608742
2.429000000000002,0.9694204437399744,0.600827849669796,2.373481976433349
2.432499999999997,0.8991098548233829,0.6125459902676859,2.3191516221480173
2.436,0.8437148496943347,0.6200020368322057,2.2786704554772608
2.4395000000000024,0.7552947244590501,0.6231994800218592,2.2168823092981573
2.442999999999998,0.6871169278883955,0.6231994800218592,2.172140793923283
2.4465000000000003,0.5986968026531109,0.6189373859884891,2.1316596272525263
2.450000000000003,0.5326483077698895,0.6178727351447726,2.0975698563025733
2.4534999999999982,0.43890318298677,0.6274598287259775,2.0613490383359347
2.4570000000000007,0.3813771308410369,0.6391779693238674,2.033652408436037
2.4605000000000032,0.3121311927681619,0.6711366932571355,1.9963669396256816
2.463999999999998,0.2833681666952953,0.6945729744529154,1.9739953092736189
2.467500000000001,0.2823035158515788,0.7371851881403569,1.936709840463264
2.471000000000004,0.3100018910807288,0.7574257714757352,1.915404606284169
2.474499999999999,0.3888331774055567,0.7840577505319166,1.885575184038334
2.478000000000001,0.4708619069200382,0.7968422873027752,1.8536164601050655
2.481500000000004,0.5678027295635593,0.8011026360068932,1.8195266891551125
2.4849999999999994,0.7169446048049787,0.7968422873027752,1.7683920327301823
2.488500000000002,0.8298656620797599,0.7883198445652868,1.725781564371993
2.4919999999999973,0.9832696313545496,0.780862052671515,1.6629287673491733
2.4955,1.0919285945959605,0.7744706569507118,1.61712085580133
2.4990000000000023,1.231483376256175,0.7648835633695069,1.5542680587785105
2.5024999999999977,1.3571889703018147,0.7606214693361367,1.5010041006661472
2.506,1.4413470015037293,0.7563611206320187,1.4658479335432255
2.5095000000000027,1.5073954963869507,0.7520990265986485,1.4402806053307606
2.512999999999998,1.5787707361472587,0.7201403026653803,1.411517579257894
2.5165000000000006,1.6181855066450466,0.6817901830113089,1.3891476942350829
2.520000000000003,1.64055713699711,0.6210684330051742,1.353991527112161
2.5234999999999985,1.6341657412763066,0.5624759846864725,1.3135103604414045
2.527000000000001,1.5926181784325817,0.4836446983616446,1.2559843082956712
2.5305000000000035,1.5468120122139906,0.4207919013388249,1.201655699339592
2.533999999999999,1.4583918869787058,0.3366338701369103,1.1185623189813938
2.5375000000000014,1.383820949357996,0.2684543282370038,1.0610362668356608
2.541000000000004,1.2666377980498449,0.1747092034538843,0.9758118394607777
2.5444999999999998,1.1750219749541586,0.1129210572747811,0.921481485175446
2.548000000000002,1.053578474941889,0.0372854688103548,0.8522372924318231
2.551499999999997,0.9640936988628878,-0.0095870935812048,0.8096250787443816
2.555,0.8586286881526264,-0.0575260521457331,0.7563611206320187
2.558500000000002,0.7979069381464917,-0.0980072188164895,0.727598094559152
2.5619999999999976,0.7489033287382468,-0.1374237346435295,0.6924436727654824
2.5655,0.7350541411236718,-0.1576643179789077,0.6636806466926157
2.5690000000000026,0.7627525163528219,-0.1683160624038291,0.6317219227593476
2.572499999999998,0.8181475214818699,-0.1651203645434275,0.6040235475301975
2.5760000000000005,0.944917766371226,-0.1576643179789077,0.5827165680218508
2.579500000000003,1.0802104539980706,-0.1555332709622227,0.5656734278761262
2.5829999999999984,1.3060543138768848,-0.1629910628559944,0.5528888911052677
2.586500000000001,1.5084601472306671,-0.177904901314286,0.5454328445407479
2.5900000000000034,1.7960904079593327,-0.2162550209683574,0.5369104018032596
2.593499999999999,2.0187385699777454,-0.2343645572870505,0.5369104018032596
2.5970000000000013,2.302106736673041,-0.2535404897787122,0.5486285424011496
2.600500000000004,2.5077082678872245,-0.2759121201307756,0.5507578440885826
2.603999999999999,2.727160732045236,-0.2940216564494687,0.5507578440885826
2.6075000000000017,2.8592577218116784,-0.3036087500306735,0.5848476150385359
2.610999999999997,2.982832268840633,-0.3632658491930918,0.6562228547988439
2.6145,3.036096226952996,-0.4207919013388249,0.7084221620674903
2.618000000000002,3.0467497167071693,-0.4911024902554164,0.7744706569507118
2.621499999999997,3.0020064560030426,-0.5507578440885826,0.8149518236214683
2.625,2.872040513253285,-0.5912390107593392,0.8735442719401699
2.6285000000000025,2.736747825626441,-0.6253287817092923,0.9076322975608712
2.631999999999998,2.5194281538143666,-0.6903126257487973,0.9491798604045962
2.6355000000000004,2.331934413589624,-0.7158799539612621,0.968355792896258
2.639000000000003,2.065611132369305,-0.7435765838611602,0.9779428864774626
2.6424999999999983,1.8632035536862703,-0.7776663548111135,0.9822032351815808
2.646000000000001,1.5862267827117784,-0.8085604279006651,0.9694204437399744
2.6495000000000037,1.3784942044809092,-0.8245406625319252,0.9502445112483128
2.6529999999999987,1.124953714702197,-0.8575640373089098,0.9182857873150446
2.656500000000001,0.952375558264998,-0.8788692714880046,0.8948495061192646
2.660000000000004,0.7520990265986485,-0.8703468287505163,0.8586286881526264
2.663499999999999,0.6381133184801508,-0.8469105475547365,0.8341277561131301
2.6670000000000016,0.5379750526469761,-0.8149518236214683,0.8117561257610666
2.670499999999997,0.4974938859762197,-0.7861887975486017,0.7957776364590586
2.6739999999999995,0.4964292351325031,-0.7584921676487036,0.7638171671965385
2.677500000000002,0.533712958613606,-0.7382515843133254,0.7265316983861836
2.6809999999999974,0.626395177882261,-0.7148135577882937,0.6679409953967339
2.6845,0.7169446048049787,-0.683921230027994,0.6231994800218592
2.6880000000000024,0.8703468287505163,-0.6477004120613556,0.5624759846864725
2.691499999999998,0.9971170736398725,-0.6221330838488908,0.5251905158761178
2.6950000000000003,1.1814151160042137,-0.5912390107593392,0.4751222556241564
2.698500000000003,1.3199035014914595,-0.5741958706136145,0.43890318298677
2.701999999999998,1.486088516878604,-0.547562146228181,0.4016177141764152
2.7055000000000007,1.5926181784325817,-0.5315836569261729,0.3845728287014385
2.709000000000003,1.693822840438725,-0.5209301671719996,0.3600701513326901
2.7124999999999986,1.7481531947240565,-0.5102766774178261,0.3526141047681703
2.716000000000001,1.7801119186573249,-0.4825800475179281,0.3440916620306821
2.719500000000004,1.790763663082246,-0.4602084171658648,0.3430252658577135
2.722999999999999,1.7801119186573249,-0.4271832970596281,0.3547434064556034
2.726500000000001,1.767327381886466,-0.4005513180034466,0.3707236410868635
2.730000000000004,1.739630751986568,-0.3717882919305801,0.3952245731263599
2.7335,1.7183237724782212,-0.3568744534722885,0.4144005056180216
2.737000000000002,1.6927564442657563,-0.3345028231202252,0.4378367868138015
2.7404999999999973,1.6671891160532917,-0.3259803803827369,0.4484902765679749
2.744,1.6330993451033382,-0.3110665419244454,0.4538170214450616
2.7475000000000023,1.5979449233096683,-0.3014794483432405,0.4591437663221482
2.7509999999999977,1.5595948036555969,-0.2769767709744921,0.4559463231324946
2.7545,1.5233739856889583,-0.2567361876391139,0.4506213235846599
2.7580000000000027,1.482892819018202,-0.2311688594266489,0.4431635316908882
2.761499999999998,1.4541297929453356,-0.2119946722642392,0.4261186462159115
2.765000000000001,1.4243021160287526,-0.2098636252475541,0.3952245731263599
2.768500000000003,1.399799438660004,-0.2141239739516723,0.3579391043160051
2.7719999999999985,1.3667760638830195,-0.2205171150017275,0.2993484013265554
2.775500000000001,1.340144084826838,-0.2247774637058457,0.2396913021641372
2.7790000000000035,1.2858137305415065,-0.2237128128621291,0.1565979218059392
2.782499999999999,1.23361442327286,-0.2173214171413259,0.0894847760790012
2.7860000000000014,1.1558477877917488,-0.2109282760912707,-0.0063913957208032
2.789500000000004,1.0961906886293304,-0.205601531214184,-0.0788312863248278
2.7929999999999997,1.0035102146899275,-0.2109282760912707,-0.1768385051413174
2.7965000000000018,0.9374617198067065,-0.2364956043037356,-0.247149094057909
2.799999999999997,0.8447812458673034,-0.2727164222703739,-0.3494166615785167
2.8035,0.7755353077944284,-0.2993484013265554,-0.4303807402492817
2.807000000000002,0.6722030894301041,-0.3195889846619337,-0.5273215628928027
2.8104999999999976,0.600827849669796,-0.3291760782431385,-0.5944364539489927
2.814,0.5209301671719996,-0.3302424744161071,-0.6807255321675924
2.8175000000000026,0.4665998128866681,-0.3227846825223353,-0.7393162351570419
2.820999999999998,0.4144005056180216,-0.3195889846619337,-0.7968422873027752
2.8245000000000005,0.3984202709867616,-0.3281114273994219,-0.836258803129815
2.828000000000003,0.3994866671597301,-0.3355692192931938,-0.8948495061192646
2.8314999999999984,0.42292294835551,-0.3483520107348002,-0.933199625773336
2.835000000000001,0.4793843496575265,-0.3590055004889736,-0.9715514907566596
2.838500000000004,0.5315836569261729,-0.3632658491930918,-0.996052422796156
2.8419999999999987,0.6093502924072843,-0.3462209637181151,-1.0269464958857075
2.8455000000000013,0.6732677402738206,-0.3345028231202252,-1.043991381360684
2.849000000000004,0.7499697249112154,-0.3121311927681619,-1.0503827770814873
2.852499999999999,0.8000379851631767,-0.2908259585890671,-1.055709521958574
2.8560000000000016,0.8714132249234848,-0.2737810731140905,-1.0610362668356608
2.859499999999997,0.9193504381587612,-0.2620629325162006,-1.065296615539779
2.8629999999999995,0.9811385843378644,-0.2578025838120824,-1.073819058277267
2.866500000000002,1.0173594023045027,-0.2578025838120824,-1.083406151858472
2.869999999999997,1.043991381360684,-0.2695207244099723,-1.1004510373334488
2.8735,1.0503827770814873,-0.2705853752536888,-1.111104527087622
2.8770000000000024,1.0280111467294242,-0.2812388650078622,-1.1281494125625986
2.880499999999998,0.9981834698128408,-0.2972173543098703,-1.1462589488812918
2.8840000000000003,0.933199625773336,-0.3131975889411305,-1.18247976684793
2.887500000000003,0.8703468287505163,-0.3291760782431385,-1.2048513971999937
2.8909999999999982,0.7648835633695069,-0.3526141047681703,-1.2378747719769785
2.8945000000000007,0.6722030894301041,-0.3771150368076668,-1.2645067510331598
2.8980000000000032,0.5241258650324012,-0.4069427137242498,-1.298596521983113
2.901499999999998,0.3952245731263599,-0.42292294835551,-1.3252302463685464
2.905000000000001,0.1970790884766957,-0.4474238803950063,-1.3625139698496491
2.908500000000004,0.029827676916583,-0.452750625272093,-1.3880812980621142
2.911999999999999,-0.2087989744038376,-0.4463592295512898,-1.421106418168351
2.915500000000001,-0.3898978282492732,-0.4346410889533998,-1.448803048068249
2.919000000000004,-0.6210684330051742,-0.42292294835551,-1.4754367724536823
2.9224999999999994,-0.7744706569507118,-0.4154651564617382,-1.4914152617556906
2.926000000000002,-0.942788464683793,-0.4165315526347067,-1.5169825899681555
2.9294999999999973,-1.0418603343439992,-0.4197272504951083,-1.5350921262868489
2.933,-1.1409322040042051,-0.425053995372195,-1.5649215485326835
2.9365000000000023,-1.1878065117250167,-0.4271832970596281,-1.5947492254492668
2.9399999999999977,-1.2229609335186866,-0.4271832970596281,-1.6352303921200233
2.9435,-1.2229609335186866,-0.4282496932325966,-1.6714512100866616
2.9470000000000027,-1.1910022095854185,-0.4325100419367148,-1.7247151681990245
2.950499999999998,-1.1430632510208902,-0.4442281825346047,-1.7577402883052613
2.9540000000000006,-1.0525138240981724,-0.4719265577637547,-1.795025757115616
2.957500000000003,-0.9630290480191712,-0.5017542346803379,-1.8195266891551125
2.9609999999999985,-0.8319967090964449,-0.5443664483677794,-1.8408336686634592
2.964500000000001,-0.7307937924195538,-0.5763251723010476,-1.849356111400948
2.9680000000000035,-0.6072192453905992,-0.6125459902676859,-1.8589432049821528
2.971499999999999,-0.5262569120490862,-0.6455693650446706,-1.8546811109487824
2.9750000000000014,-0.4420988808471717,-0.6967040214696004,-1.8568121579654675
2.978500000000004,-0.4026823650201317,-0.7329248394362388,-1.848289715227979
2.9819999999999998,-0.3717882919305801,-0.7915155424256883,-1.8429629703508923
2.985500000000002,-0.3760503859639502,-0.8309320582527283,-1.8397672724904908
2.988999999999997,-0.4037470158638482,-0.8841960163650913,-1.8365715746300888
2.9925,-0.4463592295512898,-0.9300039279129344,-1.8387026216467743
2.996000000000002,-0.5251905158761178,-0.986465329214951,-1.857878554138436
2.9994999999999976,-0.5986968026531109,-1.0344025424502272,-1.8781191374738144
3.003,-0.723336000525782,-1.0866035950481256,-1.9068821635466808
3.0065000000000026,-0.8351924069568466,-1.1174959228084254,-1.9345787934465783
3.009999999999998,-1.002443818516959,-1.1462589488812918,-1.9793220541507053
3.0135000000000005,-1.134540808283402,-1.1547813916187804,-2.0070186840506032
3.017000000000003,-1.3177724544747746,-1.1728926732667255,-2.04004380415684
3.0204999999999984,-1.4583918869787058,-1.1888711625687334,-2.0666757832130216
3.024000000000001,-1.6437528348575114,-1.21017814207708,-2.09863450714629
3.0275000000000034,-1.7737187776072691,-1.2165695377978836,-2.1263328823754395
3.030999999999999,-1.944167632357036,-1.2325480270998914,-2.1561605592920228
3.0345000000000013,-2.070937877246392,-1.2368101211332618,-2.1795968404878026
3.038000000000004,-2.227535799052331,-1.2389411681499467,-2.197708122135748
3.041499999999999,-2.3436525541875133,-1.2463972147144666,-2.213686611437756
3.0450000000000017,-2.4991858251497363,-1.259181751485325,-2.2243401011919293
3.048499999999997,-2.6153043256141717,-1.2762248916310497,-2.239253939650221
3.052,-2.774033294436796,-1.3199035014914595,-2.250972080248111
3.055500000000002,-2.8901500495719783,-1.3667760638830195,-2.2552341742814805
3.058999999999997,-3.029704831232193,-1.423237465185036,-2.263756617018969
3.0625,-3.129843097065367,-1.4637186318557929,-2.273343710600174
3.0660000000000025,-3.2363727586193454,-1.4999377044931788,-2.275474757616859
3.069499999999998,-3.287505669715023,-1.5137868921077535,-2.2818661533376625
3.0730000000000004,-3.322661836837945,-1.525505032705644,-2.2935842939355524
3.076500000000003,-3.3152040449441733,-1.527636079722329,-2.298911038812639
3.0799999999999983,-3.2704625295692984,-1.5414852673369035,-2.308498132393844
3.083500000000001,-3.2150657791109984,-1.5532034079347938,-2.314889528114647
3.0870000000000037,-3.1181232111382258,-1.5595948036555969,-2.323411970852136
3.0904999999999987,-3.0350315761092794,-1.563855152359715,-2.326609414041789
3.094000000000001,-2.9210441226615296,-1.5532034079347938,-2.3180869713043006
3.097500000000004,-2.8390171384763003,-1.534027475443132,-2.3127602264272142
3.100999999999999,-2.742074570503527,-1.4818281681744856,-2.295715340952237
3.1045000000000016,-2.6749614247765896,-1.4338892096099574,-2.2722790597564577
3.107999999999997,-2.609977580737084,-1.3827562985142796,-2.2328625439294174
3.1114999999999995,-2.570561064910044,-1.3486665275643264,-2.195577075119062
3.115000000000002,-2.538602340976776,-1.324163850195578,-2.146573465710818
3.1184999999999974,-2.5332755960996893,-1.3156414074580896,-2.107156949883778
3.122,-2.5471247837142648,-1.3017922198435146,-2.057088689631817
3.1255000000000024,-2.571627461083013,-1.2954008241227113,-2.015541126788092
3.128999999999998,-2.613173278597486,-1.2708998920832149,-1.9516236789215555
3.1325000000000003,-2.6398052576536672,-1.2485282617311515,-1.900489022496625
3.136000000000003,-2.684548518357794,-1.2261566313790884,-1.825918084875916
3.139499999999998,-2.714376195274377,-1.21017814207708,-1.7769144754676711
3.1430000000000007,-2.750597013241016,-1.2069806988874263,-1.719388423321938
3.146500000000003,-2.7687065495597087,-1.2133738399374818,-1.6757115587907798
3.1499999999999986,-2.7942738777721736,-1.2250919805353715,-1.629903647242937
3.153500000000001,-2.803860971353379,-1.2442661676977815,-1.5979449233096683
3.157000000000004,-2.81131876324715,-1.2794223348207032,-1.5595948036555969
3.160499999999999,-2.804927367526347,-1.314576756614373,-1.5414852673369035
3.164000000000001,-2.7814910863305675,-1.361449319005933,-1.5308317775827305
3.167500000000004,-2.751661664084732,-1.3934080429392008,-1.527636079722329
3.171,-2.7015934038327707,-1.4338892096099574,-1.536158522459817
3.174500000000002,-2.654719096111959,-1.453065142101619,-1.545745616041022
3.1779999999999973,-2.5886723465579893,-1.453065142101619,-1.5606594544993135
3.1815,-2.5449937366975792,-1.432824558766241,-1.5681172463930857
3.1850000000000023,-2.490663382412248,-1.3816899023413112,-1.5766396891305736
3.1884999999999977,-2.4565753567915465,-1.3230991993518617,-1.571312944253487
3.192,-2.410767445243704,-1.247461865558183,-1.5521370117618252
3.1955000000000027,-2.375611278120782,-1.1941979074458202,-1.5308317775827305
3.198999999999998,-2.328738715729222,-1.1356072044563703,-1.492481657928659
3.202500000000001,-2.2871928982147494,-1.1036484805231024,-1.4637186318557929
3.206000000000003,-2.243516033683591,-1.0663630117127476,-1.4168443241349806
3.2094999999999985,-2.2104909135773543,-1.0461224283773694,-1.3859519963746811
3.213000000000001,-2.1753364917836846,-1.0237507980253058,-1.340144084826838
3.2165000000000035,-2.155095908448306,-1.0035102146899275,-1.3017922198435146
3.219999999999999,-2.130593231079558,-0.9928567249357544,-1.2463972147144666
3.2235000000000014,-2.1252682315317237,-0.9928567249357544,-1.2048513971999937
3.227000000000004,-2.132724278096243,-1.0045748655336442,-1.1622391835125518
3.2304999999999997,-2.1455088148671013,-1.016293006131534,-1.138802902316772
3.2340000000000018,-2.188119283225291,-1.0461224283773694,-1.1143002249480238
3.237499999999997,-2.227535799052331,-1.0759501052939522,-1.1015174335064173
3.241,-2.294648944779269,-1.1270847617188822,-1.0961906886293304
3.244500000000002,-2.345783601204199,-1.1686305792333551,-1.1047131313668188
3.2479999999999976,-2.4246166328582786,-1.2272212822228048,-1.1281494125625986
3.2515,-2.4853383828644136,-1.2687688450665298,-1.1537167407750637
3.2550000000000026,-2.5652343200329577,-1.3252302463685464,-1.1803487198312452
3.258499999999998,-2.624891419195376,-1.374233855776791,-1.2048513971999937
3.2620000000000005,-2.714376195274377,-1.423237465185036,-1.2410704698373798
3.265500000000003,-2.7814910863305675,-1.4594565378224222,-1.273029193770648
3.2689999999999984,-2.8731051640970016,-1.4999377044931788,-1.3124457095976878
3.272500000000001,-2.9370243572927897,-1.52656968354936,-1.3412087356705549
3.276000000000004,-3.020115992321736,-1.5425499181806204,-1.3721028087601062
3.2794999999999987,-3.069121347059233,-1.531896428426447,-1.3934080429392008
3.2830000000000013,-3.103209372679934,-1.4935463087723757,-1.412583975430863
3.286500000000004,-3.104275768852902,-1.448803048068249,-1.411517579257894
3.289999999999999,-3.069121347059233,-1.3880812980621142,-1.3944744391121693
3.2935000000000016,-3.0115952949135,-1.3412087356705549,-1.379558855324626
3.296999999999997,-2.902934586342836,-1.290074079245625,-1.3497311784080428
3.3004999999999995,-2.8006652734929767,-1.2655731472061282,-1.326294897212263
3.304000000000002,-2.652589794424526,-1.2495929125748682,-1.300727568999798
3.307499999999997,-2.527950596551855,-1.2442661676977815,-1.284747334368538
3.311,-2.3553724401146554,-1.2527886104352697,-1.2645067510331598
3.3145000000000024,-2.229666846069016,-1.2655731472061282,-1.254919657451955
3.317999999999998,-2.072002528090108,-1.2858137305415065,-1.2527886104352697
3.3215000000000003,-1.9612107725027603,-1.3060543138768848,-1.2506593087478366
3.325000000000003,-1.8397672724904908,-1.3316216420893496,-1.2559843082956712
3.3284999999999982,-1.7502824964114894,-1.3529268762684443,-1.2634421001894431
3.3320000000000007,-1.7108677259137015,-1.377429553637193,-1.2655731472061282
3.3355000000000032,-1.6970185382991263,-1.4168443241349806,-1.2634421001894431
3.338999999999998,-1.6991478399865596,-1.4615875848391076,-1.253855006608238
3.342500000000001,-1.7385643558135997,-1.5329628245994156,-1.2389411681499467
3.346000000000004,-1.8035481998531044,-1.606467366047157,-1.2272212822228048
3.349499999999999,-1.8759880904571289,-1.6533416737679685,-1.219765235658285
3.353000000000001,-1.9590814708153272,-1.6991478399865596,-1.2123074437645132
3.356499999999997,-2.0922431114254865,-1.7332376109365126,-1.203785001027025
3.3599999999999994,-2.2147530076107245,-1.7470867985510878,-1.1984582561499384
3.363500000000002,-2.401178606333247,-1.7609359861656628,-1.1910022095854185
3.3669999999999973,-2.5620386221725564,-1.771589475919836,-1.1835444176916468
3.3705,-2.7836203880180004,-1.7865033143781277,-1.176088371127127
3.3740000000000023,-2.953002846594798,-1.8035481998531044,-1.1718262770937566
3.3774999999999977,-3.188433800054817,-1.8216577361717976,-1.1718262770937566
3.381,-3.358880909475331,-1.8408336686634592,-1.1750219749541586
3.3845000000000027,-3.567679883879169,-1.8759880904571289,-1.173957324110442
3.387999999999998,-3.700841524489328,-1.9090114652341137,-1.1792840689875286
3.3915000000000006,-3.849983399730748,-1.966537517379847,-1.1750219749541586
3.395000000000003,-3.925618988195174,-2.0229989186818638,-1.1718262770937566
3.3984999999999985,-3.9820803894971903,-2.0997009033192584,-1.1622391835125518
3.402000000000001,-3.9820803894971903,-2.166814049046196,-1.1494546467416935
3.4055000000000035,-3.936272477949347,-2.260560919158568,-1.122822667685512
3.408999999999999,-3.861701540328637,-2.323411970852136,-1.1057777822105357
3.4125000000000014,-3.714690712103903,-2.4043760495229005,-1.0770147561376688
3.416000000000004,-3.581529071493744,-2.461900356339381,-1.067427662556464
3.4194999999999998,-3.371665446246189,-2.518361757641398,-1.0546431257856057
3.423000000000002,-3.209739034233912,-2.555647226451753,-1.0461224283773694
3.426499999999997,-2.991354711578121,-2.6057172320329665,-1.045056032204401
3.43,-2.849668882901222,-2.629153513228746,-1.039729287327314
3.433500000000002,-2.6834838675140773,-2.665372585866132,-1.0429249851877156
3.4369999999999976,-2.589736997401706,-2.6749614247765896,-1.0407956835002825
3.4405,-2.497056523462303,-2.6770907264640225,-1.0418603343439992
3.4440000000000026,-2.4672271012164684,-2.666438982039101,-1.045056032204401
3.447499999999998,-2.4842719866914447,-2.6238267683516594,-1.0429249851877156
3.4510000000000005,-2.5268842003788863,-2.581214554664218,-1.0461224283773694
3.454500000000003,-2.6238267683516594,-2.5204928046580832,-1.0418603343439992
3.4579999999999984,-2.721833987168149,-2.473620242266524,-1.0407956835002825
3.461500000000001,-2.8731051640970016,-2.41609419012079,-1.0429249851877156
3.4650000000000034,-3.0020064560030426,-2.3883958148916404,-1.0418603343439992
3.468499999999999,-3.186302753038132,-2.371350929416664,-1.0418603343439992
3.4720000000000013,-3.3418360240003544,-2.375611278120782,-1.035468938623196
3.475500000000004,-3.555961743281279,-2.403309653349932,-1.0280111467294242
3.478999999999999,-3.72001745698099,-2.4427261691769715,-1.0184240531482192
3.4825000000000017,-3.925618988195174,-2.505578966199792,-0.9907256779190692
3.485999999999997,-4.066238420699105,-2.56097397132884,-0.9758118394607777
3.4895,-4.213249248923839,-2.6376759559662344,-0.944917766371226
3.493000000000002,-4.2878201865445495,-2.686679565374479,-0.9161547402983594
3.496499999999997,-4.328301353215306,-2.755923758118102,-0.8810003185046897
3.5,-4.3155185617737,-2.8081230653867486,-0.8469105475547365
3.5035000000000025,-4.237751926292588,-2.8731051640970016,-0.7925801932694049
3.506999999999998,-4.139742962146846,-2.915717377784443,-0.7552947244590501
3.5105000000000004,-3.959708759145127,-2.9721787790864598,-0.7030954171904037
3.514000000000003,-3.7967176962891327,-3.005202153863444,-0.670072042413419
3.5174999999999983,-3.548503951387507,-3.0350315761092794,-0.6327865736030641
3.521000000000001,-3.3450317218607566,-3.042487622673799,-0.614677037284371
3.5245000000000037,-3.061663555165461,-3.036096226952996,-0.5976321518093943
3.5279999999999987,-2.84647318504082,-3.0094642478968145,-0.5891097090719061
3.531500000000001,-2.578018856803816,-2.941284705996908,-0.5933700577760241
3.535000000000004,-2.41183209608742,-2.8699094662366,-0.5955011047927092
3.538499999999999,-2.239253939650221,-2.7687065495597087,-0.6082838962343158
3.5420000000000016,-2.166814049046196,-2.6930709610952825,-0.6157416881280875
3.545499999999997,-2.146573465710818,-2.5939973461058243,-0.6295908757426625
3.5489999999999995,-2.1849235853648894,-2.517297106797681,-0.642373667184269
3.552500000000002,-2.2967799917959537,-2.4235502366853097,-0.6572875056425604
3.5559999999999974,-2.4139631431041053,-2.3606974396624905,-0.6604849488322142
3.5595,-2.595063742278793,-2.273343710600174,-0.6583539018155291
3.5630000000000024,-2.729290033732669,-2.219013356314843,-0.6370469223071823
3.566499999999998,-2.8901500495719783,-2.152964861431621,-0.5880433128989375
3.5700000000000003,-2.992419362421838,-2.121006137498353,-0.5358440056302911
3.573500000000003,-3.1000136748195324,-2.081589621671313,-0.4538170214450616
3.576999999999998,-3.172453565423557,-2.077329272967195,-0.3792460838243518
3.5805000000000007,-3.2470245030442664,-2.093307762269203,-0.260998281672484
3.584000000000003,-3.299223810312913,-2.11461474177755,-0.1736428072809158
3.5874999999999986,-3.3514248629108114,-2.155095908448306,-0.0617864008498512
3.591000000000001,-3.382317190671111,-2.1838589345211727,0.0223716303520633
3.594500000000004,-3.394035331269001,-2.228600449896048,0.1331616406101593
3.597999999999999,-3.382317190671111,-2.2584298721418827,0.2151903701246408
3.601500000000001,-3.316268695787889,-2.298911038812639,0.3185243338182171
3.605000000000004,-3.2544822949380383,-2.328738715729222,0.38350643252847
3.6085,-3.130907747909084,-2.3681552315562624,0.4591437663221482
3.612000000000002,-3.020115992321736,-2.401178606333247,0.5049499325407395
3.615499999999997,-2.868844815392884,-2.44698651788109,0.5496931932448661
3.619,-2.753792711101417,-2.4842719866914447,0.5773915684740161
3.6225000000000014,-2.592932695262108,-2.5258195495351696,0.600827849669796
3.6259999999999977,-2.4672271012164684,-2.555647226451753,0.6104149432510009
3.6295,-2.292519643091836,-2.589736997401706,0.6189373859884891
3.6330000000000022,-2.154031257604589,-2.6110422315808006,0.6125459902676859
3.636499999999998,-1.9612107725027603,-2.636609559793266,0.600827849669796
3.640000000000001,-1.8248534340321991,-2.6504587474078405,0.5805872663344177
3.643500000000003,-1.6330993451033382,-2.6600458409890457,0.5507578440885826
3.6469999999999994,-1.5031334023535805,-2.6600458409890457,0.5262569120490862
3.650500000000001,-1.3529268762684443,-2.661112237162014,0.4889714432387313
3.654000000000004,-1.25705070446864,-2.666438982039101,0.4612730680095813
3.657499999999999,-1.1633038343562685,-2.6696346798995023,0.4261186462159115
3.661000000000002,-1.111104527087622,-2.680286424324424,0.3962909692993285
3.664500000000004,-1.055709521958574,-2.690939914078597,0.3675279432264619
3.6679999999999993,-1.032273240762794,-2.697331309799401,0.3462209637181151
3.6715000000000018,-1.0088369595670144,-2.6962666589556843,0.3334381722765087
3.674999999999997,-1.0088369595670144,-2.686679565374479,0.3366338701369103
3.6785,-1.039729287327314,-2.6770907264640225,0.3600701513326901
3.682000000000002,-1.097255339473047,-2.6749614247765896,0.3877685265618402
3.6854999999999976,-1.215503141624915,-2.6930709610952825,0.4570127193054631
3.689,-1.328425944228948,-2.710115846570259,0.5134723752782278
3.6925000000000026,-1.5084601472306671,-2.735683174782724,0.5976321518093943
3.695999999999998,-1.650144230578315,-2.753792711101417,0.6690056462404504
3.699500000000001,-1.8472250643842625,-2.777228992297197,0.767014610386192
3.703000000000003,-1.9835824028548237,-2.7953385286158903,0.8469105475547365
3.7064999999999984,-2.150833814414936,-2.8177101589679534,0.9459841625441944
3.710000000000001,-2.2552341742814805,-2.827297252549158,1.021619751008621
3.7135000000000034,-2.362828486679175,-2.8315593465825284,1.1036484805231024
3.716999999999999,-2.4203545388249084,-2.833690393599213,1.1558477877917488
3.720500000000001,-2.45870465847898,-2.830494695738812,1.2091117459041116
3.724000000000004,-2.464031403356066,-2.8251679508617253,1.2400058189936634
3.727499999999999,-2.426745934545712,-2.8134498102638354,1.261311053172758
3.7310000000000016,-2.36495953369586,-2.7996006226492605,1.2655731472061282
3.734499999999997,-2.233927194773134,-2.780424690157598,1.2559843082956712
3.738,-2.105025902867093,-2.76018410682222,1.2400058189936634
3.741500000000002,-1.8951640229487907,-2.723965034184834,1.2091117459041116
3.744999999999997,-1.7161927254615363,-2.6888088670619124,1.1792840689875286
3.7485,-1.4690453767328793,-2.631282814916179,1.1398675531604887
3.7520000000000016,-1.2943361732789946,-2.581214554664218,1.108973480070937
3.755499999999998,-1.081276850171039,-2.50983931490391,1.065296615539779
3.759,-0.942788464683793,-2.466162450372752,1.0418603343439992
3.762500000000003,-0.8096250787443816,-2.425681283701995,1.0205551001649042
3.7659999999999982,-0.7499697249112154,-2.4001139554895303,1.0130973082711323
3.7695000000000007,-0.7148135577882937,-2.37667767429375,1.0056395163773606
3.7730000000000032,-0.7244023966987505,-2.37241558026038,1.0045748655336442
3.776499999999999,-0.7712749590903102,-2.3692198823999786,1.012032657427416
3.780000000000001,-0.8256053133756417,-2.37241558026038,1.0237507980253058
3.783500000000004,-0.9076322975608712,-2.370286278572947,1.043991381360684
3.786999999999999,-0.970485094583691,-2.36495953369586,1.0684923134001805
3.7905000000000015,-1.053578474941889,-2.3606974396624905,1.1121691779313387
3.793999999999997,-1.111104527087622,-2.363893137522892,1.1611727873395834
3.7975,-1.173957324110442,-2.366024184539577,1.2442661676977815
3.801000000000002,-1.2069806988874263,-2.370286278572947,1.3081853608935698
3.804499999999997,-1.2346790741165767,-2.375611278120782,1.3944744391121693
3.808,-1.2400058189936634,-2.382004419170837,1.4637186318557929
3.8115000000000014,-1.2229609335186866,-2.379873372154152,1.5489413139014236
3.8149999999999977,-1.1867401155520485,-2.378808721310436,1.6117941109242435
3.8185,-1.1153666211209925,-2.36495953369586,1.677842605807465
3.8220000000000023,-1.045056032204401,-2.3532413930979708,1.7129970276011346
3.825499999999998,-0.9257435792088164,-2.3298051119021905,1.7566738921322929
3.8290000000000006,-0.836258803129815,-2.3159559242876155,1.774785173780238
3.832500000000003,-0.7009661155029706,-2.2935842939355524,1.795025757115616
3.8359999999999994,-0.6093502924072843,-2.276539408460576,1.8046128506968209
3.839500000000001,-0.4868403962220463,-2.260560919158568,1.8152663404509943
3.843000000000004,-0.4048134120368167,-2.240320335823189,1.8152663404509943
3.846499999999999,-0.3078708440640437,-2.200903819996149,1.802481803680136
3.8500000000000014,-0.2503447919183106,-2.172140793923283,1.7865033143781277
3.853500000000004,-0.191754088928861,-2.121006137498353,1.7566738921322929
3.8569999999999993,-0.1608600158393093,-2.0783939238109115,1.7364333087969146
3.860500000000002,-0.1171831513081512,-2.019803220821462,1.7023452831762131
3.863999999999997,-0.0980072188164895,-1.9761263562903035,1.6789072566511811
3.8675,-0.0703088435873395,-1.9090114652341137,1.64481923103048
3.871000000000002,-0.0564614013020165,-1.866400996875924,1.6203165536617317
3.8744999999999976,-0.0468725623915597,-1.8152663404509943,1.6085984130638418
3.878,-0.0426122136874415,-1.7960904079593327,1.6117941109242435
3.8815000000000026,-0.0479389585645282,-1.781176569501041,1.6320346942596218
3.884999999999998,-0.0458079115478431,-1.779045522484356,1.6597330694887715
3.888500000000001,-0.0287630260728665,-1.7822412203447575,1.7087366788970164
3.892000000000003,-0.0085224427374883,-1.795025757115616,1.7513488925844578
3.8954999999999984,0.0490036094082447,-1.806743897713506,1.8216577361717976
3.899000000000001,0.1075943123976944,-1.820593085328081,1.873857043440444
3.9025000000000034,0.219450718828759,-1.8323112259259708,1.9420365853403505
3.905999999999999,0.3206536355056502,-1.8323112259259708,1.9931712417652805
3.909500000000001,0.4847093492053612,-1.8280491318926009,2.053892991771415
3.913000000000004,0.6136106411114024,-1.8120706425905928,2.096503460129605
3.916499999999999,0.7797974018277984,-1.7843722673614426,2.140182069990015
3.9200000000000017,0.905502995873438,-1.763067033182348,2.172140793923283
3.923499999999997,1.063165568523094,-1.7247151681990245,2.201968470839866
3.927,1.1718262770937566,-1.6927564442657563,2.2179487054711258
3.930500000000002,1.298596521983113,-1.6437528348575114,2.228600449896048
3.9339999999999975,1.3859519963746811,-1.60114062117007,2.2349935909461025
3.9375,1.486088516878604,-1.5425499181806204,2.2328625439294174
3.9410000000000025,1.5478766630577072,-1.4935463087723757,2.219013356314843
3.944499999999998,1.614989808784645,-1.4317599079225245,2.2040995178565512
3.948,1.6533416737679685,-1.3912769959225155,2.1849235853648894
3.951500000000003,1.6927564442657563,-1.3412087356705549,2.1636183511857947
3.9549999999999983,1.7098013297407328,-1.3071189647206012,2.152964861431621
3.958500000000001,1.739630751986568,-1.282618032681105,2.1359199759566443
3.9620000000000033,1.7577402883052613,-1.2666377980498449,2.130593231079558
3.965499999999999,1.7822412203447575,-1.25705070446864,2.111419043917148
3.969000000000001,1.806743897713506,-1.2485282617311515,2.0997009033192584
3.972500000000004,1.8429629703508923,-1.2400058189936634,2.0890474135650847
3.975999999999999,1.8759880904571289,-1.2272212822228048,2.0847853195317145
3.9795000000000016,1.9186003041445707,-1.2261566313790884,2.094374158442172
3.982999999999997,1.9484279810611536,-1.219765235658285,2.09863450714629
3.9865,1.9793220541507053,-1.2272212822228048,2.1220707883420697
3.990000000000002,2.0027583353464853,-1.22935232923949,2.140182069990015
3.993499999999997,2.0187385699777454,-1.2378747719769785,2.168945096062881
3.997,2.027261012715233,-1.2389411681499467,2.188119283225291
4.000500000000002,2.032586012263068,-1.235743724960293,2.2147530076107245
4.003999999999998,2.033652408436037,-1.2250919805353715,2.2349935909461025
4.0075,2.033652408436037,-1.20591604804371,2.249907429404394
4.011000000000003,2.046435199877643,-1.1835444176916468,2.270148012739772
4.014499999999998,2.069871481073423,-1.1611727873395834,2.2882575490584656
4.018000000000001,2.094374158442172,-1.144129647193859,2.2967799917959537
4.021500000000003,2.1284639293921246,-1.124953714702197,2.3127602264272142
4.024999999999999,2.154031257604589,-1.1153666211209925,2.324478367025104
4.028500000000001,2.188119283225291,-1.1057777822105357,2.3351318567792774
4.032000000000004,2.2115573097503227,-1.0993863864897322,2.340456856327112
4.035499999999999,2.2349935909461025,-1.095126037785614,2.334065460606309
4.0390000000000015,2.249907429404394,-1.0876682458918423,2.326609414041789
4.042500000000004,2.2722790597564577,-1.0759501052939522,2.2999756896563555
4.045999999999999,2.2861265020417805,-1.0663630117127476,2.276539408460576
4.049500000000002,2.3191516221480173,-1.051447427925204,2.240320335823189
4.052999999999997,2.351110346081285,-1.0493181262377709,2.221144403331528
4.0565,2.3926561635957584,-1.0482517300648024,2.190250330241976
4.060000000000002,2.428876981562397,-1.0589052198189757,2.1678786998899127
4.063499999999998,2.46296675251235,-1.0706233604168656,2.139115673817046
4.067,2.483207335847728,-1.0866035950481256,2.1220707883420697
4.070500000000003,2.4949254764456184,-1.097255339473047,2.1007655541629746
4.073999999999998,2.497056523462303,-1.1132355741043072,2.087982762721368
4.077500000000001,2.4874676845518464,-1.138802902316772,2.069871481073423
4.081000000000003,2.476815940126925,-1.160108136495867,2.059219736648502
4.084499999999999,2.45870465847898,-1.192066860429135,2.043239502017242
4.088000000000001,2.441661518333255,-1.215503141624915,2.026194616542265
4.091500000000004,2.421419189668625,-1.2463972147144666,2.0059540332068866
4.094999999999999,2.41183209608742,-1.2645067510331598,1.9857134498715088
4.098500000000001,2.401178606333247,-1.28048698566442,1.9601461216590437
4.102000000000004,2.4043760495229005,-1.2922051262623095,1.938840887479949
4.105499999999999,2.4235502366853097,-1.3081853608935698,1.9122071630945157
4.109000000000002,2.448052914054059,-1.3230991993518617,1.894097626775822
4.112499999999997,2.489598731568531,-1.3433397826872395,1.8791837883175309
4.116,2.529015247395572,-1.3550579232851294,1.8642699498592392
4.119500000000002,2.5908016482454226,-1.3721028087601062,1.8461604135405456
4.1229999999999976,2.645132002530754,-1.377429553637193,1.8323112259259708
4.1265,2.728225382888952,-1.3827562985142796,1.8056775015405373
4.130000000000003,2.793209226928457,-1.379558855324626,1.774785173780238
4.133499999999998,2.8901500495719783,-1.379558855324626,1.7364333087969146
4.1370000000000005,2.971112382913492,-1.3784942044809092,1.7023452831762131
4.140500000000003,3.084035185517524,-1.383820949357996,1.6629287673491733
4.143999999999998,3.17138891457984,-1.3870166472183978,1.6320346942596218
4.147500000000001,3.293898810765078,-1.4019304856766894,1.603271668186755
4.151000000000003,3.3737947479336228,-1.4083218813974925,1.5851621318680618
4.154499999999999,3.470737315906396,-1.4104529284141776,1.563855152359715
4.158000000000001,3.526132321035444,-1.407257230553776,1.545745616041022
4.161500000000004,3.5847247693541453,-1.3912769959225155,1.534027475443132
4.164999999999999,3.622010238164501,-1.3784942044809092,1.525505032705644
4.168500000000002,3.667818149712344,-1.3646450168663344,1.5095265434036358
4.171999999999997,3.6997768736456114,-1.3507958292517597,1.4978066574764937
4.1755,3.735995946282998,-1.332686292933066,1.4818281681744856
4.179000000000002,3.757302925791345,-1.3252302463685464,1.4637186318557929
4.182499999999997,3.771150368076668,-1.3135103604414045,1.4360202566266425
4.186,3.774347811266322,-1.3049879177039163,1.4104529284141776
4.189500000000002,3.761563274495463,-1.29646722029568,1.379558855324626
4.192999999999998,3.747714086880888,-1.2858137305415065,1.3497311784080428
4.1965,3.7274735035455095,-1.2794223348207032,1.314576756614373
4.200000000000003,3.7029725715060136,-1.2762248916310497,1.286878381385223
4.203499999999998,3.6710138475727447,-1.267704194222813,1.2559843082956712
4.207000000000001,3.650773264237367,-1.2645067510331598,1.22935232923949
4.210500000000003,3.628401633885304,-1.259181751485325,1.203785001027025
4.213999999999999,3.592180815918665,-1.2485282617311515,1.17821767281456
4.217500000000001,3.562353139002082,-1.24533256387075,1.1547813916187804
4.221000000000004,3.512283133420869,-1.2378747719769785,1.130280459579284
4.224499999999999,3.473933013766797,-1.23361442327286,1.1153666211209925
4.2280000000000015,3.4217337064981512,-1.2272212822228048,1.1121691779313387
4.231499999999997,3.382317190671111,-1.231483376256175,1.1079088292272203
4.234999999999999,3.3418360240003544,-1.2368101211332618,1.1185623189813938
4.238500000000002,3.3269221855420628,-1.235743724960293,1.1281494125625986
4.241999999999997,3.3258575346983466,-1.2432015168540649,1.132411506595969
4.2455,3.3418360240003544,-1.2410704698373798,1.1377365061438036
4.249000000000002,3.3876439355481978,-1.2517239595915532,1.1270847617188822
4.252499999999998,3.4270604513752376,-1.2517239595915532,1.1057777822105357
4.256,3.4963046441188608,-1.2506593087478366,1.0684923134001805
4.259500000000003,3.549570347560476,-1.2527886104352697,1.0237507980253058
4.262999999999998,3.6145524462707286,-1.2506593087478366,0.960898001002486
4.266500000000001,3.662491404835257,-1.247461865558183,0.9086986937338396
4.270000000000003,3.7274735035455095,-1.235743724960293,0.8437148496943347
4.273499999999999,3.784999555691243,-1.2272212822228048,0.7957776364590586
4.277000000000001,3.870223983066126,-1.215503141624915,0.7350541411236718
4.280500000000004,3.951186316407639,-1.2112427929207967,0.6913772765925138
4.283999999999999,4.048128884380412,-1.2144384907811985,0.630655526586379
4.287500000000001,4.122699822001121,-1.2186988394853169,0.5891097090719061
4.291000000000004,4.213249248923839,-1.2186988394853169,0.5305172607532044
4.294499999999999,4.266514952365455,-1.2112427929207967,0.4911024902554164
4.298000000000002,4.3261703061986205,-1.196328954462505,0.4410324846742031
4.301499999999997,4.368782519886063,-1.176088371127127,0.4186608543221398
4.305,4.409263686556819,-1.1654348813729536,0.3909642244222418
4.308500000000002,4.450811249400544,-1.1483899958979769,0.3856374795451551
4.311999999999998,4.513664046423363,-1.130280459579284,0.3909642244222418
4.3155,4.562665910502356,-1.1196269698251105,0.4122694586013365
4.319000000000003,4.628714405385578,-1.1079088292272203,0.4431635316908882
4.322499999999998,4.659608478475129,-1.0993863864897322,0.464468765869983
4.3260000000000005,4.670261968229303,-1.0897992929085274,0.5017542346803379
4.329500000000003,4.647890337877239,-1.0844725480314406,0.5315836569261729
4.332999999999998,4.575450447273215,-1.081276850171039,0.5763251723010476
4.336500000000001,4.493421717758733,-1.083406151858472,0.6157416881280875
4.340000000000003,4.363455775008975,-1.0887328967355587,0.6658099483800488
4.343499999999999,4.255861462611281,-1.097255339473047,0.7052264642070888
4.347000000000001,4.113110983090665,-1.1025820843501335,0.7510343757549319
4.350500000000004,4.010843415570057,-1.1079088292272203,0.7851241467048852
4.353999999999999,3.869157586893157,-1.1132355741043072,0.820278568498555
4.357500000000002,3.773281415093353,-1.1185623189813938,0.8437148496943347
4.360999999999997,3.64118442532691,-1.1238890638584804,0.8682175270630832
4.3645,3.544243602683389,-1.1334761574396854,0.8905874120858945
4.368000000000002,3.4142759146043797,-1.1494546467416935,0.9150900894546428
4.3714999999999975,3.323726487681661,-1.164370230529237,0.9268082300525328
4.375,3.2129347320943134,-1.18247976684793,0.9459841625441944
4.3785000000000025,3.146887982540344,-1.1952625582895369,0.9577023031420844
4.381999999999998,3.0765773936237526,-1.2133738399374818,0.9715514907566596
4.3855,3.048879018394602,-1.2218962826749702,0.9790075373211792
4.389000000000003,3.030769482075909,-1.2261566313790884,0.9885963762316362
4.392499999999998,3.028638435059224,-1.2261566313790884,0.9917920740920376
4.396000000000001,3.0392919248133974,-1.2218962826749702,0.9949877719524394
4.399500000000003,3.047814367550886,-1.215503141624915,0.9939213757794708
4.402999999999999,3.059532508148776,-1.2091117459041116,1.000314516829526
4.406500000000001,3.069121347059233,-1.2048513971999937,1.0045748655336442
4.410000000000004,3.0893619303946105,-1.1995246523229068,1.0130973082711323
4.413499999999999,3.09681797695913,-1.196328954462505,1.022684401852337
4.417000000000002,3.1319723987528008,-1.1899375587417018,1.0429249851877156
4.420499999999997,3.162866471842352,-1.18247976684793,1.0578405689752592
4.424,3.223588221848487,-1.1750219749541586,1.079145803154354
4.427500000000002,3.274722878273417,-1.1718262770937566,1.0919285945959605
4.430999999999997,3.339706722312921,-1.1846108138646152,1.106844178383504
4.4345,3.379121492810709,-1.2069806988874263,1.1217580168417955
4.438000000000002,3.424929404358553,-1.2442661676977815,1.1462589488812918
4.441499999999998,3.456888128291821,-1.286878381385223,1.1633038343562685
4.445,3.488846852225089,-1.3571889703018147,1.192066860429135
4.448500000000003,3.506958133873034,-1.405126183537091,1.208047095060395
4.451999999999998,3.526132321035444,-1.4711746784203124,1.2272212822228048
4.455500000000001,3.532525462085499,-1.5244403818619272,1.2421368660103485
4.459000000000003,3.5335901129292155,-1.583031084851377,1.247461865558183
4.462499999999999,3.520805576158357,-1.626707949382535,1.247461865558183
4.466000000000001,3.499500341979262,-1.6853003977012364,1.2410704698373798
4.469500000000004,3.474999409939766,-1.7247151681990245,1.22935232923949
4.472999999999999,3.4270604513752376,-1.774785173780238,1.2144384907811985
4.4765000000000015,3.3855128885315127,-1.806743897713506,1.201655699339592
4.480000000000004,3.316268695787889,-1.8610742519988372,1.176088371127127
4.483499999999999,3.25767799279844,-1.887706231055019,1.160108136495867
4.487000000000002,3.1735199615965253,-1.9271227468820589,1.1292140634063152
4.490499999999997,3.097884373132099,-1.945232283200752,1.097255339473047
4.494,3.005202153863444,-1.9590814708153272,1.055709521958574
4.497500000000002,2.928501914555301,-1.9612107725027603,1.0194887039919358
4.500999999999998,2.827297252549158,-1.9718642622569336,0.9694204437399744
4.5045,2.749530617068047,-1.9633418195194452,0.9374617198067065
4.508000000000003,2.664307935022416,-1.9548193767819568,0.9076322975608712
4.511499999999998,2.608912929893368,-1.9505590280778389,0.8927184591025796
4.515000000000001,2.555647226451753,-1.938840887479949,0.8778046206442881
4.518500000000003,2.5258195495351696,-1.9345787934465783,0.8714132249234848
4.521999999999999,2.510905711076878,-1.920729605832004,0.8564993864651933
4.525500000000001,2.511970361920594,-1.9186003041445707,0.8469105475547365
4.529000000000004,2.5311462944122565,-1.9090114652341137,0.8309320582527283
4.532499999999999,2.56097397132884,-1.9122071630945157,0.8192139176548384
4.536000000000001,2.617435372630856,-1.9090114652341137,0.7957776364590586
4.539500000000004,2.6749614247765896,-1.9079468143903973,0.7915155424256883
4.542999999999999,2.7687065495597087,-1.904751116529996,0.780862052671515
4.546500000000002,2.8475378358845367,-1.900489022496625,0.7776663548111135
4.549999999999997,2.9679166850530896,-1.8919665797591367,0.7723396099340267
4.5535,3.0637946021821456,-1.8845105331946173,0.7691439120736251
4.557000000000002,3.195891591948589,-1.8770527413008455,0.7574257714757352
4.5604999999999976,3.299223810312913,-1.871725996423759,0.7510343757549319
4.564,3.43025614923564,-1.860007855825869,0.7371851881403569
4.567500000000003,3.5282633680521287,-1.8546811109487824,0.7297291415758372
4.570999999999998,3.650773264237367,-1.8365715746300888,0.7158799539612621
4.5745000000000005,3.735995946282998,-1.8248534340321991,0.7105532090841755
4.578000000000003,3.831873863412054,-1.8078085485572224,0.697768672313317
4.581499999999998,3.897922358295276,-1.7886343613948128,0.6913772765925138
4.585000000000001,3.9724915505867338,-1.769458428903151,0.6764634381342222
4.588500000000003,4.0172348112908605,-1.7534781942718909,0.6658099483800488
4.591999999999999,4.06410737368242,-1.730041913076111,0.6413090163405525
4.595500000000001,4.083283306174081,-1.7225858665115914,0.6231994800218592
4.599000000000004,4.08008760831368,-1.7151280746178197,0.5986968026531109
4.602499999999999,4.0566513271179,-1.7247151681990245,0.5795208701614492
4.606000000000002,3.9863407382013087,-1.749217845567773,0.5518242402615512
4.609499999999997,3.905378404859796,-1.774785173780238,0.5315836569261729
4.613,3.779672810814157,-1.806743897713506,0.5049499325407395
4.616500000000002,3.675274196276863,-1.8376379708030577,0.4911024902554164
4.619999999999997,3.5357211599459006,-1.885575184038334,0.4783179534845579
4.6235,3.4387785919731275,-1.9281873977257755,0.4697955107470696
4.627000000000002,3.3258575346983466,-1.972930658429902,0.464468765869983
4.630499999999998,3.249155550060952,-2.011280778083973,0.4602084171658648
4.634,3.164997518859037,-2.046435199877643,0.4548816722887781
4.637500000000003,3.1064050705403354,-2.0762646221234786,0.4463592295512898
4.640999999999998,3.0329005290925943,-2.094374158442172,0.43890318298677
4.644500000000001,2.978570174807263,-2.093307762269203,0.4261186462159115
4.648000000000003,2.9221087735052462,-2.081589621671313,0.4058780628805333
4.651499999999999,2.8837586538511752,-2.0645447361963365,0.3941599222826434
4.655000000000001,2.8475378358845367,-2.032586012263068,0.3803107346680683
4.658500000000004,2.824101554688757,-2.003822986190201,0.3675279432264619
4.661999999999999,2.8017316696659456,-1.9505590280778389,0.3515477085952018
4.6655000000000015,2.782555737174284,-1.9143382101112003,0.3398295679973119
4.668999999999997,2.751661664084732,-1.8642699498592392,0.3227846825223353
4.672499999999999,2.7175718931347785,-1.822722387015514,0.3089354949077603
4.676000000000002,2.668568283726534,-1.779045522484356,0.286565609884949
4.679499999999997,2.620631070491258,-1.7502824964114894,0.2705853752536888
4.683,2.558842924312154,-1.719388423321938,0.2524758389349957
4.686500000000002,2.5077082678872245,-1.6980831891428432,0.2407576983371057
4.689999999999998,2.443790820020688,-1.6757115587907798,0.2226464166891606
4.6935,2.397982908472845,-1.6618641165054566,0.2066679273871525
4.697000000000003,2.3532413930979708,-1.64481923103048,0.1811005991746876
4.700499999999998,2.328738715729222,-1.629903647242937,0.1640557136997109
4.704000000000001,2.3116938302542454,-1.6117941109242435,0.136357338470561
4.707500000000003,2.3116938302542454,-1.5979449233096683,0.1193124529955843
4.710999999999999,2.321282669164702,-1.5766396891305736,0.0937468701123714
4.714500000000001,2.3372611584667102,-1.5595948036555969,0.0724398906040246
4.718000000000004,2.366024184539577,-1.5393542203202186,0.0436768645311581
4.721499999999999,2.3926561635957584,-1.5191136369848404,0.0245026773687483
4.725000000000001,2.4320726794227983,-1.498873053649462,-0.0074577918937717
4.728500000000004,2.457640007635263,-1.4775660741411154,-0.0383501196540714
4.731999999999999,2.497056523462303,-1.4520004912579023,-0.0777666354811113
4.735500000000002,2.5258195495351696,-1.4221710690120672,-0.1097253594143795
4.738999999999997,2.564169669189241,-1.399799438660004,-0.1459461773810178
4.7425,2.589736997401706,-1.3870166472183978,-0.1747092034538843
4.746000000000002,2.6216957213349743,-1.3710364125871377,-0.2141239739516723
4.749499999999998,2.640871653826636,-1.3625139698496491,-0.2418223491808223
4.753,2.651523398251557,-1.353991527112161,-0.274847469287059
4.756500000000003,2.651523398251557,-1.3507958292517597,-0.3057397970473587
4.759999999999998,2.6376759559662344,-1.3497311784080428,-0.3504830577514853
4.7635000000000005,2.6153043256141717,-1.3465354805476413,-0.3824417816847534
4.767000000000003,2.5758878097871314,-1.3529268762684443,-0.4218582975117934
4.770499999999998,2.5375376901330595,-1.353991527112161,-0.4452945787075733
4.774000000000001,2.4725538460935548,-1.3625139698496491,-0.4740576047804398
4.777500000000003,2.4182234918082237,-1.3731674596038226,-0.4932317919428495
4.780999999999999,2.338327554639679,-1.3848856002017127,-0.5134723752782278
4.784500000000001,2.270148012739772,-1.397670136972571,-0.533712958613606
4.788000000000004,2.1753364917836846,-1.4104529284141776,-0.5571509851386378
4.791499999999999,2.107156949883778,-1.4243021160287526,-0.5699337765802444
4.795000000000002,2.008085080223572,-1.446673746380816,-0.5965657556364258
4.798499999999997,1.9345787934465783,-1.4583918869787058,-0.614677037284371
4.802,1.8472250643842625,-1.474370376280714,-0.6402426201675839
4.805500000000002,1.7833076165177262,-1.494610959616092,-0.6615495996759307
4.8089999999999975,1.706605631880331,-1.5137868921077535,-0.6871169278883955
4.8125,1.6576020224720869,-1.522309334845242,-0.7116178599278921
4.8160000000000025,1.6000759703263534,-1.5414852673369035,-0.753165422771617
4.819499999999998,1.561725850672282,-1.5521370117618252,-0.7797974018277984
4.823,1.527636079722329,-1.569181897236802,-0.8288010112360433
4.826500000000003,1.5116558450910689,-1.584095735695093,-0.8724778757672014
4.829999999999998,1.504199798526549,-1.5936845746055504,-0.9204168343317296
4.833500000000001,1.5010041006661472,-1.5936845746055504,-0.9555712561253994
4.837000000000003,1.5105911942473522,-1.5904888767451486,-0.9949877719524394
4.840499999999999,1.518048986141124,-1.5936845746055504,-1.0130973082711323
4.844000000000001,1.5212446840015257,-1.5947492254492668,-1.0418603343439992
4.847500000000004,1.5212446840015257,-1.5979449233096683,-1.0578405689752592
4.850999999999999,1.5105911942473522,-1.60540271520344,-1.083406151858472
4.854500000000002,1.498873053649462,-1.6107294600805269,-1.095126037785614
4.857999999999997,1.4722410745932808,-1.6213812045054483,-1.1153666211209925
4.8615,1.4583918869787058,-1.6309700434159051,-1.1164312719647087
4.865000000000002,1.432824558766241,-1.6416217878408266,-1.1196269698251105
4.868499999999997,1.4189753711516655,-1.648014928890882,-1.1153666211209925
4.872,1.4040615326933743,-1.6629287673491733,-1.1057777822105357
4.875500000000002,1.3966037407996024,-1.6746469079470632,-1.1015174335064173
4.878999999999998,1.402996881849658,-1.6991478399865596,-1.092994990768929
4.8825,1.4061925797100594,-1.727910866059426,-1.0919285945959605
4.886000000000003,1.4147150224475475,-1.765196334869781,-1.0983217356460158
4.889499999999998,1.4243021160287526,-1.7939593609426474,-1.106844178383504
4.893000000000001,1.4413470015037293,-1.8429629703508923,-1.1174959228084254
4.896500000000003,1.448803048068249,-1.8866415802113023,-1.134540808283402
4.899999999999999,1.4541297929453356,-1.9494926319048704,-1.164370230529237
4.903500000000001,1.4413470015037293,-1.9984962413131149,-1.1995246523229068
4.907000000000004,1.4221710690120672,-2.074133575106793,-1.267704194222813
4.910499999999999,1.395539089955886,-2.132724278096243,-1.324163850195578
4.9140000000000015,1.3454708297039246,-2.2072952157169525,-1.405126183537091
4.917500000000004,1.3017922198435146,-2.2616255700022845,-1.4594565378224222
4.920999999999999,1.247461865558183,-2.3255430178688203,-1.5308317775827305
4.924500000000002,1.2005893031666235,-2.3692198823999786,-1.573443991270172
4.927999999999997,1.136671855300087,-2.422485585841593,-1.624578647695102
4.9315,1.0940596416126456,-2.457640007635263,-1.65653737162837
4.935000000000002,1.0344025424502272,-2.510905711076878,-1.6991478399865596
4.938499999999998,0.9949877719524394,-2.546060132870548,-1.7225858665115914
4.942,0.9385263706504228,-2.596128393122509,-1.7588049391489775
4.945500000000003,0.9001762509963515,-2.631282814916179,-1.7833076165177262
4.948999999999998,0.8554329902922247,-2.6834838675140773,-1.818462038311396
4.952500000000001,0.8245406625319252,-2.715442591447346,-1.8365715746300888
4.956000000000003,0.7936465894423735,-2.7548573619451338,-1.8589432049821528
4.959499999999999,0.7766017039673969,-2.779360039313882,-1.866400996875924
4.963000000000001,0.7638171671965385,-2.8017316696659456,-1.881314835334216
4.966500000000004,0.7627525163528219,-2.8081230653867486,-1.885575184038334
4.969999999999999,0.7659482142132235,-2.826232601705441,-1.8951640229487907
4.973500000000001,0.7712749590903102,-2.8294282995658437,-1.897293324636224
4.977000000000004,0.7819284488444836,-2.835819695286647,-1.904751116529996
4.980499999999999,0.7861887975486017,-2.826232601705441,-1.904751116529996
4.984000000000002,0.7861887975486017,-2.8091877162304653,-1.9026200695133104
4.987499999999997,0.7872551937215703,-2.790013529068055,-1.897293324636224
4.991,0.7787327509840819,-2.7623151538389057,-1.8834458823509008
4.994500000000002,0.7723396099340267,-2.738878872643125,-1.874923439613413
4.9979999999999976,0.753165422771617,-2.7058537525368886,-1.862138902842554
5.0015,0.7435765838611602,-2.678157122636991,-1.8546811109487824
5.005000000000003,0.7297291415758372,-2.654719096111959,-1.860007855825869
5.008499999999998,0.7190756518216638,-2.631282814916179,-1.8674656477196407
5.0120000000000005,0.7201403026653803,-2.609977580737084,-1.885575184038334
5.015500000000003,0.725467047542467,-2.5939973461058243,-1.8983597208091925
5.018999999999998,0.7307937924195538,-2.5652343200329577,-1.9164692571278852
5.022500000000001,0.7382515843133254,-2.5364712939600915,-1.9239270490216571
5.026000000000003,0.7414472821737271,-2.4938608256019017,-1.9345787934465783
5.029499999999999,0.7425119330174437,-2.4565753567915465,-1.9420365853403505
5.033000000000001,0.7307937924195538,-2.395853606785412,-1.944167632357036
5.036500000000004,0.7180110009779472,-2.356437090958372,-1.945232283200752
5.039999999999999,0.6988350684862855,-2.3074334815501274,-1.946296934044469
5.043500000000002,0.6764634381342222,-2.273343710600174,-1.938840887479949
5.046999999999997,0.6455693650446706,-2.2328625439294174,-1.9345787934465783
5.0505,0.6136106411114024,-2.2051641687002674,-1.9303184447424608
5.054000000000002,0.5635423808594411,-2.1710743977503144,-1.915404606284169
5.057499999999997,0.5156034222949128,-2.146573465710818,-1.9079468143903973
5.061,0.4399678338304866,-2.1252682315317237,-1.8951640229487907
5.064500000000002,0.3728546881035486,-2.106092299040061,-1.8887708818987357
5.067999999999998,0.2684543282370038,-2.077329272967195,-1.885575184038334
5.0715,0.180035948330971,-2.054957642615132,-1.8834458823509008
5.075000000000003,0.0916158230956863,-2.02832566355895,-1.8759880904571289
5.078499999999998,-0.0383501196540714,-1.982517752011107,-1.8781191374738144
5.082000000000001,-0.1576643179789077,-1.940970189167382,-1.8866415802113023
5.085500000000003,-0.2428870000245388,-1.9090114652341137,-1.8930329759321056
5.088999999999999,-0.314262239784847,-1.8845105331946173,-1.9090114652341137
5.092500000000001,-0.3845728287014385,-1.8589432049821528,-1.9303184447424608
5.096000000000004,-0.4165315526347067,-1.841898319507176,-1.947363330217437
5.099499999999999,-0.43890318298677,-1.8216577361717976,-1.966537517379847
5.1030000000000015,-0.4271832970596281,-1.8131352934343088,-1.982517752011107
5.106499999999997,-0.4005513180034466,-1.7960904079593327,-1.9899755439048787
5.109999999999999,-0.3728546881035486,-1.7843722673614426,-1.9974315904693984
5.113500000000002,-0.3249157295390203,-1.7577402883052613,-1.992104845592312
5.116999999999997,-0.2918906094327836,-1.7406954028302846,-1.9867781007152248
5.1205,-0.2396913021641372,-1.721519470338623,-1.968668564396532
5.124000000000002,-0.2119946722642392,-1.7151280746178197,-1.952690075094524
5.127499999999998,-0.1842962970350892,-1.723650517355308,-1.9271227468820589
5.131,-0.1757738542976009,-1.7428264498469697,-1.9090114652341137
5.134500000000003,-0.1949497867892626,-1.7886343613948128,-1.874923439613413
5.137999999999998,-0.2141239739516723,-1.818462038311396,-1.8632035536862703
5.141500000000001,-0.2812388650078622,-1.8706613455800425,-1.8387026216467743
5.145000000000003,-0.3483520107348002,-1.913273559267484,-1.8216577361717976
5.148499999999999,-0.464468765869983,-1.97719100713402,-1.806743897713506
5.152000000000001,-0.5656734278761262,-2.02406356952558,-1.8056775015405373
5.155500000000004,-0.7180110009779472,-2.0762646221234786,-1.8131352934343088
5.158999999999999,-0.8319967090964449,-2.1103526477441794,-1.820593085328081
5.162500000000001,-0.9917920740920376,-2.143377767850416,-1.8408336686634592
5.166000000000004,-1.092994990768929,-2.1636183511857947,-1.8568121579654675
5.169499999999999,-1.2144384907811985,-2.1795968404878026,-1.8727923925967276
5.173000000000002,-1.2879447775581916,-2.1838589345211727,-1.885575184038334
5.176499999999997,-1.3625139698496491,-2.1753364917836846,-1.904751116529996
5.18,-1.3923433920954844,-2.1636183511857947,-1.921796002004972
5.183500000000002,-1.409388277570461,-2.1359199759566443,-1.9377744913069803
5.186999999999998,-1.3966037407996024,-2.130593231079558,-1.9558857729549253
5.1905,-1.3571889703018147,-2.121006137498353,-1.966537517379847
5.194000000000003,-1.3167078036310582,-2.113548345604581,-1.9654728665361303
5.197499999999998,-1.2581153553123563,-2.1039612520233764,-1.9516236789215555
5.2010000000000005,-1.2165695377978836,-2.093307762269203,-1.921796002004972
5.204500000000003,-1.1728926732667255,-2.07946031998388,-1.8887708818987357
5.207999999999998,-1.1430632510208902,-2.074133575106793,-1.852551809261349
5.211500000000001,-1.1143002249480238,-2.0837206686879983,-1.8056775015405373
5.215000000000003,-1.1025820843501335,-2.095438809285888,-1.767327381886466
5.218499999999999,-1.0940596416126456,-2.130593231079558,-1.7247151681990245
5.222000000000001,-1.0983217356460158,-2.164683002029511,-1.6927564442657563
5.225500000000004,-1.1206916206688269,-2.21262196059404,-1.654406324611685
5.228999999999999,-1.1419986001771738,-2.248842778560677,-1.6288389963992198
5.232500000000002,-1.1931332566021038,-2.289322199902182,-1.603271668186755
5.235999999999997,-1.2368101211332618,-2.3159559242876155,-1.5862267827117784
5.2395,-1.3092500117372865,-2.345783601204199,-1.5702482934097703
5.243000000000002,-1.3657114130393029,-2.3681552315562624,-1.5702482934097703
5.2464999999999975,-1.4498694442412174,-2.3915915127520417,-1.583031084851377
5.25,-1.5031334023535805,-2.4075717473833023,-1.6075337622201251
5.2535000000000025,-1.575575038286857,-2.4182234918082237,-1.64481923103048
5.256999999999998,-1.6181855066450466,-2.41183209608742,-1.6799736528241498
5.2605,-1.6735822571033467,-2.378808721310436,-1.7183237724782212
5.264000000000003,-1.7012788870032447,-2.341523252500081,-1.7428264498469697
5.267499999999998,-1.7311083092490798,-2.276539408460576,-1.781176569501041
5.271000000000001,-1.7343040071094815,-2.225404752035646,-1.8014171528364191
5.274500000000003,-1.7129970276011346,-2.168945096062881,-1.820593085328081
5.277999999999999,-1.6874296993886695,-2.136986372129613,-1.8408336686634592
5.281500000000001,-1.6394924861533935,-2.1039612520233764,-1.8685302985633567
5.285000000000004,-1.599011319482637,-2.094374158442172,-1.887706231055019
5.288499999999999,-1.5649215485326835,-2.081589621671313,-1.8962286737925071
5.292000000000002,-1.5414852673369035,-2.070937877246392,-1.889837278071704
5.295499999999997,-1.5425499181806204,-2.04749985072136,-1.8642699498592392
5.299,-1.5606594544993135,-2.037912757140155,-1.834440527613404
5.302500000000002,-1.6139251579409286,-2.0251299656985484,-1.7801119186573249
5.305999999999997,-1.6714512100866616,-2.027261012715233,-1.7385643558135997
5.3095,-1.7662627310427494,-2.049630897738045,-1.6821046998408349
5.313000000000002,-1.849356111400948,-2.0783939238109115,-1.64055713699711
5.316499999999998,-1.968668564396532,-2.142311371677448,-1.5926181784325817
5.32,-2.058153340475533,-2.1966417259627797,-1.5627905015159986
5.323500000000003,-2.164683002029511,-2.282930804181379,-1.5148515429514704
5.326999999999998,-2.233927194773134,-2.345783601204199,-1.4871549130515724
5.330500000000001,-2.306367085377159,-2.425681283701995,-1.4370849074703589
5.334000000000003,-2.3436525541875133,-2.4800116379873267,-1.4147150224475475
5.337499999999999,-2.3777423251374668,-2.541798038837178,-1.390212345078799
5.341000000000001,-2.3969182576291286,-2.5758878097871314,-1.3816899023413112
5.344500000000004,-2.4054407003666167,-2.609977580737084,-1.3912769959225155
5.347999999999999,-2.401178606333247,-2.624891419195376,-1.407257230553776
5.3515000000000015,-2.382004419170837,-2.622760372178691,-1.439215954487044
5.354999999999997,-2.3617638358354585,-2.597194789295478,-1.4583918869787058
5.358499999999999,-2.331934413589624,-2.539668737149745,-1.476501423297399
5.362000000000002,-2.3074334815501274,-2.4800116379873267,-1.4871549130515724
5.365499999999997,-2.2861265020417805,-2.386264767874956,-1.5010041006661472
5.369,-2.2818661533376625,-2.306367085377159,-1.5105911942473522
5.372500000000002,-2.295715340952237,-2.194512424275346,-1.522309334845242
5.375999999999998,-2.323411970852136,-2.1124836947608645,-1.5329628245994156
5.3795,-2.383069070014554,-2.011280778083973,-1.5372231733035338
5.383000000000003,-2.440595122160287,-1.944167632357036,-1.5382895694765022
5.386499999999998,-2.5375376901330595,-1.8642699498592392,-1.5329628245994156
5.390000000000001,-2.6153043256141717,-1.8280491318926009,-1.52656968354936
5.393500000000003,-2.729290033732669,-1.795025757115616,-1.5287007305660454
5.396999999999999,-2.821972253001324,-1.792894710098931,-1.525505032705644
5.400500000000001,-2.9402200551531914,-1.811004246417624,-1.527636079722329
5.404000000000004,-3.031834132919626,-1.8365715746300888,-1.5297671267390138
5.407499999999999,-3.1479526333840604,-1.8887708818987357,-1.545745616041022
5.411000000000001,-3.228914966725573,-1.931383095586177,-1.5563991057951954
5.414500000000004,-3.30881264922337,-1.9910401947485952,-1.569181897236802
5.417999999999999,-3.3535541645982443,-2.04004380415684,-1.573443991270172
5.421500000000002,-3.392970680425284,-2.0975698563025733,-1.569181897236802
5.424999999999997,-3.405753471866891,-2.136986372129613,-1.5574637566389118
5.4285,-3.40681986803986,-2.1774675388003697,-1.5393542203202186
5.432000000000002,-3.3951017274419697,-2.1966417259627797,-1.5212446840015257
5.4354999999999976,-3.3780568419669925,-2.2168823092981573,-1.4999377044931788
5.439,-3.364207654352418,-2.229666846069016,-1.4850238660348871
5.442500000000003,-3.3578162586316145,-2.240320335823189,-1.4562608399620207
5.445999999999998,-3.35568521161493,-2.240320335823189,-1.4317599079225245
5.4495000000000005,-3.358880909475331,-2.2381892888065043,-1.383820949357996
5.453000000000003,-3.3631430035087018,-2.225404752035646,-1.342273386514271
5.456499999999998,-3.3737947479336228,-2.200903819996149,-1.2708998920832149
5.460000000000001,-3.388710331721166,-2.1710743977503144,-1.20591604804371
5.463500000000003,-3.403624170179458,-2.1359199759566443,-1.1238890638584804
5.466999999999999,-3.424929404358553,-2.107156949883778,-1.0546431257856057
5.470500000000001,-3.454758826604388,-2.081589621671313,-0.972616141600376
5.474000000000004,-3.481390805660569,-2.0688068302297067,-0.912959042437958
5.477499999999999,-3.5229366231750423,-2.065611132369305,-0.8394545009902167
5.481000000000002,-3.564484186018767,-2.065611132369305,-0.7968422873027752
5.484499999999997,-3.622010238164501,-2.0762646221234786,-0.7393162351570419
5.488,-3.6710138475727447,-2.085851715704683,-0.7073575112237738
5.491500000000002,-3.742387342003801,-2.094374158442172,-0.6722030894301041
5.494999999999997,-3.7999133941495344,-2.109287996900463,-0.6477004120613556
5.4985,-3.8798110766473295,-2.1284639293921246,-0.628524479569694
5.502000000000002,-3.937337128793064,-2.141246720833731,-0.6189373859884891
5.505499999999998,-4.001256321988852,-2.1561605592920228,-0.6136106411114024
5.509,-4.04067109248664,-2.1700097469065978,-0.6210684330051742
5.512500000000003,-4.069434118559506,-2.185989981537858,-0.626395177882261
5.515999999999998,-4.077956561296995,-2.1913149810856924,-0.6338512244467807
5.519500000000001,-4.070498769403224,-2.1987727729794644,-0.6338512244467807
5.523000000000003,-4.048128884380412,-2.2040995178565512,-0.630655526586379
5.526499999999999,-4.009777019397089,-2.2104909135773543,-0.6178727351447726
5.530000000000001,-3.971426899743017,-2.2147530076107245,-0.605088198373914
5.533500000000004,-3.908574102720197,-2.2158176584544407,-0.5816519171781342
5.536999999999999,-3.8574394462952672,-2.213686611437756,-0.559280286826071
5.5405000000000015,-3.789261649724613,-2.1966417259627797,-0.5166698184678814
5.543999999999997,-3.7285398997184784,-2.181727887504488,-0.4687308599033531
5.547499999999999,-3.6401197744831935,-2.16574939820248,-0.3941599222826434
5.551000000000002,-3.568744534722885,-2.168945096062881,-0.3376985209806268
5.554499999999997,-3.467541618045994,-2.172140793923283,-0.258867234655799
5.558,-3.392970680425284,-2.1753364917836846,-0.2119946722642392
5.561500000000002,-3.3024212535025668,-2.1827925383482043,-0.1512729222581045
5.564999999999998,-3.237437409463062,-2.192381377258661,-0.1161167551351827
5.5685,-3.1639328680153205,-2.2094262627336376,-0.0798976824977964
5.572000000000003,-3.1181232111382258,-2.2158176584544407,-0.0639174478665363
5.575499999999998,-3.0765773936237526,-2.233927194773134,-0.0521993072686464
5.579000000000001,-3.058467857305059,-2.245645335371024,-0.0564614013020165
5.582500000000003,-3.0371608777967127,-2.271212663583489,-0.0703088435873395
5.585999999999999,-3.0243780863551057,-2.2935842939355524,-0.0798976824977964
5.589500000000001,-3.0169202944613343,-2.321282669164702,-0.0980072188164895
5.593000000000004,-3.0020064560030426,-2.347914648220884,-0.110790010258096
5.596499999999999,-2.971112382913492,-2.386264767874956,-0.124639197872671
