time,Gyr_X,Gyr_Y,Gyr_Z
0.0,0.0,0.002131047016685,-0.0010646508437165
0.0035000000000025,0.0117181405978899,-0.002131047016685,0.0063913957208032
0.0070000000000014,0.0202405833353782,-0.0053267448770866,0.0085224427374883
0.0105000000000003,0.0404811666707564,-0.002131047016685,0.0063913957208032
0.0139999999999993,0.0287630260728665,0.0010646508437165,0.0063913957208032
0.0175000000000018,0.0223716303520633,0.0053267448770866,0.0085224427374883
0.0210000000000007,0.0085224427374883,0.0074577918937717,0.0085224427374883
0.0244999999999997,-0.0085224427374883,0.0042603487041181,0.0074577918937717
0.0280000000000022,-0.0202405833353782,-0.0010646508437165,0.0031956978604016
0.0315000000000011,-0.0308940730895516,0.0,0.002131047016685
0.0350000000000001,-0.0330233747769847,-0.0042603487041181,0.0063913957208032
0.0385000000000026,-0.0255673282124649,0.002131047016685,0.0053267448770866
0.0420000000000015,-0.0213052341790947,0.0010646508437165,0.0085224427374883
0.0455000000000005,-0.0127827914416064,0.0042603487041181,0.0074577918937717
0.0489999999999994,-0.0031956978604016,0.0085224427374883,0.002131047016685
0.0525000000000019,0.0117181405978899,0.0031956978604016,0.0063913957208032
0.0560000000000009,0.0170448854749766,-0.0010646508437165,0.0085224427374883
0.0594999999999998,0.0234362811957798,-0.0042603487041181,0.0095870935812048
0.0630000000000023,0.0149138384582915,-0.0085224427374883,0.0095870935812048
0.0665000000000013,0.0074577918937717,0.0,0.0085224427374883
0.0700000000000002,0.0042603487041181,0.0010646508437165,0.0074577918937717
0.0735000000000027,-0.0074577918937717,0.0,0.0074577918937717
0.0770000000000017,-0.01598023463126,-0.002131047016685,0.0127827914416064
0.0805000000000006,-0.0202405833353782,-0.0106534897541733,0.0074577918937717
0.0839999999999996,-0.0149138384582915,-0.0127827914416064,0.0063913957208032
0.0875000000000021,-0.0191759324916617,-0.0117181405978899,0.0074577918937717
0.091000000000001,-0.0085224427374883,-0.0085224427374883,0.0085224427374883
0.0945,0.0,0.0,0.0106534897541733
0.0980000000000025,0.0095870935812048,-0.002131047016685,0.0106534897541733
0.1015000000000014,0.0191759324916617,-0.0010646508437165,0.0074577918937717
0.1050000000000004,0.0223716303520633,-0.002131047016685,0.0127827914416064
0.1084999999999993,0.0213052341790947,-0.0063913957208032,0.0127827914416064
0.1120000000000018,0.0127827914416064,-0.0063913957208032,0.0117181405978899
0.1155000000000008,0.0010646508437165,-0.0010646508437165,0.0074577918937717
0.1189999999999997,-0.0053267448770866,0.0,0.0095870935812048
0.1225000000000022,-0.0170448854749766,0.002131047016685,0.0063913957208032
0.1260000000000012,-0.0223716303520633,0.0010646508437165,0.0106534897541733
0.1295000000000001,-0.0234362811957798,-0.0010646508437165,0.0031956978604016
0.1330000000000026,-0.0223716303520633,-0.0074577918937717,0.0127827914416064
0.1365000000000016,-0.0234362811957798,-0.0031956978604016,0.0053267448770866
0.1400000000000005,-0.0117181405978899,-0.002131047016685,0.0074577918937717
0.1434999999999995,0.0,0.0,0.0117181405978899
0.147000000000002,0.0053267448770866,0.0,0.0095870935812048
0.1505000000000009,0.01598023463126,0.002131047016685,0.0085224427374883
0.1539999999999999,0.0202405833353782,-0.0010646508437165,0.0063913957208032
0.1575000000000024,0.013849187614575,-0.0010646508437165,0.0095870935812048
0.1610000000000013,0.0085224427374883,-0.0031956978604016,0.0063913957208032
0.1645000000000003,-0.0010646508437165,-0.0042603487041181,0.0053267448770866
0.1680000000000028,-0.0053267448770866,-0.0010646508437165,0.0031956978604016
0.1715000000000017,-0.0106534897541733,0.0,0.0053267448770866
0.1750000000000007,-0.0117181405978899,-0.0149138384582915,0.0063913957208032
0.1784999999999996,-0.0085224427374883,-0.0213052341790947,0.0127827914416064
0.1820000000000021,-0.0106534897541733,-0.0330233747769847,0.0053267448770866
0.1855000000000011,-0.0127827914416064,-0.0223716303520633,0.002131047016685
0.189,-0.0095870935812048,-0.0149138384582915,0.0
0.1925000000000025,-0.0053267448770866,-0.0042603487041181,0.0063913957208032
0.1960000000000015,0.0053267448770866,0.0095870935812048,0.013849187614575
0.1995000000000004,0.0127827914416064,0.0085224427374883,0.0202405833353782
0.2029999999999994,0.0074577918937717,0.0053267448770866,0.0063913957208032
0.2065000000000019,0.0181095363186931,0.002131047016685,0.0095870935812048
0.2100000000000008,0.0074577918937717,0.0074577918937717,0.0063913957208032
0.2134999999999998,-0.0053267448770866,0.0042603487041181,0.0074577918937717
0.2170000000000023,0.0031956978604016,0.013849187614575,0.0117181405978899
0.2205000000000012,-0.0149138384582915,0.0170448854749766,0.002131047016685
0.2240000000000002,-0.029827676916583,0.0213052341790947,-0.002131047016685
0.2275000000000027,-0.0266319790561814,0.0117181405978899,-0.002131047016685
0.2310000000000016,-0.0458079115478431,0.0170448854749766,0.0010646508437165
0.2345000000000006,-0.0404811666707564,0.0245026773687483,-0.0053267448770866
0.2379999999999995,-0.0596570991624181,0.0074577918937717,0.0031956978604016
0.241500000000002,-0.0564614013020165,-0.0085224427374883,0.0031956978604016
0.245000000000001,-0.0362208179666383,0.0042603487041181,0.013849187614575
0.2484999999999999,-0.0234362811957798,0.0266319790561814,0.0117181405978899
0.2520000000000024,0.0010646508437165,0.0468725623915597,0.0181095363186931
0.2555000000000014,0.0191759324916617,0.0351544217936697,0.0191759324916617
0.2590000000000003,0.013849187614575,0.0106534897541733,0.0255673282124649
0.2624999999999993,0.0117181405978899,0.029827676916583,0.02769837522915
0.2660000000000018,0.0213052341790947,0.0117181405978899,0.0340897709499532
0.2695000000000007,0.0340897709499532,0.0170448854749766,0.0458079115478431
0.2729999999999997,0.0372854688103548,0.0479389585645282,0.0458079115478431
0.2765000000000022,0.0149138384582915,0.0607217500061347,0.0447432607041266
0.2800000000000011,0.0,0.0745709376207097,0.0426122136874415
0.2835000000000001,0.0063913957208032,0.0713752397603081,0.0521993072686464
0.2870000000000026,0.0532657034416149,0.0575260521457331,0.0511346564249298
0.2905000000000015,0.0735062867769931,0.0085224427374883,0.0479389585645282
0.2940000000000005,0.0756355884644262,0.0117181405978899,0.0319587239332681
0.2974999999999994,0.0234362811957798,-0.0010646508437165,0.0213052341790947
0.3010000000000019,-0.0255673282124649,-0.0245026773687483,0.0287630260728665
0.3045000000000009,-0.0213052341790947,-0.0234362811957798,0.0383501196540714
0.3079999999999998,0.0106534897541733,-0.0351544217936697,0.0330233747769847
0.3115000000000023,0.0351544217936697,-0.0404811666707564,0.0330233747769847
0.3150000000000013,0.0202405833353782,-0.0127827914416064,0.0202405833353782
0.3185000000000002,-0.0458079115478431,0.0,-0.002131047016685
0.3220000000000027,-0.0873537290623162,0.0095870935812048,-0.0213052341790947
0.3255000000000017,-0.0362208179666383,0.0063913957208032,-0.0308940730895516
0.3290000000000006,0.0181095363186931,-0.0234362811957798,-0.0127827914416064
0.3324999999999996,0.0191759324916617,-0.0351544217936697,-0.0095870935812048
0.3360000000000021,0.0351544217936697,-0.041545817514473,-0.013849187614575
0.339500000000001,0.041545817514473,-0.0511346564249298,-0.0085224427374883
0.3429999999999999,0.0468725623915597,-0.0543303542853314,0.0010646508437165
0.3465000000000025,0.0532657034416149,-0.0585907029894496,0.0053267448770866
0.3500000000000014,0.0383501196540714,-0.0713752397603081,0.0181095363186931
0.3535000000000003,0.02769837522915,-0.0767019846373948,0.0202405833353782
0.3569999999999993,0.0436768645311581,-0.0649838440395048,0.0213052341790947
0.3605000000000018,0.0713752397603081,-0.0511346564249298,0.0223716303520633
0.3640000000000007,0.0809623333415129,-0.0468725623915597,0.0234362811957798
0.3674999999999997,0.041545817514473,-0.0521993072686464,0.0202405833353782
0.3710000000000022,0.0330233747769847,-0.0511346564249298,0.0191759324916617
0.3745000000000011,0.0490036094082447,-0.0426122136874415,0.0266319790561814
0.3780000000000001,0.0521993072686464,-0.0479389585645282,0.0287630260728665
0.3815000000000026,0.0479389585645282,-0.0596570991624181,0.0351544217936697
0.3850000000000015,0.083093380358198,-0.0575260521457331,0.0362208179666383
0.3885000000000005,0.0926804739394028,-0.041545817514473,0.0319587239332681
0.3919999999999994,0.0681795418999064,-0.0308940730895516,0.0245026773687483
0.3955000000000019,0.0394165158270399,-0.01598023463126,0.0202405833353782
0.3990000000000009,0.0234362811957798,-0.013849187614575,0.013849187614575
0.4024999999999998,0.0063913957208032,-0.0149138384582915,0.0127827914416064
0.4060000000000023,-0.0095870935812048,-0.0053267448770866,0.0085224427374883
0.4095000000000013,-0.0181095363186931,0.0010646508437165,0.0031956978604016
0.4130000000000002,-0.0372854688103548,0.0170448854749766,-0.0010646508437165
0.4165000000000027,-0.0458079115478431,0.0255673282124649,-0.0074577918937717
0.4200000000000017,-0.0607217500061347,0.0223716303520633,0.0
0.4235000000000006,-0.0607217500061347,0.0213052341790947,-0.0053267448770866
0.4269999999999996,-0.0511346564249298,0.0170448854749766,0.0
0.4305000000000021,-0.0490036094082447,0.0202405833353782,0.0010646508437165
0.434000000000001,-0.0383501196540714,0.0319587239332681,0.0010646508437165
0.4375,-0.0234362811957798,0.0330233747769847,0.0
0.4410000000000025,-0.0095870935812048,0.0340897709499532,0.013849187614575
0.4445000000000014,-0.002131047016685,0.0458079115478431,0.0106534897541733
0.4480000000000004,0.0053267448770866,0.0500682602519613,0.0127827914416064
0.4514999999999993,0.01598023463126,0.0628527970228197,0.0095870935812048
0.4550000000000018,0.029827676916583,0.0671131457269379,0.0053267448770866
0.4585000000000008,0.029827676916583,0.0735062867769931,0.0031956978604016
0.4619999999999997,0.0202405833353782,0.0767019846373948,0.0
0.4655000000000022,0.0106534897541733,0.0617864008498512,0.0
0.4690000000000012,0.0223716303520633,0.0351544217936697,0.002131047016685
0.4725000000000001,0.0234362811957798,0.0202405833353782,0.0063913957208032
0.4760000000000026,0.0170448854749766,0.0074577918937717,0.0031956978604016
0.4795000000000016,0.02769837522915,0.0127827914416064,0.002131047016685
0.4830000000000005,0.041545817514473,0.0010646508437165,-0.0042603487041181
0.4864999999999995,0.0330233747769847,-0.0042603487041181,-0.0053267448770866
0.490000000000002,0.01598023463126,-0.0127827914416064,-0.0063913957208032
0.4935000000000009,0.0191759324916617,-0.0213052341790947,-0.0063913957208032
0.4969999999999999,0.0106534897541733,-0.0245026773687483,-0.0127827914416064
0.5005000000000024,0.013849187614575,-0.0170448854749766,-0.01598023463126
0.5040000000000013,0.0287630260728665,-0.0191759324916617,-0.0213052341790947
0.5075000000000003,0.0202405833353782,-0.0191759324916617,-0.0202405833353782
0.5110000000000028,-0.0031956978604016,-0.0245026773687483,-0.02769837522915
0.5145000000000017,-0.0053267448770866,-0.0308940730895516,-0.0330233747769847
0.5180000000000007,-0.0181095363186931,-0.0330233747769847,-0.029827676916583
0.5214999999999996,-0.0202405833353782,-0.029827676916583,-0.0330233747769847
0.5250000000000021,-0.02769837522915,-0.013849187614575,-0.02769837522915
0.5285000000000011,-0.041545817514473,-0.0010646508437165,-0.0340897709499532
0.532,-0.0500682602519613,0.0053267448770866,-0.0255673282124649
0.5355000000000025,-0.0543303542853314,0.0127827914416064,-0.0149138384582915
0.5390000000000015,-0.0404811666707564,0.0213052341790947,-0.0063913957208032
0.5425000000000004,-0.0372854688103548,0.0255673282124649,0.0031956978604016
0.5459999999999994,-0.0521993072686464,0.0362208179666383,0.0074577918937717
0.5495000000000019,-0.0564614013020165,0.0330233747769847,0.013849187614575
0.5530000000000008,-0.0330233747769847,0.0191759324916617,0.0149138384582915
0.5564999999999998,-0.0031956978604016,0.0191759324916617,0.0074577918937717
0.5600000000000023,0.0213052341790947,0.0213052341790947,0.0
0.5635000000000012,0.0191759324916617,0.01598023463126,-0.0042603487041181
0.5670000000000002,0.0170448854749766,0.0170448854749766,-0.0085224427374883
0.5705000000000027,0.0127827914416064,0.01598023463126,-0.0106534897541733
0.5740000000000016,0.0,0.0074577918937717,-0.0127827914416064
0.5775000000000006,-0.0074577918937717,0.0031956978604016,-0.0085224427374883
0.5809999999999995,-0.0213052341790947,0.0053267448770866,-0.0042603487041181
0.584500000000002,-0.0362208179666383,0.0010646508437165,-0.0053267448770866
0.588000000000001,-0.0617864008498512,-0.0170448854749766,-0.0053267448770866
0.5914999999999999,-0.0703088435873395,-0.0245026773687483,0.0
0.5950000000000024,-0.0585907029894496,-0.0255673282124649,0.0063913957208032
0.5985000000000014,-0.055395005129048,-0.01598023463126,0.0063913957208032
0.6020000000000003,-0.0490036094082447,-0.0458079115478431,-0.0063913957208032
0.6054999999999993,-0.0085224427374883,-0.041545817514473,0.0053267448770866
0.6090000000000018,0.0585907029894496,0.0053267448770866,0.0170448854749766
0.6125000000000007,0.0777666354811113,0.0255673282124649,0.0223716303520633
0.6159999999999997,0.0617864008498512,0.0234362811957798,0.0202405833353782
0.6195000000000022,0.0372854688103548,0.0202405833353782,0.02769837522915
0.6230000000000011,0.0191759324916617,0.0532657034416149,0.02769837522915
0.6265000000000001,0.0074577918937717,0.0596570991624181,0.0191759324916617
0.6300000000000026,-0.0106534897541733,0.0436768645311581,0.0255673282124649
0.6335000000000015,-0.0010646508437165,0.0266319790561814,0.0319587239332681
0.6370000000000005,0.0181095363186931,0.0319587239332681,0.0191759324916617
0.6404999999999994,0.029827676916583,0.041545817514473,0.01598023463126
0.6440000000000019,0.0372854688103548,0.0394165158270399,0.0063913957208032
0.6475000000000009,0.0500682602519613,0.0117181405978899,0.0031956978604016
0.6509999999999998,0.0798976824977964,0.0,0.0
0.6545000000000023,0.0948115209560879,-0.01598023463126,-0.0095870935812048
0.6580000000000013,0.1139874534477496,-0.0426122136874415,-0.0106534897541733
0.6615000000000002,0.1214435000122694,-0.0479389585645282,-0.01598023463126
0.6650000000000027,0.1310323389227262,-0.0894847760790012,-0.0351544217936697
0.6685000000000016,0.1544686201185061,-0.0980072188164895,-0.0362208179666383
0.6720000000000006,0.2119946722642392,-0.0958761717998045,-0.0436768645311581
0.6754999999999995,0.2322352555996175,-0.0905494269227178,-0.0372854688103548
0.679000000000002,0.2791078179911772,-0.083093380358198,-0.01598023463126
0.682500000000001,0.2929570056057522,-0.0628527970228197,-0.0042603487041181
0.6859999999999999,0.2652586303766022,-0.0521993072686464,0.0
0.6895000000000024,0.2599318854995155,-0.0564614013020165,0.0095870935812048
0.6930000000000014,0.2578025838120824,-0.0319587239332681,0.013849187614575
0.6965000000000003,0.2524758389349957,-0.0202405833353782,0.0149138384582915
0.6999999999999993,0.2269085107225308,-0.002131047016685,0.0213052341790947
0.7035000000000018,0.2130593231079557,0.0255673282124649,0.0245026773687483
0.7070000000000007,0.2247774637058457,0.0543303542853314,0.0351544217936697
0.7104999999999997,0.2343645572870505,0.0713752397603081,0.0447432607041266
0.7140000000000022,0.1981454846496642,0.1097253594143795,0.0564614013020165
0.7175000000000011,0.1587289688226243,0.124639197872671,0.0617864008498512
0.7210000000000001,0.1470108282247343,0.166186760716396,0.0628527970228197
0.7245000000000026,0.1342280367831279,0.1597953649955928,0.0628527970228197
0.7280000000000015,0.1065296615539778,0.1853609478788057,0.0521993072686464
0.7315000000000005,0.069244192743623,0.1960144376329791,0.041545817514473
0.7349999999999994,0.0223716303520633,0.166186760716396,0.0287630260728665
0.7385000000000019,-0.0266319790561814,0.1544686201185061,0.0095870935812048
0.7420000000000009,-0.0703088435873395,0.1395530363309626,-0.0042603487041181
0.7454999999999998,-0.0798976824977964,0.1299659427497577,-0.0117181405978899
0.7490000000000023,-0.0564614013020165,0.1022693128498597,-0.0106534897541733
0.7525000000000013,-0.0234362811957798,0.0873537290623162,-0.0085224427374883
0.7560000000000002,-0.0223716303520633,0.0468725623915597,-0.01598023463126
0.7595000000000027,-0.0287630260728665,0.013849187614575,-0.0149138384582915
0.7630000000000017,-0.0479389585645282,-0.0543303542853314,-0.0308940730895516
0.7665000000000006,-0.1150521042914662,-0.1193124529955843,-0.0447432607041266
0.7699999999999996,-0.2226464166891606,-0.2301042085829324,-0.0735062867769931
0.7735000000000021,-0.2290395577392158,-0.2705853752536888,-0.0596570991624181
0.777000000000001,-0.2780431671474606,-0.3717882919305801,-0.0777666354811113
0.7805,-0.3153286359578155,-0.4591437663221482,-0.0926804739394028
0.7840000000000025,-0.341960615013997,-0.5369104018032596,-0.1001382658331746
0.7875000000000014,-0.3536787556118869,-0.5997614534968274,-0.1086607085706629
0.7910000000000004,-0.3462209637181151,-0.6583539018155291,-0.1118564064310645
0.7944999999999993,-0.3366338701369103,-0.6956393706258839,-0.1129210572747811
0.7980000000000018,-0.3131975889411305,-0.7265316983861836,-0.1171831513081512
0.8015000000000008,-0.2854992137119804,-0.7361205372966404,-0.1171831513081512
0.8049999999999997,-0.2524758389349957,-0.7339894902799553,-0.1214435000122694
0.8085000000000022,-0.2258421145495622,-0.7222713496820654,-0.1171831513081512
0.8120000000000012,-0.1885583910684593,-0.6956393706258839,-0.1161167551351827
0.8155000000000001,-0.166186760716396,-0.6743323911175372,-0.1118564064310645
0.8190000000000026,-0.1619246666830259,-0.6434400633572375,-0.1161167551351827
0.8225000000000016,-0.1821652500184041,-0.6349176206197492,-0.1214435000122694
0.8260000000000005,-0.247149094057909,-0.616806338971804,-0.1267702448893561
0.8294999999999995,-0.300413052170272,-0.602958896686481,-0.1267702448893561
0.833000000000002,-0.3824417816847534,-0.5880433128989375,-0.1342280367831279
0.8365000000000009,-0.4452945787075733,-0.5741958706136145,-0.1416840833476476
0.8399999999999999,-0.5390397034906926,-0.5422354013510943,-0.1491418752414194
0.8435000000000024,-0.5933700577760241,-0.5262569120490862,-0.1608600158393093
0.8470000000000013,-0.6402426201675839,-0.5241258650324012,-0.1672514115601126
0.8505000000000003,-0.6658099483800488,-0.5166698184678814,-0.1768385051413174
0.8540000000000028,-0.6775280889779387,-0.503885281697023,-0.2002765316663493
0.8575000000000017,-0.6764634381342222,-0.4932317919428495,-0.2141239739516723
0.8610000000000007,-0.6477004120613556,-0.5006895838366213,-0.219450718828759
0.8644999999999996,-0.6082838962343158,-0.5006895838366213,-0.2237128128621291
0.8680000000000021,-0.5443664483677794,-0.5134723752782278,-0.2173214171413259
0.871500000000001,-0.4836446983616446,-0.5251905158761178,-0.2098636252475541
0.875,-0.3909642244222418,-0.5358440056302911,-0.191754088928861
0.8785000000000025,-0.3153286359578155,-0.533712958613606,-0.1725781564371993
0.8820000000000014,-0.2013411825100658,-0.5028206308533064,-0.1395530363309626
0.8855000000000004,-0.1171831513081512,-0.4729912086074713,-0.1161167551351827
0.8889999999999993,0.0,-0.4175962034784233,-0.0809623333415129
0.8925000000000018,0.0820287295144815,-0.3717882919305801,-0.0575260521457331
0.8960000000000008,0.1938833906162941,-0.2918906094327836,-0.0245026773687483
0.8994999999999997,0.2716500260974054,-0.2215817658454441,0.0053267448770866
0.9030000000000022,0.3813771308410369,-0.1161167551351827,0.0383501196540714
0.9065000000000012,0.4538170214450616,-0.029827676916583,0.0628527970228197
0.91,0.5401060996636612,0.0724398906040246,0.1086607085706629
0.9135000000000026,0.5965657556364258,0.1576643179789077,0.1470108282247343
0.9170000000000016,0.6327865736030641,0.2759121201307756,0.1693824585767977
0.9205000000000004,0.6338512244467807,0.3302424744161071,0.1842962970350892
0.9239999999999996,0.5997614534968274,0.3856374795451551,0.2002765316663493
0.927500000000002,0.5560845889656694,0.4474238803950063,0.2098636252475541
0.9310000000000008,0.4793843496575265,0.5092120265741096,0.2151903701246408
0.9345,0.4165315526347067,0.5443664483677794,0.219450718828759
0.9380000000000024,0.3270467765557054,0.586978662055221,0.2151903701246408
0.9415000000000012,0.2524758389349957,0.6040235475301975,0.2141239739516723
0.9450000000000004,0.166186760716396,0.6136106411114024,0.2183860679850424
0.9485000000000028,0.1182478021518678,0.6104149432510009,0.2119946722642392
0.9520000000000016,0.083093380358198,0.6093502924072843,0.2087989744038376
0.9555000000000008,0.055395005129048,0.5997614534968274,0.2045368803704674
0.9589999999999996,0.0426122136874415,0.5784562193177326,0.1981454846496642
0.962500000000002,0.0458079115478431,0.5560845889656694,0.1928187397725775
0.9660000000000012,0.0724398906040246,0.5347793547865746,0.1842962970350892
0.9695,0.096942567972773,0.5187991201553145,0.1757738542976009
0.9730000000000024,0.136357338470561,0.5060163287137079,0.1789695521580025
0.9765000000000016,0.1640557136997109,0.5006895838366213,0.1747092034538843
0.9800000000000004,0.2066679273871525,0.5017542346803379,0.1725781564371993
0.9834999999999994,0.2396913021641372,0.5049499325407395,0.1704471094205142
0.987000000000002,0.2791078179911772,0.5156034222949128,0.1736428072809158
0.9905000000000008,0.3068061932203272,0.5209301671719996,0.1811005991746876
0.9939999999999998,0.3185243338182171,0.5251905158761178,0.1821652500184041
0.9975000000000024,0.316393286801532,0.5124077244345112,0.1874919948954908
1.0010000000000012,0.302544099186957,0.4857757453783297,0.1970790884766957
1.0045000000000002,0.286565609884949,0.4538170214450616,0.2045368803704674
1.008000000000003,0.2482137449016255,0.4101401569139035,0.2130593231079557
1.0115000000000016,0.2066679273871525,0.3824417816847534,0.2098636252475541
1.0150000000000006,0.1512729222581045,0.3291760782431385,0.2141239739516723
1.0184999999999995,0.1118564064310645,0.2812388650078622,0.2119946722642392
1.022000000000002,0.0607217500061347,0.2077325782308691,0.2141239739516723
1.025500000000001,0.013849187614575,0.1470108282247343,0.2162550209683574
1.029,-0.0234362811957798,0.055395005129048,0.2141239739516723
1.0325000000000024,-0.0308940730895516,-0.002131047016685,0.2141239739516723
1.0360000000000014,-0.0404811666707564,-0.0585907029894496,0.1992101354933808
1.0395000000000003,-0.041545817514473,-0.1129210572747811,0.191754088928861
1.0429999999999993,-0.0202405833353782,-0.1864273440517743,0.1864273440517743
1.0465000000000018,0.0042603487041181,-0.2311688594266489,0.180035948330971
1.0500000000000007,0.0458079115478431,-0.2929570056057522,0.1725781564371993
1.0534999999999997,0.083093380358198,-0.3291760782431385,0.1587289688226243
1.0570000000000022,0.1374237346435295,-0.3590055004889736,0.150206526085136
1.060500000000001,0.177904901314286,-0.3760503859639502,0.1374237346435295
1.064,0.2343645572870505,-0.3803107346680683,0.1278348957330726
1.0675000000000026,0.2812388650078622,-0.3707236410868635,0.1139874534477496
1.0710000000000015,0.3366338701369103,-0.3462209637181151,0.1022693128498597
1.0745000000000005,0.369657244913895,-0.3227846825223353,0.0862890782185996
1.0779999999999994,0.397355620143045,-0.2812388650078622,0.0617864008498512
1.081500000000002,0.41120480775762,-0.2514094427620272,0.0426122136874415
1.0850000000000009,0.41120480775762,-0.1981454846496642,0.0106534897541733
1.0884999999999998,0.4069427137242498,-0.152337573101821,-0.0127827914416064
1.0920000000000023,0.3888331774055567,-0.0788312863248278,-0.0447432607041266
1.0955000000000013,0.3707236410868635,-0.013849187614575,-0.0756355884644262
1.0990000000000002,0.3131975889411305,0.0607217500061347,-0.110790010258096
1.1025000000000027,0.2535404897787122,0.1001382658331746,-0.1395530363309626
1.1060000000000016,0.1789695521580025,0.1480754790684509,-0.1597953649955928
1.1095000000000006,0.1320969897664428,0.1885583910684593,-0.1768385051413174
1.1129999999999995,0.0724398906040246,0.2162550209683574,-0.1949497867892626
1.116500000000002,0.0234362811957798,0.2247774637058457,-0.2066679273871525
1.120000000000001,-0.0340897709499532,0.2418223491808223,-0.2141239739516723
1.1235,-0.0649838440395048,0.2418223491808223,-0.2247774637058457
1.1270000000000024,-0.0926804739394028,0.2375620004767041,-0.2279731615662473
1.1305000000000014,-0.1054650107102613,0.2237128128621291,-0.2322352555996175
1.1340000000000003,-0.1012029166768912,0.2034722295267509,-0.2290395577392158
1.1374999999999993,-0.0905494269227178,0.1896230419121759,-0.2226464166891606
1.1410000000000018,-0.0713752397603081,0.166186760716396,-0.2087989744038376
1.1445000000000007,-0.0607217500061347,0.1512729222581045,-0.1981454846496642
1.1479999999999997,-0.0532657034416149,0.1470108282247343,-0.180035948330971
1.1515000000000022,-0.0447432607041266,0.1512729222581045,-0.1651203645434275
1.1550000000000011,-0.0340897709499532,0.180035948330971,-0.1416840833476476
1.1585,-0.0372854688103548,0.2013411825100658,-0.1320969897664428
1.1620000000000026,-0.055395005129048,0.2343645572870505,-0.1171831513081512
1.1655000000000015,-0.0809623333415129,0.2673896773932873,-0.110790010258096
1.1690000000000005,-0.0948115209560879,0.3174579376452486,-0.1012029166768912
1.1724999999999994,-0.1033339636935762,0.3590055004889736,-0.1001382658331746
1.176000000000002,-0.096942567972773,0.4058780628805333,-0.0916158230956863
1.1795000000000009,-0.0767019846373948,0.4346410889533998,-0.0852244273748831
1.1829999999999998,-0.01598023463126,0.4634041150262664,-0.0671131457269379
1.1865000000000023,0.0521993072686464,0.492167141099133,-0.0607217500061347
1.1900000000000013,0.150206526085136,0.5422354013510943,-0.0575260521457331
1.1935000000000002,0.2237128128621291,0.5720648235969293,-0.0617864008498512
1.1970000000000027,0.3291760782431385,0.5891097090719061,-0.0639174478665363
1.2005000000000017,0.41120480775762,0.5997614534968274,-0.0596570991624181
1.2040000000000006,0.5049499325407395,0.6072192453905992,-0.0607217500061347
1.2074999999999996,0.5699337765802444,0.6082838962343158,-0.0617864008498512
1.211000000000002,0.6498314590780407,0.6157416881280875,-0.0585907029894496
1.214500000000001,0.7052264642070888,0.6295908757426625,-0.0639174478665363
1.218,0.7542300736153336,0.642373667184269,-0.0617864008498512
1.2215000000000025,0.7766017039673969,0.6349176206197492,-0.0628527970228197
1.2250000000000014,0.7925801932694049,0.614677037284371,-0.055395005129048
1.2285000000000004,0.8032336830235783,0.5933700577760241,-0.0500682602519613
1.231999999999999,0.8000379851631767,0.5571509851386378,-0.041545817514473
1.2355000000000018,0.7851241467048852,0.5358440056302911,-0.0468725623915597
1.2390000000000008,0.7446429800341288,0.4879067923950148,-0.0436768645311581
1.2424999999999995,0.6956393706258839,0.4580773701491797,-0.0447432607041266
1.2460000000000022,0.6221330838488908,0.4218582975117934,-0.0436768645311581
1.2495000000000012,0.5571509851386378,0.4048134120368167,-0.0404811666707564
1.253,0.4719265577637547,0.397355620143045,-0.0394165158270399
1.2565000000000026,0.397355620143045,0.4016177141764152,-0.0340897709499532
1.2600000000000016,0.2993484013265554,0.3941599222826434,-0.029827676916583
1.2635000000000003,0.2322352555996175,0.3952245731263599,-0.0308940730895516
1.2669999999999997,0.1374237346435295,0.3856374795451551,-0.0308940730895516
1.270500000000002,0.0671131457269379,0.38350643252847,-0.0362208179666383
1.274000000000001,-0.0245026773687483,0.3664615470534934,-0.041545817514473
1.2775,-0.0905494269227178,0.3611348021764067,-0.0479389585645282
1.2810000000000024,-0.1832316461913727,0.3472873598910836,-0.0490036094082447
1.2845000000000013,-0.247149094057909,0.3472873598910836,-0.0458079115478431
1.2880000000000005,-0.316393286801532,0.3600701513326901,-0.0404811666707564
1.2915000000000028,-0.3749839897909817,0.38350643252847,-0.0383501196540714
1.2950000000000017,-0.4570127193054631,0.41120480775762,-0.0383501196540714
1.2985000000000009,-0.5006895838366213,0.42292294835551,-0.0308940730895516
1.3019999999999996,-0.5401060996636612,0.4378367868138015,-0.0223716303520633
1.305500000000002,-0.5507578440885826,0.4325100419367148,-0.0149138384582915
1.309000000000001,-0.5550199381219528,0.4122694586013365,-0.0149138384582915
1.3125,-0.5443664483677794,0.3920288752659583,-0.0127827914416064
1.3160000000000025,-0.5187991201553145,0.3600701513326901,-0.0106534897541733
1.3195000000000014,-0.4836446983616446,0.3238510786953038,-0.0127827914416064
1.3230000000000004,-0.4271832970596281,0.274847469287059,0.0031956978604016
1.3264999999999991,-0.3760503859639502,0.2354309534600191,0.0127827914416064
1.3300000000000018,-0.2929570056057522,0.1970790884766957,0.0436768645311581
1.3335000000000008,-0.2141239739516723,0.1619246666830259,0.0649838440395048
1.3369999999999995,-0.1086607085706629,0.1150521042914662,0.0873537290623162
1.3405000000000022,-0.0330233747769847,0.0756355884644262,0.1075943123976944
1.3440000000000012,0.0607217500061347,0.0095870935812048,0.1299659427497577
1.3475,0.1225098961852379,-0.029827676916583,0.1352926876268444
1.3510000000000026,0.177904901314286,-0.0820287295144815,0.1534022239455376
1.3545000000000016,0.2130593231079557,-0.1139874534477496,0.1651203645434275
1.3580000000000003,0.233299906443334,-0.1310323389227262,0.1693824585767977
1.3614999999999997,0.2258421145495622,-0.1331616406101593,0.1725781564371993
1.365000000000002,0.1608600158393093,-0.1257055940456395,0.1704471094205142
1.368500000000001,0.096942567972773,-0.1331616406101593,0.1725781564371993
1.372,0.0010646508437165,-0.1278348957330726,0.1842962970350892
1.3755000000000024,-0.0671131457269379,-0.1139874534477496,0.191754088928861
1.3790000000000011,-0.1715135055934827,-0.0937468701123714,0.1992101354933808
1.3825000000000005,-0.2620629325162006,-0.0798976824977964,0.1970790884766957
1.3860000000000028,-0.3653968962097769,-0.0724398906040246,0.1938833906162941
1.3895000000000015,-0.4335764381096833,-0.0713752397603081,0.1864273440517743
1.393000000000001,-0.5070809795574245,-0.0649838440395048,0.1757738542976009
1.3964999999999996,-0.5379750526469761,-0.0575260521457331,0.1747092034538843
1.400000000000002,-0.5443664483677794,-0.0521993072686464,0.1608600158393093
1.403500000000001,-0.5326483077698895,-0.0436768645311581,0.1608600158393093
1.407,-0.4985585368199362,-0.029827676916583,0.1480754790684509
1.4105000000000023,-0.4665998128866681,-0.0202405833353782,0.1374237346435295
1.4140000000000017,-0.4122694586013365,-0.0117181405978899,0.1278348957330726
1.4175000000000004,-0.3611348021764067,-0.0127827914416064,0.1182478021518678
1.4209999999999994,-0.2727164222703739,-0.0085224427374883,0.1139874534477496
1.424500000000002,-0.1970790884766957,-0.0085224427374883,0.1097253594143795
1.4280000000000008,-0.1065296615539778,-0.0085224427374883,0.0937468701123714
1.4314999999999998,-0.02769837522915,-0.013849187614575,0.0894847760790012
1.4350000000000025,0.0671131457269379,-0.02769837522915,0.0596570991624181
1.4385000000000012,0.1267702448893561,-0.0511346564249298,0.0426122136874415
1.4420000000000002,0.1874919948954908,-0.0703088435873395,0.0149138384582915
1.445500000000003,0.2290395577392158,-0.0777666354811113,-0.0095870935812048
1.4490000000000016,0.2556715367953973,-0.0788312863248278,-0.0362208179666383
1.4525000000000006,0.2673896773932873,-0.0767019846373948,-0.0479389585645282
1.4559999999999995,0.2567361876391139,-0.0575260521457331,-0.0671131457269379
1.459500000000002,0.2386266513204207,-0.0351544217936697,-0.0745709376207097
1.463000000000001,0.1938833906162941,-0.0063913957208032,-0.0873537290623162
1.4665,0.1608600158393093,0.0181095363186931,-0.0948115209560879
1.4700000000000024,0.1033339636935762,0.0628527970228197,-0.1054650107102613
1.4735000000000014,0.055395005129048,0.0937468701123714,-0.1097253594143795
1.4770000000000003,0.002131047016685,0.1310323389227262,-0.0958761717998045
1.4804999999999993,-0.01598023463126,0.1597953649955928,-0.0703088435873395
1.4840000000000018,-0.0074577918937717,0.1928187397725775,-0.0106534897541733
1.4875000000000007,0.0202405833353782,0.2215817658454441,0.0394165158270399
1.4909999999999997,0.0926804739394028,0.258867234655799,0.1139874534477496
1.4945000000000022,0.1608600158393093,0.2791078179911772,0.1704471094205142
1.498000000000001,0.2673896773932873,0.3089354949077603,0.2396913021641372
1.5015,0.3376985209806268,0.316393286801532,0.2780431671474606
1.5050000000000026,0.4261186462159115,0.2993484013265554,0.3185243338182171
1.5085000000000015,0.4857757453783297,0.2823035158515788,0.3430252658577135
1.5120000000000005,0.5550199381219528,0.2599318854995155,0.3664615470534934
1.5154999999999994,0.5859140112115044,0.2311688594266489,0.3771150368076668
1.519000000000002,0.5912390107593392,0.2034722295267509,0.3824417816847534
1.5225000000000009,0.5752605214573311,0.1885583910684593,0.3877685265618402
1.5259999999999998,0.519865516328283,0.1725781564371993,0.3824417816847534
1.5295000000000023,0.4548816722887781,0.180035948330971,0.3781796876513833
1.5330000000000013,0.3494166615785167,0.1906876927558924,0.369657244913895
1.5365000000000002,0.2641939795328856,0.1981454846496642,0.3494166615785167
1.5400000000000027,0.1491418752414194,0.2130593231079557,0.3195889846619337
1.5435000000000016,0.0575260521457331,0.2258421145495622,0.2908259585890671
1.5470000000000006,-0.0724398906040246,0.2428870000245388,0.2354309534600191
1.5504999999999995,-0.166186760716396,0.2556715367953973,0.1949497867892626
1.554000000000002,-0.2716500260974054,0.286565609884949,0.1470108282247343
1.557500000000001,-0.3227846825223353,0.3036087500306735,0.1214435000122694
1.561,-0.3622011983493752,0.3451563128743986,0.0884201252352847
1.5645000000000024,-0.3707236410868635,0.3749839897909817,0.0639174478665363
1.5680000000000014,-0.3771150368076668,0.41120480775762,0.0351544217936697
1.5715000000000003,-0.3803107346680683,0.4325100419367148,0.0202405833353782
1.5749999999999993,-0.3611348021764067,0.4506213235846599,0.0106534897541733
1.5785000000000018,-0.3355692192931938,0.4676662090596366,0.01598023463126
1.5820000000000007,-0.3131975889411305,0.4783179534845579,0.0245026773687483
1.5854999999999997,-0.316393286801532,0.4847093492053612,0.0468725623915597
1.5890000000000022,-0.3185243338182171,0.4932317919428495,0.0948115209560879
1.5925000000000011,-0.3078708440640437,0.4974938859762197,0.1459461773810178
1.596,-0.2812388650078622,0.4911024902554164,0.2322352555996175
1.5995000000000026,-0.2524758389349957,0.4729912086074713,0.3014794483432405
1.6030000000000015,-0.1938833906162941,0.4570127193054631,0.397355620143045
1.6065000000000005,-0.1416840833476476,0.4410324846742031,0.4612730680095813
1.6099999999999994,-0.0649838440395048,0.3952245731263599,0.517734469311598
1.613500000000002,-0.013849187614575,0.3387649171535954,0.5486285424011496
1.6170000000000009,0.0479389585645282,0.2450180470412239,0.5837829641948193
1.6204999999999998,0.0926804739394028,0.1619246666830259,0.600827849669796
1.6240000000000023,0.1555332709622227,0.0585907029894496,0.5986968026531109
1.6275000000000013,0.1768385051413174,-0.0245026773687483,0.5955011047927092
1.6310000000000002,0.1811005991746876,-0.1214435000122694,0.5688691257365278
1.6345000000000027,0.1693824585767977,-0.1725781564371993,0.5433017975240628
1.6380000000000017,0.136357338470561,-0.2354309534600191,0.4953628389595346
1.6415000000000006,0.1118564064310645,-0.274847469287059,0.4548816722887781
1.6449999999999996,0.1022693128498597,-0.3227846825223353,0.4037470158638482
1.648500000000002,0.1086607085706629,-0.3451563128743986,0.3622011983493752
1.652000000000001,0.1203788491685528,-0.3920288752659583,0.286565609884949
1.6555,0.1171831513081512,-0.4357057397971164,0.233299906443334
1.6590000000000025,0.1022693128498597,-0.508147375730393,0.1608600158393093
1.6625000000000014,0.0745709376207097,-0.5433017975240628,0.1171831513081512
1.6660000000000004,0.0362208179666383,-0.5603466829990394,0.0628527970228197
1.669499999999999,0.0042603487041181,-0.5624759846864725,0.0308940730895516
1.6730000000000018,-0.0521993072686464,-0.5443664483677794,-0.0063913957208032
1.6765000000000008,-0.096942567972773,-0.5156034222949128,-0.0394165158270399
1.6799999999999995,-0.1597953649955928,-0.4697955107470696,-0.0767019846373948
1.6835000000000022,-0.2013411825100658,-0.4239875991992265,-0.1097253594143795
1.6870000000000012,-0.2460844432141925,-0.3622011983493752,-0.1512729222581045
1.6905,-0.2705853752536888,-0.3174579376452486,-0.1736428072809158
1.6940000000000026,-0.288694911572382,-0.2567361876391139,-0.1885583910684593
1.6975000000000016,-0.2812388650078622,-0.2141239739516723,-0.1970790884766957
1.7010000000000003,-0.2492801410745941,-0.1693824585767977,-0.1992101354933808
1.7044999999999997,-0.2024058333537824,-0.1448797812080492,-0.1949497867892626
1.708000000000002,-0.1555332709622227,-0.1182478021518678,-0.1960144376329791
1.711500000000001,-0.1289012919060412,-0.0980072188164895,-0.1981454846496642
1.715,-0.1022693128498597,-0.0671131457269379,-0.1981454846496642
1.7185000000000024,-0.0703088435873395,-0.0436768645311581,-0.191754088928861
1.7220000000000013,-0.0319587239332681,-0.0063913957208032,-0.1725781564371993
1.7255000000000005,0.002131047016685,0.0149138384582915,-0.1597953649955928
1.7290000000000028,0.0362208179666383,0.0351544217936697,-0.1448797812080492
1.7325000000000017,0.069244192743623,0.041545817514473,-0.1374237346435295
1.7360000000000009,0.1129210572747811,0.0479389585645282,-0.1267702448893561
1.7394999999999996,0.1491418752414194,0.0468725623915597,-0.124639197872671
1.743000000000002,0.2013411825100658,0.0234362811957798,-0.1214435000122694
1.746500000000001,0.2364956043037356,0.0010646508437165,-0.1086607085706629
1.75,0.2993484013265554,-0.0181095363186931,-0.1012029166768912
1.7535000000000025,0.3462209637181151,-0.0340897709499532,-0.0958761717998045
1.7570000000000014,0.3962909692993285,-0.069244192743623,-0.0926804739394028
1.7605000000000004,0.42292294835551,-0.0916158230956863,-0.0852244273748831
1.7639999999999991,0.452750625272093,-0.1182478021518678,-0.0905494269227178
1.7675000000000018,0.4655351620429515,-0.1299659427497577,-0.0937468701123714
1.7710000000000008,0.4793843496575265,-0.1331616406101593,-0.1043986145372928
1.7744999999999995,0.480449000501243,-0.1352926876268444,-0.1086607085706629
1.7780000000000022,0.4847093492053612,-0.1395530363309626,-0.1214435000122694
1.7815000000000012,0.4889714432387313,-0.1491418752414194,-0.1342280367831279
1.785,0.4719265577637547,-0.1534022239455376,-0.1544686201185061
1.7885000000000026,0.4303807402492817,-0.1555332709622227,-0.1693824585767977
1.7920000000000016,0.3707236410868635,-0.1565979218059392,-0.180035948330971
1.7955000000000003,0.3345028231202252,-0.1491418752414194,-0.1704471094205142
1.7989999999999997,0.2844345628682639,-0.1257055940456395,-0.1587289688226243
1.802500000000002,0.2631275833599171,-0.1086607085706629,-0.136357338470561
1.806000000000001,0.2343645572870505,-0.0916158230956863,-0.1118564064310645
1.8095,0.2077325782308691,-0.0852244273748831,-0.0990718696602061
1.8130000000000024,0.1512729222581045,-0.083093380358198,-0.0990718696602061
1.8165000000000011,0.1054650107102613,-0.0852244273748831,-0.1086607085706629
1.8200000000000005,0.0490036094082447,-0.0884201252352847,-0.1065296615539778
1.8234999999999992,0.0063913957208032,-0.0841580312019145,-0.1001382658331746
1.8270000000000015,-0.0351544217936697,-0.0617864008498512,-0.0841580312019145
1.830500000000001,-0.0575260521457331,-0.0521993072686464,-0.0681795418999064
1.834,-0.0788312863248278,-0.0319587239332681,-0.0383501196540714
1.837500000000002,-0.0756355884644262,-0.0106534897541733,-0.0170448854749766
1.841000000000001,-0.0681795418999064,0.0063913957208032,0.0106534897541733
1.8445,-0.0596570991624181,0.0170448854749766,0.0394165158270399
1.8480000000000023,-0.0308940730895516,0.0404811666707564,0.0767019846373948
1.8515000000000013,0.0117181405978899,0.055395005129048,0.1097253594143795
1.8550000000000004,0.0767019846373948,0.0724398906040246,0.150206526085136
1.8584999999999996,0.1267702448893561,0.0841580312019145,0.1736428072809158
1.8620000000000017,0.1874919948954908,0.0980072188164895,0.2034722295267509
1.8655000000000008,0.2343645572870505,0.1118564064310645,0.2087989744038376
1.869,0.288694911572382,0.1150521042914662,0.2151903701246408
1.8725000000000025,0.314262239784847,0.1203788491685528,0.2119946722642392
1.8760000000000008,0.3323735214327921,0.1310323389227262,0.2002765316663493
1.8795,0.3323735214327921,0.1395530363309626,0.1885583910684593
1.883000000000003,0.3217200316786187,0.1512729222581045,0.1747092034538843
1.8865000000000016,0.3100018910807288,0.1534022239455376,0.1683160624038291
1.8900000000000008,0.2695207244099723,0.1629910628559944,0.1544686201185061
1.8934999999999995,0.233299906443334,0.166186760716396,0.1459461773810178
1.897000000000002,0.1640557136997109,0.1811005991746876,0.1342280367831279
1.900500000000001,0.0980072188164895,0.1874919948954908,0.1267702448893561
1.904,0.0031956978604016,0.2034722295267509,0.1289012919060412
1.9075000000000024,-0.0607217500061347,0.219450718828759,0.1470108282247343
1.9110000000000011,-0.138488385487246,0.2364956043037356,0.1811005991746876
1.9145000000000003,-0.1960144376329791,0.2460844432141925,0.2034722295267509
1.9179999999999997,-0.2727164222703739,0.2492801410745941,0.2524758389349957
1.9215000000000015,-0.2950880526224372,0.2503447919183106,0.2897613077453506
1.9250000000000007,-0.2769767709744921,0.2578025838120824,0.3483520107348002
1.9285,-0.2386266513204207,0.258867234655799,0.3877685265618402
1.9320000000000024,-0.1629910628559944,0.2375620004767041,0.4271832970596281
1.935500000000001,-0.1086607085706629,0.2109282760912707,0.4484902765679749
1.939,-0.0149138384582915,0.1597953649955928,0.4655351620429515
1.9425000000000023,0.0543303542853314,0.1214435000122694,0.4815136513449596
1.9460000000000013,0.1448797812080492,0.0820287295144815,0.4772533026408414
1.9495000000000005,0.2024058333537824,0.0628527970228197,0.4665998128866681
1.9529999999999996,0.2620629325162006,0.0340897709499532,0.4559463231324946
1.956500000000002,0.2897613077453506,0.0053267448770866,0.4346410889533998
1.9600000000000009,0.3046751462036421,-0.0181095363186931,0.3952245731263599
1.9635,0.300413052170272,-0.0362208179666383,0.3643322453660603
1.9670000000000023,0.2791078179911772,-0.0639174478665363,0.314262239784847
1.9705000000000013,0.2492801410745941,-0.0745709376207097,0.2854992137119804
1.974,0.1853609478788057,-0.0937468701123714,0.2396913021641372
1.9775000000000027,0.1267702448893561,-0.1139874534477496,0.2162550209683574
1.9810000000000016,0.0362208179666383,-0.1352926876268444,0.1896230419121759
1.9845000000000008,-0.0372854688103548,-0.152337573101821,0.1757738542976009
1.9879999999999995,-0.1320969897664428,-0.166186760716396,0.1619246666830259
1.991500000000002,-0.1960144376329791,-0.1629910628559944,0.152337573101821
1.995000000000001,-0.302544099186957,-0.150206526085136,0.1416840833476476
1.9985,-0.3707236410868635,-0.1299659427497577,0.1374237346435295
2.0020000000000024,-0.4516859744283765,-0.0980072188164895,0.1225098961852379
2.0055000000000014,-0.508147375730393,-0.0735062867769931,0.1150521042914662
2.0090000000000003,-0.5752605214573311,-0.0436768645311581,0.110790010258096
2.0124999999999997,-0.5880433128989375,-0.0106534897541733,0.1150521042914662
2.016000000000002,-0.5539552872782363,0.0308940730895516,0.1374237346435295
2.0195000000000043,-0.5124077244345112,0.0585907029894496,0.1470108282247343
2.023,-0.4452945787075733,0.0724398906040246,0.1704471094205142
2.026500000000002,-0.3867021303888716,0.0841580312019145,0.1757738542976009
2.0299999999999976,-0.302544099186957,0.0852244273748831,0.1842962970350892
2.0335,-0.247149094057909,0.0916158230956863,0.1853609478788057
2.0370000000000026,-0.180035948330971,0.0958761717998045,0.1789695521580025
2.040499999999998,-0.1342280367831279,0.0873537290623162,0.1736428072809158
2.0440000000000005,-0.0852244273748831,0.0660484948832214,0.1651203645434275
2.047500000000003,-0.0681795418999064,0.0436768645311581,0.1555332709622227
2.0509999999999984,-0.0703088435873395,0.013849187614575,0.1352926876268444
2.054500000000001,-0.0916158230956863,-0.0074577918937717,0.124639197872671
2.0580000000000034,-0.1320969897664428,-0.02769837522915,0.1225098961852379
2.0614999999999988,-0.150206526085136,-0.0521993072686464,0.1320969897664428
2.0650000000000013,-0.1640557136997109,-0.0958761717998045,0.1512729222581045
2.068500000000004,-0.1576643179789077,-0.1225098961852379,0.166186760716396
2.071999999999999,-0.136357338470561,-0.1640557136997109,0.1757738542976009
2.0755000000000017,-0.1139874534477496,-0.1874919948954908,0.1715135055934827
2.079000000000004,-0.0852244273748831,-0.2322352555996175,0.1629910628559944
2.0825,-0.0585907029894496,-0.2652586303766022,0.1470108282247343
2.086000000000002,-0.0149138384582915,-0.2791078179911772,0.1299659427497577
2.089499999999997,0.0191759324916617,-0.2812388650078622,0.1150521042914662
2.093,0.0649838440395048,-0.2567361876391139,0.0948115209560879
2.0965000000000025,0.0948115209560879,-0.2290395577392158,0.0777666354811113
2.099999999999998,0.1171831513081512,-0.1768385051413174,0.0500682602519613
2.1035000000000004,0.1289012919060412,-0.1459461773810178,0.0255673282124649
2.107000000000003,0.1352926876268444,-0.0926804739394028,0.0
2.1104999999999983,0.138488385487246,-0.0511346564249298,-0.0223716303520633
2.1140000000000008,0.138488385487246,0.0031956978604016,-0.0532657034416149
2.1175000000000037,0.124639197872671,0.0521993072686464,-0.083093380358198
2.1209999999999987,0.0862890782185996,0.1193124529955843,-0.1235745470289545
2.124500000000001,0.0490036094082447,0.1725781564371993,-0.1544686201185061
2.128000000000004,-0.0245026773687483,0.2386266513204207,-0.2024058333537824
2.131499999999999,-0.096942567972773,0.2716500260974054,-0.2279731615662473
2.1350000000000016,-0.1853609478788057,0.3174579376452486,-0.2503447919183106
2.138500000000004,-0.2503447919183106,0.3451563128743986,-0.2482137449016255
2.1419999999999995,-0.316393286801532,0.3739193389472651,-0.2407576983371057
2.145500000000002,-0.3579391043160051,0.38350643252847,-0.2311688594266489
2.1490000000000045,-0.3930952714389268,0.3877685265618402,-0.2173214171413259
2.1525,-0.4165315526347067,0.3771150368076668,-0.2109282760912707
2.1560000000000024,-0.4303807402492817,0.3483520107348002,-0.2087989744038376
2.1594999999999978,-0.4303807402492817,0.3174579376452486,-0.2141239739516723
2.1630000000000003,-0.4303807402492817,0.2684543282370038,-0.2109282760912707
2.1665000000000028,-0.425053995372195,0.2322352555996175,-0.2141239739516723
2.169999999999998,-0.4037470158638482,0.1906876927558924,-0.1992101354933808
2.1735000000000007,-0.3749839897909817,0.1597953649955928,-0.1789695521580025
2.177000000000003,-0.3323735214327921,0.1054650107102613,-0.1480754790684509
2.1804999999999986,-0.2929570056057522,0.0649838440395048,-0.1203788491685528
2.184000000000001,-0.219450718828759,0.0106534897541733,-0.0820287295144815
2.187500000000004,-0.1608600158393093,-0.0245026773687483,-0.0607217500061347
2.190999999999999,-0.0777666354811113,-0.0798976824977964,-0.0319587239332681
2.194500000000001,-0.0149138384582915,-0.1299659427497577,-0.01598023463126
2.198000000000004,0.069244192743623,-0.2109282760912707,0.002131047016685
2.2015,0.1331616406101593,-0.2578025838120824,0.0127827914416064
2.205000000000002,0.1970790884766957,-0.2961527034661538,0.01598023463126
2.2085000000000043,0.2269085107225308,-0.3174579376452486,0.0106534897541733
2.212,0.2524758389349957,-0.3408942188410284,0.0074577918937717
2.2155000000000022,0.2641939795328856,-0.3536787556118869,0.0074577918937717
2.2189999999999976,0.2737810731140905,-0.3632658491930918,0.002131047016685
2.2225,0.2695207244099723,-0.3600701513326901,-0.0053267448770866
2.226000000000002,0.2716500260974054,-0.3515477085952018,-0.0223716303520633
2.229499999999998,0.2780431671474606,-0.3430252658577135,-0.0319587239332681
2.2330000000000005,0.2972173543098703,-0.3259803803827369,-0.0521993072686464
2.236500000000003,0.3057397970473587,-0.3131975889411305,-0.0649838440395048
2.2399999999999984,0.2918906094327836,-0.2961527034661538,-0.096942567972773
2.243500000000001,0.2716500260974054,-0.2812388650078622,-0.1171831513081512
2.2470000000000034,0.2375620004767041,-0.2439533961975074,-0.1459461773810178
2.250499999999999,0.2109282760912707,-0.2141239739516723,-0.1629910628559944
2.2540000000000013,0.1704471094205142,-0.1640557136997109,-0.1757738542976009
2.257500000000004,0.1406194325039311,-0.1257055940456395,-0.1938833906162941
2.2609999999999992,0.0820287295144815,-0.069244192743623,-0.2279731615662473
2.2645000000000017,0.0223716303520633,-0.0394165158270399,-0.2524758389349957
2.268000000000004,-0.0628527970228197,-0.0010646508437165,-0.2844345628682639
2.2715,-0.1289012919060412,0.013849187614575,-0.3089354949077603
2.275000000000002,-0.2066679273871525,0.0372854688103548,-0.3281114273994219
2.278499999999997,-0.2428870000245388,0.0458079115478431,-0.3334381722765087
2.282,-0.2982837504828389,0.0543303542853314,-0.3376985209806268
2.2855000000000025,-0.3494166615785167,0.0511346564249298,-0.3387649171535954
2.288999999999998,-0.3962909692993285,0.0500682602519613,-0.3238510786953038
2.2925000000000004,-0.4261186462159115,0.0383501196540714,-0.2929570056057522
2.296000000000003,-0.4442281825346047,0.0266319790561814,-0.2375620004767041
2.2994999999999983,-0.4410324846742031,0.0394165158270399,-0.1789695521580025
2.303000000000001,-0.3952245731263599,0.0490036094082447,-0.1012029166768912
2.3065000000000038,-0.3440916620306821,0.0585907029894496,-0.0362208179666383
2.3099999999999987,-0.2503447919183106,0.0703088435873395,0.0372854688103548
2.313500000000001,-0.1885583910684593,0.0862890782185996,0.0777666354811113
2.317000000000004,-0.083093380358198,0.1054650107102613,0.1203788491685528
2.320499999999999,-0.002131047016685,0.1214435000122694,0.1416840833476476
2.3240000000000016,0.1075943123976944,0.1278348957330726,0.152337573101821
2.327500000000004,0.180035948330971,0.1310323389227262,0.1565979218059392
2.3309999999999995,0.2567361876391139,0.1406194325039311,0.1416840833476476
2.334500000000002,0.2929570056057522,0.138488385487246,0.1320969897664428
2.3380000000000045,0.3291760782431385,0.1289012919060412,0.1150521042914662
2.3415,0.3515477085952018,0.1182478021518678,0.0958761717998045
2.3450000000000024,0.3590055004889736,0.1033339636935762,0.0788312863248278
2.348499999999998,0.3611348021764067,0.0841580312019145,0.055395005129048
2.3520000000000003,0.3430252658577135,0.0521993072686464,0.0330233747769847
2.355500000000003,0.3100018910807288,0.029827676916583,0.0127827914416064
2.358999999999998,0.2492801410745941,0.0095870935812048,0.0010646508437165
2.3625000000000007,0.205601531214184,0.0063913957208032,0.002131047016685
2.366000000000003,0.1491418752414194,0.0085224427374883,0.013849187614575
2.3694999999999986,0.0958761717998045,0.0149138384582915,0.0181095363186931
2.373000000000001,0.0255673282124649,0.0095870935812048,0.0404811666707564
2.376500000000004,-0.013849187614575,0.013849187614575,0.0532657034416149
2.379999999999999,-0.0447432607041266,0.0255673282124649,0.0671131457269379
2.383500000000001,-0.0649838440395048,0.0447432607041266,0.0639174478665363
2.387000000000004,-0.0990718696602061,0.0511346564249298,0.0394165158270399
2.3904999999999994,-0.1448797812080492,0.0447432607041266,0.0127827914416064
2.394000000000002,-0.2119946722642392,0.0468725623915597,-0.02769837522915
2.3975000000000044,-0.2705853752536888,0.0607217500061347,-0.0617864008498512
2.401,-0.3451563128743986,0.0649838440395048,-0.1097253594143795
2.4045000000000023,-0.4016177141764152,0.0596570991624181,-0.150206526085136
2.4079999999999977,-0.4836446983616446,0.0490036094082447,-0.2034722295267509
2.4115,-0.5486285424011496,0.0394165158270399,-0.2482137449016255
2.4150000000000027,-0.6242641308655758,0.0340897709499532,-0.2972173543098703
2.418499999999998,-0.6828548338550254,0.0287630260728665,-0.3387649171535954
2.4220000000000006,-0.7957776364590586,-0.0063913957208032,-0.3739193389472651
2.425500000000003,-0.8916538082588631,-0.0245026773687483,-0.3941599222826434
2.4289999999999985,-1.012032657427416,-0.0436768645311581,-0.3952245731263599
2.432500000000001,-1.0866035950481256,-0.0511346564249298,-0.38350643252847
2.4360000000000035,-1.160108136495867,-0.0564614013020165,-0.3504830577514853
2.439499999999999,-1.1835444176916468,-0.0500682602519613,-0.3270467765557054
2.4430000000000014,-1.1878065117250167,-0.0468725623915597,-0.2950880526224372
2.446500000000004,-1.176088371127127,-0.0490036094082447,-0.2823035158515788
2.4499999999999997,-1.1483899958979769,-0.0639174478665363,-0.2716500260974054
2.453500000000002,-1.1217580168417955,-0.0798976824977964,-0.2620629325162006
2.4570000000000043,-1.0684923134001805,-0.1043986145372928,-0.2652586303766022
2.4605,-1.0312068445898257,-0.1214435000122694,-0.2631275833599171
2.464000000000002,-1.0088369595670144,-0.138488385487246,-0.2727164222703739
2.4674999999999976,-1.0237507980253058,-0.1534022239455376,-0.2897613077453506
2.471,-1.0897992929085274,-0.1629910628559944,-0.316393286801532
2.4745000000000026,-1.1728926732667255,-0.166186760716396,-0.3345028231202252
2.477999999999998,-1.3199035014914595,-0.1629910628559944,-0.3749839897909817
2.4815000000000005,-1.455196189118304,-0.1683160624038291,-0.4016177141764152
2.485000000000003,-1.6437528348575114,-0.1693824585767977,-0.4431635316908882
2.4884999999999984,-1.7960904079593327,-0.180035948330971,-0.4761869064678729
2.492000000000001,-2.0059540332068866,-0.1906876927558924,-0.5251905158761178
2.4955000000000034,-2.14976916357122,-0.1864273440517743,-0.5518242402615512
2.4989999999999988,-2.3361965076229936,-0.1640557136997109,-0.5933700577760241
2.5025000000000013,-2.476815940126925,-0.1395530363309626,-0.6210684330051742
2.506000000000004,-2.670699330743219,-0.1118564064310645,-0.644504714200954
2.509499999999999,-2.777228992297197,-0.0873537290623162,-0.6381133184801508
2.5130000000000017,-2.8379507423033314,-0.0649838440395048,-0.5997614534968274
2.516500000000004,-2.836886091459615,-0.0500682602519613,-0.5518242402615512
2.52,-2.750597013241016,-0.0372854688103548,-0.4634041150262664
2.523500000000002,-2.622760372178691,-0.0308940730895516,-0.397355620143045
2.526999999999997,-2.386264767874956,-0.029827676916583,-0.3121311927681619
2.5305,-2.197708122135748,-0.0330233747769847,-0.2460844432141925
2.5340000000000025,-1.944167632357036,-0.0266319790561814,-0.1736428072809158
2.537499999999998,-1.7620006370093797,-0.0170448854749766,-0.1193124529955843
2.5410000000000004,-1.536158522459817,0.0010646508437165,-0.0319587239332681
2.544500000000003,-1.3816899023413112,0.029827676916583,0.0202405833353782
2.5479999999999983,-1.2218962826749702,0.0628527970228197,0.0788312863248278
2.5515000000000008,-1.1494546467416935,0.0905494269227178,0.0990718696602061
2.5550000000000037,-1.1419986001771738,0.1320969897664428,0.1054650107102613
2.5584999999999987,-1.1910022095854185,0.1587289688226243,0.0958761717998045
2.562000000000001,-1.324163850195578,0.1864273440517743,0.0756355884644262
2.565500000000004,-1.4722410745932808,0.2066679273871525,0.0383501196540714
2.568999999999999,-1.743891100690686,0.2450180470412239,-0.0213052341790947
2.5725000000000016,-1.9654728665361303,0.2737810731140905,-0.0724398906040246
2.576000000000004,-2.2584298721418827,0.3068061932203272,-0.1459461773810178
2.5794999999999995,-2.478945241814358,0.3249157295390203,-0.2130593231079557
2.583000000000002,-2.7814910863305675,0.3334381722765087,-0.3249157295390203
2.5865000000000045,-3.012659945757216,0.3131975889411305,-0.4133358547743051
2.59,-3.35568521161493,0.2897613077453506,-0.5411707505073777
2.5935000000000024,-3.627336983041587,0.2716500260974054,-0.6200020368322057
2.5969999999999978,-3.98953643606171,0.2439533961975074,-0.6881815787321122
2.6005000000000003,-4.246274369030076,0.2173214171413259,-0.7084221620674903
2.6040000000000028,-4.605278124189798,0.1555332709622227,-0.6988350684862855
2.607499999999998,-4.877994546460172,0.1033339636935762,-0.6487650629050722
2.6110000000000007,-5.137926431959688,0.0319587239332681,-0.5124077244345112
2.614500000000003,-5.221019812317885,-0.0074577918937717,-0.3611348021764067
2.6179999999999986,-5.1741472499263255,-0.0767019846373948,-0.1342280367831279
2.621500000000001,-5.003700140505812,-0.1235745470289545,0.0543303542853314
2.625000000000004,-4.616998010116939,-0.1874919948954908,0.288694911572382
2.628499999999999,-4.247339019873793,-0.2258421145495622,0.4367721359700849
2.632000000000001,-3.7306692014059113,-0.2641939795328856,0.5965657556364258
2.635500000000004,-3.317335091960858,-0.2833681666952953,0.6807255321675924
2.639,-2.832623997426245,-0.2982837504828389,0.7606214693361367
2.642500000000002,-2.535406643116375,-0.3121311927681619,0.7883198445652868
2.6460000000000043,-2.2445806845273077,-0.3504830577514853,0.8128207766047831
2.6495,-2.0762646221234786,-0.3238510786953038,0.8053647300402634
2.6530000000000022,-1.9633418195194452,-0.3227846825223353,0.7659482142132235
2.6564999999999976,-1.9548193767819568,-0.3206536355056502,0.7212066988383489
2.66,-2.0059540332068866,-0.2833681666952953,0.6359822714634658
2.663500000000002,-2.080524970827597,-0.2482137449016255,0.5528888911052677
2.666999999999998,-2.219013356314843,-0.1992101354933808,0.4314453910929982
2.6705000000000005,-2.3575017418020887,-0.1565979218059392,0.3355692192931938
2.674000000000003,-2.5513868777476345,-0.0958761717998045,0.2002765316663493
2.6774999999999984,-2.684548518357794,-0.0458079115478431,0.110790010258096
2.681000000000001,-2.842212836336702,0.0308940730895516,0.0
2.6845000000000034,-2.953002846594798,0.0841580312019145,-0.0735062867769931
2.687999999999999,-3.101080070992501,0.150206526085136,-0.1629910628559944
2.6915000000000013,-3.203347638513109,0.1960144376329791,-0.2077325782308691
2.695000000000004,-3.319464393648292,0.2705853752536888,-0.2535404897787122
2.6984999999999992,-3.399362076146088,0.3238510786953038,-0.2556715367953973
2.7020000000000017,-3.482455456504286,0.3824417816847534,-0.2237128128621291
2.705500000000004,-3.4963046441188608,0.4271832970596281,-0.1704471094205142
2.709,-3.4835201073480024,0.492167141099133,-0.0724398906040246
2.712500000000002,-3.449432081727301,0.5358440056302911,0.0308940730895516
2.715999999999997,-3.3279868363857794,0.5923054069323076,0.2013411825100658
2.7195,-3.1639328680153205,0.6338512244467807,0.3590055004889736
2.7230000000000025,-2.860322372655395,0.6998997193300021,0.5646070317031576
2.726499999999998,-2.613173278597486,0.7329248394362388,0.7009661155029706
2.7300000000000004,-2.292519643091836,0.7595568184924202,0.8511726415881066
2.733500000000003,-2.096503460129605,0.7691439120736251,0.921481485175446
2.7369999999999983,-1.952690075094524,0.767014610386192,0.9630290480191712
2.740500000000001,-1.9303184447424608,0.7542300736153336,0.9577023031420844
2.7440000000000038,-2.017672173804777,0.7307937924195538,0.9257435792088164
2.7474999999999987,-2.1710743977503144,0.6998997193300021,0.8841960163650913
2.751000000000001,-2.483207335847728,0.6753987872905056,0.7936465894423735
2.754500000000004,-2.778293643140914,0.6615495996759307,0.7148135577882937
2.757999999999999,-3.193760544931904,0.6572875056425604,0.5986968026531109
2.7615000000000016,-3.501631388995948,0.6519625060947258,0.4974938859762197
2.765000000000004,-3.902182706999394,0.6477004120613556,0.3526141047681703
2.7684999999999995,-4.181290524990572,0.6317219227593476,0.2375620004767041
2.772000000000002,-4.497683811792104,0.6189373859884891,0.0990718696602061
2.7755000000000045,-4.668130921212618,0.6082838962343158,0.0170448854749766
2.779,-4.799163260135344,0.5805872663344177,-0.055395005129048
2.7825000000000024,-4.815141749437352,0.5699337765802444,-0.0745709376207097
2.785999999999998,-4.697958598129201,0.5635423808594411,-0.0681795418999064
2.7895000000000003,-4.529642535725372,0.5528888911052677,-0.0479389585645282
2.793000000000003,-4.227098436538414,0.5209301671719996,-0.0117181405978899
2.796499999999998,-3.961839806161812,0.4996249329929048,-0.0031956978604016
2.8000000000000007,-3.6113567484103273,0.4548816722887781,-0.0106534897541733
2.803500000000003,-3.372730097089906,0.4154651564617382,-0.0202405833353782
2.8069999999999986,-3.081904138500839,0.3632658491930918,-0.0362208179666383
2.810500000000001,-2.88588970086786,0.3302424744161071,-0.0340897709499532
2.814000000000004,-2.652589794424526,0.3100018910807288,-0.01598023463126
2.817499999999999,-2.506643617043508,0.3036087500306735,0.0
2.821000000000001,-2.338327554639679,0.3046751462036421,0.0287630260728665
2.824500000000004,-2.227535799052331,0.3100018910807288,0.0468725623915597
2.8279999999999994,-2.117810439637952,0.3131975889411305,0.0404811666707564
2.831500000000002,-2.0730671789338246,0.3100018910807288,0.0245026773687483
2.8350000000000044,-2.05176194475473,0.3110665419244454,-0.02769837522915
2.8385,-2.062415434508903,0.288694911572382,-0.0724398906040246
2.8420000000000023,-2.11461474177755,0.2641939795328856,-0.1427504795206162
2.8454999999999977,-2.1870546323815745,0.2652586303766022,-0.2024058333537824
2.849,-2.2999756896563555,0.2663250265495707,-0.2631275833599171
2.8525000000000027,-2.395853606785412,0.2599318854995155,-0.3078708440640437
2.855999999999998,-2.5130350127643117,0.2769767709744921,-0.3579391043160051
2.8595000000000006,-2.620631070491258,0.3014794483432405,-0.3994866671597301
2.863000000000003,-2.77190224742011,0.341960615013997,-0.464468765869983
2.8664999999999985,-2.8816276068344897,0.3611348021764067,-0.5134723752782278
2.870000000000001,-3.023313435511389,0.3749839897909817,-0.5773915684740161
2.8735000000000035,-3.111731815417422,0.3877685265618402,-0.6178727351447726
2.876999999999999,-3.2182614769714,0.4005513180034466,-0.6743323911175372
2.8805000000000014,-3.288572065887992,0.4080091098972184,-0.6988350684862855
2.884000000000004,-3.34396707101704,0.4144005056180216,-0.7201403026653803
2.8874999999999997,-3.3908396334085995,0.4325100419367148,-0.7318584432632703
2.891000000000002,-3.4856511543646875,0.4783179534845579,-0.7595568184924202
2.8945000000000043,-3.6092257013936417,0.5156034222949128,-0.7851241467048852
2.898,-3.851048050574464,0.5528888911052677,-0.8266699642193582
2.901500000000002,-4.072629816419909,0.5976321518093943,-0.861824386013028
2.9049999999999976,-4.422048223327677,0.7030954171904037,-0.8905874120858945
2.9085,-4.687306853704279,0.7776663548111135,-0.8884581103984615
2.9120000000000026,-5.0005044426454095,0.8810003185046897,-0.8319967090964449
2.915499999999998,-5.156037713607632,0.952375558264998,-0.7595568184924202
2.9190000000000005,-5.238064697792862,1.0599698706626923,-0.6477004120613556
2.922500000000003,-5.219955161474168,1.1377365061438036,-0.5763251723010476
2.9259999999999984,-5.103836661009733,1.219765235658285,-0.517734469311598
2.929500000000001,-4.956825832784999,1.2666377980498449,-0.503885281697023
2.9330000000000034,-4.677718014793823,1.298596521983113,-0.5273215628928027
2.9364999999999988,-4.436962061785969,1.3039232668601997,-0.5709984274239609
2.9400000000000013,-4.0992635408053415,1.29646722029568,-0.6668763445530174
2.943500000000004,-3.840396306149543,1.2836826835248214,-0.7510343757549319
2.946999999999999,-3.510153831733436,1.2879447775581916,-0.8873917142254929
2.9505000000000017,-3.283245321010905,1.298596521983113,-0.996052422796156
2.954000000000004,-3.005202153863444,1.3081853608935698,-1.1409322040042051
2.9575,-2.832623997426245,1.3124457095976878,-1.2506593087478366
2.961000000000002,-2.634478512776581,1.310314662581003,-1.3891476942350829
2.964499999999997,-2.4991858251497363,1.3092500117372865,-1.476501423297399
2.968,-2.324478367025104,1.3028586160164832,-1.5926181784325817
2.9715000000000025,-2.231797893085701,1.2879447775581916,-1.6639934181928897
2.974999999999998,-2.176401142627401,1.2261566313790884,-1.7502824964114894
2.9785000000000004,-2.1795968404878026,1.1494546467416935,-1.802481803680136
2.982000000000003,-2.275474757616859,1.0482517300648024,-1.8557475071217504
2.9854999999999983,-2.428876981562397,0.9811385843378644,-1.8930329759321056
2.9890000000000008,-2.7527280602577004,0.8735442719401699,-1.9249916998653736
2.9925000000000037,-3.0648592530258623,0.7595568184924202,-1.9494926319048704
2.9959999999999987,-3.5751359304436887,0.5923054069323076,-1.9739953092736189
2.999500000000001,-4.016170160447143,0.425053995372195,-1.9953005434527131
3.003000000000004,-4.6638705725085,0.180035948330971,-2.0134118251006585
3.006499999999999,-5.170951552065924,0.0223716303520633,-2.0208678716651782
3.0100000000000016,-5.827174406864768,-0.1310323389227262,-2.0229989186818638
3.013500000000004,-6.284187126170231,-0.1949497867892626,-2.0229989186818638
3.0169999999999995,-6.82855357453801,-0.2098636252475541,-2.003822986190201
3.020500000000002,-7.193950470747788,-0.1832316461913727,-1.9910401947485952
3.0240000000000045,-7.607286325522093,-0.1118564064310645,-1.938840887479949
3.0275,-7.828868091367537,-0.055395005129048,-1.8866415802113023
3.0310000000000024,-7.982270315313074,0.0319587239332681,-1.774785173780238
3.0344999999999978,-7.969487523871468,0.0873537290623162,-1.6639934181928897
3.0380000000000003,-7.747904012696771,0.1597953649955928,-1.5052644493702656
3.0415000000000028,-7.454948752420271,0.1981454846496642,-1.390212345078799
3.044999999999998,-6.951061725393997,0.2183860679850424,-1.2602464023290416
3.0485000000000007,-6.433329001411651,0.2119946722642392,-1.1718262770937566
3.052000000000003,-5.851675338904264,0.1842962970350892,-1.0844725480314406
3.0554999999999986,-5.243391442669949,0.2002765316663493,-0.9715514907566596
3.059000000000001,-4.2590571604716825,0.1289012919060412,-0.8170828706381533
3.062500000000004,-3.555961743281279,0.0245026773687483,-0.7244023966987505
3.065999999999999,-2.647263049547439,-0.0351544217936697,-0.6200020368322057
3.069500000000001,-1.975059960117335,-0.0607217500061347,-0.559280286826071
3.073000000000004,-1.1409322040042051,-0.0820287295144815,-0.4676662090596366
3.0765,-0.6104149432510009,-0.0862890782185996,-0.4133358547743051
3.080000000000002,-0.0735062867769931,-0.1203788491685528,-0.3568744534722885
3.0835000000000043,0.2024058333537824,-0.1544686201185061,-0.3270467765557054
3.087,0.4474238803950063,-0.2077325782308691,-0.2812388650078622
3.0905000000000022,0.5496931932448661,-0.2428870000245388,-0.2514094427620272
3.0939999999999976,0.5741958706136145,-0.2599318854995155,-0.2258421145495622
3.0975,0.4889714432387313,-0.2546051406224288,-0.2173214171413259
3.101000000000002,0.2854992137119804,-0.2375620004767041,-0.2173214171413259
3.104499999999998,0.0639174478665363,-0.2077325782308691,-0.2226464166891606
3.1080000000000005,-0.260998281672484,-0.150206526085136,-0.233299906443334
3.111500000000003,-0.5241258650324012,-0.1171831513081512,-0.2439533961975074
3.1149999999999984,-0.9001762509963515,-0.0788312863248278,-0.2727164222703739
3.118500000000001,-1.1878065117250167,-0.0585907029894496,-0.3089354949077603
3.1220000000000034,-1.5532034079347938,-0.0447432607041266,-0.3451563128743986
3.125499999999999,-1.7854369182051593,-0.041545817514473,-0.3611348021764067
3.1290000000000013,-2.01234542892769,-0.0543303542853314,-0.355809802628572
3.132500000000004,-2.106092299040061,-0.0617864008498512,-0.3376985209806268
3.1359999999999992,-2.142311371677448,-0.0671131457269379,-0.3057397970473587
3.1395000000000017,-2.0922431114254865,-0.0703088435873395,-0.274847469287059
3.143000000000004,-1.940970189167382,-0.0756355884644262,-0.233299906443334
3.1465,-1.771589475919836,-0.0948115209560879,-0.1970790884766957
3.150000000000002,-1.4786324703140838,-0.136357338470561,-0.1576643179789077
3.153499999999997,-1.2218962826749702,-0.1491418752414194,-0.1289012919060412
3.157,-0.8533036886047917,-0.1565979218059392,-0.0873537290623162
3.1605000000000025,-0.5486285424011496,-0.1619246666830259,-0.0479389585645282
3.163999999999998,-0.1139874534477496,-0.1587289688226243,0.0287630260728665
3.1675000000000004,0.2375620004767041,-0.1534022239455376,0.0990718696602061
3.171000000000003,0.7510343757549319,-0.1470108282247343,0.2087989744038376
3.1744999999999983,1.160108136495867,-0.1565979218059392,0.2961527034661538
3.178000000000001,1.7119323767574182,-0.1768385051413174,0.4058780628805333
3.1815000000000038,2.142311371677448,-0.2034722295267509,0.4825800475179281
3.1849999999999987,2.721833987168149,-0.2428870000245388,0.5688691257365278
3.188500000000001,3.142625888506974,-0.260998281672484,0.6136106411114024
3.192000000000004,3.655033612941485,-0.2524758389349957,0.6402426201675839
3.195499999999999,4.000189925815883,-0.2407576983371057,0.6466357612176391
3.1990000000000016,4.418850780138024,-0.2151903701246408,0.6338512244467807
3.202500000000004,4.677718014793823,-0.1757738542976009,0.6114795940947174
3.2059999999999995,4.932324900745504,-0.1150521042914662,0.5752605214573311
3.209500000000002,5.036723515282796,-0.0713752397603081,0.5433017975240628
3.2129999999999974,5.104903057182702,-0.0010646508437165,0.517734469311598
3.2165,5.114490150763907,0.0330233747769847,0.5070809795574245
3.2200000000000024,5.100640963149332,0.0596570991624181,0.4942981881158181
3.223499999999998,5.03139677040571,0.0703088435873395,0.4836446983616446
3.2270000000000003,4.876929895616455,0.0788312863248278,0.4442281825346047
3.230500000000003,4.757615697291619,0.0980072188164895,0.4133358547743051
3.233999999999998,4.631910103245979,0.1257055940456395,0.3760503859639502
3.2375000000000007,4.563732306675325,0.1150521042914662,0.3622011983493752
3.241000000000003,4.544556374183663,0.0607217500061347,0.355809802628572
3.2444999999999986,4.574385796429499,0.0117181405978899,0.3622011983493752
3.248000000000001,4.676653363950106,-0.0617864008498512,0.3845728287014385
3.251500000000004,4.802358957995746,-0.1225098961852379,0.3984202709867616
3.254999999999999,4.9994380464724415,-0.2215817658454441,0.4175962034784233
3.258500000000001,5.142188525993057,-0.3121311927681619,0.425053995372195
3.262000000000004,5.317962380290658,-0.4548816722887781,0.4261186462159115
3.2654999999999994,5.42342739100092,-0.5688691257365278,0.4303807402492817
3.269000000000002,5.517172515784039,-0.7148135577882937,0.4378367868138015
3.2725000000000044,5.553393333750677,-0.8160182197944368,0.4474238803950063
3.276,5.534217401259016,-0.917221136471328,0.452750625272093
3.2795000000000023,5.478822396129968,-0.9822032351815808,0.4602084171658648
3.2829999999999977,5.373357385419706,-1.0386646364835974,0.4687308599033531
3.2865,5.263632026005327,-1.0610362668356608,0.4570127193054631
3.2900000000000027,5.08253142683064,-1.0844725480314406,0.4122694586013365
3.293499999999998,4.928062806712132,-1.1036484805231024,0.369657244913895
3.2970000000000006,4.70222069216257,-1.1281494125625986,0.3068061932203272
3.300500000000003,4.5573409109545215,-1.1206916206688269,0.2535404897787122
3.3039999999999985,4.341084144656912,-1.0940596416126456,0.1864273440517743
3.307500000000001,4.175963780113484,-1.0780811523106375,0.1459461773810178
3.3110000000000035,3.998058878799199,-1.045056032204401,0.1320969897664428
3.314499999999999,3.907509451876481,-1.0109662612544474,0.1352926876268444
3.3180000000000014,3.851048050574464,-0.9630290480191712,0.1597953649955928
3.321500000000004,3.845721305697378,-0.928939277069218,0.1725781564371993
3.3249999999999997,3.881942123664016,-0.8916538082588631,0.1842962970350892
3.328500000000002,3.951186316407639,-0.8703468287505163,0.1768385051413174
3.3320000000000043,4.106719587369861,-0.861824386013028,0.1416840833476476
3.3355,4.254796811767565,-0.8533036886047917,0.1086607085706629
3.339000000000002,4.481703577160843,-0.8820667146776582,0.0447432607041266
3.3424999999999976,4.651086035737641,-0.9001762509963515,0.002131047016685
3.346,4.899301525968518,-0.8724778757672014,-0.0628527970228197
3.3495000000000026,5.069748635389033,-0.8224096155152401,-0.1097253594143795
3.352999999999998,5.267894120038697,-0.7467722817215618,-0.1651203645434275
3.3565000000000005,5.370161687559304,-0.6690056462404504,-0.205601531214184
3.360000000000003,5.422360994827951,-0.5699337765802444,-0.2599318854995155
3.3634999999999984,5.391468667067651,-0.4857757453783297,-0.2961527034661538
3.367000000000001,5.278545864463618,-0.3803107346680683,-0.316393286801532
3.3705000000000034,5.185865390524215,-0.3270467765557054,-0.2972173543098703
3.3739999999999988,5.061226192651544,-0.288694911572382,-0.2396913021641372
3.3775000000000013,4.983459557170433,-0.2567361876391139,-0.1885583910684593
3.381000000000004,4.872667801583084,-0.2162550209683574,-0.1235745470289545
3.384499999999999,4.764008838341674,-0.2066679273871525,-0.0948115209560879
3.3880000000000017,4.582908239166986,-0.177904901314286,-0.0639174478665363
3.391500000000004,4.449744853227576,-0.1352926876268444,-0.0436768645311581
3.395,4.279297743807061,-0.0703088435873395,-0.002131047016685
3.398500000000002,4.15039645190102,-0.0181095363186931,0.0330233747769847
3.401999999999997,3.9671665510388983,0.0426122136874415,0.096942567972773
3.4055,3.853179097591149,0.0820287295144815,0.1534022239455376
3.4090000000000025,3.735995946282998,0.124639197872671,0.2396913021641372
3.412499999999998,3.660360357818572,0.1491418752414194,0.2982837504828389
3.4160000000000004,3.5900497689019804,0.1747092034538843,0.355809802628572
3.419500000000003,3.551699649247909,0.1789695521580025,0.38350643252847
3.4229999999999983,3.4845865035209704,0.166186760716396,0.38350643252847
3.4265000000000008,3.4281251022189543,0.1640557136997109,0.3803107346680683
3.4300000000000037,3.3492938158941263,0.1789695521580025,0.3590055004889736
3.4334999999999987,3.3002902064858817,0.1885583910684593,0.355809802628572
3.437000000000001,3.2704625295692984,0.1960144376329791,0.3717882919305801
3.440500000000004,3.2736582274297,0.1928187397725775,0.3888331774055567
3.443999999999999,3.318399742804575,0.1640557136997109,0.4335764381096833
3.4475000000000016,3.3780568419669925,0.1395530363309626,0.464468765869983
3.451000000000004,3.482455456504286,0.0990718696602061,0.5017542346803379
3.4544999999999995,3.569809185566602,0.0607217500061347,0.5294526099094878
3.458000000000002,3.672078498416462,0.013849187614575,0.5624759846864725
3.4615000000000045,3.722148503997675,-0.0362208179666383,0.5848476150385359
3.465,3.774347811266322,-0.1065296615539778,0.6253287817092923
3.4685000000000024,3.793521998428731,-0.1448797812080492,0.6594185526592456
3.4719999999999978,3.7967176962891327,-0.1970790884766957,0.7030954171904037
3.4755000000000003,3.789261649724613,-0.2279731615662473,0.7297291415758372
3.4790000000000028,3.757302925791345,-0.2620629325162006,0.7574257714757352
3.482499999999998,3.7093639672268166,-0.2812388650078622,0.7648835633695069
3.4860000000000007,3.624139539851933,-0.3195889846619337,0.7606214693361367
3.489500000000003,3.5410479048229875,-0.3430252658577135,0.7595568184924202
3.4929999999999986,3.424929404358553,-0.3792460838243518,0.7403808860007585
3.496500000000001,3.3269221855420628,-0.4005513180034466,0.7201403026653803
3.500000000000004,3.190564847071502,-0.4293143440763132,0.6849858808717105
3.503499999999999,3.065923903869579,-0.4474238803950063,0.6391779693238674
3.507000000000001,2.903999237186553,-0.4602084171658648,0.5837829641948193
3.510500000000004,2.798535971805544,-0.4538170214450616,0.5379750526469761
3.514,2.6738950286036207,-0.4346410889533998,0.4708619069200382
3.517500000000002,2.5982594401391945,-0.42292294835551,0.4293143440763132
3.5210000000000043,2.5449937366975792,-0.4165315526347067,0.3856374795451551
3.5245,2.5215574555018,-0.4165315526347067,0.3462209637181151
3.5280000000000022,2.49812117430602,-0.4090737607409349,0.2993484013265554
3.5314999999999976,2.481076288831044,-0.3888331774055567,0.2663250265495707
3.535,2.453379658931145,-0.3547434064556034,0.2301042085829324
3.538500000000002,2.4310080285790816,-0.3249157295390203,0.2130593231079557
3.541999999999998,2.448052914054059,-0.2801724688348938,0.2077325782308691
3.5455000000000005,2.5130350127643117,-0.2418223491808223,0.2077325782308691
3.549000000000003,2.629153513228746,-0.2013411825100658,0.1928187397725775
3.5524999999999984,2.733552127766039,-0.177904901314286,0.1768385051413174
3.556000000000001,2.888020747884545,-0.1395530363309626,0.150206526085136
3.5595000000000034,2.998810758142641,-0.1075943123976944,0.1299659427497577
3.562999999999999,3.097884373132099,-0.0852244273748831,0.1033339636935762
3.5665000000000013,3.1223853051715955,-0.0649838440395048,0.0884201252352847
3.570000000000004,3.103209372679934,-0.0404811666707564,0.0767019846373948
3.5734999999999992,3.069121347059233,-0.0255673282124649,0.0756355884644262
3.5770000000000017,3.0094642478968145,-0.0319587239332681,0.083093380358198
3.580500000000004,2.9402200551531914,-0.0532657034416149,0.0745709376207097
3.584,2.833690393599213,-0.0628527970228197,0.0532657034416149
3.587500000000002,2.746334919207645,-0.0521993072686464,0.0202405833353782
3.590999999999997,2.613173278597486,-0.0223716303520633,-0.0127827914416064
3.5945,2.495990127289335,-0.002131047016685,-0.0330233747769847
3.5980000000000025,2.308498132393844,0.02769837522915,-0.0468725623915597
3.601499999999998,2.16574939820248,0.0468725623915597,-0.0436768645311581
3.605,2.0027583353464853,0.0660484948832214,-0.002131047016685
3.608500000000003,1.917533907971602,0.0777666354811113,0.0330233747769847
3.6119999999999983,1.848289715227979,0.0884201252352847,0.0916158230956863
3.615500000000001,1.8131352934343088,0.0884201252352847,0.1427504795206162
3.6190000000000033,1.8280491318926009,0.0948115209560879,0.2034722295267509
3.622499999999999,1.8632035536862703,0.1161167551351827,0.2503447919183106
3.626000000000001,1.922860652848689,0.1459461773810178,0.3057397970473587
3.629500000000004,1.9590814708153272,0.1565979218059392,0.3345028231202252
3.632999999999999,1.992104845592312,0.1693824585767977,0.3675279432264619
3.6365000000000016,1.9953005434527131,0.1757738542976009,0.3760503859639502
3.640000000000004,1.9601461216590437,0.1619246666830259,0.3941599222826434
3.6435,1.931383095586177,0.1480754790684509,0.3952245731263599
3.647000000000002,1.899424371652909,0.136357338470561,0.4005513180034466
3.650499999999997,1.889837278071704,0.1182478021518678,0.3898978282492732
3.654,1.8962286737925071,0.0894847760790012,0.3824417816847534
3.6575000000000015,1.899424371652909,0.0724398906040246,0.3526141047681703
3.660999999999998,1.9026200695133104,0.0639174478665363,0.300413052170272
3.6645,1.8951640229487907,0.0628527970228197,0.2450180470412239
3.668000000000003,1.8365715746300888,0.0703088435873395,0.1725781564371993
3.671499999999998,1.7886343613948128,0.0788312863248278,0.1299659427497577
3.6750000000000007,1.7151280746178197,0.1033339636935762,0.0926804739394028
3.678500000000003,1.6629287673491733,0.1203788491685528,0.0798976824977964
3.681999999999999,1.5883578297284635,0.1320969897664428,0.0767019846373948
3.685500000000001,1.5308317775827305,0.1331616406101593,0.0905494269227178
3.689000000000004,1.4349556057829258,0.1438151303643327,0.1086607085706629
3.692499999999999,1.3635803660226178,0.1715135055934827,0.1267702448893561
3.6960000000000015,1.261311053172758,0.2119946722642392,0.1640557136997109
3.699500000000004,1.1569124386354652,0.2311688594266489,0.1906876927558924
3.703,0.9896610270753528,0.2428870000245388,0.2578025838120824
3.706500000000002,0.9268082300525328,0.2460844432141925,0.3366338701369103
3.710000000000005,0.942788464683793,0.2482137449016255,0.4559463231324946
3.7135,0.9715514907566596,0.2460844432141925,0.5262569120490862
3.7170000000000014,1.030142193746109,0.205601531214184,0.586978662055221
3.7204999999999977,1.0919285945959605,0.1821652500184041,0.6178727351447726
3.724,1.2123074437645132,0.1672514115601126,0.6317219227593476
3.7275000000000023,1.3017922198435146,0.1491418752414194,0.6136106411114024
3.730999999999998,1.3763631574642243,0.0980072188164895,0.5688691257365278
3.7345000000000006,1.3880812980621142,0.0532657034416149,0.5134723752782278
3.738000000000003,1.3337526891060347,0.0095870935812048,0.4154651564617382
3.7414999999999994,1.253855006608238,-0.0234362811957798,0.3249157295390203
3.745000000000001,1.1100398762439057,-0.0532657034416149,0.1992101354933808
3.748500000000004,0.996052422796156,-0.0798976824977964,0.1054650107102613
3.751999999999999,0.8905874120858945,-0.1150521042914662,0.002131047016685
3.7555000000000014,0.8405191518339332,-0.1267702448893561,-0.0798976824977964
3.759000000000004,0.8277363603923268,-0.1427504795206162,-0.1704471094205142
3.7624999999999993,0.8543683394485082,-0.1512729222581045,-0.2237128128621291
3.766000000000002,0.9257435792088164,-0.152337573101821,-0.2801724688348938
3.769500000000004,0.9790075373211792,-0.138488385487246,-0.3227846825223353
3.773,1.0248154488690224,-0.1086607085706629,-0.3600701513326901
3.776500000000002,1.0312068445898257,-0.0852244273748831,-0.3707236410868635
3.7799999999999976,0.9790075373211792,-0.0394165158270399,-0.3749839897909817
3.7835,0.921481485175446,-0.0063913957208032,-0.3579391043160051
3.7870000000000026,0.8117561257610666,0.0436768645311581,-0.3100018910807288
3.790499999999998,0.7212066988383489,0.0841580312019145,-0.2578025838120824
3.794000000000001,0.642373667184269,0.1129210572747811,-0.1629910628559944
3.797500000000003,0.628524479569694,0.1278348957330726,-0.0841580312019145
3.8009999999999984,0.642373667184269,0.1459461773810178,0.0
3.804500000000001,0.6743323911175372,0.1640557136997109,0.0394165158270399
3.8080000000000034,0.6945729744529154,0.1672514115601126,0.0596570991624181
3.811499999999999,0.7052264642070888,0.1587289688226243,0.0649838440395048
3.815000000000001,0.7084221620674903,0.1235745470289545,0.0458079115478431
3.818500000000004,0.6775280889779387,0.0948115209560879,0.0095870935812048
3.821999999999999,0.5795208701614492,0.0543303542853314,-0.0617864008498512
3.8255000000000017,0.4996249329929048,0.0202405833353782,-0.1225098961852379
3.829000000000004,0.4144005056180216,-0.0340897709499532,-0.2013411825100658
3.8325,0.3792460838243518,-0.0809623333415129,-0.2567361876391139
3.836000000000002,0.3909642244222418,-0.1438151303643327,-0.3153286359578155
3.8394999999999975,0.4431635316908882,-0.1981454846496642,-0.3579391043160051
3.843,0.5507578440885826,-0.2684543282370038,-0.4048134120368167
3.8465000000000025,0.6477004120613556,-0.3153286359578155,-0.4367721359700849
3.849999999999998,0.8138871727777518,-0.3664615470534934,-0.4634041150262664
3.8535,0.9342660219463046,-0.3952245731263599,-0.4740576047804398
3.857000000000003,1.0940596416126456,-0.4410324846742031,-0.4687308599033531
3.8604999999999983,1.2250919805353715,-0.464468765869983,-0.43890318298677
3.8640000000000008,1.3934080429392008,-0.4868403962220463,-0.3824417816847534
3.8675000000000033,1.5084601472306671,-0.4857757453783297,-0.3281114273994219
3.870999999999999,1.6576020224720869,-0.4836446983616446,-0.2439533961975074
3.874500000000001,1.7598713353219464,-0.4740576047804398,-0.1704471094205142
3.878000000000004,1.8781191374738144,-0.4410324846742031,-0.0671131457269379
3.881499999999999,1.940970189167382,-0.4026823650201317,0.0010646508437165
3.8850000000000016,1.9953005434527131,-0.3217200316786187,0.0862890782185996
3.888500000000004,1.9889091477319103,-0.2578025838120824,0.1278348957330726
3.892,1.9100778614070824,-0.1597953649955928,0.1491418752414194
3.895500000000002,1.8035481998531044,-0.0745709376207097,0.1470108282247343
3.899000000000005,1.60114062117007,0.0436768645311581,0.1171831513081512
3.9025,1.4253667668724692,0.1416840833476476,0.0873537290623162
3.9060000000000015,1.1814151160042137,0.2578025838120824,0.0383501196540714
3.9094999999999978,0.9917920740920376,0.3323735214327921,0.0
3.913,0.7552947244590501,0.4048134120368167,-0.0564614013020165
3.9165000000000023,0.6125459902676859,0.4634041150262664,-0.0990718696602061
3.919999999999998,0.4932317919428495,0.5219948180157161,-0.1470108282247343
3.9235000000000007,0.4442281825346047,0.5507578440885826,-0.1811005991746876
3.927000000000003,0.4154651564617382,0.5699337765802444,-0.2215817658454441
3.930499999999999,0.4261186462159115,0.5741958706136145,-0.2439533961975074
3.934000000000001,0.4495549274116914,0.561411333842756,-0.2705853752536888
3.937500000000004,0.4687308599033531,0.5433017975240628,-0.2854992137119804
3.940999999999999,0.4889714432387313,0.5134723752782278,-0.2940216564494687
3.9445000000000014,0.5124077244345112,0.4729912086074713,-0.2780431671474606
3.948000000000004,0.547562146228181,0.3994866671597301,-0.2375620004767041
3.9514999999999993,0.6104149432510009,0.3323735214327921,-0.1896230419121759
3.955000000000002,0.7212066988383489,0.2279731615662473,-0.0958761717998045
3.958500000000004,0.8330613599401614,0.1587289688226243,-0.02769837522915
3.962,1.0045748655336442,0.0649838440395048,0.0617864008498512
3.965500000000002,1.1537167407750637,0.0074577918937717,0.1257055940456395
3.9689999999999976,1.3593182719892478,-0.0809623333415129,0.205601531214184
3.9725,1.498873053649462,-0.1597953649955928,0.2396913021641372
3.976000000000002,1.6000759703263534,-0.2663250265495707,0.2737810731140905
3.979499999999998,1.6192519028180152,-0.3281114273994219,0.2908259585890671
3.983000000000001,1.599011319482637,-0.3845728287014385,0.2961527034661538
3.986500000000003,1.5563991057951954,-0.4101401569139035,0.3089354949077603
3.9899999999999984,1.4711746784203124,-0.4197272504951083,0.2940216564494687
3.993500000000001,1.3944744391121693,-0.41120480775762,0.2812388650078622
3.997000000000003,1.3199035014914595,-0.3813771308410369,0.2514094427620272
4.000499999999999,1.284747334368538,-0.3462209637181151,0.2279731615662473
4.004000000000001,1.261311053172758,-0.2908259585890671,0.2066679273871525
4.007500000000004,1.2634421001894431,-0.2311688594266489,0.1885583910684593
4.010999999999999,1.2495929125748682,-0.150206526085136,0.1683160624038291
4.014500000000002,1.2368101211332618,-0.0862890782185996,0.1597953649955928
4.018000000000004,1.1750219749541586,-0.0095870935812048,0.1736428072809158
4.0215,1.0983217356460158,0.041545817514473,0.1906876927558924
4.025000000000002,0.968355792896258,0.1139874534477496,0.2503447919183106
4.0284999999999975,0.8671511308901148,0.1768385051413174,0.3089354949077603
4.032,0.7371851881403569,0.2705853752536888,0.3888331774055567
4.0355000000000025,0.6562228547988439,0.3334381722765087,0.452750625272093
4.038999999999998,0.5805872663344177,0.4058780628805333,0.5209301671719996
4.0425,0.5560845889656694,0.4548816722887781,0.5582156359823544
4.046000000000003,0.5752605214573311,0.5070809795574245,0.5901743599156226
4.049499999999998,0.6200020368322057,0.5315836569261729,0.600827849669796
4.053000000000001,0.7222713496820654,0.5486285424011496,0.616806338971804
4.056500000000003,0.7979069381464917,0.5518242402615512,0.6114795940947174
4.059999999999999,0.8969805531359498,0.5326483077698895,0.5976321518093943
4.063500000000001,0.9736807924440926,0.4996249329929048,0.5912390107593392
4.067000000000004,1.079145803154354,0.4516859744283765,0.5635423808594411
4.070499999999999,1.157977089479182,0.4016177141764152,0.5433017975240628
4.074000000000002,1.2879447775581916,0.3206536355056502,0.519865516328283
4.077500000000004,1.4189753711516655,0.2578025838120824,0.5049499325407395
4.081,1.64055713699711,0.1725781564371993,0.4900360940824479
4.084500000000002,1.848289715227979,0.0990718696602061,0.4751222556241564
4.087999999999997,2.134855325112928,-0.0479389585645282,0.4506213235846599
4.0915,2.3138248772709304,-0.1811005991746876,0.4335764381096833
4.095000000000002,2.440595122160287,-0.3622011983493752,0.4122694586013365
4.098499999999998,2.460835705495665,-0.4602084171658648,0.4080091098972184
4.102,2.3915915127520417,-0.5251905158761178,0.42292294835551
4.105500000000003,2.277604059304292,-0.547562146228181,0.4325100419367148
4.108999999999998,2.0688068302297067,-0.5518242402615512,0.4516859744283765
4.112500000000001,1.903686465686279,-0.5241258650324012,0.4580773701491797
4.116000000000003,1.706605631880331,-0.4740576047804398,0.4580773701491797
4.119499999999999,1.5787707361472587,-0.4239875991992265,0.4548816722887781
4.123000000000001,1.4434780485204144,-0.3462209637181151,0.4410324846742031
4.126500000000004,1.374233855776791,-0.2812388650078622,0.43890318298677
4.129999999999999,1.3092500117372865,-0.191754088928861,0.4399678338304866
4.1335000000000015,1.2772912878040183,-0.1171831513081512,0.4442281825346047
4.137000000000004,1.2463972147144666,-0.0287630260728665,0.4676662090596366
4.140499999999999,1.2432015168540649,0.0340897709499532,0.4761869064678729
4.144000000000002,1.2506593087478366,0.110790010258096,0.4889714432387313
4.147500000000004,1.2634421001894431,0.1576643179789077,0.4974938859762197
4.151,1.3177724544747746,0.205601531214184,0.517734469311598
4.154500000000002,1.3891476942350829,0.2247774637058457,0.533712958613606
4.157999999999998,1.52656968354936,0.2290395577392158,0.5518242402615512
4.1615,1.6512106267512834,0.2141239739516723,0.5624759846864725
4.165000000000003,1.8312448297530024,0.1811005991746876,0.561411333842756
4.168499999999998,1.9782556579777368,0.1406194325039311,0.5486285424011496
4.172000000000001,2.160422653325393,0.0500682602519613,0.517734469311598
4.175500000000003,2.2680169657230875,-0.0372854688103548,0.4847093492053612
4.178999999999999,2.350045695237569,-0.1534022239455376,0.4367721359700849
4.182500000000001,2.3777423251374668,-0.2343645572870505,0.3984202709867616
4.186000000000004,2.356437090958372,-0.3334381722765087,0.3376985209806268
4.189499999999999,2.279735106320977,-0.4090737607409349,0.288694911572382
4.193000000000001,2.1103526477441794,-0.4847093492053612,0.2215817658454441
4.196500000000004,1.9431012361840672,-0.5241258650324012,0.1736428072809158
4.199999999999999,1.7098013297407328,-0.5422354013510943,0.1075943123976944
4.203500000000002,1.525505032705644,-0.5305172607532044,0.0660484948832214
4.207000000000004,1.2740955899436164,-0.5070809795574245,0.0063913957208032
4.2105,1.095126037785614,-0.4857757453783297,-0.0447432607041266
4.214000000000002,0.8735442719401699,-0.4218582975117934,-0.1118564064310645
4.217499999999998,0.723336000525782,-0.3653968962097769,-0.1608600158393093
4.221,0.5646070317031576,-0.2812388650078622,-0.1992101354933808
4.224500000000003,0.4815136513449596,-0.219450718828759,-0.2119946722642392
4.227999999999998,0.4058780628805333,-0.1331616406101593,-0.2013411825100658
4.2315000000000005,0.4005513180034466,-0.0756355884644262,-0.1768385051413174
4.235000000000003,0.4410324846742031,-0.0053267448770866,-0.1161167551351827
4.238499999999998,0.5102766774178261,0.0447432607041266,-0.0521993072686464
4.242000000000001,0.6562228547988439,0.1001382658331746,0.041545817514473
4.245500000000003,0.8011026360068932,0.1310323389227262,0.1214435000122694
4.248999999999999,1.0333378916065108,0.1576643179789077,0.219450718828759
4.252500000000001,1.2272212822228048,0.1629910628559944,0.2812388650078622
4.256000000000004,1.4882195638952889,0.1555332709622227,0.3494166615785167
4.259499999999999,1.665059814365858,0.1534022239455376,0.3760503859639502
4.263000000000002,1.8802484391612475,0.1480754790684509,0.4026823650201317
4.266500000000004,2.02832566355895,0.1267702448893561,0.4186608543221398
4.27,2.21262196059404,0.0820287295144815,0.4442281825346047
4.273500000000002,2.340456856327112,0.0447432607041266,0.4676662090596366
4.2769999999999975,2.483207335847728,-0.0287630260728665,0.4857757453783297
4.2805,2.5631050183455244,-0.0948115209560879,0.4964292351325031
4.2840000000000025,2.647263049547439,-0.1938833906162941,0.4985585368199362
4.287499999999998,2.6856131692015106,-0.2716500260974054,0.4996249329929048
4.291,2.698397705972369,-0.3792460838243518,0.4900360940824479
4.294500000000003,2.684548518357794,-0.4538170214450616,0.4783179534845579
4.297999999999998,2.620631070491258,-0.5411707505073777,0.4538170214450616
4.301500000000001,2.5364712939600915,-0.5912390107593392,0.4314453910929982
4.305000000000003,2.374546627277065,-0.644504714200954,0.3984202709867616
4.308499999999999,2.240320335823189,-0.6732677402738206,0.3728546881035486
4.312000000000001,2.053892991771415,-0.6753987872905056,0.341960615013997
4.315500000000004,1.894097626775822,-0.6604849488322142,0.314262239784847
4.318999999999999,1.6991478399865596,-0.6274598287259775,0.2716500260974054
4.322500000000002,1.5478766630577072,-0.5976321518093943,0.2418223491808223
4.326000000000004,1.3529268762684443,-0.533712958613606,0.191754088928861
4.3295,1.215503141624915,-0.4751222556241564,0.1555332709622227
4.333000000000002,1.0546431257856057,-0.3898978282492732,0.1193124529955843
4.3365000000000045,0.9640936988628878,-0.3270467765557054,0.1043986145372928
4.34,0.8692821779067997,-0.2503447919183106,0.1012029166768912
4.343500000000002,0.8234742663589566,-0.1928187397725775,0.110790010258096
4.346999999999998,0.8011026360068932,-0.1310323389227262,0.1299659427497577
4.3505,0.8032336830235783,-0.0958761717998045,0.1587289688226243
4.354000000000003,0.8373234539735316,-0.0596570991624181,0.2013411825100658
4.357499999999998,0.9065676467171546,-0.0383501196540714,0.2450180470412239
4.361000000000001,1.035468938623196,-0.0170448854749766,0.3046751462036421
4.364500000000003,1.1483899958979769,-0.013849187614575,0.3472873598910836
4.367999999999999,1.3230991993518617,-0.0181095363186931,0.3813771308410369
4.371500000000001,1.4679789805599106,-0.0404811666707564,0.4026823650201317
4.375000000000004,1.6810383036678664,-0.0639174478665363,0.4197272504951083
4.378499999999999,1.8472250643842625,-0.0916158230956863,0.4175962034784233
4.3820000000000014,2.065611132369305,-0.1459461773810178,0.4090737607409349
4.385500000000004,2.2147530076107245,-0.1832316461913727,0.38350643252847
4.388999999999999,2.382004419170837,-0.2279731615662473,0.3451563128743986
4.392500000000002,2.4917297785852166,-0.2631275833599171,0.3110665419244454
4.396000000000004,2.617435372630856,-0.302544099186957,0.2663250265495707
4.3995,2.687744216218196,-0.3291760782431385,0.233299906443334
4.403000000000002,2.7442056175202123,-0.3622011983493752,0.1832316461913727
4.406499999999998,2.750597013241016,-0.3930952714389268,0.1480754790684509
4.41,2.739943523486842,-0.4133358547743051,0.1022693128498597
4.413500000000003,2.7111804974139755,-0.4165315526347067,0.0607217500061347
4.416999999999998,2.634478512776581,-0.4165315526347067,0.013849187614575
4.4205000000000005,2.566300716205926,-0.4133358547743051,-0.0191759324916617
4.424000000000003,2.448052914054059,-0.4090737607409349,-0.0436768645311581
4.427499999999998,2.3532413930979708,-0.3962909692993285,-0.0639174478665363
4.431000000000001,2.21262196059404,-0.3717882919305801,-0.0852244273748831
4.434500000000003,2.107156949883778,-0.3483520107348002,-0.0937468701123714
4.437999999999999,1.9633418195194452,-0.3131975889411305,-0.1065296615539778
4.441500000000001,1.866400996875924,-0.2897613077453506,-0.0937468701123714
4.445000000000004,1.7502824964114894,-0.2631275833599171,-0.0820287295144815
4.448499999999999,1.6703848139136932,-0.2375620004767041,-0.0639174478665363
4.452000000000002,1.596880272465952,-0.2002765316663493,-0.0245026773687483
4.455500000000004,1.5585301528118805,-0.1725781564371993,0.0095870935812048
4.459,1.5244403818619272,-0.1427504795206162,0.055395005129048
4.462500000000002,1.512722241264037,-0.110790010258096,0.0937468701123714
4.4659999999999975,1.506329100213982,-0.0798976824977964,0.138488385487246
4.4695,1.522309334845242,-0.0617864008498512,0.1683160624038291
4.4730000000000025,1.5489413139014236,-0.0372854688103548,0.191754088928861
4.476499999999998,1.569181897236802,-0.0436768645311581,0.2002765316663493
4.48,1.6117941109242435,-0.0681795418999064,0.2013411825100658
4.483500000000003,1.6277743455555036,-0.096942567972773,0.1885583910684593
4.486999999999998,1.6458838818741963,-0.1225098961852379,0.1597953649955928
4.490500000000001,1.6703848139136932,-0.1406194325039311,0.1289012919060412
4.494000000000003,1.7012788870032447,-0.1555332709622227,0.0916158230956863
4.497499999999999,1.723650517355308,-0.1832316461913727,0.069244192743623
4.501000000000001,1.771589475919836,-0.2215817658454441,0.0372854688103548
4.504500000000004,1.806743897713506,-0.2641939795328856,0.0106534897541733
4.507999999999999,1.849356111400948,-0.3121311927681619,-0.0191759324916617
4.511500000000002,1.881314835334216,-0.3526141047681703,-0.0383501196540714
4.515000000000004,1.9196649549882872,-0.4080091098972184,-0.0585907029894496
4.5185,1.956950423798642,-0.4463592295512898,-0.0671131457269379
4.522000000000002,1.9857134498715088,-0.4868403962220463,-0.0735062867769931
4.525499999999997,1.9984962413131149,-0.5092120265741096,-0.0745709376207097
4.529,2.003822986190201,-0.5411707505073777,-0.0681795418999064
4.532500000000002,1.9995626374860835,-0.559280286826071,-0.0532657034416149
4.535999999999998,1.97719100713402,-0.5678027295635593,-0.0351544217936697
4.5395,1.9622771686757288,-0.5635423808594411,-0.0106534897541733
4.543000000000003,1.9431012361840672,-0.5624759846864725,0.029827676916583
4.546499999999998,1.929252048569492,-0.5656734278761262,0.0639174478665363
4.550000000000001,1.8983597208091925,-0.5688691257365278,0.1054650107102613
4.553500000000003,1.871725996423759,-0.561411333842756,0.1289012919060412
4.556999999999999,1.8237887831884827,-0.5539552872782363,0.1640557136997109
4.560500000000001,1.7843722673614426,-0.5347793547865746,0.1821652500184041
4.564000000000004,1.727910866059426,-0.5219948180157161,0.2119946722642392
4.567499999999999,1.693822840438725,-0.5166698184678814,0.233299906443334
4.5710000000000015,1.6341657412763066,-0.508147375730393,0.2631275833599171
4.574500000000004,1.5915535275888653,-0.5006895838366213,0.2769767709744921
4.577999999999999,1.5436145690243368,-0.4900360940824479,0.2982837504828389
4.581500000000002,1.502068751509864,-0.492167141099133,0.302544099186957
4.585000000000004,1.453065142101619,-0.4985585368199362,0.2950880526224372
4.5885,1.4243021160287526,-0.503885281697023,0.2854992137119804
4.592000000000002,1.3934080429392008,-0.5113430735907947,0.260998281672484
4.595499999999998,1.3848856002017127,-0.517734469311598,0.2375620004767041
4.599,1.3880812980621142,-0.5219948180157161,0.2034722295267509
4.602500000000003,1.402996881849658,-0.5315836569261729,0.1725781564371993
4.605999999999998,1.4296288609058392,-0.5305172607532044,0.1374237346435295
4.609500000000001,1.453065142101619,-0.5315836569261729,0.1161167551351827
4.613000000000003,1.4956773557890606,-0.5390397034906926,0.0724398906040246
4.616499999999999,1.52656968354936,-0.5283879590657713,0.0426122136874415
4.620000000000001,1.5702482934097703,-0.517734469311598,0.0063913957208032
4.623500000000004,1.5894224805721802,-0.517734469311598,-0.0213052341790947
4.626999999999999,1.6192519028180152,-0.4953628389595346,-0.0447432607041266
4.630500000000001,1.6384260899804248,-0.4836446983616446,-0.0639174478665363
4.634000000000004,1.6597330694887715,-0.4602084171658648,-0.0713752397603081
4.637499999999999,1.6821046998408349,-0.4442281825346047,-0.0639174478665363
4.641000000000002,1.7023452831762131,-0.4271832970596281,-0.0585907029894496
4.644500000000004,1.7076702827240478,-0.4186608543221398,-0.0458079115478431
4.648,1.7023452831762131,-0.3984202709867616,-0.0255673282124649
4.651500000000002,1.69169179342204,-0.3813771308410369,-0.0031956978604016
4.654999999999998,1.686365048544953,-0.3536787556118869,0.0319587239332681
4.6585,1.7023452831762131,-0.3302424744161071,0.069244192743623
4.662000000000003,1.719388423321938,-0.2982837504828389,0.096942567972773
4.665499999999998,1.7268462152157096,-0.2823035158515788,0.1139874534477496
4.6690000000000005,1.735368657953198,-0.2620629325162006,0.1289012919060412
4.672500000000003,1.7502824964114894,-0.2492801410745941,0.1310323389227262
4.675999999999998,1.7662627310427494,-0.2290395577392158,0.1203788491685528
4.679500000000001,1.781176569501041,-0.2301042085829324,0.1139874534477496
4.683000000000003,1.7769144754676711,-0.2269085107225308,0.0873537290623162
4.686499999999999,1.7609359861656628,-0.2343645572870505,0.0660484948832214
4.690000000000001,1.735368657953198,-0.247149094057909,0.0308940730895516
4.693500000000004,1.7012788870032447,-0.2684543282370038,0.0031956978604016
4.696999999999999,1.6373614391367084,-0.2972173543098703,-0.0351544217936697
4.700500000000002,1.5809000378346918,-0.316393286801532,-0.0607217500061347
4.704000000000004,1.512722241264037,-0.3366338701369103,-0.0894847760790012
4.7075,1.476501423297399,-0.3515477085952018,-0.1043986145372928
4.711000000000002,1.4434780485204144,-0.3856374795451551,-0.1054650107102613
4.7144999999999975,1.423237465185036,-0.4069427137242498,-0.1193124529955843
4.718,1.409388277570461,-0.4261186462159115,-0.1278348957330726
4.7215000000000025,1.407257230553776,-0.4346410889533998,-0.1320969897664428
4.724999999999998,1.4157796732912642,-0.4303807402492817,-0.1427504795206162
4.7285,1.4168443241349806,-0.4101401569139035,-0.1534022239455376
4.732000000000003,1.421106418168351,-0.3845728287014385,-0.1704471094205142
4.735499999999998,1.4253667668724692,-0.3632658491930918,-0.1736428072809158
4.739000000000001,1.439215954487044,-0.3227846825223353,-0.1725781564371993
4.742500000000003,1.460522933995391,-0.2791078179911772,-0.1651203645434275
4.745999999999999,1.486088516878604,-0.219450718828759,-0.1459461773810178
4.749500000000001,1.5073954963869507,-0.1885583910684593,-0.1395530363309626
4.753000000000004,1.5212446840015257,-0.1448797812080492,-0.1150521042914662
4.756499999999999,1.5212446840015257,-0.1171831513081512,-0.1022693128498597
4.760000000000002,1.522309334845242,-0.0798976824977964,-0.0873537290623162
4.763500000000004,1.5148515429514704,-0.0511346564249298,-0.0703088435873395
4.767,1.494610959616092,-0.0202405833353782,-0.0596570991624181
4.770500000000002,1.4541297929453356,0.0,-0.0532657034416149
4.7740000000000045,1.395539089955886,0.0234362811957798,-0.055395005129048
4.7775,1.3603846681622165,0.0458079115478431,-0.0458079115478431
4.781000000000002,1.3167078036310582,0.0862890782185996,-0.0458079115478431
4.784499999999998,1.2911404754185931,0.1065296615539778,-0.0340897709499532
4.788,1.254919657451955,0.1225098961852379,-0.0213052341790947
4.791500000000003,1.2410704698373798,0.1278348957330726,-0.0053267448770866
4.794999999999998,1.2432015168540649,0.1395530363309626,0.013849187614575
4.798500000000001,1.2581153553123563,0.1470108282247343,0.0255673282124649
4.802000000000003,1.282618032681105,0.1544686201185061,0.0404811666707564
4.805499999999999,1.2932697771060262,0.1480754790684509,0.0458079115478431
4.809000000000001,1.2954008241227113,0.1278348957330726,0.0607217500061347
4.812500000000004,1.2996629181560817,0.1267702448893561,0.0649838440395048
4.815999999999999,1.3113810587539714,0.1342280367831279,0.0852244273748831
4.8195000000000014,1.3294905950726643,0.1374237346435295,0.1097253594143795
4.823000000000004,1.3625139698496491,0.136357338470561,0.1427504795206162
4.826499999999999,1.3763631574642243,0.1214435000122694,0.1640557136997109
4.830000000000002,1.3784942044809092,0.0884201252352847,0.1842962970350892
4.833500000000004,1.3593182719892478,0.0756355884644262,0.2002765316663493
4.837,1.3465354805476413,0.0724398906040246,0.2173214171413259
4.840500000000002,1.3348173399497512,0.0681795418999064,0.2205171150017275
4.843999999999998,1.3092500117372865,0.0532657034416149,0.2237128128621291
4.8475,1.2666377980498449,0.0287630260728665,0.2173214171413259
4.851000000000003,1.2027203501833084,0.002131047016685,0.2119946722642392
4.854499999999998,1.1515856937583784,-0.0095870935812048,0.2066679273871525
4.8580000000000005,1.0919285945959605,-0.0234362811957798,0.2034722295267509
4.861500000000003,1.0525138240981724,-0.029827676916583,0.2045368803704674
4.864999999999998,1.0237507980253058,-0.0426122136874415,0.2151903701246408
4.868500000000001,1.0130973082711323,-0.0543303542853314,0.2226464166891606
4.872000000000003,1.0056395163773606,-0.0862890782185996,0.233299906443334
4.875499999999999,1.002443818516959,-0.1022693128498597,0.233299906443334
4.879000000000001,1.0045748655336442,-0.1214435000122694,0.2237128128621291
4.882500000000004,1.0067059125503293,-0.1320969897664428,0.2162550209683574
4.885999999999999,1.014161959114849,-0.1512729222581045,0.2034722295267509
4.889500000000002,1.032273240762794,-0.1619246666830259,0.191754088928861
4.893000000000004,1.0418603343439992,-0.177904901314286,0.180035948330971
4.8965,1.037599985639881,-0.1960144376329791,0.1693824585767977
4.900000000000002,1.055709521958574,-0.2183860679850424,0.1629910628559944
4.9034999999999975,1.0802104539980706,-0.2354309534600191,0.1619246666830259
4.907,1.0983217356460158,-0.2503447919183106,0.1491418752414194
4.9105000000000025,1.1079088292272203,-0.260998281672484,0.1395530363309626
4.913999999999998,1.1217580168417955,-0.2801724688348938,0.1225098961852379
4.9175,1.1270847617188822,-0.3036087500306735,0.1118564064310645
4.921000000000003,1.1132355741043072,-0.3227846825223353,0.0958761717998045
4.924499999999998,1.0961906886293304,-0.3238510786953038,0.0788312863248278
4.928000000000001,1.0876682458918423,-0.3483520107348002,0.0649838440395048
4.931500000000003,1.0663630117127476,-0.3675279432264619,0.0585907029894496
4.934999999999999,1.0258800997127389,-0.3824417816847534,0.0458079115478431
4.938500000000001,0.9853989330419826,-0.3941599222826434,0.0362208179666383
4.942000000000004,0.9395927668233912,-0.397355620143045,0.0213052341790947
4.945499999999999,0.905502995873438,-0.3856374795451551,0.0181095363186931
4.949000000000002,0.8596950843255949,-0.3749839897909817,-0.0053267448770866
4.952500000000004,0.8181475214818699,-0.3622011983493752,-0.0245026773687483
4.956,0.7776663548111135,-0.3611348021764067,-0.0468725623915597
4.959500000000002,0.7393162351570419,-0.3494166615785167,-0.0681795418999064
4.962999999999997,0.6828548338550254,-0.3323735214327921,-0.0958761717998045
4.9665,0.6498314590780407,-0.3185243338182171,-0.1086607085706629
4.970000000000002,0.6253287817092923,-0.3014794483432405,-0.1171831513081512
4.973499999999998,0.6114795940947174,-0.2854992137119804,-0.1352926876268444
4.977,0.602958896686481,-0.274847469287059,-0.1427504795206162
4.980500000000003,0.5986968026531109,-0.2854992137119804,-0.150206526085136
4.983999999999998,0.5933700577760241,-0.3057397970473587,-0.1672514115601126
4.987500000000001,0.5827165680218508,-0.3036087500306735,-0.1874919948954908
4.991000000000003,0.5624759846864725,-0.2897613077453506,-0.2173214171413259
4.994499999999999,0.5507578440885826,-0.2780431671474606,-0.233299906443334
4.998000000000001,0.5315836569261729,-0.2684543282370038,-0.2535404897787122
5.001500000000004,0.5092120265741096,-0.2578025838120824,-0.2705853752536888
5.004999999999999,0.4836446983616446,-0.2428870000245388,-0.2812388650078622
5.0085000000000015,0.4697955107470696,-0.2311688594266489,-0.2897613077453506
5.012000000000004,0.4452945787075733,-0.2151903701246408,-0.2918906094327836
5.015499999999999,0.4303807402492817,-0.205601531214184,-0.300413052170272
5.019000000000002,0.4016177141764152,-0.1960144376329791,-0.3014794483432405
5.022500000000004,0.3749839897909817,-0.1864273440517743,-0.3100018910807288
5.026,0.3345028231202252,-0.1736428072809158,-0.3046751462036421
5.029500000000002,0.3057397970473587,-0.1576643179789077,-0.2940216564494687
5.032999999999998,0.2673896773932873,-0.1470108282247343,-0.2716500260974054
5.0365,0.2258421145495622,-0.1278348957330726,-0.2546051406224288
5.040000000000003,0.1651203645434275,-0.1150521042914662,-0.2279731615662473
5.043499999999998,0.1171831513081512,-0.1097253594143795,-0.2002765316663493
5.047000000000001,0.0479389585645282,-0.083093380358198,-0.1747092034538843
5.050500000000003,-0.0117181405978899,-0.0660484948832214,-0.152337573101821
5.053999999999999,-0.0958761717998045,-0.0585907029894496,-0.1075943123976944
5.057500000000001,-0.1448797812080492,-0.0500682602519613,-0.0767019846373948
5.061000000000004,-0.2279731615662473,-0.0319587239332681,-0.0266319790561814
5.064499999999999,-0.2982837504828389,-0.0287630260728665,0.0095870935812048
5.068000000000001,-0.3781796876513833,-0.0234362811957798,0.0820287295144815
5.071500000000004,-0.4335764381096833,-0.0074577918937717,0.1267702448893561
5.074999999999999,-0.508147375730393,0.0255673282124649,0.1906876927558924
5.078500000000002,-0.5635423808594411,0.0351544217936697,0.2364956043037356
5.082000000000004,-0.6498314590780407,0.0543303542853314,0.2833681666952953
5.0855,-0.7052264642070888,0.069244192743623,0.3121311927681619
5.089000000000002,-0.7829930996882002,0.0884201252352847,0.3281114273994219
5.092499999999998,-0.8415838026776498,0.1012029166768912,0.3345028231202252
5.096,-0.9023072980130364,0.1043986145372928,0.3376985209806268
5.099500000000003,-0.9513109074212812,0.1043986145372928,0.3270467765557054
5.102999999999998,-0.9896610270753528,0.1214435000122694,0.3078708440640437
5.1065000000000005,-1.014161959114849,0.138488385487246,0.2844345628682639
5.110000000000003,-1.0333378916065108,0.1448797812080492,0.2428870000245388
5.113499999999998,-1.032273240762794,0.1555332709622227,0.2226464166891606
5.117000000000001,-1.002443818516959,0.1651203645434275,0.180035948330971
5.120500000000003,-0.972616141600376,0.1683160624038291,0.1534022239455376
5.123999999999999,-0.921481485175446,0.1693824585767977,0.1022693128498597
5.127500000000001,-0.8884581103984615,0.1672514115601126,0.0745709376207097
5.131000000000004,-0.863955433029713,0.1736428072809158,0.0223716303520633
5.134499999999999,-0.8511726415881066,0.1821652500184041,-0.01598023463126
5.138000000000002,-0.8415838026776498,0.1874919948954908,-0.0511346564249298
5.141500000000004,-0.8383881048172481,0.1864273440517743,-0.0671131457269379
5.145,-0.8575640373089098,0.2098636252475541,-0.1054650107102613
5.148500000000002,-0.8820667146776582,0.219450718828759,-0.1320969897664428
5.1519999999999975,-0.9300039279129344,0.2322352555996175,-0.1693824585767977
5.1555,-0.9768764903044942,0.2269085107225308,-0.1970790884766957
5.1590000000000025,-1.0493181262377709,0.2087989744038376,-0.2364956043037356
5.162499999999998,-1.1164312719647087,0.2024058333537824,-0.2705853752536888
5.166,-1.196328954462505,0.1928187397725775,-0.3036087500306735
5.169500000000003,-1.247461865558183,0.1811005991746876,-0.3217200316786187
5.172999999999998,-1.324163850195578,0.1470108282247343,-0.3504830577514853
5.176500000000001,-1.3731674596038226,0.136357338470561,-0.3675279432264619
5.180000000000003,-1.4424116523474455,0.1161167551351827,-0.3952245731263599
5.183499999999999,-1.498873053649462,0.0990718696602061,-0.4080091098972184
5.187000000000001,-1.5595948036555969,0.083093380358198,-0.4154651564617382
5.190500000000004,-1.5723775950972034,0.0788312863248278,-0.4016177141764152
5.193999999999999,-1.555332709622227,0.0735062867769931,-0.3781796876513833
5.197500000000002,-1.5297671267390138,0.0596570991624181,-0.3590055004889736
5.201000000000004,-1.482892819018202,0.0394165158270399,-0.3376985209806268
5.2045,-1.4306935117495558,0.0266319790561814,-0.3185243338182171
5.208000000000002,-1.3390776886538696,0.0255673282124649,-0.3014794483432405
5.211499999999997,-1.2687688450665298,0.01598023463126,-0.286565609884949
5.215,-1.1558477877917488,0.002131047016685,-0.2492801410745941
5.218500000000002,-1.0621009176793774,-0.0031956978604016,-0.219450718828759
5.221999999999998,-0.9534402091087144,-0.0117181405978899,-0.1757738542976009
5.2255,-0.8788692714880046,-0.01598023463126,-0.1534022239455376
5.229000000000003,-0.7947112402860901,-0.01598023463126,-0.1214435000122694
5.232499999999998,-0.7403808860007585,-0.013849187614575,-0.1033339636935762
5.236000000000001,-0.697768672313317,-0.0191759324916617,-0.0980072188164895
5.239500000000003,-0.6785944851509074,-0.0170448854749766,-0.0980072188164895
5.242999999999999,-0.6764634381342222,-0.0330233747769847,-0.1118564064310645
5.246500000000001,-0.6743323911175372,-0.0351544217936697,-0.1139874534477496
5.250000000000004,-0.6658099483800488,-0.0404811666707564,-0.1278348957330726
5.253499999999999,-0.6658099483800488,-0.0340897709499532,-0.1480754790684509
5.2570000000000014,-0.6722030894301041,-0.0234362811957798,-0.1651203645434275
5.260500000000004,-0.6828548338550254,-0.0191759324916617,-0.1874919948954908
5.263999999999999,-0.7030954171904037,0.0010646508437165,-0.2034722295267509
5.267500000000002,-0.7212066988383489,0.0074577918937717,-0.2119946722642392
5.271000000000004,-0.7584921676487036,0.0170448854749766,-0.2130593231079557
5.2745,-0.7840577505319166,0.029827676916583,-0.2119946722642392
5.278000000000002,-0.8245406625319252,0.0490036094082447,-0.2077325782308691
5.281499999999998,-0.847976943727705,0.0660484948832214,-0.2024058333537824
5.285,-0.8810003185046897,0.0862890782185996,-0.1981454846496642
5.288500000000003,-0.9076322975608712,0.1012029166768912,-0.1874919948954908
5.291999999999998,-0.9481134642316276,0.1214435000122694,-0.1842962970350892
5.2955000000000005,-0.9768764903044942,0.1331616406101593,-0.1725781564371993
5.299000000000003,-1.014161959114849,0.1480754790684509,-0.1512729222581045
5.302499999999998,-1.045056032204401,0.1587289688226243,-0.1331616406101593
5.306000000000001,-1.0695587095731491,0.1757738542976009,-0.096942567972773
5.309500000000003,-1.0770147561376688,0.1811005991746876,-0.0724398906040246
5.312999999999999,-1.0589052198189757,0.1970790884766957,-0.0447432607041266
5.316500000000001,-1.030142193746109,0.2024058333537824,-0.02769837522915
5.320000000000004,-0.9853989330419826,0.2034722295267509,-0.0287630260728665
5.323499999999999,-0.9491798604045962,0.191754088928861,-0.0255673282124649
5.327000000000002,-0.8948495061192646,0.1715135055934827,-0.0330233747769847
5.330500000000004,-0.84584589671102,0.1789695521580025,-0.0511346564249298
5.334,-0.7851241467048852,0.1736428072809158,-0.0660484948832214
5.337500000000002,-0.7510343757549319,0.1608600158393093,-0.0713752397603081
5.3409999999999975,-0.7052264642070888,0.1438151303643327,-0.0809623333415129
5.3445,-0.6753987872905056,0.1257055940456395,-0.083093380358198
5.3480000000000025,-0.6370469223071823,0.1065296615539778,-0.0788312863248278
5.351499999999998,-0.6018925005135125,0.0905494269227178,-0.0681795418999064
5.355,-0.559280286826071,0.0788312863248278,-0.0649838440395048
5.358500000000003,-0.5305172607532044,0.0756355884644262,-0.0596570991624181
5.361999999999998,-0.4996249329929048,0.0809623333415129,-0.0468725623915597
5.365500000000001,-0.4634041150262664,0.0862890782185996,-0.0245026773687483
5.369000000000003,-0.41120480775762,0.1065296615539778,-0.0010646508437165
5.372499999999999,-0.3856374795451551,0.1225098961852379,0.0149138384582915
5.376000000000001,-0.3600701513326901,0.1470108282247343,0.0351544217936697
5.379500000000004,-0.3440916620306821,0.1555332709622227,0.0436768645311581
5.382999999999999,-0.3387649171535954,0.1704471094205142,0.0596570991624181
5.386500000000002,-0.3387649171535954,0.1885583910684593,0.0543303542853314
5.390000000000004,-0.3526141047681703,0.2077325782308691,0.0500682602519613
5.3935,-0.3643322453660603,0.2119946722642392,0.0468725623915597
5.397000000000002,-0.3930952714389268,0.2173214171413259,0.0372854688103548
5.400499999999997,-0.4037470158638482,0.2237128128621291,0.0372854688103548
5.404,-0.4218582975117934,0.2183860679850424,0.0191759324916617
5.407500000000002,-0.4410324846742031,0.2130593231079557,0.0042603487041181
5.410999999999998,-0.4729912086074713,0.1928187397725775,-0.0202405833353782
5.4145,-0.4964292351325031,0.177904901314286,-0.0447432607041266
5.418000000000003,-0.5251905158761178,0.1555332709622227,-0.0767019846373948
5.421499999999998,-0.5411707505073777,0.1289012919060412,-0.1001382658331746
5.425000000000001,-0.5709984274239609,0.0990718696602061,-0.1320969897664428
5.428500000000003,-0.5976321518093943,0.0777666354811113,-0.150206526085136
5.431999999999999,-0.6136106411114024,0.0436768645311581,-0.1715135055934827
5.435500000000001,-0.630655526586379,0.0170448854749766,-0.1832316461913727
5.439000000000004,-0.6391779693238674,-0.0095870935812048,-0.1896230419121759
5.442499999999999,-0.642373667184269,-0.0330233747769847,-0.1928187397725775
5.4460000000000015,-0.6519625060947258,-0.0490036094082447,-0.1864273440517743
5.449500000000004,-0.6519625060947258,-0.0756355884644262,-0.1704471094205142
5.452999999999999,-0.6551582039551274,-0.0948115209560879,-0.1374237346435295
5.456500000000002,-0.6551582039551274,-0.1097253594143795,-0.1182478021518678
5.460000000000004,-0.6636806466926157,-0.1416840833476476,-0.0820287295144815
5.4635,-0.6775280889779387,-0.152337573101821,-0.0628527970228197
5.467000000000002,-0.7041618133633722,-0.1555332709622227,-0.0340897709499532
5.470499999999998,-0.723336000525782,-0.1619246666830259,-0.0031956978604016
5.474,-0.7435765838611602,-0.1715135055934827,0.029827676916583
5.477500000000003,-0.753165422771617,-0.1789695521580025,0.0607217500061347
5.480999999999998,-0.7510343757549319,-0.1757738542976009,0.096942567972773
5.484500000000001,-0.7382515843133254,-0.1704471094205142,0.124639197872671
5.488000000000003,-0.7307937924195538,-0.1629910628559944,0.1512729222581045
5.491499999999999,-0.7318584432632703,-0.1629910628559944,0.1747092034538843
5.495000000000001,-0.727598094559152,-0.1565979218059392,0.1896230419121759
5.498500000000004,-0.727598094559152,-0.1470108282247343,0.2045368803704674
5.501999999999999,-0.727598094559152,-0.1310323389227262,0.2215817658454441
5.505500000000001,-0.7350541411236718,-0.1161167551351827,0.2290395577392158
5.509000000000004,-0.7393162351570419,-0.1001382658331746,0.2247774637058457
5.512499999999999,-0.7478386778945303,-0.0916158230956863,0.2269085107225308
5.516000000000002,-0.7467722817215618,-0.0809623333415129,0.2109282760912707
5.519500000000004,-0.7510343757549319,-0.0788312863248278,0.1960144376329791
5.523,-0.7638171671965385,-0.0756355884644262,0.177904901314286
5.526500000000002,-0.7840577505319166,-0.0671131457269379,0.1629910628559944
5.529999999999998,-0.80642938088398,-0.0596570991624181,0.1470108282247343
5.5335,-0.8266699642193582,-0.0628527970228197,0.1310323389227262
5.537000000000003,-0.8575640373089098,-0.0607217500061347,0.1139874534477496
5.540499999999998,-0.8810003185046897,-0.0532657034416149,0.0937468701123714
5.5440000000000005,-0.9193504381587612,-0.041545817514473,0.0628527970228197
5.547500000000003,-0.944917766371226,-0.029827676916583,0.0308940730895516
5.550999999999998,-0.9790075373211792,-0.0287630260728665,-0.0042603487041181
5.554500000000001,-0.9992481206565574,-0.0245026773687483,-0.0287630260728665
5.558000000000003,-1.0248154488690224,-0.0181095363186931,-0.0724398906040246
5.561499999999999,-1.053578474941889,-0.0117181405978899,-0.1043986145372928
5.565000000000001,-1.0993863864897322,-0.0085224427374883,-0.1416840833476476
5.568500000000004,-1.1473253450542604,-0.0063913957208032,-0.1619246666830259
5.571999999999999,-1.2069806988874263,-0.0010646508437165,-0.1789695521580025
5.575500000000002,-1.2559843082956712,0.0095870935812048,-0.1874919948954908
5.579000000000004,-1.3028586160164832,0.0234362811957798,-0.1928187397725775
5.5825,-1.332686292933066,0.0330233747769847,-0.1885583910684593
5.586000000000002,-1.353991527112161,0.0468725623915597,-0.1672514115601126
5.5894999999999975,-1.3710364125871377,0.0511346564249298,-0.1395530363309626
5.593,-1.3550579232851294,0.0649838440395048,-0.0852244273748831
5.5965000000000025,-1.324163850195578,0.0841580312019145,-0.0383501196540714
5.599999999999998,-1.2794223348207032,0.1001382658331746,0.0181095363186931
5.6035,-1.2112427929207967,0.1267702448893561,0.0948115209560879
5.607000000000003,-1.1334761574396854,0.1619246666830259,0.1704471094205142
5.610499999999998,-1.0759501052939522,0.191754088928861,0.2269085107225308
5.614000000000001,-0.986465329214951,0.2354309534600191,0.2897613077453506
