time,Gyr_X,Gyr_Y,Gyr_Z
0.0,0.0085224427374883,-0.0042603487041181,-0.0042603487041181
0.0035000000000025,0.0127827914416064,-0.0031956978604016,-0.0031956978604016
0.007000000000005,0.0074577918937717,-0.0031956978604016,-0.0063913957208032
0.0105000000000003,0.0085224427374883,-0.0010646508437165,-0.0031956978604016
0.0140000000000028,0.0074577918937717,-0.0010646508437165,-0.0042603487041181
0.0175000000000054,0.0074577918937717,-0.002131047016685,-0.0042603487041181
0.0210000000000007,0.0095870935812048,0.002131047016685,-0.0053267448770866
0.0245000000000032,0.0074577918937717,-0.002131047016685,-0.0010646508437165
0.0280000000000057,0.0063913957208032,-0.0031956978604016,-0.0042603487041181
0.0315000000000011,0.0095870935812048,0.0,-0.0031956978604016
0.0350000000000036,0.0074577918937717,0.0010646508437165,-0.0063913957208032
0.0385000000000061,0.0085224427374883,-0.0063913957208032,-0.0031956978604016
0.0420000000000015,0.0063913957208032,0.002131047016685,-0.0031956978604016
0.045500000000004,0.0074577918937717,-0.0010646508437165,-0.0095870935812048
0.0490000000000065,0.0085224427374883,-0.0010646508437165,-0.0031956978604016
0.0525000000000019,0.0085224427374883,0.0,-0.0042603487041181
0.0560000000000044,0.0127827914416064,-0.0042603487041181,-0.002131047016685
0.0594999999999998,0.0085224427374883,-0.002131047016685,-0.0053267448770866
0.0630000000000023,0.0074577918937717,-0.0031956978604016,-0.002131047016685
0.0665000000000048,0.0074577918937717,0.0,-0.0042603487041181
0.0700000000000002,0.0095870935812048,-0.002131047016685,-0.0085224427374883
0.0735000000000027,0.0095870935812048,-0.0010646508437165,-0.0031956978604016
0.0770000000000052,0.0074577918937717,-0.0063913957208032,-0.0053267448770866
0.0805000000000006,0.0095870935812048,-0.0031956978604016,-0.0063913957208032
0.0840000000000031,0.0127827914416064,-0.0031956978604016,-0.0053267448770866
0.0875000000000056,0.0074577918937717,0.0,-0.0042603487041181
0.091000000000001,0.0095870935812048,-0.002131047016685,-0.002131047016685
0.0945000000000035,0.0106534897541733,-0.002131047016685,-0.0042603487041181
0.098000000000006,0.0117181405978899,-0.0031956978604016,-0.002131047016685
0.1015000000000014,0.0106534897541733,-0.002131047016685,-0.0031956978604016
0.1050000000000039,0.0095870935812048,-0.0053267448770866,-0.0053267448770866
0.1085000000000064,0.0074577918937717,-0.0063913957208032,-0.0063913957208032
0.1120000000000018,0.0074577918937717,-0.0042603487041181,-0.0063913957208032
0.1155000000000043,0.0106534897541733,-0.0042603487041181,-0.0042603487041181
0.1189999999999997,0.0095870935812048,-0.0063913957208032,-0.0085224427374883
0.1225000000000022,0.0042603487041181,-0.0063913957208032,-0.002131047016685
0.1260000000000047,0.0095870935812048,-0.0063913957208032,-0.002131047016685
0.1295000000000001,0.0095870935812048,-0.0074577918937717,-0.0074577918937717
0.1330000000000026,0.0074577918937717,-0.0095870935812048,-0.0063913957208032
0.1365000000000051,0.0106534897541733,-0.0042603487041181,-0.0042603487041181
0.1400000000000005,0.0085224427374883,-0.0053267448770866,-0.0042603487041181
0.143500000000003,0.0106534897541733,-0.0031956978604016,-0.0063913957208032
0.1470000000000055,0.0106534897541733,-0.0063913957208032,-0.0063913957208032
0.1505000000000009,0.0085224427374883,-0.002131047016685,-0.0031956978604016
0.1540000000000034,0.0085224427374883,-0.0010646508437165,-0.0053267448770866
0.1575000000000059,0.0074577918937717,-0.0063913957208032,-0.0053267448770866
0.1610000000000013,0.0095870935812048,-0.0042603487041181,-0.0042603487041181
0.1645000000000038,0.0117181405978899,-0.002131047016685,-0.0031956978604016
0.1680000000000063,0.0095870935812048,-0.0053267448770866,-0.002131047016685
0.1715000000000017,0.0063913957208032,-0.0031956978604016,-0.0042603487041181
0.1750000000000042,0.0095870935812048,-0.002131047016685,-0.0063913957208032
0.1784999999999996,0.013849187614575,-0.0042603487041181,-0.0053267448770866
0.1820000000000021,0.0106534897541733,-0.0031956978604016,0.0
0.1855000000000046,0.0085224427374883,0.0,-0.0042603487041181
0.189,0.0053267448770866,-0.002131047016685,-0.0074577918937717
0.1925000000000025,0.0063913957208032,-0.002131047016685,-0.0042603487041181
0.196000000000005,0.0095870935812048,-0.0010646508437165,-0.0063913957208032
0.1995000000000004,0.0074577918937717,-0.0010646508437165,-0.0053267448770866
0.2030000000000029,0.0085224427374883,-0.0053267448770866,-0.0074577918937717
0.2065000000000054,0.0117181405978899,-0.0010646508437165,0.0
0.2100000000000008,0.0074577918937717,-0.0053267448770866,-0.002131047016685
0.2135000000000033,0.0095870935812048,-0.0042603487041181,-0.0053267448770866
0.2170000000000058,0.0117181405978899,-0.0010646508437165,-0.0010646508437165
0.2205000000000012,0.0095870935812048,0.0010646508437165,-0.0042603487041181
0.2240000000000037,0.0085224427374883,-0.0042603487041181,-0.0042603487041181
0.2275000000000062,0.0085224427374883,-0.0042603487041181,-0.0031956978604016
0.2310000000000016,0.0063913957208032,-0.0053267448770866,-0.0042603487041181
0.2345000000000041,0.0127827914416064,-0.0063913957208032,-0.002131047016685
0.2379999999999995,0.0074577918937717,-0.0010646508437165,-0.0042603487041181
0.241500000000002,0.0053267448770866,-0.0010646508437165,-0.0042603487041181
0.2450000000000045,0.0063913957208032,-0.002131047016685,-0.0063913957208032
0.2484999999999999,0.0095870935812048,-0.0042603487041181,-0.0063913957208032
0.2520000000000024,0.0074577918937717,-0.0031956978604016,-0.0053267448770866
0.2555000000000049,0.0095870935812048,-0.0042603487041181,-0.0053267448770866
0.2590000000000003,0.0095870935812048,-0.0010646508437165,0.0
0.2625000000000028,0.0106534897541733,-0.0042603487041181,-0.0042603487041181
0.2660000000000053,0.0117181405978899,-0.0042603487041181,-0.0031956978604016
0.2695000000000007,0.0106534897541733,-0.002131047016685,-0.0031956978604016
0.2730000000000032,0.0106534897541733,-0.0031956978604016,-0.002131047016685
0.2765000000000057,0.0085224427374883,-0.0042603487041181,-0.0053267448770866
0.2800000000000011,0.0074577918937717,-0.002131047016685,-0.002131047016685
0.2835000000000036,0.0106534897541733,-0.0031956978604016,-0.0042603487041181
0.2870000000000061,0.0063913957208032,-0.0053267448770866,-0.0042603487041181
0.2905000000000015,0.0085224427374883,-0.002131047016685,-0.002131047016685
0.294000000000004,0.0063913957208032,-0.0053267448770866,-0.0010646508437165
0.2975000000000065,0.0063913957208032,-0.0042603487041181,-0.002131047016685
0.3010000000000019,0.0074577918937717,-0.0010646508437165,-0.0053267448770866
0.3045000000000044,0.0117181405978899,-0.0031956978604016,-0.0074577918937717
0.3079999999999998,0.0095870935812048,-0.0042603487041181,-0.0063913957208032
0.3115000000000023,0.0063913957208032,-0.0042603487041181,-0.0063913957208032
0.3150000000000048,0.0074577918937717,-0.0031956978604016,-0.0063913957208032
0.3185000000000002,0.0074577918937717,-0.0031956978604016,-0.0031956978604016
0.3220000000000027,0.0085224427374883,0.0,-0.002131047016685
0.3255000000000052,0.0106534897541733,-0.0053267448770866,-0.002131047016685
0.3290000000000006,0.0106534897541733,-0.0031956978604016,-0.0031956978604016
0.3325000000000031,0.0085224427374883,-0.0042603487041181,-0.0042603487041181
0.3360000000000056,0.0106534897541733,0.0,-0.0031956978604016
0.339500000000001,0.0053267448770866,-0.0010646508437165,-0.0053267448770866
0.3430000000000035,0.0095870935812048,-0.0031956978604016,-0.0063913957208032
0.346500000000006,0.0106534897541733,-0.002131047016685,-0.0053267448770866
0.3500000000000014,0.0063913957208032,-0.0042603487041181,-0.0063913957208032
0.3535000000000039,0.0095870935812048,-0.002131047016685,-0.0031956978604016
0.3570000000000064,0.0095870935812048,-0.0074577918937717,-0.0042603487041181
0.3605000000000018,0.0117181405978899,-0.0149138384582915,-0.0010646508437165
0.3640000000000043,0.0074577918937717,-0.0191759324916617,0.0
0.3674999999999997,0.0117181405978899,-0.0202405833353782,0.002131047016685
0.3710000000000022,0.0117181405978899,-0.0170448854749766,-0.0010646508437165
0.3745000000000047,0.013849187614575,-0.0127827914416064,-0.0074577918937717
0.3780000000000001,0.0170448854749766,-0.0074577918937717,0.0
0.3815000000000026,0.0181095363186931,-0.0106534897541733,0.0053267448770866
0.3850000000000051,0.0202405833353782,-0.01598023463126,0.0
0.3885000000000005,0.01598023463126,-0.0170448854749766,-0.002131047016685
0.392000000000003,0.0117181405978899,-0.0170448854749766,-0.002131047016685
0.3955000000000055,0.0127827914416064,-0.0234362811957798,0.0
0.3990000000000009,0.0127827914416064,-0.0255673282124649,-0.0031956978604016
0.4025000000000034,0.0170448854749766,-0.0170448854749766,-0.0063913957208032
0.4060000000000059,0.0127827914416064,-0.0117181405978899,-0.0074577918937717
0.4095000000000013,0.0031956978604016,0.002131047016685,-0.0042603487041181
0.4130000000000038,0.0106534897541733,0.0063913957208032,-0.0085224427374883
0.4165000000000063,0.0085224427374883,0.002131047016685,-0.0053267448770866
0.4200000000000017,0.0149138384582915,-0.0063913957208032,-0.0063913957208032
0.4235000000000042,0.0127827914416064,-0.0117181405978899,-0.0042603487041181
0.4269999999999996,0.0085224427374883,-0.0170448854749766,-0.0053267448770866
0.4305000000000021,0.0106534897541733,-0.0149138384582915,-0.0106534897541733
0.4340000000000046,0.01598023463126,-0.013849187614575,-0.0053267448770866
0.4375,0.0255673282124649,-0.01598023463126,-0.0063913957208032
0.4410000000000025,0.0308940730895516,-0.0149138384582915,-0.0031956978604016
0.444500000000005,0.02769837522915,-0.0106534897541733,0.0
0.4480000000000004,0.0181095363186931,-0.0063913957208032,-0.0074577918937717
0.4515000000000029,0.0106534897541733,-0.0042603487041181,-0.0042603487041181
0.4550000000000054,0.0117181405978899,-0.0053267448770866,-0.0063913957208032
0.4585000000000008,0.0117181405978899,-0.0053267448770866,-0.0031956978604016
0.4620000000000033,0.0170448854749766,-0.0042603487041181,-0.002131047016685
0.4655000000000058,0.0149138384582915,-0.0074577918937717,-0.0063913957208032
0.4690000000000012,0.0074577918937717,-0.0106534897541733,-0.0031956978604016
0.4725000000000037,0.0106534897541733,-0.0053267448770866,-0.0042603487041181
0.4760000000000062,0.0074577918937717,-0.0053267448770866,-0.0031956978604016
0.4795000000000016,0.0106534897541733,-0.0053267448770866,-0.0031956978604016
0.4830000000000041,0.0127827914416064,0.0010646508437165,-0.0031956978604016
0.4865000000000066,0.013849187614575,0.0,-0.002131047016685
0.490000000000002,0.0106534897541733,0.0,-0.0074577918937717
0.4935000000000045,0.0117181405978899,0.0,-0.002131047016685
0.4969999999999999,0.0127827914416064,-0.002131047016685,-0.0031956978604016
0.5005000000000024,0.0117181405978899,0.0,-0.0053267448770866
0.5040000000000049,0.0074577918937717,0.0053267448770866,-0.0010646508437165
0.5075000000000003,0.0095870935812048,0.0106534897541733,-0.0053267448770866
0.5110000000000028,0.0085224427374883,0.01598023463126,-0.0074577918937717
0.5145000000000053,0.0085224427374883,0.0149138384582915,-0.0063913957208032
0.5180000000000007,0.0127827914416064,0.0191759324916617,0.0
0.5215000000000032,0.0117181405978899,0.0191759324916617,0.0
0.5250000000000057,0.0074577918937717,0.0181095363186931,0.0042603487041181
0.5285000000000011,0.0063913957208032,0.0234362811957798,0.0106534897541733
0.5320000000000036,0.0095870935812048,0.0287630260728665,0.0170448854749766
0.5355000000000061,0.01598023463126,0.0266319790561814,0.0213052341790947
0.5390000000000015,0.0255673282124649,0.0319587239332681,0.0234362811957798
0.542500000000004,0.0287630260728665,0.02769837522915,0.0266319790561814
0.5460000000000065,0.029827676916583,0.0255673282124649,0.0245026773687483
0.5495000000000019,0.02769837522915,0.0191759324916617,0.0213052341790947
0.5530000000000044,0.029827676916583,0.013849187614575,0.0127827914416064
0.5564999999999998,0.029827676916583,0.0053267448770866,0.0117181405978899
0.5600000000000023,0.0255673282124649,-0.002131047016685,0.0106534897541733
0.5635000000000048,0.0245026773687483,-0.0010646508437165,0.0074577918937717
0.5670000000000002,0.0191759324916617,-0.0074577918937717,0.0031956978604016
0.5705000000000027,0.013849187614575,-0.0063913957208032,0.0010646508437165
0.5740000000000052,0.0106534897541733,-0.0085224427374883,-0.0074577918937717
0.5775000000000006,0.0010646508437165,-0.0095870935812048,-0.0053267448770866
0.5810000000000031,-0.0031956978604016,-0.0117181405978899,-0.0074577918937717
0.5845000000000056,-0.0074577918937717,-0.01598023463126,-0.0085224427374883
0.588000000000001,-0.0063913957208032,-0.0223716303520633,-0.0127827914416064
0.5915000000000035,-0.0042603487041181,-0.0255673282124649,-0.0117181405978899
0.595000000000006,-0.0053267448770866,-0.0319587239332681,-0.0149138384582915
0.5985000000000014,0.0010646508437165,-0.0330233747769847,-0.0106534897541733
0.6020000000000039,0.0053267448770866,-0.0383501196540714,-0.0127827914416064
0.6055000000000064,0.0127827914416064,-0.0351544217936697,-0.0095870935812048
0.6090000000000018,0.0213052341790947,-0.0330233747769847,-0.0117181405978899
0.6125000000000043,0.0202405833353782,-0.02769837522915,-0.0053267448770866
0.6159999999999997,0.0191759324916617,-0.01598023463126,-0.0085224427374883
0.6195000000000022,0.0095870935812048,-0.0063913957208032,-0.0085224427374883
0.6230000000000047,0.002131047016685,0.0085224427374883,-0.0074577918937717
0.6265000000000001,0.0031956978604016,0.0191759324916617,-0.0042603487041181
0.6300000000000026,0.0063913957208032,0.0351544217936697,0.0
0.6335000000000051,0.0117181405978899,0.0351544217936697,-0.0010646508437165
0.6370000000000005,0.01598023463126,0.0458079115478431,0.002131047016685
0.640500000000003,0.0223716303520633,0.0426122136874415,0.0074577918937717
0.6440000000000055,0.0266319790561814,0.041545817514473,0.0053267448770866
0.6475000000000009,0.0330233747769847,0.0404811666707564,0.0063913957208032
0.6510000000000034,0.0351544217936697,0.0436768645311581,-0.0010646508437165
0.6545000000000059,0.0319587239332681,0.0447432607041266,-0.0042603487041181
0.6580000000000013,0.0308940730895516,0.0490036094082447,-0.0053267448770866
0.6615000000000038,0.029827676916583,0.0532657034416149,-0.0095870935812048
0.6650000000000063,0.0255673282124649,0.0617864008498512,-0.0181095363186931
0.6685000000000016,0.0223716303520633,0.0660484948832214,-0.0234362811957798
0.6720000000000041,0.0170448854749766,0.0628527970228197,-0.02769837522915
0.6754999999999995,0.0127827914416064,0.0628527970228197,-0.0255673282124649
0.679000000000002,0.0053267448770866,0.0575260521457331,-0.0287630260728665
0.6825000000000045,0.0053267448770866,0.0543303542853314,-0.029827676916583
0.6859999999999999,0.0095870935812048,0.0532657034416149,-0.0340897709499532
0.6895000000000024,0.0085224427374883,0.0490036094082447,-0.029827676916583
0.693000000000005,0.01598023463126,0.0436768645311581,-0.0266319790561814
0.6965000000000003,0.0213052341790947,0.0394165158270399,-0.0287630260728665
0.7000000000000028,0.0170448854749766,0.0383501196540714,-0.0245026773687483
0.7035000000000053,0.0223716303520633,0.0404811666707564,-0.0266319790561814
0.7070000000000007,0.0287630260728665,0.0458079115478431,-0.02769837522915
0.7105000000000032,0.0266319790561814,0.0468725623915597,-0.0266319790561814
0.7140000000000057,0.0245026773687483,0.0543303542853314,-0.0245026773687483
0.7175000000000011,0.0191759324916617,0.0575260521457331,-0.0245026773687483
0.7210000000000036,0.0117181405978899,0.055395005129048,-0.0106534897541733
0.7245000000000061,0.0085224427374883,0.0511346564249298,-0.0074577918937717
0.7280000000000015,0.0085224427374883,0.0521993072686464,-0.0063913957208032
0.731500000000004,0.0053267448770866,0.0532657034416149,-0.0074577918937717
0.7350000000000065,0.0,0.0511346564249298,-0.0053267448770866
0.7385000000000019,0.0031956978604016,0.055395005129048,-0.0117181405978899
0.7420000000000044,-0.0010646508437165,0.0575260521457331,-0.01598023463126
0.7454999999999998,0.0010646508437165,0.0564614013020165,-0.0266319790561814
0.7490000000000023,-0.0031956978604016,0.0490036094082447,-0.0330233747769847
0.7525000000000048,-0.0042603487041181,0.0436768645311581,-0.0340897709499532
0.7560000000000002,-0.0074577918937717,0.0394165158270399,-0.0394165158270399
0.7595000000000027,-0.0149138384582915,0.041545817514473,-0.0490036094082447
0.7630000000000052,-0.0181095363186931,0.0319587239332681,-0.0511346564249298
0.7665000000000006,-0.0245026773687483,0.02769837522915,-0.0521993072686464
0.7700000000000031,-0.0308940730895516,0.0223716303520633,-0.0543303542853314
0.7735000000000056,-0.0308940730895516,0.013849187614575,-0.0596570991624181
0.777000000000001,-0.0287630260728665,0.0074577918937717,-0.0617864008498512
0.7805000000000035,-0.0245026773687483,0.0042603487041181,-0.0617864008498512
0.784000000000006,-0.0127827914416064,0.0074577918937717,-0.0575260521457331
0.7875000000000014,-0.0074577918937717,0.0042603487041181,-0.0575260521457331
0.7910000000000039,0.0,0.0053267448770866,-0.0500682602519613
0.7945000000000064,0.0063913957208032,-0.0031956978604016,-0.0426122136874415
0.7980000000000018,0.0095870935812048,0.0,-0.0330233747769847
0.8015000000000043,0.013849187614575,-0.0053267448770866,-0.0223716303520633
0.8049999999999997,0.0181095363186931,-0.002131047016685,-0.0117181405978899
0.8085000000000022,0.0202405833353782,0.0042603487041181,-0.0053267448770866
0.8120000000000047,0.0170448854749766,0.0085224427374883,0.0010646508437165
0.8155000000000001,0.0170448854749766,0.0127827914416064,0.0127827914416064
0.8190000000000026,0.0063913957208032,0.0149138384582915,0.0181095363186931
0.8225000000000051,-0.0074577918937717,0.0117181405978899,0.0170448854749766
0.8260000000000005,-0.013849187614575,0.01598023463126,0.0181095363186931
0.829500000000003,-0.013849187614575,0.0181095363186931,0.0181095363186931
0.8330000000000055,-0.0117181405978899,0.0191759324916617,0.0181095363186931
0.8365000000000009,-0.0074577918937717,0.0213052341790947,0.0170448854749766
0.8400000000000034,0.0,0.0223716303520633,0.0213052341790947
0.8435000000000059,0.002131047016685,0.013849187614575,0.0149138384582915
0.8470000000000013,0.0010646508437165,0.0053267448770866,0.01598023463126
0.8505000000000038,0.0031956978604016,-0.0010646508437165,0.0149138384582915
0.8540000000000063,0.0031956978604016,-0.0053267448770866,0.0181095363186931
0.8575000000000017,0.013849187614575,-0.0053267448770866,0.0170448854749766
0.8610000000000042,0.0149138384582915,-0.0074577918937717,0.0063913957208032
0.8644999999999996,0.0287630260728665,-0.0095870935812048,0.013849187614575
0.8680000000000021,0.0287630260728665,-0.0149138384582915,0.0095870935812048
0.8715000000000046,0.0330233747769847,-0.01598023463126,0.0117181405978899
0.875,0.029827676916583,-0.0191759324916617,0.0031956978604016
0.8785000000000025,0.0266319790561814,-0.0223716303520633,0.0010646508437165
0.882000000000005,0.0287630260728665,-0.0245026773687483,-0.002131047016685
0.8855000000000004,0.0308940730895516,-0.0234362811957798,-0.0042603487041181
0.8890000000000029,0.02769837522915,-0.0308940730895516,-0.0095870935812048
0.8925000000000054,0.029827676916583,-0.029827676916583,-0.0085224427374883
0.8960000000000008,0.0255673282124649,-0.0319587239332681,-0.0085224427374883
0.8995000000000033,0.0181095363186931,-0.0308940730895516,-0.0117181405978899
0.9030000000000058,0.0074577918937717,-0.0340897709499532,-0.0063913957208032
0.9065000000000012,0.0095870935812048,-0.0340897709499532,-0.0106534897541733
0.9100000000000036,0.0074577918937717,-0.0319587239332681,-0.0095870935812048
0.9135000000000062,0.0117181405978899,-0.0404811666707564,-0.0031956978604016
0.9170000000000016,0.0085224427374883,-0.041545817514473,-0.002131047016685
0.920500000000004,0.0127827914416064,-0.0436768645311581,-0.0031956978604016
0.9240000000000066,0.013849187614575,-0.0532657034416149,-0.0010646508437165
0.927500000000002,0.0223716303520633,-0.0543303542853314,-0.002131047016685
0.9310000000000044,0.0287630260728665,-0.055395005129048,0.0
0.9345,0.0340897709499532,-0.0532657034416149,0.0
0.9380000000000024,0.0394165158270399,-0.0490036094082447,0.0042603487041181
0.9415000000000048,0.041545817514473,-0.0394165158270399,0.0063913957208032
0.9450000000000004,0.0394165158270399,-0.0330233747769847,0.0095870935812048
0.9485000000000028,0.0479389585645282,-0.029827676916583,0.0117181405978899
0.9520000000000052,0.0458079115478431,-0.0191759324916617,0.013849187614575
0.9555000000000008,0.0521993072686464,-0.0106534897541733,0.013849187614575
0.9590000000000032,0.0596570991624181,-0.0031956978604016,0.0149138384582915
0.9625000000000056,0.0671131457269379,0.0053267448770866,0.0127827914416064
0.9660000000000012,0.0798976824977964,0.0106534897541733,0.0106534897541733
0.9695000000000036,0.0841580312019145,0.013849187614575,0.0117181405978899
0.973000000000006,0.0958761717998045,0.0170448854749766,0.0106534897541733
0.9765000000000016,0.1054650107102613,0.0191759324916617,0.013849187614575
0.980000000000004,0.1171831513081512,0.01598023463126,0.0117181405978899
0.9835000000000064,0.138488385487246,0.0245026773687483,0.0106534897541733
0.987000000000002,0.1480754790684509,0.0213052341790947,0.0095870935812048
0.9905000000000044,0.1629910628559944,0.0202405833353782,0.0
0.9939999999999998,0.1629910628559944,0.0085224427374883,-0.0053267448770866
0.9975000000000024,0.1693824585767977,-0.002131047016685,-0.0117181405978899
1.0010000000000048,0.1789695521580025,-0.0106534897541733,-0.0106534897541733
1.0045000000000002,0.1853609478788057,-0.0213052341790947,-0.013849187614575
1.008000000000003,0.191754088928861,-0.0213052341790947,-0.0170448854749766
1.0115000000000052,0.2024058333537824,-0.0266319790561814,-0.0202405833353782
1.0150000000000006,0.2098636252475541,-0.0319587239332681,-0.0202405833353782
1.018500000000003,0.2098636252475541,-0.0351544217936697,-0.0202405833353782
1.0220000000000056,0.2215817658454441,-0.0511346564249298,-0.0170448854749766
1.025500000000001,0.2301042085829324,-0.0617864008498512,-0.0223716303520633
1.0290000000000037,0.2269085107225308,-0.0703088435873395,-0.0191759324916617
1.032500000000006,0.2173214171413259,-0.0884201252352847,-0.0191759324916617
1.0360000000000014,0.2119946722642392,-0.0937468701123714,-0.0191759324916617
1.039500000000004,0.2173214171413259,-0.1139874534477496,-0.0063913957208032
1.0430000000000064,0.2290395577392158,-0.1310323389227262,-0.0042603487041181
1.0465000000000018,0.2428870000245388,-0.1470108282247343,0.0053267448770866
1.0500000000000045,0.2482137449016255,-0.1565979218059392,0.0106534897541733
1.0534999999999997,0.2663250265495707,-0.1747092034538843,0.0010646508437165
1.0570000000000022,0.274847469287059,-0.1757738542976009,0.002131047016685
1.0605000000000049,0.3185243338182171,-0.1757738542976009,0.0010646508437165
1.064,0.3653968962097769,-0.1544686201185061,0.0106534897541733
1.0675000000000026,0.4261186462159115,-0.1193124529955843,0.0191759324916617
1.071000000000005,0.464468765869983,-0.083093380358198,0.0234362811957798
1.0745000000000005,0.4729912086074713,-0.0404811666707564,0.0245026773687483
1.078000000000003,0.4516859744283765,-0.0191759324916617,0.0191759324916617
1.0815000000000057,0.3994866671597301,0.0117181405978899,0.0095870935812048
1.0850000000000009,0.3451563128743986,0.0308940730895516,0.0010646508437165
1.0885000000000034,0.258867234655799,0.0596570991624181,-0.0170448854749766
1.092000000000006,0.1853609478788057,0.0745709376207097,-0.02769837522915
1.0955000000000013,0.0980072188164895,0.0926804739394028,-0.0223716303520633
1.0990000000000038,0.0319587239332681,0.1129210572747811,-0.0213052341790947
1.1025000000000065,-0.0617864008498512,0.1257055940456395,-0.0127827914416064
1.1060000000000016,-0.1406194325039311,0.1299659427497577,-0.0085224427374883
1.109500000000004,-0.2418223491808223,0.1352926876268444,-0.0245026773687483
1.1129999999999995,-0.2982837504828389,0.1278348957330726,-0.0234362811957798
1.116500000000002,-0.4037470158638482,0.1001382658331746,-0.0372854688103548
1.1200000000000043,-0.4612730680095813,0.0820287295144815,-0.0468725623915597
1.1235,-0.5560845889656694,0.0181095363186931,-0.055395005129048
1.1270000000000024,-0.6583539018155291,-0.0458079115478431,-0.0820287295144815
1.130500000000005,-0.6988350684862855,-0.0990718696602061,-0.096942567972773
1.1340000000000003,-0.7393162351570419,-0.1629910628559944,-0.1118564064310645
1.1375000000000028,-0.7393162351570419,-0.2183860679850424,-0.1193124529955843
1.1410000000000051,-0.7201403026653803,-0.288694911572382,-0.1267702448893561
1.1445000000000007,-0.6817901830113089,-0.3408942188410284,-0.1310323389227262
1.1480000000000032,-0.626395177882261,-0.4122694586013365,-0.1395530363309626
1.1515000000000055,-0.5688691257365278,-0.4602084171658648,-0.1438151303643327
1.1550000000000011,-0.4974938859762197,-0.5156034222949128,-0.1534022239455376
1.1585000000000036,-0.4442281825346047,-0.5550199381219528,-0.152337573101821
1.162000000000006,-0.3824417816847534,-0.5912390107593392,-0.1565979218059392
1.1655000000000015,-0.3291760782431385,-0.6061545945468827,-0.1608600158393093
1.169000000000004,-0.274847469287059,-0.6157416881280875,-0.1619246666830259
1.1725000000000063,-0.2407576983371057,-0.6210684330051742,-0.1683160624038291
1.176000000000002,-0.1938833906162941,-0.6125459902676859,-0.1757738542976009
1.1795000000000044,-0.1672514115601126,-0.602958896686481,-0.1832316461913727
1.1829999999999998,-0.1299659427497577,-0.5816519171781342,-0.1864273440517743
1.1865000000000023,-0.1086607085706629,-0.5582156359823544,-0.1981454846496642
1.1900000000000048,-0.0788312863248278,-0.5294526099094878,-0.2077325782308691
1.1935000000000002,-0.0649838440395048,-0.5070809795574245,-0.2173214171413259
1.1970000000000027,-0.0436768645311581,-0.4783179534845579,-0.2269085107225308
1.2005000000000052,-0.0351544217936697,-0.4580773701491797,-0.2354309534600191
1.2040000000000006,-0.0330233747769847,-0.4325100419367148,-0.2503447919183106
1.2075000000000031,-0.0319587239332681,-0.41120480775762,-0.2620629325162006
1.2110000000000056,-0.0436768645311581,-0.38350643252847,-0.2727164222703739
1.214500000000001,-0.0543303542853314,-0.3685925940701784,-0.2759121201307756
1.2180000000000035,-0.0724398906040246,-0.341960615013997,-0.2727164222703739
1.221500000000006,-0.0852244273748831,-0.3238510786953038,-0.2695207244099723
1.2250000000000014,-0.1118564064310645,-0.3014794483432405,-0.258867234655799
1.228500000000004,-0.1182478021518678,-0.2801724688348938,-0.247149094057909
1.2320000000000064,-0.1299659427497577,-0.258867234655799,-0.2301042085829324
1.2355000000000018,-0.1352926876268444,-0.2407576983371057,-0.2087989744038376
1.2390000000000043,-0.1299659427497577,-0.2151903701246408,-0.1821652500184041
1.2424999999999995,-0.1161167551351827,-0.1970790884766957,-0.1597953649955928
1.2460000000000022,-0.0926804739394028,-0.1608600158393093,-0.1310323389227262
1.2495000000000047,-0.0681795418999064,-0.1257055940456395,-0.1086607085706629
1.253,-0.0202405833353782,-0.0745709376207097,-0.0809623333415129
1.2565000000000026,0.0234362811957798,-0.0351544217936697,-0.0575260521457331
1.2600000000000051,0.0948115209560879,0.0255673282124649,-0.029827676916583
1.2635000000000003,0.1416840833476476,0.0767019846373948,-0.01598023463126
1.267000000000003,0.2109282760912707,0.136357338470561,0.0042603487041181
1.2705000000000055,0.2546051406224288,0.1811005991746876,0.0117181405978899
1.274000000000001,0.3153286359578155,0.2407576983371057,0.0213052341790947
1.2775000000000034,0.3451563128743986,0.2812388650078622,0.0223716303520633
1.281000000000006,0.3803107346680683,0.3291760782431385,0.0255673282124649
1.2845000000000013,0.3930952714389268,0.3643322453660603,0.0213052341790947
1.2880000000000038,0.3952245731263599,0.3994866671597301,0.0181095363186931
1.2915000000000063,0.3888331774055567,0.4271832970596281,0.013849187614575
1.2950000000000017,0.3590055004889736,0.4612730680095813,0.0095870935812048
1.2985000000000042,0.3323735214327921,0.4868403962220463,0.0074577918937717
1.3019999999999996,0.288694911572382,0.5134723752782278,0.0095870935812048
1.305500000000002,0.2535404897787122,0.5379750526469761,0.0127827914416064
1.3090000000000046,0.2077325782308691,0.5678027295635593,0.0127827914416064
1.3125,0.1757738542976009,0.586978662055221,0.0149138384582915
1.3160000000000025,0.1310323389227262,0.6072192453905992,0.0117181405978899
1.319500000000005,0.1022693128498597,0.6221330838488908,0.0106534897541733
1.3230000000000004,0.0703088435873395,0.6359822714634658,0.0085224427374883
1.326500000000003,0.0490036094082447,0.644504714200954,0.0085224427374883
1.3300000000000054,0.0245026773687483,0.6477004120613556,0.0085224427374883
1.3335000000000008,0.0117181405978899,0.6572875056425604,0.0106534897541733
1.3370000000000033,0.0010646508437165,0.6562228547988439,0.0170448854749766
1.3405000000000058,-0.002131047016685,0.6562228547988439,0.0255673282124649
1.3440000000000012,-0.002131047016685,0.6519625060947258,0.0319587239332681
1.3475000000000037,-0.0085224427374883,0.6466357612176391,0.0404811666707564
1.3510000000000062,-0.002131047016685,0.6253287817092923,0.0436768645311581
1.3545000000000016,-0.0053267448770866,0.6136106411114024,0.0490036094082447
1.358000000000004,0.0,0.586978662055221,0.0575260521457331
1.3615000000000066,0.002131047016685,0.5731294744406459,0.0671131457269379
1.365000000000002,0.0106534897541733,0.5486285424011496,0.083093380358198
1.3685000000000045,0.0170448854749766,0.5230612141886847,0.0884201252352847
1.372,0.0340897709499532,0.4942981881158181,0.1054650107102613
1.3755000000000024,0.0404811666707564,0.4687308599033531,0.1193124529955843
1.3790000000000049,0.0532657034416149,0.4303807402492817,0.1289012919060412
1.3825000000000005,0.0713752397603081,0.3920288752659583,0.138488385487246
1.3860000000000028,0.0841580312019145,0.3451563128743986,0.152337573101821
1.3895000000000053,0.0948115209560879,0.3089354949077603,0.1619246666830259
1.393000000000001,0.1001382658331746,0.2503447919183106,0.1683160624038291
1.3965000000000032,0.1118564064310645,0.2066679273871525,0.1693824585767977
1.4000000000000057,0.1161167551351827,0.1597953649955928,0.1736428072809158
1.403500000000001,0.124639197872671,0.1171831513081512,0.1704471094205142
1.4070000000000036,0.1331616406101593,0.0628527970228197,0.1683160624038291
1.410500000000006,0.1416840833476476,0.0245026773687483,0.1619246666830259
1.4140000000000017,0.152337573101821,-0.0255673282124649,0.1512729222581045
1.417500000000004,0.1576643179789077,-0.0596570991624181,0.1491418752414194
1.4210000000000065,0.1619246666830259,-0.1001382658331746,0.1406194325039311
1.424500000000002,0.1672514115601126,-0.124639197872671,0.1310323389227262
1.4280000000000044,0.1672514115601126,-0.1651203645434275,0.1278348957330726
1.4314999999999998,0.1672514115601126,-0.1853609478788057,0.1214435000122694
1.4350000000000025,0.1629910628559944,-0.2162550209683574,0.1097253594143795
1.4385000000000048,0.1491418752414194,-0.2364956043037356,0.0937468701123714
1.4420000000000002,0.1299659427497577,-0.2673896773932873,0.0735062867769931
1.445500000000003,0.1054650107102613,-0.286565609884949,0.0543303542853314
1.4490000000000052,0.0703088435873395,-0.3174579376452486,0.0372854688103548
1.4525000000000006,0.0351544217936697,-0.3398295679973119,0.0223716303520633
1.456000000000003,-0.0053267448770866,-0.3685925940701784,0.0031956978604016
1.4595000000000056,-0.0426122136874415,-0.3909642244222418,-0.0106534897541733
1.463000000000001,-0.0873537290623162,-0.4154651564617382,-0.0266319790561814
1.4665000000000037,-0.1182478021518678,-0.4282496932325966,-0.0394165158270399
1.470000000000006,-0.1619246666830259,-0.43890318298677,-0.0394165158270399
1.4735000000000014,-0.1928187397725775,-0.4474238803950063,-0.0404811666707564
1.477000000000004,-0.2311688594266489,-0.4516859744283765,-0.0351544217936697
1.4805000000000064,-0.2556715367953973,-0.4538170214450616,-0.0255673282124649
1.4840000000000018,-0.2918906094327836,-0.452750625272093,-0.0255673282124649
1.4875000000000045,-0.316393286801532,-0.4623394641825499,-0.0191759324916617
1.4909999999999997,-0.3387649171535954,-0.4719265577637547,-0.013849187614575
1.4945000000000022,-0.3568744534722885,-0.480449000501243,-0.0074577918937717
1.4980000000000049,-0.3632658491930918,-0.4932317919428495,-0.0095870935812048
1.5015,-0.3611348021764067,-0.5092120265741096,-0.0149138384582915
1.5050000000000026,-0.3451563128743986,-0.5156034222949128,-0.0127827914416064
1.508500000000005,-0.314262239784847,-0.517734469311598,-0.0223716303520633
1.5120000000000005,-0.2823035158515788,-0.517734469311598,-0.029827676916583
1.515500000000003,-0.2354309534600191,-0.5219948180157161,-0.0404811666707564
1.5190000000000057,-0.191754088928861,-0.517734469311598,-0.0490036094082447
1.5225000000000009,-0.1320969897664428,-0.5145387714511963,-0.0639174478665363
1.5260000000000034,-0.0884201252352847,-0.508147375730393,-0.0713752397603081
1.529500000000006,-0.0330233747769847,-0.4974938859762197,-0.0862890782185996
1.5330000000000013,0.0085224427374883,-0.4889714432387313,-0.0916158230956863
1.5365000000000038,0.0660484948832214,-0.4751222556241564,-0.0980072188164895
1.5400000000000065,0.1033339636935762,-0.4634041150262664,-0.1001382658331746
1.5435000000000016,0.1555332709622227,-0.43890318298677,-0.1075943123976944
1.547000000000004,0.1949497867892626,-0.4154651564617382,-0.1054650107102613
1.5504999999999995,0.2450180470412239,-0.3771150368076668,-0.1033339636935762
1.554000000000002,0.2791078179911772,-0.3472873598910836,-0.1054650107102613
1.5575000000000043,0.316393286801532,-0.2918906094327836,-0.1033339636935762
1.561,0.3408942188410284,-0.2428870000245388,-0.1001382658331746
1.5645000000000024,0.3622011983493752,-0.1842962970350892,-0.0937468701123714
1.568000000000005,0.3600701513326901,-0.1427504795206162,-0.0852244273748831
1.5715000000000003,0.3568744534722885,-0.096942567972773,-0.0767019846373948
1.5750000000000028,0.3472873598910836,-0.0628527970228197,-0.069244192743623
1.5785000000000051,0.3185243338182171,-0.0181095363186931,-0.0628527970228197
1.5820000000000007,0.2961527034661538,0.0127827914416064,-0.0585907029894496
1.5855000000000032,0.2535404897787122,0.0426122136874415,-0.0468725623915597
1.5890000000000055,0.219450718828759,0.0649838440395048,-0.0404811666707564
1.5925000000000011,0.1693824585767977,0.0884201252352847,-0.0319587239332681
1.5960000000000036,0.1299659427497577,0.1022693128498597,-0.0213052341790947
1.599500000000006,0.0798976824977964,0.1225098961852379,-0.013849187614575
1.6030000000000015,0.0426122136874415,0.1278348957330726,-0.002131047016685
1.606500000000004,0.0031956978604016,0.1320969897664428,0.0106534897541733
1.6100000000000063,-0.0181095363186931,0.1352926876268444,0.0234362811957798
1.613500000000002,-0.0458079115478431,0.1491418752414194,0.029827676916583
1.6170000000000044,-0.0628527970228197,0.1576643179789077,0.041545817514473
1.6204999999999998,-0.083093380358198,0.1693824585767977,0.041545817514473
1.6240000000000023,-0.0926804739394028,0.1757738542976009,0.0426122136874415
1.6275000000000048,-0.1097253594143795,0.180035948330971,0.0521993072686464
1.6310000000000002,-0.1203788491685528,0.1853609478788057,0.0585907029894496
1.6345000000000027,-0.1289012919060412,0.1896230419121759,0.0671131457269379
1.6380000000000052,-0.1352926876268444,0.1949497867892626,0.0777666354811113
1.6415000000000006,-0.136357338470561,0.2024058333537824,0.096942567972773
1.6450000000000031,-0.1257055940456395,0.2087989744038376,0.1193124529955843
1.6485000000000056,-0.1086607085706629,0.2183860679850424,0.1438151303643327
1.652000000000001,-0.0884201252352847,0.2226464166891606,0.1683160624038291
1.6555000000000035,-0.0500682602519613,0.2141239739516723,0.1949497867892626
1.659000000000006,-0.0255673282124649,0.2109282760912707,0.2141239739516723
1.6625000000000014,0.0202405833353782,0.1960144376329791,0.2364956043037356
1.666000000000004,0.0521993072686464,0.1832316461913727,0.2492801410745941
1.6695000000000064,0.0916158230956863,0.1619246666830259,0.274847469287059
1.6730000000000018,0.1139874534477496,0.138488385487246,0.2876302607286655
1.6765000000000043,0.1374237346435295,0.1235745470289545,0.316393286801532
1.6799999999999995,0.1491418752414194,0.1043986145372928,0.3323735214327921
1.6835000000000022,0.1459461773810178,0.0841580312019145,0.3526141047681703
1.6870000000000047,0.138488385487246,0.0671131457269379,0.3675279432264619
1.6905,0.1150521042914662,0.0479389585645282,0.3749839897909817
1.6940000000000026,0.0916158230956863,0.0383501196540714,0.3760503859639502
1.6975000000000051,0.0617864008498512,0.0223716303520633,0.3856374795451551
1.7010000000000003,0.0404811666707564,0.0117181405978899,0.3813771308410369
1.704500000000003,0.0074577918937717,0.0042603487041181,0.3771150368076668
1.7080000000000055,-0.0117181405978899,-0.002131047016685,0.3728546881035486
1.711500000000001,-0.0436768645311581,-0.0170448854749766,0.3632658491930918
1.7150000000000034,-0.0649838440395048,-0.0255673282124649,0.3536787556118869
1.718500000000006,-0.0894847760790012,-0.0426122136874415,0.3376985209806268
1.7220000000000013,-0.1129210572747811,-0.0468725623915597,0.3270467765557054
1.7255000000000038,-0.1235745470289545,-0.0639174478665363,0.3206536355056502
1.7290000000000063,-0.1289012919060412,-0.0703088435873395,0.3121311927681619
1.7325000000000017,-0.1203788491685528,-0.0735062867769931,0.3036087500306735
1.7360000000000042,-0.1054650107102613,-0.0724398906040246,0.2993484013265554
1.7394999999999996,-0.0671131457269379,-0.0671131457269379,0.300413052170272
1.743000000000002,-0.041545817514473,-0.0660484948832214,0.2993484013265554
1.7465000000000046,0.0255673282124649,-0.0628527970228197,0.2993484013265554
1.75,0.0735062867769931,-0.0639174478665363,0.3046751462036421
1.7535000000000025,0.1438151303643327,-0.0681795418999064,0.3036087500306735
1.757000000000005,0.2013411825100658,-0.0756355884644262,0.2961527034661538
1.7605000000000004,0.258867234655799,-0.0798976824977964,0.286565609884949
1.764000000000003,0.2961527034661538,-0.1001382658331746,0.2727164222703739
1.7675000000000054,0.3291760782431385,-0.124639197872671,0.2578025838120824
1.7710000000000008,0.3323735214327921,-0.150206526085136,0.2407576983371057
1.7745000000000033,0.3131975889411305,-0.1832316461913727,0.2205171150017275
1.7780000000000058,0.2823035158515788,-0.2098636252475541,0.2066679273871525
1.7815000000000012,0.2109282760912707,-0.2407576983371057,0.1811005991746876
1.7850000000000037,0.1427504795206162,-0.2556715367953973,0.1672514115601126
1.7885000000000062,0.0394165158270399,-0.2769767709744921,0.1448797812080492
1.7920000000000016,-0.0479389585645282,-0.286565609884949,0.1331616406101593
1.795500000000004,-0.1683160624038291,-0.3036087500306735,0.1118564064310645
1.7990000000000066,-0.2503447919183106,-0.3078708440640437,0.1033339636935762
1.802500000000002,-0.3504830577514853,-0.3121311927681619,0.0894847760790012
1.8060000000000045,-0.4165315526347067,-0.3100018910807288,0.0820287295144815
1.8095,-0.4772533026408414,-0.3089354949077603,0.0735062867769931
1.8130000000000024,-0.5113430735907947,-0.3014794483432405,0.0703088435873395
1.8165000000000049,-0.5305172607532044,-0.2993484013265554,0.0575260521457331
1.8200000000000005,-0.5273215628928027,-0.2961527034661538,0.0500682602519613
1.8235000000000028,-0.5166698184678814,-0.2812388650078622,0.0447432607041266
1.8270000000000053,-0.4985585368199362,-0.274847469287059,0.0319587239332681
1.830500000000001,-0.4559463231324946,-0.2556715367953973,0.0223716303520633
1.8340000000000032,-0.4186608543221398,-0.2450180470412239,0.0245026773687483
1.8375000000000057,-0.3632658491930918,-0.2269085107225308,0.0234362811957798
1.841000000000001,-0.3174579376452486,-0.2141239739516723,0.0191759324916617
1.844500000000004,-0.2503447919183106,-0.2002765316663493,0.0223716303520633
1.848000000000006,-0.2002765316663493,-0.1949497867892626,0.0213052341790947
1.8515000000000013,-0.1310323389227262,-0.1832316461913727,0.0213052341790947
1.855000000000004,-0.0777666354811113,-0.1832316461913727,0.0170448854749766
1.8585000000000065,-0.0117181405978899,-0.1842962970350892,0.0095870935812048
1.8620000000000017,0.0543303542853314,-0.1960144376329791,0.0010646508437165
1.8655000000000044,0.0990718696602061,-0.2045368803704674,-0.0042603487041181
1.869,0.1459461773810178,-0.2183860679850424,-0.0117181405978899
1.8725000000000025,0.1789695521580025,-0.2247774637058457,-0.0127827914416064
1.8760000000000048,0.2034722295267509,-0.2396913021641372,-0.0181095363186931
1.8795,0.2109282760912707,-0.2503447919183106,-0.0202405833353782
1.883000000000003,0.2087989744038376,-0.260998281672484,-0.0213052341790947
1.8865000000000047,0.1970790884766957,-0.2727164222703739,-0.0234362811957798
1.8900000000000008,0.1715135055934827,-0.2854992137119804,-0.029827676916583
1.893500000000003,0.1406194325039311,-0.2918906094327836,-0.0287630260728665
1.8970000000000056,0.0990718696602061,-0.2929570056057522,-0.0351544217936697
1.900500000000001,0.0639174478665363,-0.2940216564494687,-0.0351544217936697
1.9040000000000037,0.0202405833353782,-0.2897613077453506,-0.0372854688103548
1.907500000000006,-0.01598023463126,-0.2737810731140905,-0.0383501196540714
1.9110000000000011,-0.0585907029894496,-0.2514094427620272,-0.0404811666707564
1.914500000000004,-0.096942567972773,-0.2279731615662473,-0.0330233747769847
1.9180000000000064,-0.1352926876268444,-0.1928187397725775,-0.0234362811957798
1.9215000000000015,-0.1651203645434275,-0.1651203645434275,-0.0181095363186931
1.9250000000000045,-0.1960144376329791,-0.1267702448893561,-0.0095870935812048
1.9285,-0.2119946722642392,-0.1054650107102613,-0.0063913957208032
1.9320000000000024,-0.2269085107225308,-0.0713752397603081,0.0053267448770866
1.9355000000000049,-0.2237128128621291,-0.0500682602519613,0.0085224427374883
1.939,-0.2002765316663493,-0.0287630260728665,0.0149138384582915
1.9425000000000023,-0.177904901314286,-0.0127827914416064,0.0149138384582915
1.946000000000005,-0.1352926876268444,0.0031956978604016,0.0202405833353782
1.9495000000000005,-0.0958761717998045,0.013849187614575,0.0308940730895516
1.953000000000003,-0.0266319790561814,0.0245026773687483,0.0394165158270399
1.9565000000000052,0.029827676916583,0.0287630260728665,0.0479389585645282
1.9600000000000009,0.1065296615539778,0.0308940730895516,0.0543303542853314
1.9635000000000036,0.1640557136997109,0.0245026773687483,0.0649838440395048
1.9670000000000056,0.2343645572870505,0.0042603487041181,0.0703088435873395
1.9705000000000013,0.2695207244099723,-0.0085224427374883,0.0788312863248278
1.974000000000004,0.3057397970473587,-0.0330233747769847,0.0873537290623162
1.9775000000000065,0.3100018910807288,-0.0500682602519613,0.0894847760790012
1.9810000000000016,0.2940216564494687,-0.0724398906040246,0.1001382658331746
1.984500000000004,0.2705853752536888,-0.0852244273748831,0.1043986145372928
1.9879999999999995,0.2183860679850424,-0.1022693128498597,0.1054650107102613
1.991500000000002,0.1597953649955928,-0.1043986145372928,0.1086607085706629
1.9950000000000043,0.0745709376207097,-0.1065296615539778,0.1086607085706629
1.9985,-0.0063913957208032,-0.0958761717998045,0.1118564064310645
2.0020000000000024,-0.1129210572747811,-0.0798976824977964,0.110790010258096
2.005500000000005,-0.1949497867892626,-0.0543303542853314,0.1161167551351827
2.0090000000000003,-0.2950880526224372,-0.0063913957208032,0.1267702448893561
2.012500000000003,-0.355809802628572,0.0234362811957798,0.138488385487246
2.0160000000000053,-0.4101401569139035,0.0809623333415129,0.1683160624038291
2.0195000000000007,-0.4303807402492817,0.1182478021518678,0.1885583910684593
2.0230000000000032,-0.4293143440763132,0.1747092034538843,0.205601531214184
2.0265000000000057,-0.4058780628805333,0.2173214171413259,0.2247774637058457
2.030000000000001,-0.3430252658577135,0.2673896773932873,0.2375620004767041
2.033500000000004,-0.2833681666952953,0.3110665419244454,0.2428870000245388
2.037000000000006,-0.1811005991746876,0.355809802628572,0.2514094427620272
2.040500000000001,-0.0990718696602061,0.3909642244222418,0.2482137449016255
2.044000000000004,0.0170448854749766,0.4282496932325966,0.2503447919183106
2.0475000000000065,0.1012029166768912,0.4484902765679749,0.247149094057909
2.051000000000002,0.2066679273871525,0.4665998128866681,0.2375620004767041
2.0545000000000044,0.2833681666952953,0.4793843496575265,0.2279731615662473
2.058,0.3611348021764067,0.4847093492053612,0.2183860679850424
2.0615000000000023,0.4090737607409349,0.4889714432387313,0.2077325782308691
2.065000000000005,0.4612730680095813,0.4847093492053612,0.1992101354933808
2.0685,0.4836446983616446,0.4857757453783297,0.1928187397725775
2.0720000000000027,0.503885281697023,0.4751222556241564,0.1864273440517743
2.075500000000005,0.508147375730393,0.4708619069200382,0.1736428072809158
2.0790000000000006,0.508147375730393,0.4442281825346047,0.1565979218059392
2.082500000000003,0.4879067923950148,0.4186608543221398,0.1427504795206162
2.0860000000000056,0.452750625272093,0.3856374795451551,0.1331616406101593
2.089500000000001,0.4207919013388249,0.3536787556118869,0.1225098961852379
2.0930000000000035,0.3653968962097769,0.3217200316786187,0.1139874534477496
2.096500000000006,0.3238510786953038,0.2982837504828389,0.096942567972773
2.1000000000000014,0.2620629325162006,0.2791078179911772,0.0926804739394028
2.103500000000004,0.2226464166891606,0.2716500260974054,0.0820287295144815
2.1070000000000064,0.1736428072809158,0.2631275833599171,0.0809623333415129
2.110500000000002,0.1438151303643327,0.2673896773932873,0.0841580312019145
2.1140000000000043,0.1182478021518678,0.2769767709744921,0.0862890782185996
2.1175,0.1043986145372928,0.2844345628682639,0.0937468701123714
2.121000000000002,0.1012029166768912,0.3014794483432405,0.1118564064310645
2.1245000000000047,0.1129210572747811,0.3185243338182171,0.1267702448893561
2.128,0.1374237346435295,0.3355692192931938,0.1597953649955928
2.1315000000000026,0.1683160624038291,0.3430252658577135,0.1811005991746876
2.135000000000005,0.2141239739516723,0.3526141047681703,0.205601531214184
2.1385000000000005,0.2482137449016255,0.3547434064556034,0.2215817658454441
2.142000000000003,0.2908259585890671,0.3462209637181151,0.2482137449016255
2.145500000000005,0.3110665419244454,0.3440916620306821,0.2620629325162006
2.149000000000001,0.3302424744161071,0.3270467765557054,0.2737810731140905
2.1525000000000034,0.3323735214327921,0.3174579376452486,0.2823035158515788
2.156000000000006,0.3249157295390203,0.2876302607286655,0.2972173543098703
2.1595000000000013,0.3046751462036421,0.2663250265495707,0.300413052170272
2.163000000000004,0.2673896773932873,0.2343645572870505,0.3046751462036421
2.1665000000000063,0.2290395577392158,0.205601531214184,0.3036087500306735
2.1700000000000017,0.1693824585767977,0.1725781564371993,0.2972173543098703
2.173500000000004,0.1171831513081512,0.1448797812080492,0.2961527034661538
2.177,0.041545817514473,0.1097253594143795,0.286565609884949
2.180500000000002,-0.013849187614575,0.0862890782185996,0.2716500260974054
2.1840000000000046,-0.0894847760790012,0.0500682602519613,0.2578025838120824
2.1875,-0.152337573101821,0.0223716303520633,0.2386266513204207
2.1910000000000025,-0.2269085107225308,-0.0085224427374883,0.2183860679850424
2.194500000000005,-0.2801724688348938,-0.0245026773687483,0.2002765316663493
2.1980000000000004,-0.3462209637181151,-0.0479389585645282,0.177904901314286
2.201500000000003,-0.3845728287014385,-0.0532657034416149,0.1608600158393093
2.2050000000000054,-0.4175962034784233,-0.0575260521457331,0.1438151303643327
2.208500000000001,-0.4282496932325966,-0.0521993072686464,0.1374237346435295
2.2120000000000037,-0.4165315526347067,-0.0330233747769847,0.1225098961852379
2.215500000000006,-0.3813771308410369,-0.0170448854749766,0.110790010258096
2.219000000000001,-0.3451563128743986,0.0106534897541733,0.1043986145372928
2.222500000000004,-0.2791078179911772,0.041545817514473,0.1001382658331746
2.226000000000006,-0.2215817658454441,0.069244192743623,0.0980072188164895
2.2295000000000016,-0.1406194325039311,0.096942567972773,0.1129210572747811
2.233000000000004,-0.0703088435873395,0.1150521042914662,0.1235745470289545
2.2364999999999995,0.013849187614575,0.1438151303643327,0.1406194325039311
2.240000000000002,0.0820287295144815,0.1576643179789077,0.150206526085136
2.2435000000000045,0.1619246666830259,0.1789695521580025,0.1693824585767977
2.247,0.2087989744038376,0.1811005991746876,0.1747092034538843
2.2505000000000024,0.2631275833599171,0.1885583910684593,0.1842962970350892
2.254000000000005,0.2940216564494687,0.1938833906162941,0.1874919948954908
2.2575000000000003,0.314262239784847,0.1970790884766957,0.1970790884766957
2.261000000000003,0.3217200316786187,0.1928187397725775,0.1970790884766957
2.2645000000000053,0.3195889846619337,0.1885583910684593,0.1992101354933808
2.2680000000000007,0.3057397970473587,0.1757738542976009,0.2034722295267509
2.271500000000003,0.2833681666952953,0.152337573101821,0.2013411825100658
2.2750000000000057,0.258867234655799,0.138488385487246,0.1970790884766957
2.278500000000001,0.2183860679850424,0.1139874534477496,0.1832316461913727
2.282000000000004,0.1832316461913727,0.1054650107102613,0.1704471094205142
2.285500000000006,0.1310323389227262,0.096942567972773,0.1534022239455376
2.289000000000001,0.0905494269227178,0.0958761717998045,0.1448797812080492
2.292500000000004,0.0468725623915597,0.1033339636935762,0.1278348957330726
2.2960000000000065,0.0191759324916617,0.1139874534477496,0.1150521042914662
2.299500000000002,-0.0085224427374883,0.138488385487246,0.1001382658331746
2.3030000000000044,-0.0170448854749766,0.1640557136997109,0.0852244273748831
2.3065,-0.0213052341790947,0.1981454846496642,0.0671131457269379
2.3100000000000023,-0.0223716303520633,0.219450718828759,0.0436768645311581
2.3135000000000048,-0.0191759324916617,0.2556715367953973,0.0234362811957798
2.317,-0.0202405833353782,0.2769767709744921,0.0106534897541733
2.3205000000000027,-0.02769837522915,0.3110665419244454,-0.0031956978604016
2.324000000000005,-0.0383501196540714,0.3355692192931938,-0.0010646508437165
2.327500000000001,-0.0500682602519613,0.3643322453660603,0.0149138384582915
2.331000000000003,-0.0628527970228197,0.3803107346680683,0.0340897709499532
2.3345000000000056,-0.0745709376207097,0.4005513180034466,0.0628527970228197
2.338000000000001,-0.0798976824977964,0.4133358547743051,0.0905494269227178
2.3415000000000035,-0.0767019846373948,0.4186608543221398,0.1203788491685528
2.345000000000006,-0.0671131457269379,0.4165315526347067,0.1374237346435295
2.3485000000000014,-0.041545817514473,0.4133358547743051,0.166186760716396
2.352000000000004,-0.0170448854749766,0.4058780628805333,0.1811005991746876
2.3555000000000064,0.0213052341790947,0.4005513180034466,0.2013411825100658
2.3590000000000018,0.0564614013020165,0.3877685265618402,0.2119946722642392
2.3625000000000043,0.1097253594143795,0.3803107346680683,0.2205171150017275
2.366,0.1491418752414194,0.3728546881035486,0.2215817658454441
2.369500000000002,0.2066679273871525,0.3547434064556034,0.2162550209683574
2.3730000000000047,0.2450180470412239,0.341960615013997,0.2109282760912707
2.3765,0.2876302607286655,0.316393286801532,0.1938833906162941
2.3800000000000026,0.3185243338182171,0.3014794483432405,0.1789695521580025
2.383500000000005,0.3462209637181151,0.2791078179911772,0.1555332709622227
2.3870000000000005,0.3590055004889736,0.2652586303766022,0.1374237346435295
2.390500000000003,0.3717882919305801,0.2439533961975074,0.1086607085706629
2.394000000000005,0.369657244913895,0.2258421145495622,0.0916158230956863
2.397500000000001,0.3622011983493752,0.1992101354933808,0.0639174478665363
2.401000000000004,0.3472873598910836,0.1768385051413174,0.0404811666707564
2.404500000000006,0.316393286801532,0.1406194325039311,0.0117181405978899
2.4080000000000013,0.2908259585890671,0.1139874534477496,-0.0031956978604016
2.411500000000004,0.2482137449016255,0.0820287295144815,-0.0330233747769847
2.4150000000000063,0.2077325782308691,0.0596570991624181,-0.0436768645311581
2.4185000000000016,0.1512729222581045,0.0330233747769847,-0.0649838440395048
2.422000000000004,0.1043986145372928,0.0095870935812048,-0.0703088435873395
2.4254999999999995,0.0362208179666383,-0.0223716303520633,-0.0788312863248278
2.429000000000002,-0.0085224427374883,-0.0490036094082447,-0.0820287295144815
2.4325000000000045,-0.0660484948832214,-0.0873537290623162,-0.0745709376207097
2.436,-0.1033339636935762,-0.1139874534477496,-0.0745709376207097
2.4395000000000024,-0.1406194325039311,-0.1555332709622227,-0.0617864008498512
2.443000000000005,-0.1629910628559944,-0.1789695521580025,-0.0490036094082447
2.4465000000000003,-0.1821652500184041,-0.2279731615662473,-0.0372854688103548
2.450000000000003,-0.1874919948954908,-0.2567361876391139,-0.0255673282124649
2.4535000000000053,-0.1960144376329791,-0.3068061932203272,-0.0127827914416064
2.4570000000000007,-0.2013411825100658,-0.3355692192931938,-0.0053267448770866
2.4605000000000032,-0.2141239739516723,-0.3707236410868635,0.0031956978604016
2.4640000000000057,-0.2269085107225308,-0.4016177141764152,0.0053267448770866
2.467500000000001,-0.2460844432141925,-0.4293143440763132,0.0117181405978899
2.471000000000004,-0.2673896773932873,-0.4484902765679749,0.0149138384582915
2.474500000000006,-0.2908259585890671,-0.480449000501243,0.0181095363186931
2.478000000000001,-0.3100018910807288,-0.492167141099133,0.01598023463126
2.481500000000004,-0.3345028231202252,-0.5070809795574245,0.0127827914416064
2.4850000000000065,-0.3472873598910836,-0.5241258650324012,0.0
2.488500000000002,-0.3579391043160051,-0.5273215628928027,-0.0191759324916617
2.4920000000000044,-0.3526141047681703,-0.5315836569261729,-0.0330233747769847
2.4955,-0.341960615013997,-0.5379750526469761,-0.0649838440395048
2.4990000000000023,-0.3259803803827369,-0.5347793547865746,-0.0852244273748831
2.502500000000005,-0.2918906094327836,-0.5326483077698895,-0.1182478021518678
2.506,-0.2546051406224288,-0.5230612141886847,-0.1470108282247343
2.5095000000000027,-0.2013411825100658,-0.5145387714511963,-0.180035948330971
2.513000000000005,-0.1597953649955928,-0.4974938859762197,-0.2109282760912707
2.5165000000000006,-0.1139874534477496,-0.4751222556241564,-0.2482137449016255
2.520000000000003,-0.0809623333415129,-0.4570127193054631,-0.274847469287059
2.5235000000000056,-0.0394165158270399,-0.4239875991992265,-0.302544099186957
2.527000000000001,-0.013849187614575,-0.3941599222826434,-0.3100018910807288
2.5305000000000035,0.0181095363186931,-0.3504830577514853,-0.3174579376452486
2.534000000000006,0.0458079115478431,-0.3249157295390203,-0.3153286359578155
2.5375000000000014,0.0862890782185996,-0.2823035158515788,-0.3078708440640437
2.541000000000004,0.1182478021518678,-0.2492801410745941,-0.2982837504828389
2.5445000000000064,0.1672514115601126,-0.2119946722642392,-0.2897613077453506
2.548000000000002,0.1960144376329791,-0.1949497867892626,-0.2844345628682639
2.5515000000000043,0.2354309534600191,-0.1768385051413174,-0.2727164222703739
2.555,0.2556715367953973,-0.1651203645434275,-0.2631275833599171
2.558500000000002,0.2727164222703739,-0.1534022239455376,-0.2450180470412239
2.5620000000000047,0.2759121201307756,-0.152337573101821,-0.2311688594266489
2.5655,0.2684543282370038,-0.1491418752414194,-0.2162550209683574
2.5690000000000026,0.258867234655799,-0.1470108282247343,-0.2066679273871525
2.572500000000005,0.2343645572870505,-0.1427504795206162,-0.191754088928861
2.5760000000000005,0.1928187397725775,-0.1491418752414194,-0.1906876927558924
2.579500000000003,0.166186760716396,-0.1459461773810178,-0.1970790884766957
2.583000000000005,0.1182478021518678,-0.1470108282247343,-0.205601531214184
2.586500000000001,0.0756355884644262,-0.1470108282247343,-0.2247774637058457
2.5900000000000034,0.029827676916583,-0.1470108282247343,-0.247149094057909
2.593500000000006,0.0,-0.1374237346435295,-0.274847469287059
2.5970000000000013,-0.0362208179666383,-0.1374237346435295,-0.3078708440640437
2.600500000000004,-0.0479389585645282,-0.1310323389227262,-0.3323735214327921
2.6040000000000063,-0.0585907029894496,-0.1214435000122694,-0.3664615470534934
2.6075000000000017,-0.0500682602519613,-0.1065296615539778,-0.397355620143045
2.611000000000004,-0.0255673282124649,-0.0852244273748831,-0.4410324846742031
2.6145,0.0010646508437165,-0.0703088435873395,-0.4772533026408414
2.618000000000002,0.0543303542853314,-0.0490036094082447,-0.5273215628928027
2.6215000000000046,0.0958761717998045,-0.0351544217936697,-0.5688691257365278
2.625,0.1597953649955928,-0.0245026773687483,-0.614677037284371
2.6285000000000025,0.2141239739516723,-0.0106534897541733,-0.644504714200954
2.632000000000005,0.2961527034661538,0.0053267448770866,-0.670072042413419
2.6355000000000004,0.3653968962097769,0.0266319790561814,-0.6796591359946239
2.639000000000003,0.4697955107470696,0.0447432607041266,-0.6785944851509074
2.6425000000000054,0.5603466829990394,0.0639174478665363,-0.6658099483800488
2.646000000000001,0.6913772765925138,0.0841580312019145,-0.6402426201675839
2.6495000000000037,0.8021690321798618,0.1012029166768912,-0.6242641308655758
2.653000000000006,0.9459841625441944,0.1299659427497577,-0.5976321518093943
2.656500000000001,1.0525138240981724,0.1480754790684509,-0.5805872663344177
2.660000000000004,1.17821767281456,0.177904901314286,-0.5539552872782363
2.663500000000006,1.2495929125748682,0.1992101354933808,-0.5401060996636612
2.6670000000000016,1.3209681523351764,0.2183860679850424,-0.5187991201553145
2.670500000000004,1.3465354805476413,0.2258421145495622,-0.5017542346803379
2.6739999999999995,1.3316216420893496,0.2215817658454441,-0.4868403962220463
2.677500000000002,1.284747334368538,0.2098636252475541,-0.4665998128866681
2.6810000000000045,1.173957324110442,0.1768385051413174,-0.4495549274116914
2.6845,1.0503827770814873,0.1565979218059392,-0.4303807402492817
2.6880000000000024,0.8660864800463982,0.1257055940456395,-0.4080091098972184
2.691500000000005,0.7041618133633722,0.1033339636935762,-0.3909642244222418
2.6950000000000003,0.480449000501243,0.0767019846373948,-0.3717882919305801
2.698500000000003,0.3153286359578155,0.0681795418999064,-0.3472873598910836
2.7020000000000053,0.1086607085706629,0.0596570991624181,-0.3281114273994219
2.7055000000000007,-0.0266319790561814,0.0564614013020165,-0.3110665419244454
2.709000000000003,-0.1757738542976009,0.0617864008498512,-0.2940216564494687
2.7125000000000057,-0.2620629325162006,0.0628527970228197,-0.2940216564494687
2.716000000000001,-0.3323735214327921,0.0660484948832214,-0.2940216564494687
2.719500000000004,-0.3579391043160051,0.0671131457269379,-0.2929570056057522
2.723000000000006,-0.3579391043160051,0.0777666354811113,-0.2993484013265554
2.726500000000001,-0.3387649171535954,0.0884201252352847,-0.3036087500306735
2.730000000000004,-0.2993484013265554,0.110790010258096,-0.2993484013265554
2.7335000000000065,-0.2556715367953973,0.1352926876268444,-0.2897613077453506
2.737000000000002,-0.1896230419121759,0.1683160624038291,-0.274847469287059
2.7405000000000044,-0.1406194325039311,0.1864273440517743,-0.2535404897787122
2.744,-0.0639174478665363,0.2173214171413259,-0.2183860679850424
2.7475000000000023,-0.01598023463126,0.2301042085829324,-0.1874919948954908
2.7510000000000048,0.0500682602519613,0.2460844432141925,-0.1555332709622227
2.7545,0.0937468701123714,0.258867234655799,-0.1310323389227262
2.7580000000000027,0.1491418752414194,0.2705853752536888,-0.1033339636935762
2.761500000000005,0.1864273440517743,0.274847469287059,-0.0916158230956863
2.765000000000001,0.2162550209683574,0.274847469287059,-0.0788312863248278
2.768500000000003,0.2375620004767041,0.2727164222703739,-0.0756355884644262
2.7720000000000056,0.2503447919183106,0.2599318854995155,-0.0788312863248278
2.775500000000001,0.2492801410745941,0.2450180470412239,-0.083093380358198
2.7790000000000035,0.2428870000245388,0.2279731615662473,-0.1012029166768912
2.782500000000006,0.2301042085829324,0.2087989744038376,-0.1086607085706629
2.7860000000000014,0.2045368803704674,0.1811005991746876,-0.1235745470289545
2.789500000000004,0.1874919948954908,0.1576643179789077,-0.1320969897664428
2.7930000000000064,0.1640557136997109,0.1342280367831279,-0.1406194325039311
2.7965000000000018,0.1438151303643327,0.1139874534477496,-0.152337573101821
2.8000000000000043,0.110790010258096,0.0852244273748831,-0.1683160624038291
2.8035,0.0745709376207097,0.0585907029894496,-0.1811005991746876
2.807000000000002,0.01598023463126,0.0255673282124649,-0.1928187397725775
2.8105000000000047,-0.0351544217936697,-0.0063913957208032,-0.2002765316663493
2.814,-0.1257055940456395,-0.0394165158270399,-0.2098636252475541
2.8175000000000026,-0.1960144376329791,-0.0628527970228197,-0.2226464166891606
2.821000000000005,-0.2972173543098703,-0.0894847760790012,-0.233299906443334
2.8245000000000005,-0.3717882919305801,-0.1097253594143795,-0.2375620004767041
2.828000000000003,-0.4687308599033531,-0.1235745470289545,-0.2546051406224288
2.831500000000005,-0.533712958613606,-0.1299659427497577,-0.260998281672484
2.835000000000001,-0.602958896686481,-0.1438151303643327,-0.2684543282370038
2.838500000000004,-0.6434400633572375,-0.1480754790684509,-0.2769767709744921
2.842000000000006,-0.6903126257487973,-0.1491418752414194,-0.2791078179911772
2.8455000000000013,-0.7148135577882937,-0.1459461773810178,-0.2759121201307756
2.849000000000004,-0.7329248394362388,-0.1448797812080492,-0.258867234655799
2.8525000000000063,-0.7286627454028686,-0.1395530363309626,-0.2418223491808223
2.8560000000000016,-0.709488558240459,-0.1278348957330726,-0.2045368803704674
2.859500000000004,-0.6764634381342222,-0.1139874534477496,-0.1789695521580025
2.8629999999999995,-0.6072192453905992,-0.1012029166768912,-0.1320969897664428
2.866500000000002,-0.533712958613606,-0.0916158230956863,-0.1033339636935762
2.8700000000000045,-0.425053995372195,-0.0916158230956863,-0.0639174478665363
2.8735,-0.3334381722765087,-0.096942567972773,-0.0404811666707564
2.8770000000000024,-0.2098636252475541,-0.1065296615539778,-0.0213052341790947
2.880500000000005,-0.1267702448893561,-0.1182478021518678,-0.0117181405978899
2.8840000000000003,-0.0351544217936697,-0.1438151303643327,-0.0149138384582915
2.887500000000003,0.0095870935812048,-0.1619246666830259,-0.0181095363186931
2.8910000000000053,0.055395005129048,-0.1938833906162941,-0.029827676916583
2.8945000000000007,0.0777666354811113,-0.2215817658454441,-0.0426122136874415
2.8980000000000032,0.0852244273748831,-0.2673896773932873,-0.0575260521457331
2.9015000000000057,0.0926804739394028,-0.300413052170272,-0.0724398906040246
2.905000000000001,0.1065296615539778,-0.3430252658577135,-0.0958761717998045
2.908500000000004,0.1150521042914662,-0.3792460838243518,-0.1139874534477496
2.912000000000006,0.1320969897664428,-0.4207919013388249,-0.1438151303643327
2.915500000000001,0.1416840833476476,-0.4538170214450616,-0.1683160624038291
2.919000000000004,0.1470108282247343,-0.4857757453783297,-0.2034722295267509
2.9225000000000065,0.1395530363309626,-0.5060163287137079,-0.2460844432141925
2.926000000000002,0.1065296615539778,-0.519865516328283,-0.2833681666952953
2.9295000000000044,0.0703088435873395,-0.5294526099094878,-0.3195889846619337
2.933,-0.0010646508437165,-0.5358440056302911,-0.3536787556118869
2.9365000000000023,-0.0958761717998045,-0.5358440056302911,-0.3803107346680683
2.940000000000005,-0.1683160624038291,-0.5273215628928027,-0.4005513180034466
2.9435,-0.2663250265495707,-0.5113430735907947,-0.4207919013388249
2.9470000000000027,-0.3281114273994219,-0.4868403962220463,-0.4218582975117934
2.950500000000005,-0.4037470158638482,-0.4516859744283765,-0.4218582975117934
2.9540000000000006,-0.43890318298677,-0.4175962034784233,-0.4144005056180216
2.957500000000003,-0.4665998128866681,-0.3664615470534934,-0.4080091098972184
2.9610000000000056,-0.4751222556241564,-0.3281114273994219,-0.4058780628805333
2.964500000000001,-0.4623394641825499,-0.2705853752536888,-0.4058780628805333
2.9680000000000035,-0.4399678338304866,-0.2269085107225308,-0.4090737607409349
2.971500000000006,-0.4133358547743051,-0.1757738542976009,-0.41120480775762
2.9750000000000014,-0.3877685265618402,-0.1320969897664428,-0.4048134120368167
2.978500000000004,-0.3440916620306821,-0.083093380358198,-0.4058780628805333
2.9820000000000064,-0.314262239784847,-0.0404811666707564,-0.3984202709867616
2.985500000000002,-0.2695207244099723,0.0031956978604016,-0.3898978282492732
2.9890000000000043,-0.233299906443334,0.0362208179666383,-0.3845728287014385
2.9925,-0.1896230419121759,0.0713752397603081,-0.369657244913895
2.996000000000002,-0.1629910628559944,0.0990718696602061,-0.3707236410868635
2.9995000000000047,-0.1171831513081512,0.1193124529955843,-0.3728546881035486
3.003,-0.0884201252352847,0.136357338470561,-0.3813771308410369
3.0065000000000026,-0.0617864008498512,0.1416840833476476,-0.3930952714389268
3.010000000000005,-0.041545817514473,0.1406194325039311,-0.3984202709867616
3.0135000000000005,-0.0266319790561814,0.1320969897664428,-0.4197272504951083
3.017000000000003,-0.0223716303520633,0.124639197872671,-0.4314453910929982
3.020500000000005,-0.0319587239332681,0.1129210572747811,-0.4474238803950063
3.024000000000001,-0.0447432607041266,0.1033339636935762,-0.452750625272093
3.0275000000000034,-0.0681795418999064,0.0916158230956863,-0.464468765869983
3.031000000000006,-0.0916158230956863,0.0788312863248278,-0.4655351620429515
3.0345000000000013,-0.1225098961852379,0.0628527970228197,-0.4634041150262664
3.038000000000004,-0.1448797812080492,0.0532657034416149,-0.4570127193054631
3.0415000000000063,-0.1789695521580025,0.0372854688103548,-0.4495549274116914
3.0450000000000017,-0.205601531214184,0.01598023463126,-0.4495549274116914
3.048500000000004,-0.2482137449016255,-0.0117181405978899,-0.4506213235846599
3.052,-0.2791078179911772,-0.0436768645311581,-0.4516859744283765
3.055500000000002,-0.316393286801532,-0.0809623333415129,-0.4420988808471717
3.0590000000000046,-0.3536787556118869,-0.1118564064310645,-0.4378367868138015
3.0625,-0.4058780628805333,-0.1491418752414194,-0.4207919013388249
3.0660000000000025,-0.4442281825346047,-0.1747092034538843,-0.3994866671597301
3.069500000000005,-0.4868403962220463,-0.2002765316663493,-0.3536787556118869
3.0730000000000004,-0.5145387714511963,-0.2098636252475541,-0.3121311927681619
3.076500000000003,-0.5464974953844645,-0.2205171150017275,-0.2567361876391139
3.0800000000000054,-0.5603466829990394,-0.2205171150017275,-0.2087989744038376
3.083500000000001,-0.5784562193177326,-0.219450718828759,-0.1395530363309626
3.0870000000000037,-0.5741958706136145,-0.2151903701246408,-0.0809623333415129
3.090500000000006,-0.5646070317031576,-0.2098636252475541,-0.0127827914416064
3.094000000000001,-0.5507578440885826,-0.1981454846496642,0.0426122136874415
3.097500000000004,-0.5273215628928027,-0.1811005991746876,0.110790010258096
3.101000000000006,-0.5017542346803379,-0.1651203645434275,0.1597953649955928
3.1045000000000016,-0.4665998128866681,-0.152337573101821,0.2119946722642392
3.108000000000004,-0.4431635316908882,-0.1331616406101593,0.2439533961975074
3.1114999999999995,-0.425053995372195,-0.1182478021518678,0.2737810731140905
3.115000000000002,-0.425053995372195,-0.1012029166768912,0.2897613077453506
3.1185000000000045,-0.4378367868138015,-0.0841580312019145,0.3057397970473587
3.122,-0.4580773701491797,-0.0756355884644262,0.3206536355056502
3.1255000000000024,-0.4974938859762197,-0.0628527970228197,0.3313071252598236
3.129000000000005,-0.5294526099094878,-0.0521993072686464,0.3462209637181151
3.1325000000000003,-0.5678027295635593,-0.041545817514473,0.3643322453660603
3.136000000000003,-0.5891097090719061,-0.029827676916583,0.3749839897909817
3.1395000000000053,-0.5997614534968274,-0.0213052341790947,0.3803107346680683
3.1430000000000007,-0.5955011047927092,-0.013849187614575,0.3813771308410369
3.146500000000003,-0.5709984274239609,-0.0149138384582915,0.3739193389472651
3.1500000000000057,-0.5454328445407479,-0.0202405833353782,0.3685925940701784
3.153500000000001,-0.5070809795574245,-0.029827676916583,0.3472873598910836
3.157000000000004,-0.4729912086074713,-0.0436768645311581,0.3355692192931938
3.160500000000006,-0.4431635316908882,-0.0596570991624181,0.3195889846619337
3.164000000000001,-0.425053995372195,-0.0660484948832214,0.3014794483432405
3.167500000000004,-0.4090737607409349,-0.0756355884644262,0.2823035158515788
3.1710000000000065,-0.4026823650201317,-0.0767019846373948,0.2833681666952953
3.174500000000002,-0.4005513180034466,-0.0724398906040246,0.2823035158515788
3.1780000000000044,-0.3984202709867616,-0.0671131457269379,0.2908259585890671
3.1815,-0.397355620143045,-0.0575260521457331,0.3036087500306735
3.1850000000000023,-0.3962909692993285,-0.0628527970228197,0.3089354949077603
3.1885000000000048,-0.4016177141764152,-0.0649838440395048,0.3110665419244454
3.192,-0.4026823650201317,-0.0639174478665363,0.3153286359578155
3.1955000000000027,-0.4186608543221398,-0.0735062867769931,0.3131975889411305
3.199000000000005,-0.4239875991992265,-0.0703088435873395,0.314262239784847
3.202500000000001,-0.4452945787075733,-0.0756355884644262,0.3131975889411305
3.206000000000003,-0.4559463231324946,-0.0798976824977964,0.3174579376452486
3.2095000000000056,-0.4548816722887781,-0.0884201252352847,0.3110665419244454
3.213000000000001,-0.4516859744283765,-0.0862890782185996,0.3100018910807288
3.2165000000000035,-0.4165315526347067,-0.0937468701123714,0.2929570056057522
3.220000000000006,-0.3739193389472651,-0.1033339636935762,0.2801724688348938
3.2235000000000014,-0.2929570056057522,-0.1118564064310645,0.2503447919183106
3.227000000000004,-0.2151903701246408,-0.124639197872671,0.2215817658454441
3.2305000000000064,-0.0937468701123714,-0.1470108282247343,0.1832316461913727
3.2340000000000018,0.002131047016685,-0.1651203645434275,0.1480754790684509
3.2375000000000043,0.1416840833476476,-0.1928187397725775,0.096942567972773
3.241,0.2311688594266489,-0.2077325782308691,0.055395005129048
3.244500000000002,0.3345028231202252,-0.2322352555996175,0.002131047016685
3.2480000000000047,0.397355620143045,-0.2450180470412239,-0.0394165158270399
3.2515,0.4484902765679749,-0.2652586303766022,-0.0873537290623162
3.2550000000000026,0.4665998128866681,-0.2780431671474606,-0.1203788491685528
3.258500000000005,0.4665998128866681,-0.2897613077453506,-0.1565979218059392
3.2620000000000005,0.4559463231324946,-0.2940216564494687,-0.1821652500184041
3.265500000000003,0.4261186462159115,-0.2929570056057522,-0.2077325782308691
3.269000000000005,0.3984202709867616,-0.2929570056057522,-0.2269085107225308
3.272500000000001,0.3536787556118869,-0.2769767709744921,-0.2428870000245388
3.276000000000004,0.3206536355056502,-0.2652586303766022,-0.2524758389349957
3.279500000000006,0.2737810731140905,-0.247149094057909,-0.2524758389349957
3.2830000000000013,0.2322352555996175,-0.2343645572870505,-0.2407576983371057
3.286500000000004,0.1842962970350892,-0.2119946722642392,-0.219450718828759
3.2900000000000063,0.1491418752414194,-0.1970790884766957,-0.1896230419121759
3.2935000000000016,0.1139874534477496,-0.1736428072809158,-0.150206526085136
3.297000000000004,0.0916158230956863,-0.1480754790684509,-0.1161167551351827
3.3004999999999995,0.0777666354811113,-0.124639197872671,-0.0660484948832214
3.304000000000002,0.0703088435873395,-0.096942567972773,-0.01598023463126
3.3075000000000045,0.0756355884644262,-0.0862890782185996,0.013849187614575
3.311,0.0873537290623162,-0.0745709376207097,0.0521993072686464
3.3145000000000024,0.1065296615539778,-0.0639174478665363,0.0756355884644262
3.318000000000005,0.1257055940456395,-0.0575260521457331,0.0980072188164895
3.3215000000000003,0.1416840833476476,-0.055395005129048,0.1097253594143795
3.325000000000003,0.1576643179789077,-0.0490036094082447,0.1235745470289545
3.3285000000000053,0.1651203645434275,-0.0351544217936697,0.1182478021518678
3.3320000000000007,0.166186760716396,-0.0287630260728665,0.1171831513081512
3.3355000000000032,0.1725781564371993,-0.0117181405978899,0.1054650107102613
3.3390000000000057,0.1725781564371993,0.0063913957208032,0.0841580312019145
3.342500000000001,0.1725781564371993,0.0181095363186931,0.0649838440395048
3.346000000000004,0.1853609478788057,0.0394165158270399,0.0266319790561814
3.349500000000006,0.2002765316663493,0.0468725623915597,0.0010646508437165
3.353000000000001,0.2279731615662473,0.0649838440395048,-0.0340897709499532
3.356500000000004,0.2556715367953973,0.0724398906040246,-0.0607217500061347
3.3600000000000065,0.3057397970473587,0.0862890782185996,-0.0894847760790012
3.363500000000002,0.3398295679973119,0.1022693128498597,-0.1065296615539778
3.3670000000000044,0.3803107346680683,0.1182478021518678,-0.1257055940456395
3.3705,0.4090737607409349,0.1342280367831279,-0.1395530363309626
3.3740000000000023,0.43890318298677,0.1480754790684509,-0.1470108282247343
3.377500000000005,0.4484902765679749,0.1534022239455376,-0.152337573101821
3.381,0.452750625272093,0.1565979218059392,-0.1491418752414194
3.3845000000000027,0.452750625272093,0.1544686201185061,-0.150206526085136
3.388000000000005,0.4314453910929982,0.1470108282247343,-0.1438151303643327
3.3915000000000006,0.4058780628805333,0.1470108282247343,-0.138488385487246
3.395000000000003,0.3707236410868635,0.1448797812080492,-0.124639197872671
3.3985000000000056,0.3334381722765087,0.1534022239455376,-0.1075943123976944
3.402000000000001,0.2854992137119804,0.1555332709622227,-0.0873537290623162
3.4055000000000035,0.2524758389349957,0.1619246666830259,-0.0660484948832214
3.409000000000006,0.2066679273871525,0.1683160624038291,-0.0351544217936697
3.4125000000000014,0.1811005991746876,0.177904901314286,-0.0181095363186931
3.416000000000004,0.1587289688226243,0.1885583910684593,0.0031956978604016
3.4195000000000064,0.1459461773810178,0.1896230419121759,0.0255673282124649
3.423000000000002,0.1406194325039311,0.1938833906162941,0.0319587239332681
3.4265000000000043,0.1448797812080492,0.1992101354933808,0.0372854688103548
3.43,0.1438151303643327,0.2045368803704674,0.0436768645311581
3.433500000000002,0.1448797812080492,0.2013411825100658,0.0436768645311581
3.4370000000000047,0.138488385487246,0.1960144376329791,0.0458079115478431
3.4405,0.1289012919060412,0.1992101354933808,0.0372854688103548
3.4440000000000026,0.1097253594143795,0.1938833906162941,0.0330233747769847
3.447500000000005,0.0894847760790012,0.1949497867892626,0.0287630260728665
3.4510000000000005,0.0585907029894496,0.1928187397725775,0.0213052341790947
3.454500000000003,0.0308940730895516,0.1906876927558924,0.0245026773687483
3.458000000000005,0.0042603487041181,0.1864273440517743,0.0181095363186931
3.461500000000001,-0.0117181405978899,0.1811005991746876,0.0181095363186931
3.4650000000000034,-0.0234362811957798,0.1789695521580025,0.0117181405978899
3.468500000000006,-0.02769837522915,0.1715135055934827,0.0106534897541733
3.4720000000000013,-0.0255673282124649,0.1608600158393093,0.0
3.475500000000004,-0.0255673282124649,0.150206526085136,-0.0010646508437165
3.4790000000000063,-0.0106534897541733,0.1299659427497577,-0.0106534897541733
3.4825000000000017,-0.0010646508437165,0.1203788491685528,-0.0053267448770866
3.486000000000004,0.0095870935812048,0.1012029166768912,-0.0074577918937717
3.4895,0.0202405833353782,0.0873537290623162,-0.0063913957208032
3.493000000000002,0.0394165158270399,0.069244192743623,0.0085224427374883
3.4965000000000046,0.0543303542853314,0.0628527970228197,0.0202405833353782
3.5,0.0724398906040246,0.0458079115478431,0.0308940730895516
3.5035000000000025,0.0905494269227178,0.0351544217936697,0.0490036094082447
3.507000000000005,0.1043986145372928,0.0106534897541733,0.0649838440395048
3.5105000000000004,0.1054650107102613,-0.0149138384582915,0.0756355884644262
3.514000000000003,0.1012029166768912,-0.0404811666707564,0.0980072188164895
3.5175000000000054,0.0905494269227178,-0.0660484948832214,0.1118564064310645
3.521000000000001,0.0564614013020165,-0.0980072188164895,0.136357338470561
3.5245000000000037,0.0202405833353782,-0.1182478021518678,0.1576643179789077
3.528000000000006,-0.0255673282124649,-0.1427504795206162,0.1821652500184041
3.531500000000001,-0.0649838440395048,-0.1534022239455376,0.1949497867892626
3.535000000000004,-0.1075943123976944,-0.1608600158393093,0.2098636252475541
3.538500000000006,-0.1320969897664428,-0.1629910628559944,0.2183860679850424
3.5420000000000016,-0.1544686201185061,-0.1672514115601126,0.2226464166891606
3.545500000000004,-0.1619246666830259,-0.1608600158393093,0.2226464166891606
3.5489999999999995,-0.1683160624038291,-0.1470108282247343,0.2215817658454441
3.552500000000002,-0.166186760716396,-0.136357338470561,0.2215817658454441
3.5560000000000045,-0.1555332709622227,-0.1139874534477496,0.2141239739516723
3.5595,-0.138488385487246,-0.0905494269227178,0.2098636252475541
3.5630000000000024,-0.1214435000122694,-0.0585907029894496,0.1949497867892626
3.566500000000005,-0.1054650107102613,-0.0330233747769847,0.1832316461913727
3.5700000000000003,-0.083093380358198,-0.0031956978604016,0.1672514115601126
3.573500000000003,-0.0564614013020165,0.0191759324916617,0.1491418752414194
3.5770000000000053,-0.02769837522915,0.0458079115478431,0.1267702448893561
3.5805000000000007,0.0010646508437165,0.0703088435873395,0.1097253594143795
3.584000000000003,0.0340897709499532,0.0937468701123714,0.0788312863248278
3.5875000000000057,0.0628527970228197,0.1097253594143795,0.0575260521457331
3.591000000000001,0.0980072188164895,0.124639197872671,0.029827676916583
3.594500000000004,0.1225098961852379,0.136357338470561,0.0106534897541733
3.598000000000006,0.1491418752414194,0.152337573101821,-0.0181095363186931
3.601500000000001,0.166186760716396,0.1640557136997109,-0.0340897709499532
3.605000000000004,0.1821652500184041,0.1768385051413174,-0.0521993072686464
3.6085000000000074,0.1906876927558924,0.1874919948954908,-0.0671131457269379
3.612000000000002,0.1960144376329791,0.2013411825100658,-0.0809623333415129
3.615500000000005,0.1981454846496642,0.2130593231079557,-0.0852244273748831
3.619,0.1981454846496642,0.2269085107225308,-0.0905494269227178
3.6225000000000014,0.1970790884766957,0.2386266513204207,-0.083093380358198
3.6260000000000048,0.2002765316663493,0.2556715367953973,-0.0713752397603081
3.6295,0.2013411825100658,0.2663250265495707,-0.0596570991624181
3.6330000000000022,0.2077325782308691,0.2780431671474606,-0.0426122136874415
3.636500000000005,0.2087989744038376,0.2876302607286655,-0.0330233747769847
3.640000000000001,0.2183860679850424,0.2982837504828389,-0.0170448854749766
3.643500000000003,0.2183860679850424,0.3131975889411305,-0.0053267448770866
3.6470000000000056,0.2119946722642392,0.3291760782431385,0.0117181405978899
3.650500000000001,0.2013411825100658,0.3472873598910836,0.0234362811957798
3.654000000000004,0.1832316461913727,0.3771150368076668,0.0426122136874415
3.657500000000006,0.1693824585767977,0.3994866671597301,0.0596570991624181
3.661000000000002,0.138488385487246,0.4378367868138015,0.0873537290623162
3.664500000000004,0.110790010258096,0.4761869064678729,0.1086607085706629
3.6680000000000064,0.0926804739394028,0.5060163287137079,0.1225098961852379
3.6715000000000018,0.0724398906040246,0.5443664483677794,0.1289012919060412
3.675000000000004,0.0607217500061347,0.5646070317031576,0.1320969897664428
3.6785,0.0426122136874415,0.6018925005135125,0.1257055940456395
3.682000000000002,0.02769837522915,0.6242641308655758,0.1097253594143795
3.6855000000000047,-0.0010646508437165,0.6530271569384424,0.0926804739394028
3.689,-0.0191759324916617,0.6711366932571355,0.0745709376207097
3.6925000000000026,-0.0468725623915597,0.6903126257487973,0.0479389585645282
3.696000000000005,-0.0681795418999064,0.7052264642070888,0.0266319790561814
3.699500000000001,-0.1001382658331746,0.7180110009779472,0.013849187614575
3.703000000000003,-0.1129210572747811,0.7212066988383489,-0.002131047016685
3.7065000000000055,-0.1331616406101593,0.7190756518216638,-0.0181095363186931
3.710000000000001,-0.1416840833476476,0.7126842561008605,-0.0213052341790947
3.7135000000000034,-0.1438151303643327,0.6913772765925138,-0.0308940730895516
3.717000000000006,-0.1459461773810178,0.6743323911175372,-0.0340897709499532
3.720500000000001,-0.1395530363309626,0.644504714200954,-0.0383501196540714
3.724000000000004,-0.1299659427497577,0.6157416881280875,-0.0372854688103548
3.7275000000000063,-0.1182478021518678,0.5805872663344177,-0.0372854688103548
3.7310000000000016,-0.1129210572747811,0.5582156359823544,-0.0223716303520633
3.734500000000004,-0.1043986145372928,0.5187991201553145,-0.0095870935812048
3.738,-0.0937468701123714,0.4985585368199362,0.0085224427374883
3.741500000000002,-0.083093380358198,0.4676662090596366,0.0383501196540714
3.745000000000005,-0.069244192743623,0.4431635316908882,0.0607217500061347
3.7485,-0.0436768645311581,0.4122694586013365,0.0937468701123714
3.7520000000000016,-0.0234362811957798,0.3888331774055567,0.1182478021518678
3.755500000000005,0.0106534897541733,0.3451563128743986,0.1427504795206162
3.759,0.0351544217936697,0.316393286801532,0.1619246666830259
3.762500000000003,0.0649838440395048,0.288694911572382,0.1789695521580025
3.766000000000005,0.0894847760790012,0.2695207244099723,0.1874919948954908
3.7695000000000007,0.1043986145372928,0.2418223491808223,0.1938833906162941
3.7730000000000032,0.1118564064310645,0.2258421145495622,0.205601531214184
3.7765000000000057,0.1065296615539778,0.2098636252475541,0.2077325782308691
3.780000000000001,0.096942567972773,0.1981454846496642,0.2077325782308691
3.783500000000004,0.0724398906040246,0.1811005991746876,0.2034722295267509
3.787000000000006,0.0479389585645282,0.1651203645434275,0.1981454846496642
3.7905000000000015,0.013849187614575,0.152337573101821,0.1864273440517743
3.794000000000004,-0.0117181405978899,0.1352926876268444,0.1811005991746876
3.797500000000007,-0.0372854688103548,0.1182478021518678,0.1704471094205142
3.801000000000002,-0.0564614013020165,0.1033339636935762,0.1619246666830259
3.804500000000005,-0.0713752397603081,0.083093380358198,0.1608600158393093
3.808,-0.0777666354811113,0.0649838440395048,0.1640557136997109
3.8115000000000014,-0.0735062867769931,0.0490036094082447,0.166186760716396
3.815000000000005,-0.0639174478665363,0.0319587239332681,0.1789695521580025
3.8185,-0.0340897709499532,0.0170448854749766,0.1864273440517743
3.8220000000000023,-0.013849187614575,-0.0010646508437165,0.2013411825100658
3.825500000000005,0.0319587239332681,-0.0245026773687483,0.2109282760912707
3.8290000000000006,0.0617864008498512,-0.041545817514473,0.2237128128621291
3.832500000000003,0.1075943123976944,-0.0639174478665363,0.2439533961975074
3.8360000000000056,0.1416840833476476,-0.0862890782185996,0.2578025838120824
3.839500000000001,0.1853609478788057,-0.1086607085706629,0.2812388650078622
3.843000000000004,0.2077325782308691,-0.1193124529955843,0.2950880526224372
3.846500000000006,0.2247774637058457,-0.1320969897664428,0.3110665419244454
3.8500000000000014,0.233299906443334,-0.1342280367831279,0.3195889846619337
3.853500000000004,0.2301042085829324,-0.1289012919060412,0.341960615013997
3.8570000000000064,0.2215817658454441,-0.1225098961852379,0.3632658491930918
3.860500000000002,0.2130593231079557,-0.110790010258096,0.3877685265618402
3.864000000000004,0.1960144376329791,-0.0990718696602061,0.4026823650201317
3.8675,0.1747092034538843,-0.0862890782185996,0.4186608543221398
3.871000000000002,0.1608600158393093,-0.0745709376207097,0.425053995372195
3.8745000000000047,0.1352926876268444,-0.0585907029894496,0.4271832970596281
3.878,0.1118564064310645,-0.0479389585645282,0.4186608543221398
3.8815000000000026,0.0798976824977964,-0.0287630260728665,0.4058780628805333
3.885000000000005,0.0521993072686464,-0.013849187614575,0.397355620143045
3.888500000000001,0.0191759324916617,0.0085224427374883,0.3781796876513833
3.892000000000003,-0.0074577918937717,0.0245026773687483,0.3685925940701784
3.8955000000000055,-0.0458079115478431,0.0468725623915597,0.3536787556118869
3.899000000000001,-0.0703088435873395,0.0660484948832214,0.3408942188410284
3.9025000000000034,-0.1065296615539778,0.0937468701123714,0.3281114273994219
3.906000000000006,-0.1235745470289545,0.1097253594143795,0.3206536355056502
3.909500000000001,-0.1406194325039311,0.1310323389227262,0.3036087500306735
3.913000000000004,-0.1459461773810178,0.1416840833476476,0.288694911572382
3.9165000000000063,-0.1459461773810178,0.150206526085136,0.274847469287059
3.9200000000000017,-0.1352926876268444,0.1555332709622227,0.2652586303766022
3.923500000000004,-0.1225098961852379,0.1587289688226243,0.2631275833599171
3.927,-0.0990718696602061,0.1629910628559944,0.2578025838120824
3.930500000000002,-0.0703088435873395,0.1555332709622227,0.2631275833599171
3.9340000000000046,-0.0490036094082447,0.1491418752414194,0.2684543282370038
3.9375,-0.0117181405978899,0.136357338470561,0.2759121201307756
3.9410000000000025,0.0127827914416064,0.1299659427497577,0.2844345628682639
3.944500000000005,0.0447432607041266,0.1171831513081512,0.3036087500306735
3.948,0.0660484948832214,0.1033339636935762,0.3185243338182171
3.951500000000003,0.0926804739394028,0.0841580312019145,0.3345028231202252
3.955000000000005,0.1118564064310645,0.0649838440395048,0.3483520107348002
3.958500000000001,0.1289012919060412,0.0447432607041266,0.369657244913895
3.9620000000000033,0.1427504795206162,0.0266319790561814,0.3749839897909817
3.965500000000006,0.1459461773810178,0.0010646508437165,0.3845728287014385
3.969000000000001,0.1438151303643327,-0.013849187614575,0.3920288752659583
3.972500000000004,0.1310323389227262,-0.0372854688103548,0.3962909692993285
3.976000000000006,0.1182478021518678,-0.0543303542853314,0.4026823650201317
3.9795000000000016,0.0980072188164895,-0.069244192743623,0.4080091098972184
3.983000000000004,0.083093380358198,-0.0798976824977964,0.4058780628805333
3.9865,0.0607217500061347,-0.0905494269227178,0.4080091098972184
3.990000000000002,0.0500682602519613,-0.1012029166768912,0.4037470158638482
3.993500000000005,0.0362208179666383,-0.1129210572747811,0.3952245731263599
3.997,0.0287630260728665,-0.1203788491685528,0.3803107346680683
4.000500000000002,0.0149138384582915,-0.1342280367831279,0.3515477085952018
4.004000000000005,0.013849187614575,-0.1427504795206162,0.3302424744161071
4.0075,0.0042603487041181,-0.1544686201185061,0.302544099186957
4.011000000000003,-0.0085224427374883,-0.1619246666830259,0.2737810731140905
4.014500000000005,-0.0245026773687483,-0.1672514115601126,0.2375620004767041
4.018000000000001,-0.041545817514473,-0.1640557136997109,0.2151903701246408
4.021500000000003,-0.069244192743623,-0.1651203645434275,0.1832316461913727
4.025000000000006,-0.1065296615539778,-0.1672514115601126,0.1544686201185061
4.028500000000001,-0.1352926876268444,-0.1715135055934827,0.138488385487246
4.032000000000004,-0.180035948330971,-0.1693824585767977,0.1150521042914662
4.035500000000006,-0.2173214171413259,-0.1725781564371993,0.1033339636935762
4.0390000000000015,-0.2524758389349957,-0.1757738542976009,0.0958761717998045
4.042500000000004,-0.2769767709744921,-0.1768385051413174,0.0948115209560879
4.046000000000007,-0.2982837504828389,-0.1811005991746876,0.096942567972773
4.049500000000002,-0.3057397970473587,-0.1842962970350892,0.1012029166768912
4.053000000000004,-0.2961527034661538,-0.1853609478788057,0.110790010258096
4.0565,-0.2854992137119804,-0.1864273440517743,0.124639197872671
4.060000000000002,-0.2599318854995155,-0.1821652500184041,0.1310323389227262
4.063500000000005,-0.2311688594266489,-0.1842962970350892,0.136357338470561
4.067,-0.1853609478788057,-0.1768385051413174,0.1448797812080492
4.070500000000003,-0.150206526085136,-0.1736428072809158,0.152337573101821
4.074000000000005,-0.0937468701123714,-0.1715135055934827,0.1544686201185061
4.077500000000001,-0.0543303542853314,-0.1683160624038291,0.1629910628559944
4.081000000000003,-0.002131047016685,-0.1715135055934827,0.1651203645434275
4.084500000000006,0.029827676916583,-0.1640557136997109,0.166186760716396
4.088000000000001,0.0649838440395048,-0.166186760716396,0.1619246666830259
4.091500000000004,0.0884201252352847,-0.1576643179789077,0.1597953649955928
4.095000000000006,0.0980072188164895,-0.1459461773810178,0.1651203645434275
4.098500000000001,0.1086607085706629,-0.1459461773810178,0.1693824585767977
4.102000000000004,0.1075943123976944,-0.1374237346435295,0.1704471094205142
4.105500000000006,0.1054650107102613,-0.1299659427497577,0.1768385051413174
4.109000000000002,0.1012029166768912,-0.1289012919060412,0.1725781564371993
4.112500000000004,0.0958761717998045,-0.1267702448893561,0.1715135055934827
4.116,0.0873537290623162,-0.1235745470289545,0.1640557136997109
4.119500000000002,0.0862890782185996,-0.124639197872671,0.1555332709622227
4.123000000000005,0.0852244273748831,-0.124639197872671,0.152337573101821
4.1265,0.0809623333415129,-0.1225098961852379,0.1448797812080492
4.130000000000003,0.0852244273748831,-0.1214435000122694,0.1331616406101593
4.133500000000005,0.0820287295144815,-0.1278348957330726,0.1235745470289545
4.1370000000000005,0.0852244273748831,-0.1225098961852379,0.1161167551351827
4.140500000000003,0.0809623333415129,-0.1203788491685528,0.1054650107102613
4.1440000000000055,0.0713752397603081,-0.1139874534477496,0.0894847760790012
4.147500000000001,0.0628527970228197,-0.1139874534477496,0.0873537290623162
4.151000000000003,0.0426122136874415,-0.1129210572747811,0.0852244273748831
4.154500000000006,0.0340897709499532,-0.1086607085706629,0.0894847760790012
4.158000000000001,0.0117181405978899,-0.1139874534477496,0.0926804739394028
4.161500000000004,-0.002131047016685,-0.1129210572747811,0.096942567972773
4.165000000000006,-0.0223716303520633,-0.1161167551351827,0.1001382658331746
4.168500000000002,-0.0372854688103548,-0.1171831513081512,0.1033339636935762
4.172000000000004,-0.0585907029894496,-0.1129210572747811,0.1001382658331746
4.1755,-0.0735062867769931,-0.1022693128498597,0.096942567972773
4.179000000000002,-0.083093380358198,-0.0798976824977964,0.1022693128498597
4.1825000000000045,-0.0862890782185996,-0.0607217500061347,0.1033339636935762
4.186,-0.0862890782185996,-0.0351544217936697,0.110790010258096
4.189500000000002,-0.0820287295144815,-0.0149138384582915,0.1171831513081512
4.193000000000005,-0.0681795418999064,0.0074577918937717,0.1235745470289545
4.1965,-0.0521993072686464,0.0234362811957798,0.1289012919060412
4.200000000000003,-0.0266319790561814,0.0447432607041266,0.1257055940456395
4.203500000000005,-0.0074577918937717,0.0575260521457331,0.1193124529955843
4.207000000000001,0.0181095363186931,0.0724398906040246,0.1182478021518678
4.210500000000003,0.0308940730895516,0.0798976824977964,0.1075943123976944
4.214000000000006,0.0436768645311581,0.0926804739394028,0.0937468701123714
4.217500000000001,0.0436768645311581,0.1001382658331746,0.0820287295144815
4.221000000000004,0.0394165158270399,0.1150521042914662,0.0681795418999064
4.224500000000006,0.0319587239332681,0.1214435000122694,0.0575260521457331
4.2280000000000015,0.0010646508437165,0.1342280367831279,0.0479389585645282
4.231500000000004,-0.01598023463126,0.138488385487246,0.0394165158270399
4.234999999999999,-0.0532657034416149,0.1480754790684509,0.0287630260728665
4.238500000000002,-0.0841580312019145,0.1470108282247343,0.0234362811957798
4.242000000000004,-0.1235745470289545,0.1480754790684509,0.01598023463126
4.2455,-0.1555332709622227,0.1491418752414194,0.013849187614575
4.249000000000002,-0.1981454846496642,0.1406194325039311,0.01598023463126
4.252500000000005,-0.2226464166891606,0.1374237346435295,0.0255673282124649
4.256,-0.2546051406224288,0.1235745470289545,0.0394165158270399
4.259500000000003,-0.2695207244099723,0.1086607085706629,0.0458079115478431
4.263000000000005,-0.2844345628682639,0.096942567972773,0.0703088435873395
4.266500000000001,-0.288694911572382,0.0852244273748831,0.0841580312019145
4.270000000000003,-0.2812388650078622,0.0681795418999064,0.1086607085706629
4.273500000000006,-0.2759121201307756,0.0521993072686464,0.1299659427497577
4.277000000000001,-0.2546051406224288,0.029827676916583,0.1374237346435295
4.280500000000004,-0.2311688594266489,0.0181095363186931,0.150206526085136
4.284000000000006,-0.1938833906162941,-0.0042603487041181,0.1576643179789077
4.287500000000001,-0.1608600158393093,-0.0223716303520633,0.1576643179789077
4.291000000000004,-0.1086607085706629,-0.0436768645311581,0.1544686201185061
4.294500000000006,-0.0681795418999064,-0.0617864008498512,0.1470108282247343
4.298000000000002,-0.0031956978604016,-0.0767019846373948,0.136357338470561
4.301500000000004,0.0394165158270399,-0.0905494269227178,0.1257055940456395
4.305,0.096942567972773,-0.1022693128498597,0.1086607085706629
4.308500000000002,0.1374237346435295,-0.1075943123976944,0.0926804739394028
4.312000000000005,0.1811005991746876,-0.1150521042914662,0.0639174478665363
4.3155,0.2119946722642392,-0.1193124529955843,0.0436768645311581
4.319000000000003,0.2386266513204207,-0.1289012919060412,0.0074577918937717
4.322500000000005,0.247149094057909,-0.1289012919060412,-0.0181095363186931
4.3260000000000005,0.2503447919183106,-0.1320969897664428,-0.0521993072686464
4.329500000000003,0.2418223491808223,-0.1320969897664428,-0.0788312863248278
4.3330000000000055,0.2183860679850424,-0.1203788491685528,-0.1022693128498597
4.336500000000001,0.1960144376329791,-0.1182478021518678,-0.1257055940456395
4.340000000000003,0.1565979218059392,-0.1054650107102613,-0.1342280367831279
4.343500000000006,0.1299659427497577,-0.096942567972773,-0.1459461773810178
4.347000000000001,0.0841580312019145,-0.0820287295144815,-0.1427504795206162
4.350500000000004,0.0585907029894496,-0.0671131457269379,-0.1427504795206162
4.354000000000006,0.0213052341790947,-0.0543303542853314,-0.136357338470561
4.357500000000002,0.0053267448770866,-0.041545817514473,-0.124639197872671
4.361000000000004,-0.0053267448770866,-0.029827676916583,-0.1075943123976944
4.3645,-0.013849187614575,-0.0106534897541733,-0.0916158230956863
4.368000000000002,-0.0042603487041181,0.0063913957208032,-0.0639174478665363
4.371500000000005,0.002131047016685,0.0191759324916617,-0.0447432607041266
4.375,0.0181095363186931,0.0426122136874415,-0.0127827914416064
4.3785000000000025,0.0340897709499532,0.0628527970228197,0.0085224427374883
4.382000000000005,0.0575260521457331,0.0745709376207097,0.0426122136874415
4.3855,0.083093380358198,0.0905494269227178,0.069244192743623
4.389000000000003,0.0958761717998045,0.0990718696602061,0.0916158230956863
4.392500000000005,0.1235745470289545,0.1022693128498597,0.1129210572747811
4.396000000000001,0.136357338470561,0.1033339636935762,0.1235745470289545
4.399500000000003,0.1480754790684509,0.1086607085706629,0.138488385487246
4.403000000000006,0.1491418752414194,0.1022693128498597,0.1427504795206162
4.406500000000001,0.1480754790684509,0.1075943123976944,0.1544686201185061
4.410000000000004,0.1438151303643327,0.1033339636935762,0.1576643179789077
4.413500000000006,0.1320969897664428,0.1043986145372928,0.1576643179789077
4.417000000000002,0.1299659427497577,0.1033339636935762,0.1619246666830259
4.420500000000004,0.1214435000122694,0.1065296615539778,0.1640557136997109
4.424,0.1171831513081512,0.1075943123976944,0.1651203645434275
4.427500000000002,0.1150521042914662,0.1054650107102613,0.1629910628559944
4.4310000000000045,0.1129210572747811,0.1012029166768912,0.1565979218059392
4.4345,0.1139874534477496,0.1033339636935762,0.1480754790684509
4.438000000000002,0.1150521042914662,0.0980072188164895,0.1406194325039311
4.441500000000005,0.1139874534477496,0.0894847760790012,0.1278348957330726
4.445,0.1022693128498597,0.0809623333415129,0.1320969897664428
4.448500000000003,0.0894847760790012,0.069244192743623,0.1289012919060412
4.452000000000005,0.0777666354811113,0.0639174478665363,0.1320969897664428
4.455500000000001,0.0585907029894496,0.055395005129048,0.1395530363309626
4.459000000000003,0.0490036094082447,0.0511346564249298,0.1491418752414194
4.462500000000006,0.0319587239332681,0.0351544217936697,0.1736428072809158
4.466000000000001,0.029827676916583,0.0223716303520633,0.1864273440517743
4.469500000000004,0.0308940730895516,0.0106534897541733,0.2066679273871525
4.473000000000006,0.0458079115478431,-0.0010646508437165,0.2226464166891606
4.4765000000000015,0.0660484948832214,-0.0191759324916617,0.2418223491808223
4.480000000000004,0.0905494269227178,-0.02769837522915,0.2535404897787122
4.483500000000007,0.1235745470289545,-0.0426122136874415,0.2641939795328856
4.487000000000002,0.1576643179789077,-0.0458079115478431,0.2716500260974054
4.490500000000004,0.1928187397725775,-0.0617864008498512,0.2769767709744921
4.494,0.2151903701246408,-0.0628527970228197,0.2801724688348938
4.497500000000002,0.2343645572870505,-0.0735062867769931,0.2844345628682639
4.501000000000005,0.2450180470412239,-0.0767019846373948,0.2876302607286655
4.5045,0.2396913021641372,-0.0841580312019145,0.2908259585890671
4.508000000000003,0.2269085107225308,-0.0884201252352847,0.2950880526224372
4.511500000000005,0.1896230419121759,-0.1012029166768912,0.2972173543098703
4.515000000000001,0.152337573101821,-0.1012029166768912,0.300413052170272
4.518500000000003,0.0926804739394028,-0.1161167551351827,0.3046751462036421
4.522000000000006,0.041545817514473,-0.1161167551351827,0.316393286801532
4.525500000000001,-0.0170448854749766,-0.1118564064310645,0.3334381722765087
4.529000000000004,-0.055395005129048,-0.1065296615539778,0.3611348021764067
4.532500000000006,-0.0894847760790012,-0.0905494269227178,0.4101401569139035
4.536000000000001,-0.0990718696602061,-0.0767019846373948,0.4431635316908882
4.539500000000004,-0.0948115209560879,-0.0596570991624181,0.4932317919428495
4.543000000000006,-0.0703088435873395,-0.0458079115478431,0.5283879590657713
4.546500000000002,-0.0245026773687483,-0.02769837522915,0.5699337765802444
4.550000000000004,0.0191759324916617,-0.0127827914416064,0.5955011047927092
4.5535,0.0798976824977964,0.0181095363186931,0.6157416881280875
4.557000000000002,0.1299659427497577,0.0372854688103548,0.6274598287259775
4.560500000000005,0.1864273440517743,0.0649838440395048,0.630655526586379
4.564,0.2215817658454441,0.0862890782185996,0.6349176206197492
4.567500000000003,0.2450180470412239,0.1097253594143795,0.6274598287259775
4.571000000000005,0.2503447919183106,0.1267702448893561,0.6221330838488908
4.5745000000000005,0.2407576983371057,0.1448797812080492,0.6114795940947174
4.578000000000003,0.2215817658454441,0.1587289688226243,0.6040235475301975
4.5815000000000055,0.177904901314286,0.1693824585767977,0.5923054069323076
4.585000000000001,0.1427504795206162,0.177904901314286,0.5848476150385359
4.588500000000003,0.0937468701123714,0.1864273440517743,0.5709984274239609
4.592000000000006,0.0564614013020165,0.1864273440517743,0.5528888911052677
4.595500000000001,0.0127827914416064,0.1896230419121759,0.5305172607532044
4.599000000000004,-0.0266319790561814,0.1864273440517743,0.508147375730393
4.602500000000006,-0.0596570991624181,0.177904901314286,0.4836446983616446
4.606000000000002,-0.0905494269227178,0.1747092034538843,0.4612730680095813
4.609500000000004,-0.1225098961852379,0.1651203645434275,0.4293143440763132
4.613,-0.1374237346435295,0.1576643179789077,0.41120480775762
4.616500000000002,-0.1576643179789077,0.1555332709622227,0.3941599222826434
4.6200000000000045,-0.1693824585767977,0.1512729222581045,0.4005513180034466
4.6235,-0.1715135055934827,0.1459461773810178,0.4101401569139035
4.627000000000002,-0.1672514115601126,0.1480754790684509,0.425053995372195
4.630500000000005,-0.1448797812080492,0.1459461773810178,0.452750625272093
4.634,-0.1257055940456395,0.1448797812080492,0.4793843496575265
4.637500000000003,-0.0767019846373948,0.1374237346435295,0.519865516328283
4.641000000000005,-0.0362208179666383,0.1267702448893561,0.5443664483677794
4.644500000000001,0.0266319790561814,0.1129210572747811,0.5741958706136145
4.648000000000003,0.0809623333415129,0.1086607085706629,0.5912390107593392
4.651500000000006,0.150206526085136,0.0937468701123714,0.5976321518093943
4.655000000000001,0.2002765316663493,0.0884201252352847,0.5933700577760241
4.658500000000004,0.2567361876391139,0.0820287295144815,0.5816519171781342
4.662000000000006,0.2982837504828389,0.0777666354811113,0.5646070317031576
4.6655000000000015,0.3376985209806268,0.0756355884644262,0.5379750526469761
4.669000000000004,0.3632658491930918,0.0767019846373948,0.5113430735907947
4.672499999999999,0.3781796876513833,0.0852244273748831,0.4697955107470696
4.676000000000002,0.3824417816847534,0.0894847760790012,0.4367721359700849
4.679500000000004,0.3760503859639502,0.096942567972773,0.3856374795451551
4.683,0.3653968962097769,0.1022693128498597,0.3547434064556034
4.686500000000002,0.3526141047681703,0.1129210572747811,0.3089354949077603
4.690000000000005,0.3345028231202252,0.1278348957330726,0.2684543282370038
4.6935,0.316393286801532,0.1395530363309626,0.2258421145495622
4.697000000000003,0.3068061932203272,0.152337573101821,0.1970790884766957
4.700500000000005,0.2929570056057522,0.1715135055934827,0.1587289688226243
4.704000000000001,0.2854992137119804,0.1789695521580025,0.1299659427497577
4.707500000000003,0.2684543282370038,0.1874919948954908,0.0916158230956863
4.711000000000006,0.2631275833599171,0.2013411825100658,0.0713752397603081
4.714500000000001,0.2460844432141925,0.205601531214184,0.0426122136874415
4.718000000000004,0.2322352555996175,0.2151903701246408,0.0287630260728665
4.721500000000006,0.2045368803704674,0.2173214171413259,0.0149138384582915
4.725000000000001,0.177904901314286,0.2215817658454441,0.0085224427374883
4.728500000000004,0.1352926876268444,0.2311688594266489,0.0042603487041181
4.732000000000006,0.0958761717998045,0.2279731615662473,0.01598023463126
4.735500000000002,0.0404811666707564,0.2269085107225308,0.0319587239332681
4.739000000000004,-0.0042603487041181,0.2247774637058457,0.0468725623915597
4.7425,-0.0564614013020165,0.2151903701246408,0.0745709376207097
4.746000000000002,-0.0905494269227178,0.2045368803704674,0.1001382658331746
4.749500000000005,-0.1289012919060412,0.1992101354933808,0.1278348957330726
4.753,-0.150206526085136,0.1853609478788057,0.1491418752414194
4.756500000000003,-0.1651203645434275,0.180035948330971,0.1608600158393093
4.760000000000005,-0.1640557136997109,0.1683160624038291,0.1725781564371993
4.7635000000000005,-0.1587289688226243,0.1608600158393093,0.1736428072809158
4.767000000000003,-0.136357338470561,0.150206526085136,0.1683160624038291
4.7705000000000055,-0.1193124529955843,0.1438151303643327,0.1619246666830259
4.774000000000001,-0.0852244273748831,0.1331616406101593,0.1427504795206162
4.777500000000003,-0.0617864008498512,0.1257055940456395,0.1278348957330726
4.781000000000006,-0.029827676916583,0.1150521042914662,0.1001382658331746
4.784500000000001,-0.0053267448770866,0.1097253594143795,0.0820287295144815
4.788000000000004,0.0117181405978899,0.1033339636935762,0.0500682602519613
4.791500000000006,0.0245026773687483,0.096942567972773,0.0330233747769847
4.795000000000002,0.0372854688103548,0.0894847760790012,0.0010646508437165
4.798500000000004,0.0383501196540714,0.0788312863248278,-0.0202405833353782
4.802,0.0319587239332681,0.0681795418999064,-0.0447432607041266
4.805500000000002,0.02769837522915,0.0575260521457331,-0.0585907029894496
4.809000000000005,0.0223716303520633,0.0436768645311581,-0.0788312863248278
4.8125,0.0127827914416064,0.0319587239332681,-0.0937468701123714
4.8160000000000025,0.0042603487041181,0.0170448854749766,-0.1075943123976944
4.819500000000005,-0.0095870935812048,0.0106534897541733,-0.1171831513081512
4.823,-0.0266319790561814,-0.0010646508437165,-0.1310323389227262
4.826500000000003,-0.0426122136874415,-0.0106534897541733,-0.1352926876268444
4.830000000000005,-0.0639174478665363,-0.0085224427374883,-0.138488385487246
4.833500000000001,-0.0798976824977964,-0.0063913957208032,-0.1342280367831279
4.837000000000003,-0.0948115209560879,-0.013849187614575,-0.1235745470289545
4.840500000000006,-0.1065296615539778,-0.0149138384582915,-0.1075943123976944
4.844000000000001,-0.1161167551351827,-0.0095870935812048,-0.0862890782185996
4.847500000000004,-0.1139874534477496,-0.0095870935812048,-0.069244192743623
4.851000000000006,-0.1022693128498597,-0.0095870935812048,-0.0511346564249298
4.854500000000002,-0.0862890782185996,-0.0042603487041181,-0.041545817514473
4.858000000000004,-0.055395005129048,-0.002131047016685,-0.0287630260728665
4.8615,-0.0319587239332681,0.0053267448770866,-0.0234362811957798
4.865000000000002,0.0,0.0074577918937717,-0.0245026773687483
4.8685000000000045,0.0234362811957798,0.0181095363186931,-0.0202405833353782
4.872,0.0468725623915597,0.0287630260728665,-0.0245026773687483
4.875500000000002,0.0575260521457331,0.0351544217936697,-0.02769837522915
4.879000000000005,0.055395005129048,0.0458079115478431,-0.0351544217936697
4.8825,0.0543303542853314,0.0564614013020165,-0.0404811666707564
4.886000000000003,0.0394165158270399,0.0639174478665363,-0.0468725623915597
4.889500000000005,0.0223716303520633,0.0767019846373948,-0.0543303542853314
4.893000000000001,-0.0074577918937717,0.0820287295144815,-0.0564614013020165
4.896500000000003,-0.0234362811957798,0.0841580312019145,-0.0607217500061347
4.900000000000006,-0.0426122136874415,0.083093380358198,-0.0628527970228197
4.903500000000001,-0.0596570991624181,0.083093380358198,-0.0649838440395048
4.907000000000004,-0.0713752397603081,0.083093380358198,-0.069244192743623
4.910500000000006,-0.0735062867769931,0.0809623333415129,-0.0671131457269379
4.9140000000000015,-0.0788312863248278,0.083093380358198,-0.0649838440395048
4.917500000000004,-0.0724398906040246,0.0756355884644262,-0.0617864008498512
4.921000000000007,-0.0607217500061347,0.0756355884644262,-0.0543303542853314
4.924500000000002,-0.0511346564249298,0.069244192743623,-0.0543303542853314
4.928000000000004,-0.0340897709499532,0.0628527970228197,-0.0511346564249298
4.9315,-0.0181095363186931,0.055395005129048,-0.0500682602519613
4.935000000000002,-0.0053267448770866,0.0479389585645282,-0.0500682602519613
4.938500000000005,0.0031956978604016,0.041545817514473,-0.0543303542853314
4.942,0.0085224427374883,0.0362208179666383,-0.0564614013020165
4.945500000000003,0.0149138384582915,0.0362208179666383,-0.0585907029894496
4.949000000000005,0.0106534897541733,0.0330233747769847,-0.0585907029894496
4.952500000000001,0.0063913957208032,0.0308940730895516,-0.0649838440395048
4.956000000000003,-0.0074577918937717,0.029827676916583,-0.0639174478665363
4.959500000000006,-0.0202405833353782,0.02769837522915,-0.0681795418999064
4.963000000000001,-0.0394165158270399,0.0245026773687483,-0.0617864008498512
4.966500000000004,-0.0511346564249298,0.0213052341790947,-0.0649838440395048
4.970000000000006,-0.0703088435873395,0.0191759324916617,-0.0713752397603081
4.973500000000001,-0.083093380358198,0.0170448854749766,-0.0745709376207097
4.977000000000004,-0.0916158230956863,0.0117181405978899,-0.0809623333415129
4.980500000000006,-0.0980072188164895,0.0063913957208032,-0.0873537290623162
4.984000000000002,-0.1043986145372928,0.0074577918937717,-0.0916158230956863
4.987500000000004,-0.1054650107102613,0.0042603487041181,-0.0958761717998045
4.991,-0.1075943123976944,0.0,-0.0916158230956863
4.994500000000002,-0.1086607085706629,0.0,-0.0905494269227178
4.998000000000005,-0.1033339636935762,-0.0063913957208032,-0.083093380358198
5.0015,-0.1054650107102613,-0.0117181405978899,-0.0745709376207097
5.005000000000003,-0.1022693128498597,-0.0149138384582915,-0.0628527970228197
5.008500000000005,-0.0926804739394028,-0.0234362811957798,-0.0532657034416149
5.0120000000000005,-0.0767019846373948,-0.0266319790561814,-0.041545817514473
5.015500000000003,-0.0564614013020165,-0.0372854688103548,-0.0308940730895516
5.0190000000000055,-0.0287630260728665,-0.0458079115478431,-0.0181095363186931
5.022500000000001,-0.0063913957208032,-0.0490036094082447,-0.0127827914416064
5.026000000000003,0.0330233747769847,-0.0575260521457331,-0.0053267448770866
5.029500000000006,0.0543303542853314,-0.0575260521457331,0.0010646508437165
5.033000000000001,0.0905494269227178,-0.069244192743623,-0.0042603487041181
5.036500000000004,0.1150521042914662,-0.0724398906040246,-0.0085224427374883
5.040000000000006,0.1470108282247343,-0.0809623333415129,-0.0127827914416064
5.043500000000002,0.1587289688226243,-0.083093380358198,-0.0181095363186931
5.047000000000004,0.1811005991746876,-0.0884201252352847,-0.0181095363186931
5.0505,0.1981454846496642,-0.0894847760790012,-0.0202405833353782
5.054000000000002,0.2119946722642392,-0.0980072188164895,-0.0202405833353782
5.0575000000000045,0.2269085107225308,-0.1065296615539778,-0.0181095363186931
5.061,0.2418223491808223,-0.1129210572747811,-0.0149138384582915
5.064500000000002,0.2535404897787122,-0.1203788491685528,-0.0095870935812048
5.068000000000005,0.2620629325162006,-0.1331616406101593,-0.0063913957208032
5.0715,0.2727164222703739,-0.138488385487246,0.0
5.075000000000003,0.2812388650078622,-0.1491418752414194,0.0
5.078500000000005,0.2812388650078622,-0.1597953649955928,0.0031956978604016
5.082000000000001,0.2791078179911772,-0.1715135055934827,0.0053267448770866
5.085500000000003,0.2695207244099723,-0.1811005991746876,0.0074577918937717
5.089000000000006,0.2546051406224288,-0.1928187397725775,0.0095870935812048
5.092500000000001,0.2343645572870505,-0.1960144376329791,0.0106534897541733
5.096000000000004,0.2002765316663493,-0.1992101354933808,0.0117181405978899
5.099500000000006,0.1651203645434275,-0.205601531214184,0.0117181405978899
5.1030000000000015,0.1374237346435295,-0.2013411825100658,0.013849187614575
5.106500000000004,0.0990718696602061,-0.1970790884766957,0.0191759324916617
5.109999999999999,0.0724398906040246,-0.191754088928861,0.0266319790561814
5.113500000000002,0.0426122136874415,-0.1768385051413174,0.0383501196540714
5.117000000000004,0.0170448854749766,-0.1640557136997109,0.0436768645311581
5.1205,-0.0042603487041181,-0.150206526085136,0.0596570991624181
5.124000000000002,-0.013849187614575,-0.1406194325039311,0.0713752397603081
5.127500000000005,-0.01598023463126,-0.1257055940456395,0.0884201252352847
5.131,-0.0106534897541733,-0.1171831513081512,0.1001382658331746
5.134500000000003,0.0053267448770866,-0.1054650107102613,0.110790010258096
5.138000000000005,0.0223716303520633,-0.0958761717998045,0.1129210572747811
5.141500000000001,0.0468725623915597,-0.0862890782185996,0.1129210572747811
5.145000000000003,0.0724398906040246,-0.0788312863248278,0.1139874534477496
5.148500000000006,0.0980072188164895,-0.0756355884644262,0.0990718696602061
5.152000000000001,0.1225098961852379,-0.0703088435873395,0.0937468701123714
5.155500000000004,0.1480754790684509,-0.0628527970228197,0.0777666354811113
5.159000000000006,0.1629910628559944,-0.0596570991624181,0.0617864008498512
5.162500000000001,0.1715135055934827,-0.0532657034416149,0.0436768645311581
5.166000000000004,0.1789695521580025,-0.0500682602519613,0.0255673282124649
5.169500000000006,0.177904901314286,-0.0426122136874415,0.0117181405978899
5.173000000000002,0.180035948330971,-0.0383501196540714,-0.0063913957208032
5.176500000000004,0.1757738542976009,-0.0308940730895516,-0.01598023463126
5.18,0.1693824585767977,-0.0170448854749766,-0.02769837522915
5.183500000000002,0.1683160624038291,-0.0085224427374883,-0.0394165158270399
5.187000000000005,0.1608600158393093,-0.0095870935812048,-0.0468725623915597
5.1905,0.1565979218059392,-0.0010646508437165,-0.0617864008498512
5.194000000000003,0.1534022239455376,-0.0010646508437165,-0.069244192743623
5.197500000000005,0.1555332709622227,0.0031956978604016,-0.0809623333415129
5.2010000000000005,0.1597953649955928,0.0042603487041181,-0.0894847760790012
5.204500000000003,0.1693824585767977,0.0042603487041181,-0.1022693128498597
5.2080000000000055,0.1747092034538843,0.0053267448770866,-0.1054650107102613
5.211500000000001,0.180035948330971,0.0095870935812048,-0.1171831513081512
5.215000000000003,0.1864273440517743,0.0117181405978899,-0.1182478021518678
5.218500000000006,0.191754088928861,0.01598023463126,-0.124639197872671
5.222000000000001,0.1906876927558924,0.0170448854749766,-0.1289012919060412
5.225500000000004,0.1874919948954908,0.0149138384582915,-0.1289012919060412
5.229000000000006,0.1842962970350892,0.0149138384582915,-0.1342280367831279
5.232500000000002,0.1736428072809158,0.0095870935812048,-0.1395530363309626
5.236000000000004,0.166186760716396,0.0127827914416064,-0.1406194325039311
5.2395,0.1534022239455376,0.013849187614575,-0.1480754790684509
5.243000000000002,0.1416840833476476,0.0117181405978899,-0.150206526085136
5.246500000000005,0.1342280367831279,0.0106534897541733,-0.1576643179789077
5.25,0.1235745470289545,0.0095870935812048,-0.1576643179789077
5.2535000000000025,0.1097253594143795,0.0106534897541733,-0.1672514115601126
5.257000000000005,0.1033339636935762,0.0127827914416064,-0.1736428072809158
5.2605,0.0905494269227178,0.0117181405978899,-0.177904901314286
5.264000000000003,0.0862890782185996,0.0106534897541733,-0.1811005991746876
5.267500000000005,0.069244192743623,0.0127827914416064,-0.1874919948954908
5.271000000000001,0.0617864008498512,0.0117181405978899,-0.191754088928861
5.274500000000003,0.0458079115478431,0.0127827914416064,-0.1949497867892626
5.278000000000006,0.0372854688103548,0.0106534897541733,-0.2045368803704674
5.281500000000001,0.0191759324916617,0.0074577918937717,-0.2066679273871525
5.285000000000004,0.0053267448770866,0.0063913957208032,-0.2162550209683574
5.288500000000006,-0.0053267448770866,0.0095870935812048,-0.2183860679850424
5.292000000000002,-0.01598023463126,0.0106534897541733,-0.2237128128621291
5.295500000000004,-0.0255673282124649,0.0127827914416064,-0.2279731615662473
5.299,-0.0255673282124649,0.0149138384582915,-0.2290395577392158
5.302500000000002,-0.0287630260728665,0.0223716303520633,-0.2290395577392158
5.3060000000000045,-0.0245026773687483,0.0255673282124649,-0.2258421145495622
5.3095,-0.0181095363186931,0.0319587239332681,-0.2183860679850424
5.313000000000002,-0.0095870935812048,0.0404811666707564,-0.2077325782308691
5.316500000000005,-0.0074577918937717,0.0436768645311581,-0.1938833906162941
5.32,0.0,0.0436768645311581,-0.1789695521580025
5.323500000000003,0.0053267448770866,0.0468725623915597,-0.1608600158393093
5.327000000000005,0.013849187614575,0.0468725623915597,-0.1534022239455376
5.330500000000001,0.0170448854749766,0.0479389585645282,-0.1320969897664428
5.334000000000003,0.0255673282124649,0.0490036094082447,-0.1214435000122694
5.337500000000006,0.0308940730895516,0.0479389585645282,-0.1097253594143795
5.341000000000001,0.0351544217936697,0.0468725623915597,-0.0990718696602061
5.344500000000004,0.0479389585645282,0.0521993072686464,-0.0905494269227178
5.348000000000006,0.0575260521457331,0.0596570991624181,-0.0873537290623162
5.3515000000000015,0.0713752397603081,0.0639174478665363,-0.0820287295144815
5.355000000000004,0.0798976824977964,0.0703088435873395,-0.0777666354811113
5.358500000000007,0.0905494269227178,0.0756355884644262,-0.0798976824977964
5.362000000000002,0.0990718696602061,0.0788312863248278,-0.0862890782185996
5.365500000000004,0.1001382658331746,0.0788312863248278,-0.0926804739394028
5.369,0.1022693128498597,0.0841580312019145,-0.1033339636935762
5.372500000000002,0.096942567972773,0.0862890782185996,-0.1214435000122694
5.376000000000005,0.0884201252352847,0.0894847760790012,-0.1352926876268444
5.3795,0.0735062867769931,0.0958761717998045,-0.1544686201185061
5.383000000000003,0.0628527970228197,0.0958761717998045,-0.1683160624038291
5.386500000000005,0.0458079115478431,0.1022693128498597,-0.1832316461913727
5.390000000000001,0.0340897709499532,0.1075943123976944,-0.1981454846496642
5.393500000000003,0.0245026773687483,0.110790010258096,-0.2077325782308691
5.397000000000006,0.0202405833353782,0.1182478021518678,-0.2151903701246408
5.400500000000001,0.0117181405978899,0.1214435000122694,-0.2247774637058457
5.404000000000004,0.01598023463126,0.1225098961852379,-0.233299906443334
5.407500000000006,0.0106534897541733,0.1182478021518678,-0.2269085107225308
5.411000000000001,0.0149138384582915,0.1193124529955843,-0.2311688594266489
5.414500000000004,0.0117181405978899,0.1139874534477496,-0.233299906443334
5.418000000000006,0.0117181405978899,0.1097253594143795,-0.233299906443334
5.421500000000002,0.0095870935812048,0.1054650107102613,-0.2386266513204207
5.425000000000004,0.0085224427374883,0.1075943123976944,-0.2407576983371057
5.4285,0.0074577918937717,0.1001382658331746,-0.2386266513204207
5.432000000000002,0.0063913957208032,0.0958761717998045,-0.2428870000245388
5.435500000000005,0.0010646508437165,0.0990718696602061,-0.2482137449016255
5.439,0.0,0.0980072188164895,-0.2492801410745941
5.442500000000003,-0.0117181405978899,0.1065296615539778,-0.2535404897787122
5.446000000000005,-0.0213052341790947,0.1022693128498597,-0.2599318854995155
5.4495000000000005,-0.0362208179666383,0.1043986145372928,-0.2535404897787122
5.453000000000003,-0.0479389585645282,0.1022693128498597,-0.2546051406224288
5.4565000000000055,-0.069244192743623,0.1012029166768912,-0.2514094427620272
5.460000000000001,-0.0841580312019145,0.1022693128498597,-0.2492801410745941
5.463500000000003,-0.1043986145372928,0.0990718696602061,-0.2364956043037356
5.467000000000006,-0.1182478021518678,0.1022693128498597,-0.233299906443334
5.470500000000001,-0.1278348957330726,0.1022693128498597,-0.2258421145495622
5.474000000000004,-0.136357338470561,0.1054650107102613,-0.2151903701246408
5.477500000000006,-0.1438151303643327,0.1075943123976944,-0.2098636252475541
5.481000000000002,-0.1438151303643327,0.1043986145372928,-0.2024058333537824
5.484500000000004,-0.150206526085136,0.1097253594143795,-0.1949497867892626
5.488,-0.150206526085136,0.1075943123976944,-0.1842962970350892
5.491500000000002,-0.1512729222581045,0.1065296615539778,-0.1757738542976009
5.4950000000000045,-0.1491418752414194,0.1033339636935762,-0.166186760716396
5.4985,-0.1470108282247343,0.1001382658331746,-0.1587289688226243
5.502000000000002,-0.1395530363309626,0.0958761717998045,-0.150206526085136
5.505500000000005,-0.1352926876268444,0.0926804739394028,-0.1416840833476476
5.509,-0.1257055940456395,0.0862890782185996,-0.1320969897664428
5.512500000000003,-0.1161167551351827,0.0788312863248278,-0.1225098961852379
5.516000000000005,-0.1054650107102613,0.0649838440395048,-0.1171831513081512
5.519500000000001,-0.096942567972773,0.0575260521457331,-0.110790010258096
5.523000000000003,-0.0788312863248278,0.0458079115478431,-0.096942567972773
5.526500000000006,-0.0639174478665363,0.0383501196540714,-0.0926804739394028
5.530000000000001,-0.0436768645311581,0.0308940730895516,-0.0809623333415129
5.533500000000004,-0.0372854688103548,0.0213052341790947,-0.0777666354811113
5.537000000000006,-0.0127827914416064,0.0095870935812048,-0.069244192743623
5.5405000000000015,0.0042603487041181,0.0074577918937717,-0.0703088435873395
5.544000000000004,0.0234362811957798,0.0042603487041181,-0.0713752397603081
5.547499999999999,0.041545817514473,0.0053267448770866,-0.0756355884644262
5.551000000000002,0.0596570991624181,0.0095870935812048,-0.0873537290623162
5.554500000000004,0.0735062867769931,0.0074577918937717,-0.0990718696602061
5.558,0.0905494269227178,0.0170448854749766,-0.1139874534477496
5.561500000000002,0.1001382658331746,0.0202405833353782,-0.1278348957330726
5.565000000000005,0.1161167551351827,0.0287630260728665,-0.138488385487246
5.5685,0.1203788491685528,0.0362208179666383,-0.1470108282247343
5.572000000000003,0.1342280367831279,0.0500682602519613,-0.1480754790684509
5.575500000000005,0.1448797812080492,0.0564614013020165,-0.1587289688226243
5.579000000000001,0.1608600158393093,0.0617864008498512,-0.1629910628559944
5.582500000000003,0.1736428072809158,0.0628527970228197,-0.1693824585767977
5.586000000000006,0.1885583910684593,0.0628527970228197,-0.1747092034538843
5.589500000000001,0.2024058333537824,0.0660484948832214,-0.1821652500184041
